seq,stamp,px,py,pz,ox,oy,oz,ow,lx,ly,lz,ax,ay,az
12,1724914411045806250,-0.26175543665885925,0.1235714703798294,0.17930738627910614,-0.0003151007113046944,-0.0947878509759903,-0.28625813126564026,0.9534524083137512,0.0,0.0,0.0,0.0,0.0,0.0
14,1724914411052862923,-0.26089227199554443,0.1231597438454628,0.18009069561958313,-0.0018183609936386347,-0.09158153086900711,-0.2855077385902405,0.9539889097213745,0.0,0.0,0.0,0.0,0.0,0.0
16,1724914411095565989,-0.25969579815864563,0.12275315821170807,0.18108130991458893,-0.0004250499769113958,-0.0882108211517334,-0.2853274643421173,0.9543620347976685,0.0,0.0,0.0,0.0,0.0,0.0
18,1724914411095953029,-0.2581404745578766,0.12238674610853195,0.18175455927848816,0.0005422935937531292,-0.08394471555948257,-0.2838122546672821,0.9551982879638672,0.0,0.0,0.0,0.0,0.0,0.0
20,1724914411103088902,-0.2567252516746521,0.12194738537073135,0.182221919298172,0.00012265113764442503,-0.07890086621046066,-0.281141459941864,0.9564173817634583,0.0,0.0,0.0,0.0,0.0,0.0
22,1724914411103395008,-0.2552929222583771,0.12156182527542114,0.18311132490634918,-0.0011194517137482762,-0.07284010946750641,-0.28136077523231506,0.9568328857421875,0.0,0.0,0.0,0.0,0.0,0.0
24,1724914411103767665,-0.2534298896789551,0.12079065293073654,0.18361234664916992,0.0022849729284644127,-0.06796894967556,-0.2800287902355194,0.9575796723365784,0.0,0.0,0.0,0.0,0.0,0.0
26,1724914411112552292,-0.2516120672225952,0.1199946403503418,0.18392324447631836,0.0014904491836205125,-0.06177402287721634,-0.2802189588546753,0.9579452872276306,0.0,0.0,0.0,0.0,0.0,0.0
28,1724914411122932300,-0.249598428606987,0.1190573051571846,0.18417581915855408,0.001305435667745769,-0.056207459419965744,-0.27872365713119507,0.958724319934845,0.0,0.0,0.0,0.0,0.0,0.0
30,1724914411133342165,-0.24722689390182495,0.11816331744194031,0.1840851902961731,0.0032850985880941153,-0.05000805854797363,-0.2759637236595154,0.9598606824874878,0.0,0.0,0.0,0.0,0.0,0.0
32,1724914411142440047,-0.24479177594184875,0.11721327155828476,0.1843169629573822,0.0020236975979059935,-0.041666071861982346,-0.2746144235134125,0.9606491327285767,0.0,0.0,0.0,0.0,0.0,0.0
34,1724914411154159391,-0.24200837314128876,0.11620430648326874,0.18476921319961548,0.004197276197373867,-0.03413357585668564,-0.27378955483436584,0.9611746072769165,0.0,0.0,0.0,0.0,0.0,0.0
36,1724914411162546775,-0.23920388519763947,0.11569616943597794,0.1854659765958786,0.002606933703646064,-0.02430770918726921,-0.275420606136322,0.9610130190849304,0.0,0.0,0.0,0.0,0.0,0.0
38,1724914411173081770,-0.23686115443706512,0.11504329741001129,0.18549546599388123,0.0013816230930387974,-0.023017333820462227,-0.2735481858253479,0.9615818858146667,0.0,0.0,0.0,0.0,0.0,0.0
40,1724914411182688946,-0.23432064056396484,0.11427116394042969,0.18600890040397644,0.0030532157979905605,-0.020866960287094116,-0.27182313799858093,0.9621161222457886,0.0,0.0,0.0,0.0,0.0,0.0
42,1724914411192505699,-0.23175035417079926,0.11334744095802307,0.18660932779312134,0.002686453517526388,-0.01872582547366619,-0.27126824855804443,0.9623178839683533,0.0,0.0,0.0,0.0,0.0,0.0
44,1724914411202880468,-0.22967685759067535,0.11288391798734665,0.18701045215129852,0.0018451499054208398,-0.01702200435101986,-0.27088627219200134,0.9624590873718262,0.0,0.0,0.0,0.0,0.0,0.0
46,1724914411214106449,-0.22804950177669525,0.11237329989671707,0.18743818998336792,0.003996666520833969,-0.019272081553936005,-0.26927924156188965,0.9628610610961914,0.0,0.0,0.0,0.0,0.0,0.0
48,1724914411223156783,-0.22712582349777222,0.11175811290740967,0.18832221627235413,0.0026128848548978567,-0.020439116284251213,-0.2683018445968628,0.9631145596504211,0.0,0.0,0.0,0.0,0.0,0.0
50,1724914411232508465,-0.22681768238544464,0.11122623085975647,0.18936976790428162,0.0025223437696695328,-0.019794469699263573,-0.2688285708427429,0.9629814028739929,0.0,0.0,0.0,0.0,0.0,0.0
52,1724914411244631081,-0.22694887220859528,0.11078105866909027,0.19041597843170166,0.004430799279361963,-0.01823972910642624,-0.2704330086708069,0.9625558257102966,0.0,0.0,0.0,0.0,0.0,0.0
54,1724914411252926979,-0.22737793624401093,0.10987062007188797,0.1906270980834961,0.006802254356443882,-0.021251782774925232,-0.2682954668998718,0.9630782604217529,0.0,0.0,0.0,0.0,0.0,0.0
56,1724914411262811019,-0.22819852828979492,0.10877999663352966,0.19069667160511017,0.010376651771366596,-0.024183742702007294,-0.26730069518089294,0.9632537961006165,0.0,0.0,0.0,0.0,0.0,0.0
58,1724914411277553108,-0.2296619415283203,0.10761192440986633,0.19065262377262115,0.012440871447324753,-0.027963828295469284,-0.26703497767448425,0.9632007479667664,0.0,0.0,0.0,0.0,0.0,0.0
60,1724914411287162680,-0.23137249052524567,0.10647338628768921,0.19052785634994507,0.014019197784364223,-0.030938928946852684,-0.2676055431365967,0.9629297256469727,0.0,0.0,0.0,0.0,0.0,0.0
62,1724914411294413682,-0.23332589864730835,0.1051420271396637,0.18946436047554016,0.01912507601082325,-0.03364047035574913,-0.2657455801963806,0.9632661938667297,0.0,0.0,0.0,0.0,0.0,0.0
64,1724914411304184156,-0.2355273962020874,0.10382793098688126,0.18875880539417267,0.024006610736250877,-0.038065798580646515,-0.26551932096481323,0.9630547165870667,0.0,0.0,0.0,0.0,0.0,0.0
66,1724914411312598244,-0.23791421949863434,0.10241737216711044,0.18803156912326813,0.028781458735466003,-0.04186920449137688,-0.26592913269996643,0.9626528024673462,0.0,0.0,0.0,0.0,0.0,0.0
68,1724914411323485734,-0.24046221375465393,0.101105697453022,0.18709944188594818,0.03461803123354912,-0.046032607555389404,-0.26613491773605347,0.9622135162353516,0.0,0.0,0.0,0.0,0.0,0.0
70,1724914411338307157,-0.2430708408355713,0.09965402632951736,0.1861071139574051,0.038938671350479126,-0.05054444447159767,-0.26505130529403687,0.9621210694313049,0.0,0.0,0.0,0.0,0.0,0.0
72,1724914411342960976,-0.24567142128944397,0.09796775877475739,0.18501153588294983,0.042922500520944595,-0.056513991206884384,-0.26339593529701233,0.9620739817619324,0.0,0.0,0.0,0.0,0.0,0.0
74,1724914411352817882,-0.24829842150211334,0.09668730199337006,0.18426544964313507,0.0462949275970459,-0.058570340275764465,-0.26433026790618896,0.9615382552146912,0.0,0.0,0.0,0.0,0.0,0.0
76,1724914411362864830,-0.25090986490249634,0.0948735848069191,0.18321332335472107,0.04906076565384865,-0.06363777071237564,-0.2620086669921875,0.961714506149292,0.0,0.0,0.0,0.0,0.0,0.0
78,1724914411373882903,-0.25341084599494934,0.0933794379234314,0.18261213600635529,0.050370849668979645,-0.067022904753685,-0.2616851031780243,0.9615049362182617,0.0,0.0,0.0,0.0,0.0,0.0
80,1724914411382891302,-0.255677729845047,0.0918937474489212,0.18175357580184937,0.05283723771572113,-0.06987374275922775,-0.25989705324172974,0.9616544842720032,0.0,0.0,0.0,0.0,0.0,0.0
82,1724914411393097245,-0.25774991512298584,0.09041201323270798,0.18133291602134705,0.055201731622219086,-0.07123713195323944,-0.2594389319419861,0.9615454077720642,0.0,0.0,0.0,0.0,0.0,0.0
84,1724914411402989045,-0.25973397493362427,0.0889715775847435,0.18042390048503876,0.0556073896586895,-0.07359054684638977,-0.2574763298034668,0.9618722796440125,0.0,0.0,0.0,0.0,0.0,0.0
86,1724914411414257998,-0.2614443302154541,0.08769898116588593,0.17963263392448425,0.05776078999042511,-0.07546263188123703,-0.25611791014671326,0.9619629979133606,0.0,0.0,0.0,0.0,0.0,0.0
88,1724914411423171849,-0.26314565539360046,0.08636590838432312,0.178477942943573,0.059579432010650635,-0.07803776115179062,-0.25484463572502136,0.9619846940040588,0.0,0.0,0.0,0.0,0.0,0.0
90,1724914411432980016,-0.2646598219871521,0.08548235148191452,0.17798615992069244,0.06116104498505592,-0.07836003601551056,-0.2553795278072357,0.9617173671722412,0.0,0.0,0.0,0.0,0.0,0.0
92,1724914411443027376,-0.26600736379623413,0.08454972505569458,0.17711365222930908,0.06165257468819618,-0.08136981725692749,-0.2547646462917328,0.9615991711616516,0.0,0.0,0.0,0.0,0.0,0.0
94,1724914411452586962,-0.26721879839897156,0.08368747681379318,0.17601965367794037,0.0659409761428833,-0.08356896042823792,-0.2544715702533722,0.9612035751342773,0.0,0.0,0.0,0.0,0.0,0.0
96,1724914411464260513,-0.26849034428596497,0.08291078358888626,0.17501012980937958,0.06586214154958725,-0.08759045600891113,-0.2541085183620453,0.9609468579292297,0.0,0.0,0.0,0.0,0.0,0.0
98,1724914411479813733,-0.2696055471897125,0.08252952247858047,0.17472827434539795,0.06546830385923386,-0.08885928988456726,-0.2567271590232849,0.9601609706878662,0.0,0.0,0.0,0.0,0.0,0.0
100,1724914411483098378,-0.2704242765903473,0.08201612532138824,0.17386047542095184,0.06697501987218857,-0.09102772921323776,-0.25565454363822937,0.9601401686668396,0.0,0.0,0.0,0.0,0.0,0.0
102,1724914411494354243,-0.27114632725715637,0.08180796355009079,0.1733946055173874,0.06870979815721512,-0.09138523787260056,-0.2561143934726715,0.9598609805107117,0.0,0.0,0.0,0.0,0.0,0.0
104,1724914411502649341,-0.27175071835517883,0.0816202461719513,0.1730767786502838,0.06966646760702133,-0.09207180887460709,-0.25671759247779846,0.959565281867981,0.0,0.0,0.0,0.0,0.0,0.0
106,1724914411515202318,-0.27225518226623535,0.08153732120990753,0.17275215685367584,0.07072833180427551,-0.09295056015253067,-0.25764623284339905,0.9591538310050964,0.0,0.0,0.0,0.0,0.0,0.0
108,1724914411524088517,-0.27278587222099304,0.08156610280275345,0.17244108021259308,0.07134486734867096,-0.0940379798412323,-0.25868546962738037,0.9587223529815674,0.0,0.0,0.0,0.0,0.0,0.0
110,1724914411532688405,-0.27320507168769836,0.08155810087919235,0.17206071317195892,0.07303313910961151,-0.09431413561105728,-0.25975358486175537,0.9582792520523071,0.0,0.0,0.0,0.0,0.0,0.0
112,1724914411545114578,-0.27371349930763245,0.08150918781757355,0.17138363420963287,0.07212340831756592,-0.09608819335699081,-0.25942113995552063,0.9582619667053223,0.0,0.0,0.0,0.0,0.0,0.0
114,1724914411552760929,-0.2740894556045532,0.08149503916501999,0.1710757464170456,0.07174563407897949,-0.0965450182557106,-0.26002004742622375,0.9580820202827454,0.0,0.0,0.0,0.0,0.0,0.0
116,1724914411562518449,-0.2743573486804962,0.08145547658205032,0.1707858294248581,0.07181510329246521,-0.09715761989355087,-0.25998422503471375,0.9580246210098267,0.0,0.0,0.0,0.0,0.0,0.0
118,1724914411573992253,-0.27446964383125305,0.0813903957605362,0.1705399751663208,0.07290413230657578,-0.09771137684583664,-0.25931069254875183,0.9580686688423157,0.0,0.0,0.0,0.0,0.0,0.0
120,1724914411582435390,-0.2745422422885895,0.08137589693069458,0.17054611444473267,0.07325368374586105,-0.09770704060792923,-0.2595691978931427,0.9579724073410034,0.0,0.0,0.0,0.0,0.0,0.0
122,1724914411593749847,-0.27456554770469666,0.08133500814437866,0.1704721450805664,0.07349800318479538,-0.09799400717020035,-0.2591874599456787,0.9580277800559998,0.0,0.0,0.0,0.0,0.0,0.0
124,1724914411603415136,-0.2746143341064453,0.08133112639188766,0.1705199033021927,0.07382720708847046,-0.09820053726434708,-0.25914856791496277,0.9579917788505554,0.0,0.0,0.0,0.0,0.0,0.0
126,1724914411612442705,-0.2746537923812866,0.08134341984987259,0.17047902941703796,0.07353109121322632,-0.09836047887802124,-0.2589734196662903,0.958045482635498,0.0,0.0,0.0,0.0,0.0,0.0
128,1724914411623577185,-0.27463772892951965,0.08136284351348877,0.1704740971326828,0.07429901510477066,-0.0985042080283165,-0.2590564489364624,0.9579491019248962,0.0,0.0,0.0,0.0,0.0,0.0
130,1724914411632600641,-0.2746526598930359,0.08136748522520065,0.17041872441768646,0.07397870719432831,-0.0986308827996254,-0.25940635800361633,0.9578660726547241,0.0,0.0,0.0,0.0,0.0,0.0
132,1724914411645011966,-0.27459684014320374,0.08140908926725388,0.1704670488834381,0.07432803511619568,-0.09881993383169174,-0.2601581811904907,0.9576156735420227,0.0,0.0,0.0,0.0,0.0,0.0
134,1724914411653068402,-0.27453160285949707,0.08149047940969467,0.17055968940258026,0.07411401718854904,-0.09877151250839233,-0.2612358331680298,0.9573437571525574,0.0,0.0,0.0,0.0,0.0,0.0
136,1724914411662470780,-0.27440929412841797,0.0815180167555809,0.17058710753917694,0.073886938393116,-0.09909404814243317,-0.26195967197418213,0.9571301937103271,0.0,0.0,0.0,0.0,0.0,0.0
138,1724914411675304220,-0.27427780628204346,0.08152291178703308,0.17071354389190674,0.07416250556707382,-0.09944065660238266,-0.26311710476875305,0.9567554593086243,0.0,0.0,0.0,0.0,0.0,0.0
140,1724914411683139438,-0.2741011679172516,0.08149240165948868,0.17081259191036224,0.07415302097797394,-0.0998692661523819,-0.2642696499824524,0.9563937783241272,0.0,0.0,0.0,0.0,0.0,0.0
142,1724914411692945142,-0.27381303906440735,0.0815124437212944,0.1708829253911972,0.07578395307064056,-0.10048308223485947,-0.2648230493068695,0.9560484886169434,0.0,0.0,0.0,0.0,0.0,0.0
144,1724914411702988363,-0.2735044062137604,0.08151731640100479,0.17086662352085114,0.07717385143041611,-0.10133656859397888,-0.2653666138648987,0.9556965231895447,0.0,0.0,0.0,0.0,0.0,0.0
146,1724914411712616726,-0.27339720726013184,0.08162249624729156,0.17111672461032867,0.07752891629934311,-0.10030977427959442,-0.2670435905456543,0.9553088545799255,0.0,0.0,0.0,0.0,0.0,0.0
148,1724914411725897279,-0.27333465218544006,0.08161772042512894,0.1711227148771286,0.07759909331798553,-0.10060052573680878,-0.2681197226047516,0.9549710750579834,0.0,0.0,0.0,0.0,0.0,0.0
150,1724914411732641499,-0.2732452154159546,0.08161210268735886,0.17111659049987793,0.07744491100311279,-0.10097725689411163,-0.2694470286369324,0.9545702338218689,0.0,0.0,0.0,0.0,0.0,0.0
152,1724914411742497397,-0.2731821835041046,0.08162318915128708,0.17118528485298157,0.07639860361814499,-0.1010608896613121,-0.27136608958244324,0.9541019201278687,0.0,0.0,0.0,0.0,0.0,0.0
154,1724914411752745850,-0.27298468351364136,0.08166242390871048,0.17135700583457947,0.07627829164266586,-0.10175956040620804,-0.2734217941761017,0.9534502029418945,0.0,0.0,0.0,0.0,0.0,0.0
156,1724914411763684756,-0.2727758288383484,0.08166946470737457,0.1714494675397873,0.07653981447219849,-0.10213936865329742,-0.27508243918418884,0.9529107809066772,0.0,0.0,0.0,0.0,0.0,0.0
158,1724914411773230364,-0.2726227641105652,0.08168242871761322,0.171592578291893,0.07654289901256561,-0.10213155299425125,-0.2768619656562805,0.9523958563804626,0.0,0.0,0.0,0.0,0.0,0.0
160,1724914411783263047,-0.27242007851600647,0.08166331797838211,0.17172816395759583,0.07661644369363785,-0.10236518085002899,-0.2783821225166321,0.9519215822219849,0.0,0.0,0.0,0.0,0.0,0.0
162,1724914411793976103,-0.27223390340805054,0.08170037716627121,0.17186222970485687,0.07741813361644745,-0.10223612934350967,-0.2798658013343811,0.9514355063438416,0.0,0.0,0.0,0.0,0.0,0.0
164,1724914411803177409,-0.2720640003681183,0.08175766468048096,0.17190168797969818,0.07788802683353424,-0.1027495488524437,-0.280548632144928,0.9511405825614929,0.0,0.0,0.0,0.0,0.0,0.0
166,1724914411812622568,-0.2719680070877075,0.08189322054386139,0.17196685075759888,0.07783906906843185,-0.10318877547979355,-0.2815729081630707,0.9507943987846375,0.0,0.0,0.0,0.0,0.0,0.0
168,1724914411824275156,-0.27186155319213867,0.0821799784898758,0.17215938866138458,0.0786871388554573,-0.10227040946483612,-0.28350064158439636,0.9502508044242859,0.0,0.0,0.0,0.0,0.0,0.0
170,1724914411833284291,-0.27163639664649963,0.08232872188091278,0.17213290929794312,0.0807422623038292,-0.10308985412120819,-0.28453508019447327,0.9496804475784302,0.0,0.0,0.0,0.0,0.0,0.0
172,1724914411846229046,-0.2714558243751526,0.08243906497955322,0.17193499207496643,0.08135232329368591,-0.10519611835479736,-0.2851487994194031,0.9492133259773254,0.0,0.0,0.0,0.0,0.0,0.0
174,1724914411853627201,-0.27137911319732666,0.08271396905183792,0.17209845781326294,0.08144168555736542,-0.10544789582490921,-0.2869356870651245,0.9486390352249146,0.0,0.0,0.0,0.0,0.0,0.0
176,1724914411862507816,-0.27136698365211487,0.08304724097251892,0.17241892218589783,0.0806521400809288,-0.10558771342039108,-0.2887359857559204,0.9481444954872131,0.0,0.0,0.0,0.0,0.0,0.0
178,1724914411876289552,-0.27134135365486145,0.08345894515514374,0.1728668063879013,0.08156587928533554,-0.10398657619953156,-0.29064565896987915,0.9476597309112549,0.0,0.0,0.0,0.0,0.0,0.0
180,1724914411883480398,-0.2712863087654114,0.08376312255859375,0.17307835817337036,0.08186361193656921,-0.10368266701698303,-0.29186996817588806,0.9472909569740295,0.0,0.0,0.0,0.0,0.0,0.0
182,1724914411892629750,-0.2711624205112457,0.08412022888660431,0.17309564352035522,0.08086644858121872,-0.10506398975849152,-0.292760968208313,0.9469494819641113,0.0,0.0,0.0,0.0,0.0,0.0
184,1724914411904193057,-0.2710447907447815,0.08459561318159103,0.17335210740566254,0.08107101172208786,-0.1053650826215744,-0.2937188744544983,0.9466018080711365,0.0,0.0,0.0,0.0,0.0,0.0
186,1724914411913433511,-0.2709221839904785,0.0851806029677391,0.17403991520404816,0.08163679391145706,-0.10318982601165771,-0.29530519247055054,0.9462991952896118,0.0,0.0,0.0,0.0,0.0,0.0
188,1724914411936790692,-0.27077460289001465,0.08571595698595047,0.17463473975658417,0.08190633356571198,-0.10297854244709015,-0.2959441542625427,0.9460992813110352,0.0,0.0,0.0,0.0,0.0,0.0
190,1724914411937244955,-0.2706184685230255,0.0862422063946724,0.1749899983406067,0.08032815158367157,-0.10364486277103424,-0.29669398069381714,0.9459269642829895,0.0,0.0,0.0,0.0,0.0,0.0
192,1724914411942440141,-0.2703697681427002,0.08694629371166229,0.17565172910690308,0.07925239950418472,-0.10398034006357193,-0.29798293113708496,0.9455757737159729,0.0,0.0,0.0,0.0,0.0,0.0
194,1724914411952764115,-0.2700871229171753,0.08767639100551605,0.17671892046928406,0.0788261666893959,-0.1022811308503151,-0.30042776465415955,0.9450228810310364,0.0,0.0,0.0,0.0,0.0,0.0
196,1724914411963251752,-0.26992368698120117,0.08835151791572571,0.1776178479194641,0.07635475695133209,-0.09974917769432068,-0.3027036786079407,0.9447702169418335,0.0,0.0,0.0,0.0,0.0,0.0
198,1724914411972967272,-0.26967287063598633,0.08893676102161407,0.1785477101802826,0.07547998428344727,-0.09757320582866669,-0.3047376573085785,0.9444136619567871,0.0,0.0,0.0,0.0,0.0,0.0
200,1724914411982882854,-0.26940593123435974,0.08947928249835968,0.17917026579380035,0.07476000487804413,-0.09631334990262985,-0.3055586516857147,0.9443350434303284,0.0,0.0,0.0,0.0,0.0,0.0
202,1724914411992994596,-0.2690699100494385,0.0898662805557251,0.1795712262392044,0.07334940135478973,-0.09797529876232147,-0.3058885633945465,0.9441678524017334,0.0,0.0,0.0,0.0,0.0,0.0
204,1724914412002785817,-0.2686747908592224,0.09049095213413239,0.18018652498722076,0.07136751711368561,-0.0977831482887268,-0.3063916862010956,0.9441765546798706,0.0,0.0,0.0,0.0,0.0,0.0
206,1724914412019213742,-0.26814213395118713,0.09119072556495667,0.18083366751670837,0.07236193120479584,-0.0966436117887497,-0.30714935064315796,0.9439719319343567,0.0,0.0,0.0,0.0,0.0,0.0
208,1724914412053499279,-0.26773810386657715,0.09189289063215256,0.18167570233345032,0.07124843448400497,-0.09431631863117218,-0.3096362054347992,0.9434794783592224,0.0,0.0,0.0,0.0,0.0,0.0
210,1724914412053814012,-0.26732462644577026,0.09266700595617294,0.18256226181983948,0.06874128431081772,-0.09066338837146759,-0.3130793869495392,0.9428870677947998,0.0,0.0,0.0,0.0,0.0,0.0
212,1724914412054336297,-0.2668622136116028,0.09335506707429886,0.1831403225660324,0.06429412215948105,-0.0899985134601593,-0.31446659564971924,0.9428029656410217,0.0,0.0,0.0,0.0,0.0,0.0
214,1724914412054653084,-0.26612329483032227,0.09429981559515,0.18380077183246613,0.06237669289112091,-0.08697490394115448,-0.31640031933784485,0.9425684809684753,0.0,0.0,0.0,0.0,0.0,0.0
216,1724914412062812217,-0.26514601707458496,0.09529314935207367,0.1840527355670929,0.06028621643781662,-0.08435903489589691,-0.31689974665641785,0.9427744746208191,0.0,0.0,0.0,0.0,0.0,0.0
218,1724914412073853655,-0.2641913890838623,0.09639588743448257,0.18479745090007782,0.05790119990706444,-0.07874175906181335,-0.31933048367500305,0.9425896406173706,0.0,0.0,0.0,0.0,0.0,0.0
220,1724914412082730877,-0.2632879316806793,0.09723995625972748,0.18519346415996552,0.05453727766871452,-0.07536010444164276,-0.32161596417427063,0.9422897100448608,0.0,0.0,0.0,0.0,0.0,0.0
222,1724914412093261028,-0.2621961832046509,0.09820488840341568,0.18572735786437988,0.0505385659635067,-0.07236862182617188,-0.32422614097595215,0.9418524503707886,0.0,0.0,0.0,0.0,0.0,0.0
224,1724914412106695214,-0.26100242137908936,0.09920483827590942,0.18608003854751587,0.046167321503162384,-0.06959110498428345,-0.3251260221004486,0.941976010799408,0.0,0.0,0.0,0.0,0.0,0.0
226,1724914412113156935,-0.2595108151435852,0.10034196078777313,0.186371311545372,0.043350446969270706,-0.06388191133737564,-0.3260522186756134,0.9421942234039307,0.0,0.0,0.0,0.0,0.0,0.0
228,1724914412146237206,-0.25776007771492004,0.10143512487411499,0.18654143810272217,0.04405735060572624,-0.05864108353853226,-0.32719457149505615,0.9421061277389526,0.0,0.0,0.0,0.0,0.0,0.0
230,1724914412147052320,-0.2562282979488373,0.10221224278211594,0.18677709996700287,0.03860345110297203,-0.05564578250050545,-0.32849380373954773,0.9420749545097351,0.0,0.0,0.0,0.0,0.0,0.0
232,1724914412147828597,-0.2542787492275238,0.10319937765598297,0.18713800609111786,0.03576245903968811,-0.05004265159368515,-0.32919740676879883,0.9422557950019836,0.0,0.0,0.0,0.0,0.0,0.0
234,1724914412153431322,-0.25230029225349426,0.1041879877448082,0.18746106326580048,0.03182065859436989,-0.04420052096247673,-0.3299207091331482,0.9424362778663635,0.0,0.0,0.0,0.0,0.0,0.0
236,1724914412162477003,-0.250038743019104,0.1050136387348175,0.187936469912529,0.027946051210165024,-0.03949715197086334,-0.3296702802181244,0.9428555369377136,0.0,0.0,0.0,0.0,0.0,0.0
238,1724914412188085926,-0.24749724566936493,0.10585113614797592,0.1887500137090683,0.023073917254805565,-0.03324572369456291,-0.33108270168304443,0.9427335262298584,0.0,0.0,0.0,0.0,0.0,0.0
240,1724914412188633141,-0.24488094449043274,0.10668037086725235,0.18948626518249512,0.017471125349402428,-0.026114463806152344,-0.33192676305770874,0.9427818059921265,0.0,0.0,0.0,0.0,0.0,0.0
242,1724914412192513489,-0.2417725920677185,0.1074654683470726,0.1905493438243866,0.014990865252912045,-0.018368082121014595,-0.3333360552787781,0.9425100088119507,0.0,0.0,0.0,0.0,0.0,0.0
244,1724914412202821868,-0.23858344554901123,0.10841907560825348,0.19127967953681946,0.007835245691239834,-0.01203625276684761,-0.33279329538345337,0.942890465259552,0.0,0.0,0.0,0.0,0.0,0.0
246,1724914412212999997,-0.23560146987438202,0.10905961692333221,0.19114376604557037,0.0035033724270761013,-0.008195010013878345,-0.3317602872848511,0.9433216452598572,0.0,0.0,0.0,0.0,0.0,0.0
248,1724914412223450742,-0.2329173982143402,0.10969700664281845,0.19092562794685364,-0.00013156842032913119,-0.00894986279308796,-0.3307822346687317,0.9436646699905396,0.0,0.0,0.0,0.0,0.0,0.0
250,1724914412232570661,-0.23016250133514404,0.11043915897607803,0.1910424828529358,0.002930156886577606,-0.0065678684040904045,-0.3306085765361786,0.9437405467033386,0.0,0.0,0.0,0.0,0.0,0.0
252,1724914412244167180,-0.22778522968292236,0.1110280454158783,0.19152484834194183,0.002758127637207508,-0.005638371221721172,-0.33126556873321533,0.943516731262207,0.0,0.0,0.0,0.0,0.0,0.0
254,1724914412252621005,-0.225942000746727,0.11145468801259995,0.19253088533878326,0.005366783123463392,-0.006849139463156462,-0.3314493000507355,0.9434329867362976,0.0,0.0,0.0,0.0,0.0,0.0
256,1724914412263000215,-0.22477275133132935,0.11195661872625351,0.19377657771110535,0.0047791930846869946,-0.005920087918639183,-0.332846999168396,0.9429501891136169,0.0,0.0,0.0,0.0,0.0,0.0
258,1724914412275205210,-0.22393783926963806,0.11236388981342316,0.19501475989818573,0.00284668430685997,-0.0061025251634418964,-0.3333054482936859,0.9427948594093323,0.0,0.0,0.0,0.0,0.0,0.0
260,1724914412282502438,-0.22344759106636047,0.11311761289834976,0.19575582444667816,0.000728733604773879,-0.005855507683008909,-0.33171746134757996,0.9433603882789612,0.0,0.0,0.0,0.0,0.0,0.0
262,1724914412297715766,-0.22338013350963593,0.11355634033679962,0.19641755521297455,0.0003674108302220702,-0.006253695581108332,-0.33306702971458435,0.9428823590278625,0.0,0.0,0.0,0.0,0.0,0.0
264,1724914412302663844,-0.22371184825897217,0.11407088488340378,0.19676797091960907,5.6820790632627904e-05,-0.006872789468616247,-0.3348219394683838,0.9422563314437866,0.0,0.0,0.0,0.0,0.0,0.0
266,1724914412312962620,-0.22443823516368866,0.11455345898866653,0.19640867412090302,-0.0013071855064481497,-0.010354552417993546,-0.3345780670642853,0.9423103332519531,0.0,0.0,0.0,0.0,0.0,0.0
268,1724914412324164347,-0.22571036219596863,0.1152137815952301,0.1955828070640564,-0.0011914008064195514,-0.014337610453367233,-0.333972305059433,0.9424731731414795,0.0,0.0,0.0,0.0,0.0,0.0
270,1724914412332858683,-0.2272944152355194,0.11579078435897827,0.1945669800043106,-0.0002494377549737692,-0.019035227596759796,-0.3350253403186798,0.9420167803764343,0.0,0.0,0.0,0.0,0.0,0.0
272,1724914412343181103,-0.22898317873477936,0.11635009944438934,0.19369389116764069,-0.0018946820637211204,-0.024344591423869133,-0.33501359820365906,0.941896915435791,0.0,0.0,0.0,0.0,0.0,0.0
274,1724914412353759789,-0.23113064467906952,0.11708473414182663,0.19245174527168274,-0.0030860435217618942,-0.02782658115029335,-0.33403751254081726,0.9421439170837402,0.0,0.0,0.0,0.0,0.0,0.0
276,1724914412362746424,-0.23330220580101013,0.11756303906440735,0.19140321016311646,-0.004571807570755482,-0.033597223460674286,-0.33329495787620544,0.9422127604484558,0.0,0.0,0.0,0.0,0.0,0.0
278,1724914412372974826,-0.23566730320453644,0.11807204782962799,0.19035351276397705,-0.002088953275233507,-0.03710478916764259,-0.3344932794570923,0.9416650533676147,0.0,0.0,0.0,0.0,0.0,0.0
280,1724914412382503573,-0.2381502240896225,0.11852820962667465,0.18911373615264893,-0.004730720538645983,-0.04236407205462456,-0.33317500352859497,0.9419009685516357,0.0,0.0,0.0,0.0,0.0,0.0
282,1724914412393621101,-0.24067728221416473,0.11892854422330856,0.18803061544895172,-0.0048475381918251514,-0.046283937990665436,-0.333705872297287,0.9415279030799866,0.0,0.0,0.0,0.0,0.0,0.0
284,1724914412403085349,-0.24286672472953796,0.1192488744854927,0.18688201904296875,-0.002146407961845398,-0.049122393131256104,-0.3340463936328888,0.9412733316421509,0.0,0.0,0.0,0.0,0.0,0.0
286,1724914412413241655,-0.24546585977077484,0.1197032555937767,0.18528802692890167,-0.004457538481801748,-0.05524006113409996,-0.3343762755393982,0.9408087730407715,0.0,0.0,0.0,0.0,0.0,0.0
288,1724914412426049128,-0.24779731035232544,0.12009061127901077,0.18382258713245392,-0.004658225923776627,-0.05984033644199371,-0.33452779054641724,0.9404726028442383,0.0,0.0,0.0,0.0,0.0,0.0
290,1724914412433495648,-0.2502046227455139,0.1205017939209938,0.18238237500190735,-0.004167021717876196,-0.06420332193374634,-0.3363818824291229,0.939525306224823,0.0,0.0,0.0,0.0,0.0,0.0
292,1724914412442829556,-0.2525445520877838,0.1210445761680603,0.1808307021856308,-0.005617576185613871,-0.06864175200462341,-0.3363080620765686,0.9392304420471191,0.0,0.0,0.0,0.0,0.0,0.0
294,1724914412452477260,-0.25485873222351074,0.12143155932426453,0.17949014902114868,-0.005649954546242952,-0.07349178940057755,-0.33694472908973694,0.9386347532272339,0.0,0.0,0.0,0.0,0.0,0.0
296,1724914412464181010,-0.2571549415588379,0.12177843600511551,0.17845353484153748,-0.004804686643183231,-0.07627376168966293,-0.3379440903663635,0.938058078289032,0.0,0.0,0.0,0.0,0.0,0.0
298,1724914412473512378,-0.25924068689346313,0.12194060534238815,0.1773066520690918,-0.004527443088591099,-0.08134587854146957,-0.3375263214111328,0.9377837777137756,0.0,0.0,0.0,0.0,0.0,0.0
300,1724914412482537047,-0.261348158121109,0.12220153212547302,0.17662502825260162,-0.005756914149969816,-0.08343026787042618,-0.33900120854377747,0.9370616674423218,0.0,0.0,0.0,0.0,0.0,0.0
302,1724914412494031134,-0.2633058428764343,0.12219150364398956,0.17571358382701874,-0.0046483492478728294,-0.08685524016618729,-0.3387174606323242,0.9368591904640198,0.0,0.0,0.0,0.0,0.0,0.0
304,1724914412502960434,-0.26501184701919556,0.12243228405714035,0.17506274580955505,-0.003995049279183149,-0.08755610883235931,-0.33963897824287415,0.9364632368087769,0.0,0.0,0.0,0.0,0.0,0.0
306,1724914412512971932,-0.2668757140636444,0.12233705818653107,0.17382565140724182,-0.006386273540556431,-0.09248192608356476,-0.33919525146484375,0.9361372590065002,0.0,0.0,0.0,0.0,0.0,0.0
308,1724914412527862535,-0.26834040880203247,0.12241984903812408,0.17279048264026642,-0.006742256693542004,-0.09716056287288666,-0.3392069637775421,0.9356564879417419,0.0,0.0,0.0,0.0,0.0,0.0
310,1724914412533519758,-0.26955148577690125,0.12276190519332886,0.17185647785663605,-0.005453548859804869,-0.0996301919221878,-0.3392583429813385,0.9353865385055542,0.0,0.0,0.0,0.0,0.0,0.0
312,1724914412545436465,-0.27079442143440247,0.12295900285243988,0.17075666785240173,-0.004250497557222843,-0.10171601176261902,-0.33871355652809143,0.9353656768798828,0.0,0.0,0.0,0.0,0.0,0.0
314,1724914412552824602,-0.271747350692749,0.12320121377706528,0.17010077834129333,-0.003326386446133256,-0.10360109061002731,-0.3382874131202698,0.935316801071167,0.0,0.0,0.0,0.0,0.0,0.0
316,1724914412689233830,-0.272767573595047,0.12333934009075165,0.1694699227809906,-0.00468094227835536,-0.10734017938375473,-0.33701565861701965,0.935348391532898,0.0,0.0,0.0,0.0,0.0,0.0
318,1724914412689771907,-0.273600697517395,0.12348723411560059,0.1688922792673111,-0.004395034164190292,-0.10964120179414749,-0.33568230271339417,0.9355623126029968,0.0,0.0,0.0,0.0,0.0,0.0
320,1724914412690104535,-0.2743403911590576,0.1238698810338974,0.1687001734972,-0.0024605735670775175,-0.10897742211818695,-0.33582431077957153,0.9355959892272949,0.0,0.0,0.0,0.0,0.0,0.0
322,1724914412690432657,-0.2750292718410492,0.12424053251743317,0.16852064430713654,-0.0017859414219856262,-0.1088375374674797,-0.33571764826774597,0.9356521368026733,0.0,0.0,0.0,0.0,0.0,0.0
324,1724914412690758391,-0.2756413221359253,0.1245100349187851,0.16842640936374664,-0.002630563685670495,-0.10905198752880096,-0.3357793986797333,0.9356029629707336,0.0,0.0,0.0,0.0,0.0,0.0
326,1724914412691149707,-0.2761922776699066,0.12465348094701767,0.16814079880714417,-0.003474476747214794,-0.11098859459161758,-0.33437684178352356,0.9358747601509094,0.0,0.0,0.0,0.0,0.0,0.0
328,1724914412691409169,-0.276606947183609,0.12477510422468185,0.16786114871501923,-0.0020089573226869106,-0.11230230331420898,-0.332847535610199,0.9362674355506897,0.0,0.0,0.0,0.0,0.0,0.0
330,1724914412691662648,-0.2769273817539215,0.12487874925136566,0.16767483949661255,2.4894854504964314e-05,-0.11263805627822876,-0.3313714265823364,0.9367527365684509,0.0,0.0,0.0,0.0,0.0,0.0
332,1724914412691915368,-0.2772878408432007,0.12495426833629608,0.16757775843143463,0.0002667079970706254,-0.11263711750507355,-0.33047252893447876,0.9370702505111694,0.0,0.0,0.0,0.0,0.0,0.0
334,1724914412692166975,-0.27762824296951294,0.12501515448093414,0.16770602762699127,0.00025957441539503634,-0.11213570088148117,-0.3301585912704468,0.9372411370277405,0.0,0.0,0.0,0.0,0.0,0.0
336,1724914412692401906,-0.2779526114463806,0.12496577948331833,0.16771042346954346,-0.0006882064626552165,-0.11304813623428345,-0.3296080231666565,0.9373250007629395,0.0,0.0,0.0,0.0,0.0,0.0
338,1724914412692650888,-0.2782423198223114,0.12486200034618378,0.16751378774642944,-0.0030876449309289455,-0.11427119374275208,-0.3280455768108368,0.937720000743866,0.0,0.0,0.0,0.0,0.0,0.0
340,1724914412692902804,-0.27833092212677,0.12478840351104736,0.16747131943702698,-0.0033307948615401983,-0.11527440696954727,-0.32651394605636597,0.938130795955658,0.0,0.0,0.0,0.0,0.0,0.0
342,1724914412693147031,-0.27837520837783813,0.12475614994764328,0.16753558814525604,-0.0036194289568811655,-0.11575602740049362,-0.32566505670547485,0.9383654594421387,0.0,0.0,0.0,0.0,0.0,0.0
344,1724914412702637352,-0.27830812335014343,0.1247115358710289,0.16748754680156708,-0.0031540098134428263,-0.11621949821710587,-0.32441720366477966,0.9387421011924744,0.0,0.0,0.0,0.0,0.0,0.0
346,1724914412713244517,-0.27822041511535645,0.12468443810939789,0.1674811989068985,-0.0031686092261224985,-0.11649574339389801,-0.3234712779521942,0.9390341639518738,0.0,0.0,0.0,0.0,0.0,0.0
348,1724914412723055028,-0.27811703085899353,0.12468218803405762,0.1674610674381256,-0.0037735500372946262,-0.1171669065952301,-0.3224697411060333,0.9392927885055542,0.0,0.0,0.0,0.0,0.0,0.0
350,1724914412732833223,-0.27793076634407043,0.12471102178096771,0.16753533482551575,-0.004575160797685385,-0.11793529987335205,-0.32153183221817017,0.9395146369934082,0.0,0.0,0.0,0.0,0.0,0.0
352,1724914412743708075,-0.2777109146118164,0.12471292912960052,0.16761377453804016,-0.004457199014723301,-0.11821939796209335,-0.32067638635635376,0.939771831035614,0.0,0.0,0.0,0.0,0.0,0.0
354,1724914412753532669,-0.27746039628982544,0.12472916394472122,0.16769403219223022,-0.004386079031974077,-0.11826874315738678,-0.31997808814048767,0.9400039315223694,0.0,0.0,0.0,0.0,0.0,0.0
356,1724914412762786633,-0.2771073579788208,0.1247822493314743,0.16770268976688385,-0.0038995621725916862,-0.11796695739030838,-0.3186681568622589,0.940488874912262,0.0,0.0,0.0,0.0,0.0,0.0
358,1724914412840265561,-0.27677083015441895,0.12479293346405029,0.1677972972393036,-0.00381650123745203,-0.11771779507398605,-0.31747251749038696,0.9409247040748596,0.0,0.0,0.0,0.0,0.0,0.0
360,1724914412840831289,-0.276371568441391,0.1249297633767128,0.1680440455675125,-0.0026492804754525423,-0.11709246039390564,-0.31626760959625244,0.9414123892784119,0.0,0.0,0.0,0.0,0.0,0.0
362,1724914412841153495,-0.27581217885017395,0.1249469593167305,0.16816318035125732,0.00012339718523435295,-0.11809328943490982,-0.31405702233314514,0.9420309066772461,0.0,0.0,0.0,0.0,0.0,0.0
364,1724914412841777781,-0.27549421787261963,0.1249338835477829,0.16818079352378845,0.00031736318487674,-0.11894811689853668,-0.3128714859485626,0.9423177242279053,0.0,0.0,0.0,0.0,0.0,0.0
366,1724914412842276641,-0.2752448618412018,0.12490595877170563,0.16827264428138733,7.32134940335527e-05,-0.11981772631406784,-0.31191956996917725,0.942523181438446,0.0,0.0,0.0,0.0,0.0,0.0
368,1724914412842865076,-0.2749353349208832,0.12483897805213928,0.16837602853775024,-0.0002704715298023075,-0.11982207000255585,-0.3105032742023468,0.9429900646209717,0.0,0.0,0.0,0.0,0.0,0.0
370,1724914412843267914,-0.27464359998703003,0.12485484778881073,0.16847291588783264,-0.000554925121832639,-0.11942494660615921,-0.3092625141143799,0.9434479475021362,0.0,0.0,0.0,0.0,0.0,0.0
372,1724914412844091429,-0.2743358314037323,0.12483339011669159,0.16858305037021637,0.00020225932530593127,-0.11973398178815842,-0.3079128563404083,0.9438503384590149,0.0,0.0,0.0,0.0,0.0,0.0
374,1724914412852540168,-0.27407655119895935,0.12474348396062851,0.1687280833721161,-0.00018324327538721263,-0.1199568435549736,-0.30679863691329956,0.9441847801208496,0.0,0.0,0.0,0.0,0.0,0.0
376,1724914412899497916,-0.2738039791584015,0.12465773522853851,0.1688951551914215,-0.0021603889763355255,-0.12032267451286316,-0.30530616641044617,0.9446194171905518,0.0,0.0,0.0,0.0,0.0,0.0
378,1724914412899752008,-0.2732997238636017,0.12462008744478226,0.16904368996620178,-0.0018996765138581395,-0.11947010457515717,-0.30321815609931946,0.9454004168510437,0.0,0.0,0.0,0.0,0.0,0.0
380,1724914412899989065,-0.2728712558746338,0.12459935247898102,0.16917338967323303,-0.0021847833413630724,-0.1191135123372078,-0.30177927017211914,0.9459051489830017,0.0,0.0,0.0,0.0,0.0,0.0
382,1724914412900241681,-0.27244043350219727,0.12468259781599045,0.16949833929538727,-0.00229065353050828,-0.11901680380105972,-0.3013298511505127,0.946060299873352,0.0,0.0,0.0,0.0,0.0,0.0
384,1724914412902669615,-0.2720573842525482,0.12461252510547638,0.16975820064544678,-0.0022687988821417093,-0.11911040544509888,-0.3009157180786133,0.9461803436279297,0.0,0.0,0.0,0.0,0.0,0.0
386,1724914412941066245,-0.27172309160232544,0.1245252788066864,0.1702088862657547,-0.003987297415733337,-0.11856600642204285,-0.3008766770362854,0.9462555050849915,0.0,0.0,0.0,0.0,0.0,0.0
388,1724914412941442210,-0.27128469944000244,0.12449589371681213,0.17068855464458466,-0.005607612431049347,-0.1173015907406807,-0.3003859221935272,0.946560800075531,0.0,0.0,0.0,0.0,0.0,0.0
390,1724914412941693995,-0.2707381844520569,0.12437304109334946,0.1711525022983551,-0.005296736024320126,-0.1162232980132103,-0.2988932132720947,0.9471678137779236,0.0,0.0,0.0,0.0,0.0,0.0
392,1724914412943793783,-0.26994186639785767,0.1241292655467987,0.17153914272785187,-0.003260927740484476,-0.11562839895486832,-0.2963954508304596,0.948034405708313,0.0,0.0,0.0,0.0,0.0,0.0
394,1724914412952845554,-0.2691895365715027,0.1239234060049057,0.17201387882232666,-0.0032144973520189524,-0.11446433514356613,-0.29453611373901367,0.9487550258636475,0.0,0.0,0.0,0.0,0.0,0.0
396,1724914412963399173,-0.2685059607028961,0.12382357567548752,0.1728600114583969,-0.0024163422640413046,-0.111735500395298,-0.2947236895561218,0.9490244388580322,0.0,0.0,0.0,0.0,0.0,0.0
398,1724914412973225382,-0.26789936423301697,0.12358412891626358,0.1735806167125702,-0.003092806786298752,-0.10936427116394043,-0.29407355189323425,0.9495002031326294,0.0,0.0,0.0,0.0,0.0,0.0
400,1724914412984723639,-0.26725152134895325,0.12326402217149734,0.17437408864498138,-0.003796152537688613,-0.10679852217435837,-0.2933923006057739,0.9500004053115845,0.0,0.0,0.0,0.0,0.0,0.0
402,1724914412994733676,-0.26643532514572144,0.12305149435997009,0.17521177232265472,-0.0028627014253288507,-0.10477426648139954,-0.29221269488334656,0.9505923986434937,0.0,0.0,0.0,0.0,0.0,0.0
404,1724914413002715657,-0.2654905915260315,0.1227913349866867,0.17601963877677917,-0.001792832976207137,-0.10240747779607773,-0.29057571291923523,0.9513545036315918,0.0,0.0,0.0,0.0,0.0,0.0
406,1724914413014349897,-0.2645203769207001,0.12255688011646271,0.1768580824136734,0.00013469788245856762,-0.09872286021709442,-0.2899099290370941,0.9519485831260681,0.0,0.0,0.0,0.0,0.0,0.0
408,1724914413026875367,-0.26346832513809204,0.12212654203176498,0.1776731312274933,-0.0009643545490689576,-0.09681077301502228,-0.28956061601638794,0.9522507190704346,0.0,0.0,0.0,0.0,0.0,0.0
410,1724914413032760509,-0.26218488812446594,0.12168090045452118,0.1785406619310379,-0.0003334215725772083,-0.09565232694149017,-0.2879483997821808,0.9528569579124451,0.0,0.0,0.0,0.0,0.0,0.0
412,1724914413043637786,-0.26098668575286865,0.12118618190288544,0.1792575865983963,0.001990135060623288,-0.09304387122392654,-0.28655627369880676,0.9535326361656189,0.0,0.0,0.0,0.0,0.0,0.0
414,1724914413052905948,-0.2597903609275818,0.12043607234954834,0.18005862832069397,0.0027940634172409773,-0.08984525501728058,-0.286020427942276,0.9539981484413147,0.0,0.0,0.0,0.0,0.0,0.0
416,1724914413063207660,-0.2582319378852844,0.11958877742290497,0.18087176978588104,0.0032286029309034348,-0.08572405576705933,-0.28470930457115173,0.9547678232192993,0.0,0.0,0.0,0.0,0.0,0.0
418,1724914413095594940,-0.2566182017326355,0.11886495351791382,0.18174079060554504,0.0030748452991247177,-0.08067914843559265,-0.284025639295578,0.955411434173584,0.0,0.0,0.0,0.0,0.0,0.0
420,1724914413095943720,-0.2549387812614441,0.11806731671094894,0.1826130449771881,0.0009010104113258421,-0.07473211735486984,-0.2832009196281433,0.9561441540718079,0.0,0.0,0.0,0.0,0.0,0.0
422,1724914413096233542,-0.25306984782218933,0.11704898625612259,0.183180570602417,-0.0009232037118636072,-0.06965768337249756,-0.2815279960632324,0.9570209383964539,0.0,0.0,0.0,0.0,0.0,0.0
424,1724914413103607860,-0.25103655457496643,0.11596911400556564,0.1836886703968048,0.0014381464570760727,-0.06216317415237427,-0.28053829073905945,0.9578267335891724,0.0,0.0,0.0,0.0,0.0,0.0
426,1724914413112593658,-0.24880483746528625,0.1149059385061264,0.18401391804218292,0.0014190953224897385,-0.05520465970039368,-0.2786903977394104,0.9587920904159546,0.0,0.0,0.0,0.0,0.0,0.0
428,1724914413126276746,-0.24632222950458527,0.11388849467039108,0.1843658834695816,0.003012274159118533,-0.048165466636419296,-0.27660709619522095,0.9597706198692322,0.0,0.0,0.0,0.0,0.0,0.0
430,1724914413132618156,-0.24383194744586945,0.11269814521074295,0.18479785323143005,0.00253475783392787,-0.042970288544893265,-0.27584344148635864,0.9602382779121399,0.0,0.0,0.0,0.0,0.0,0.0
432,1724914413142660206,-0.24094584584236145,0.11167307198047638,0.18529915809631348,0.0029369182884693146,-0.03323366120457649,-0.27540111541748047,0.9607503414154053,0.0,0.0,0.0,0.0,0.0,0.0
434,1724914413152912095,-0.23789408802986145,0.11028364300727844,0.18556617200374603,0.003984518349170685,-0.027129925787448883,-0.2738114893436432,0.9613924622535706,0.0,0.0,0.0,0.0,0.0,0.0
436,1724914413162651272,-0.23511743545532227,0.10908573120832443,0.1858810931444168,0.00036635814467445016,-0.01982533372938633,-0.27401554584503174,0.9615208506584167,0.0,0.0,0.0,0.0,0.0,0.0
438,1724914413173008320,-0.23236283659934998,0.10821735113859177,0.18598511815071106,0.0005200360319577157,-0.016501517966389656,-0.27224209904670715,0.9620871543884277,0.0,0.0,0.0,0.0,0.0,0.0
440,1724914413182816268,-0.22970707714557648,0.10688169300556183,0.18606983125209808,0.002627019537612796,-0.013221538625657558,-0.2705650329589844,0.9626073837280273,0.0,0.0,0.0,0.0,0.0,0.0
442,1724914413193385489,-0.22727835178375244,0.10562876611948013,0.1867235004901886,0.0014268780359998345,-0.012991202063858509,-0.2700386047363281,0.9627608060836792,0.0,0.0,0.0,0.0,0.0,0.0
444,1724914413203356507,-0.22550325095653534,0.1043996810913086,0.18720701336860657,-0.00018324636039324105,-0.016486788168549538,-0.2693862318992615,0.962891161441803,0.0,0.0,0.0,0.0,0.0,0.0
446,1724914413214128864,-0.22411911189556122,0.10373100638389587,0.18809741735458374,0.000742937671020627,-0.015342089347541332,-0.26955440640449524,0.9628626108169556,0.0,0.0,0.0,0.0,0.0,0.0
448,1724914413225070168,-0.22319689393043518,0.10290955007076263,0.18882785737514496,0.002590273041278124,-0.01592845283448696,-0.2670478820800781,0.9635481834411621,0.0,0.0,0.0,0.0,0.0,0.0
450,1724914413233594433,-0.223093181848526,0.10202384740114212,0.1897151619195938,0.003043734934180975,-0.016487857326865196,-0.267225980758667,0.9634881019592285,0.0,0.0,0.0,0.0,0.0,0.0
452,1724914413244664491,-0.22364066541194916,0.10117074847221375,0.19059224426746368,0.0018259879434481263,-0.01866202801465988,-0.2682340443134308,0.9631713032722473,0.0,0.0,0.0,0.0,0.0,0.0
454,1724914413253401069,-0.22447334229946136,0.10033703595399857,0.1908944845199585,0.005742238834500313,-0.019820641726255417,-0.2673150300979614,0.9633882641792297,0.0,0.0,0.0,0.0,0.0,0.0
456,1724914413262763188,-0.22561679780483246,0.09918146580457687,0.19106675684452057,0.00899757444858551,-0.02112533710896969,-0.26705315709114075,0.9634081721305847,0.0,0.0,0.0,0.0,0.0,0.0
458,1724914413273450976,-0.22723180055618286,0.09761099517345428,0.19092486798763275,0.012397951446473598,-0.025129467248916626,-0.2672027349472046,0.9632328748703003,0.0,0.0,0.0,0.0,0.0,0.0
460,1724914413282696274,-0.2289903610944748,0.09651989489793777,0.19029584527015686,0.015077381394803524,-0.02737203985452652,-0.26571279764175415,0.9635456800460815,0.0,0.0,0.0,0.0,0.0,0.0
462,1724914413293927539,-0.23108118772506714,0.09481914341449738,0.18929341435432434,0.017796117812395096,-0.033957790583372116,-0.26519450545310974,0.9634324908256531,0.0,0.0,0.0,0.0,0.0,0.0
464,1724914413303216130,-0.23341967165470123,0.09327329695224762,0.1885155439376831,0.024521350860595703,-0.037757765501737595,-0.2648593485355377,0.9632355570793152,0.0,0.0,0.0,0.0,0.0,0.0
466,1724914413312834694,-0.2361108511686325,0.0917365700006485,0.18774646520614624,0.028118658810853958,-0.04342322796583176,-0.2645600140094757,0.9629806876182556,0.0,0.0,0.0,0.0,0.0,0.0
468,1724914413323867431,-0.2388414740562439,0.09034213423728943,0.1869182586669922,0.03308150917291641,-0.04634475335478783,-0.26401063799858093,0.9628376364707947,0.0,0.0,0.0,0.0,0.0,0.0
470,1724914413333132384,-0.24154752492904663,0.0891004130244255,0.18631429970264435,0.0379171296954155,-0.0513966828584671,-0.26367899775505066,0.9624936580657959,0.0,0.0,0.0,0.0,0.0,0.0
472,1724914413342670229,-0.2444908618927002,0.08788283169269562,0.18544825911521912,0.03934694081544876,-0.0563485361635685,-0.2638765871524811,0.9621049761772156,0.0,0.0,0.0,0.0,0.0,0.0
474,1724914413359552762,-0.24723203480243683,0.08669762313365936,0.18497228622436523,0.04387617111206055,-0.05947050824761391,-0.26391366124153137,0.9617108702659607,0.0,0.0,0.0,0.0,0.0,0.0
476,1724914413364532321,-0.25002315640449524,0.08567707985639572,0.18413327634334564,0.04597226157784462,-0.0632607564330101,-0.2628310024738312,0.9616675972938538,0.0,0.0,0.0,0.0,0.0,0.0
478,1724914413373392241,-0.25257056951522827,0.08482186496257782,0.18317590653896332,0.04837183281779289,-0.06561246514320374,-0.2613679766654968,0.9617910981178284,0.0,0.0,0.0,0.0,0.0,0.0
480,1724914413383498217,-0.2550225853919983,0.08398344367742538,0.18222348392009735,0.051317181438207626,-0.06833644211292267,-0.2599766254425049,0.9618257880210876,0.0,0.0,0.0,0.0,0.0,0.0
482,1724914413393060076,-0.2572876811027527,0.0833759605884552,0.18175725638866425,0.05263318121433258,-0.06913872063159943,-0.26005417108535767,0.9616763591766357,0.0,0.0,0.0,0.0,0.0,0.0
484,1724914413403285611,-0.2594994306564331,0.08254148811101913,0.18062426149845123,0.05356025695800781,-0.0730571299791336,-0.2583242952823639,0.9618017673492432,0.0,0.0,0.0,0.0,0.0,0.0
486,1724914413414410742,-0.2613057792186737,0.082046277821064,0.17935344576835632,0.05741242691874504,-0.07592187076807022,-0.25629767775535583,0.9618998765945435,0.0,0.0,0.0,0.0,0.0,0.0
488,1724914413425476446,-0.26317286491394043,0.08155045658349991,0.1781548112630844,0.05736023560166359,-0.0775211900472641,-0.25604185461997986,0.9618434906005859,0.0,0.0,0.0,0.0,0.0,0.0
490,1724914413432843513,-0.26490387320518494,0.0812833160161972,0.17734546959400177,0.058432720601558685,-0.07759477943181992,-0.25649991631507874,0.9616509079933167,0.0,0.0,0.0,0.0,0.0,0.0
492,1724914413501745554,-0.26628682017326355,0.08093773573637009,0.1761689931154251,0.05939985066652298,-0.08091811090707779,-0.25479501485824585,0.9617710709571838,0.0,0.0,0.0,0.0,0.0,0.0
494,1724914413502248023,-0.26766660809516907,0.08068347722291946,0.17471463978290558,0.061065446585416794,-0.0832444354891777,-0.2531711161136627,0.9618970155715942,0.0,0.0,0.0,0.0,0.0,0.0
496,1724914413502667216,-0.26893553137779236,0.08051011711359024,0.17380981147289276,0.06231294572353363,-0.08471571654081345,-0.25383052229881287,0.9615147113800049,0.0,0.0,0.0,0.0,0.0,0.0
498,1724914413502952072,-0.2701500952243805,0.08050500601530075,0.17317502200603485,0.06353846937417984,-0.0871223583817482,-0.2545275390148163,0.9610350728034973,0.0,0.0,0.0,0.0,0.0,0.0
500,1724914413503251202,-0.2712068259716034,0.0805281475186348,0.17266817390918732,0.06575505435466766,-0.08849607408046722,-0.25602203607559204,0.9603632688522339,0.0,0.0,0.0,0.0,0.0,0.0
502,1724914413503559734,-0.2719530761241913,0.08051515370607376,0.17219439148902893,0.06653541326522827,-0.09083584696054459,-0.2564931809902191,0.9599652290344238,0.0,0.0,0.0,0.0,0.0,0.0
504,1724914413503818357,-0.27248162031173706,0.080501489341259,0.17182981967926025,0.06814820319414139,-0.09238717705011368,-0.25641849637031555,0.959723949432373,0.0,0.0,0.0,0.0,0.0,0.0
506,1724914413512702412,-0.27295351028442383,0.08054155856370926,0.17166651785373688,0.07010231167078018,-0.09315572679042816,-0.2578589618206024,0.9591227173805237,0.0,0.0,0.0,0.0,0.0,0.0
508,1724914413529176028,-0.27353450655937195,0.08047487586736679,0.1711396425962448,0.07022957503795624,-0.09469249099493027,-0.25795602798461914,0.9589368104934692,0.0,0.0,0.0,0.0,0.0,0.0
510,1724914413533076539,-0.2741408348083496,0.08042188733816147,0.17072460055351257,0.06890320032835007,-0.09554599225521088,-0.2586822211742401,0.9587527513504028,0.0,0.0,0.0,0.0,0.0,0.0
512,1724914413544112064,-0.2745777666568756,0.08030755817890167,0.17029745876789093,0.06988203525543213,-0.09661377966403961,-0.25823327898979187,0.9586960077285767,0.0,0.0,0.0,0.0,0.0,0.0
514,1724914413552692549,-0.2749863862991333,0.08020316064357758,0.16981443762779236,0.07109387964010239,-0.09717503190040588,-0.2575278580188751,0.9587398767471313,0.0,0.0,0.0,0.0,0.0,0.0
516,1724914413562564195,-0.275303453207016,0.08008204400539398,0.16943421959877014,0.07182774692773819,-0.09801998734474182,-0.25694748759269714,0.95875483751297,0.0,0.0,0.0,0.0,0.0,0.0
518,1724914413574211781,-0.2756101191043854,0.07998454570770264,0.16950054466724396,0.07322357594966888,-0.09678006172180176,-0.25788289308547974,0.9585240483283997,0.0,0.0,0.0,0.0,0.0,0.0
520,1724914413582559708,-0.2758498787879944,0.07985591143369675,0.1695992350578308,0.07336021214723587,-0.09614993631839752,-0.2591828405857086,0.9582263231277466,0.0,0.0,0.0,0.0,0.0,0.0
522,1724914413593252156,-0.2759894132614136,0.0796881690621376,0.169639453291893,0.07334615290164948,-0.09638635814189911,-0.2605072557926178,0.9578444361686707,0.0,0.0,0.0,0.0,0.0,0.0
524,1724914413603387879,-0.27605029940605164,0.07958437502384186,0.16961029171943665,0.07319091260433197,-0.09669984132051468,-0.2610916793346405,0.9576656222343445,0.0,0.0,0.0,0.0,0.0,0.0
526,1724914413612553922,-0.27609753608703613,0.07956713438034058,0.1696327030658722,0.07286573946475983,-0.0967840775847435,-0.26157087087631226,0.9575511813163757,0.0,0.0,0.0,0.0,0.0,0.0
528,1724914413622663665,-0.276078462600708,0.07953837513923645,0.1696397364139557,0.07285071909427643,-0.09686209261417389,-0.2620583772659302,0.9574110507965088,0.0,0.0,0.0,0.0,0.0,0.0
530,1724914413633233136,-0.27603936195373535,0.07942488044500351,0.1694345921278,0.07183799892663956,-0.09853296726942062,-0.26208624243736267,0.9573094844818115,0.0,0.0,0.0,0.0,0.0,0.0
532,1724914413643348468,-0.2760104835033417,0.07945416122674942,0.16938947141170502,0.07148561626672745,-0.09891646355390549,-0.26232683658599854,0.9572303891181946,0.0,0.0,0.0,0.0,0.0,0.0
534,1724914413652867530,-0.2760509252548218,0.07954545319080353,0.16949568688869476,0.07140812277793884,-0.098709836602211,-0.2629720866680145,0.9570804238319397,0.0,0.0,0.0,0.0,0.0,0.0
536,1724914413688705440,-0.27606475353240967,0.07957608252763748,0.16945616900920868,0.07133820652961731,-0.09891121834516525,-0.2631179392337799,0.9570247530937195,0.0,0.0,0.0,0.0,0.0,0.0
538,1724914413689384587,-0.2760794758796692,0.07962412387132645,0.1694578230381012,0.0715208351612091,-0.09899049997329712,-0.2636997103691101,0.9568427801132202,0.0,0.0,0.0,0.0,0.0,0.0
540,1724914413690002295,-0.2760657072067261,0.07961779832839966,0.16934888064861298,0.07209372520446777,-0.09934347122907639,-0.26401567459106445,0.9566761255264282,0.0,0.0,0.0,0.0,0.0,0.0
542,1724914413692992340,-0.2760479748249054,0.07961960881948471,0.1693306416273117,0.07267283648252487,-0.0996796265244484,-0.26460883021354675,0.9564334154129028,0.0,0.0,0.0,0.0,0.0,0.0
544,1724914413702889286,-0.27603384852409363,0.07963661104440689,0.16941305994987488,0.07282821089029312,-0.09985934942960739,-0.26575782895088196,0.9560841917991638,0.0,0.0,0.0,0.0,0.0,0.0
546,1724914413714306182,-0.2759896516799927,0.07968948781490326,0.16946832835674286,0.07304347306489944,-0.10015249252319336,-0.2667456567287445,0.9557619690895081,0.0,0.0,0.0,0.0,0.0,0.0
548,1724914413726799258,-0.2758995294570923,0.07969219982624054,0.1694890707731247,0.0735115110874176,-0.10058745741844177,-0.2677721083164215,0.955393373966217,0.0,0.0,0.0,0.0,0.0,0.0
550,1724914413734373915,-0.27583232522010803,0.07970397174358368,0.16954590380191803,0.07383812218904495,-0.10097319632768631,-0.2691878080368042,0.9549294710159302,0.0,0.0,0.0,0.0,0.0,0.0
552,1724914413742953516,-0.2757644057273865,0.07977842539548874,0.16965964436531067,0.07388371974229813,-0.10106981545686722,-0.27078598737716675,0.9544638395309448,0.0,0.0,0.0,0.0,0.0,0.0
554,1724914413752903474,-0.27568525075912476,0.07982312142848969,0.1697649359703064,0.074814572930336,-0.10076408088207245,-0.27256324887275696,0.9539175629615784,0.0,0.0,0.0,0.0,0.0,0.0
556,1724914413763038177,-0.275566041469574,0.07981666922569275,0.1698000729084015,0.07512421160936356,-0.10171597450971603,-0.2738542854785919,0.9534222483634949,0.0,0.0,0.0,0.0,0.0,0.0
558,1724914413793654318,-0.27548161149024963,0.07977903634309769,0.1697128415107727,0.07531286776065826,-0.1032126247882843,-0.27566707134246826,0.9527239799499512,0.0,0.0,0.0,0.0,0.0,0.0
560,1724914413794045718,-0.2752917408943176,0.07978765666484833,0.169826477766037,0.07703001797199249,-0.10390941053628922,-0.277914822101593,0.9518574476242065,0.0,0.0,0.0,0.0,0.0,0.0
562,1724914413794312845,-0.2751886248588562,0.07975036650896072,0.1699237823486328,0.07739155739545822,-0.10470235347747803,-0.2796088457107544,0.9512450098991394,0.0,0.0,0.0,0.0,0.0,0.0
564,1724914413802978269,-0.27510231733322144,0.0797988772392273,0.170084148645401,0.0775892436504364,-0.10507036000490189,-0.28117188811302185,0.9507274031639099,0.0,0.0,0.0,0.0,0.0,0.0
566,1724914413812655339,-0.2750582695007324,0.07977854460477829,0.17009669542312622,0.07662191241979599,-0.10662412643432617,-0.2822740972042084,0.9503061175346375,0.0,0.0,0.0,0.0,0.0,0.0
568,1724914413827932387,-0.2749843895435333,0.07984838634729385,0.17018502950668335,0.0770406424999237,-0.10701017826795578,-0.2837858498096466,0.9497785568237305,0.0,0.0,0.0,0.0,0.0,0.0
570,1724914413834869239,-0.27489572763442993,0.07991751283407211,0.17016156017780304,0.07742425799369812,-0.10770604014396667,-0.28515005111694336,0.9492599368095398,0.0,0.0,0.0,0.0,0.0,0.0
572,1724914413846721675,-0.27482542395591736,0.08001187443733215,0.17013761401176453,0.07787901163101196,-0.10783713310956955,-0.2869841754436493,0.9486549496650696,0.0,0.0,0.0,0.0,0.0,0.0
574,1724914413853351674,-0.2747775912284851,0.0801195278763771,0.1700943261384964,0.07785917073488235,-0.1082499697804451,-0.28846246004104614,0.9481610059738159,0.0,0.0,0.0,0.0,0.0,0.0
576,1724914413879093332,-0.27475446462631226,0.08023049682378769,0.17013561725616455,0.0782523974776268,-0.10868892073631287,-0.2899402976036072,0.9476275444030762,0.0,0.0,0.0,0.0,0.0,0.0
578,1724914413879425292,-0.27473264932632446,0.08031278103590012,0.1702757179737091,0.07880163192749023,-0.10868680477142334,-0.2913326919078827,0.9471551179885864,0.0,0.0,0.0,0.0,0.0,0.0
580,1724914413882510321,-0.2747275233268738,0.080376535654068,0.17039649188518524,0.07922659069299698,-0.10857150703668594,-0.29265859723091125,0.9467240571975708,0.0,0.0,0.0,0.0,0.0,0.0
582,1724914413893878181,-0.27468764781951904,0.08050185441970825,0.17047016322612762,0.07942068576812744,-0.10904110223054886,-0.29365092515945435,0.9463464617729187,0.0,0.0,0.0,0.0,0.0,0.0
584,1724914413903169203,-0.2746903896331787,0.08077061921358109,0.17077374458312988,0.07892802357673645,-0.10905802994966507,-0.2952062487602234,0.94590163230896,0.0,0.0,0.0,0.0,0.0,0.0
586,1724914413912983283,-0.27465346455574036,0.08118651807308197,0.17135752737522125,0.07945858687162399,-0.10767052322626114,-0.29683420062065125,0.9455066919326782,0.0,0.0,0.0,0.0,0.0,0.0
588,1724914413923761072,-0.274657666683197,0.08160474896430969,0.17189116775989532,0.07809866219758987,-0.10771262645721436,-0.2980159819126129,0.9452434182167053,0.0,0.0,0.0,0.0,0.0,0.0
590,1724914413933603332,-0.27464184165000916,0.08214213699102402,0.17238253355026245,0.07732080668210983,-0.1069745123386383,-0.29941028356552124,0.9449505805969238,0.0,0.0,0.0,0.0,0.0,0.0
592,1724914413942882527,-0.27464449405670166,0.08269581943750381,0.17303571105003357,0.07717724144458771,-0.10615643858909607,-0.30131030082702637,0.9444504976272583,0.0,0.0,0.0,0.0,0.0,0.0
594,1724914413952950660,-0.2745232880115509,0.08316735178232193,0.17353418469429016,0.0765700563788414,-0.10651738196611404,-0.30183398723602295,0.9442919492721558,0.0,0.0,0.0,0.0,0.0,0.0
596,1724914413963299542,-0.2744302451610565,0.08376362174749374,0.17448589205741882,0.07617367058992386,-0.10479985922574997,-0.30425453186035156,0.9437392354011536,0.0,0.0,0.0,0.0,0.0,0.0
598,1724914413975048272,-0.2741708755493164,0.08413463085889816,0.17501038312911987,0.07574158161878586,-0.10430322587490082,-0.305417001247406,0.9434534907341003,0.0,0.0,0.0,0.0,0.0,0.0
600,1724914413982759506,-0.2740354537963867,0.08450489491224289,0.17551682889461517,0.07398205995559692,-0.10367152839899063,-0.3071519136428833,0.9430994987487793,0.0,0.0,0.0,0.0,0.0,0.0
602,1724914413994372942,-0.27381762862205505,0.08495438098907471,0.17606334388256073,0.07281612604856491,-0.10323847085237503,-0.3084496557712555,0.9428141713142395,0.0,0.0,0.0,0.0,0.0,0.0
604,1724914414002663191,-0.27348896861076355,0.08552715182304382,0.17652378976345062,0.07380660623311996,-0.10333224385976791,-0.3086342215538025,0.9426664710044861,0.0,0.0,0.0,0.0,0.0,0.0
606,1724914414012856907,-0.2731771767139435,0.08631877601146698,0.17727217078208923,0.07243633270263672,-0.10154092311859131,-0.3094528913497925,0.9426990151405334,0.0,0.0,0.0,0.0,0.0,0.0
608,1724914414027487657,-0.2728780508041382,0.08718933165073395,0.1782122254371643,0.06987802684307098,-0.0995812639594078,-0.31127437949180603,0.9425014853477478,0.0,0.0,0.0,0.0,0.0,0.0
610,1724914414032857040,-0.27234646677970886,0.08795063942670822,0.17882460355758667,0.06875771284103394,-0.09912752360105515,-0.3116437494754791,0.9425095915794373,0.0,0.0,0.0,0.0,0.0,0.0
612,1724914414043903591,-0.2717331051826477,0.08893080800771713,0.1794782429933548,0.06706783175468445,-0.09680474549531937,-0.31389355659484863,0.9421260952949524,0.0,0.0,0.0,0.0,0.0,0.0
614,1724914414052594626,-0.2710389792919159,0.09004399925470352,0.1800338625907898,0.06626515090465546,-0.0935111790895462,-0.3162204325199127,0.9417374134063721,0.0,0.0,0.0,0.0,0.0,0.0
616,1724914414062766977,-0.2702977955341339,0.0910971537232399,0.18027254939079285,0.06342361867427826,-0.09196282923221588,-0.31736916303634644,0.9416990876197815,0.0,0.0,0.0,0.0,0.0,0.0
618,1724914414073889109,-0.269486665725708,0.09231219440698624,0.18082928657531738,0.060397207736968994,-0.08623471856117249,-0.3203429877758026,0.9414330720901489,0.0,0.0,0.0,0.0,0.0,0.0
620,1724914414083116463,-0.2686472237110138,0.09315571933984756,0.18099941313266754,0.05844045430421829,-0.08379710465669632,-0.32200369238853455,0.9412100911140442,0.0,0.0,0.0,0.0,0.0,0.0
622,1724914414092974932,-0.2676409184932709,0.09410376846790314,0.18153177201747894,0.055955030024051666,-0.08106879144906998,-0.3241186738014221,0.9408740997314453,0.0,0.0,0.0,0.0,0.0,0.0
624,1724914414103746276,-0.26649045944213867,0.09533590823411942,0.1818893551826477,0.05311939865350723,-0.07844236493110657,-0.3249362111091614,0.9409790635108948,0.0,0.0,0.0,0.0,0.0,0.0
626,1724914414112640446,-0.26517820358276367,0.09669171273708344,0.18249833583831787,0.04945990443229675,-0.07433056831359863,-0.32643797993659973,0.940992534160614,0.0,0.0,0.0,0.0,0.0,0.0
628,1724914414123903301,-0.26378917694091797,0.09781546890735626,0.18270109593868256,0.046202510595321655,-0.07173475623130798,-0.32692819833755493,0.9411894679069519,0.0,0.0,0.0,0.0,0.0,0.0
630,1724914414133306618,-0.2622136175632477,0.09920990467071533,0.18281279504299164,0.04496839642524719,-0.0671362653374672,-0.32823705673217773,0.9411328434944153,0.0,0.0,0.0,0.0,0.0,0.0
632,1724914414142956760,-0.2607336938381195,0.10062548518180847,0.18330760300159454,0.03970969095826149,-0.060825031250715256,-0.33079713582992554,0.9409021735191345,0.0,0.0,0.0,0.0,0.0,0.0
634,1724914414153118469,-0.25876492261886597,0.10192503035068512,0.183463454246521,0.036708272993564606,-0.05662910267710686,-0.3320865333080292,0.94083172082901,0.0,0.0,0.0,0.0,0.0,0.0
636,1724914414162564007,-0.25674474239349365,0.10319070518016815,0.18342286348342896,0.03262603282928467,-0.0518103763461113,-0.3329468369483948,0.9409557580947876,0.0,0.0,0.0,0.0,0.0,0.0
638,1724914414183501545,-0.2546660006046295,0.10431772470474243,0.18339528143405914,0.028959589079022408,-0.046057384461164474,-0.33468562364578247,0.9407579898834229,0.0,0.0,0.0,0.0,0.0,0.0
640,1724914414184119976,-0.2523976266384125,0.10534054040908813,0.18362843990325928,0.025105809792876244,-0.040208108723163605,-0.3355245888233185,0.940838098526001,0.0,0.0,0.0,0.0,0.0,0.0
642,1724914414193739877,-0.24987900257110596,0.10646282136440277,0.1837068349123001,0.01933204010128975,-0.03489840775728226,-0.3343240022659302,0.9416134357452393,0.0,0.0,0.0,0.0,0.0,0.0
644,1724914414203053960,-0.24717572331428528,0.10770004987716675,0.1841897964477539,0.016318608075380325,-0.027897082269191742,-0.33531028032302856,0.9415532350540161,0.0,0.0,0.0,0.0,0.0,0.0
646,1724914414215522353,-0.24406030774116516,0.10909795016050339,0.18509820103645325,0.00983147881925106,-0.01985175721347332,-0.3371114432811737,0.9412040710449219,0.0,0.0,0.0,0.0,0.0,0.0
648,1724914414225373674,-0.24133910238742828,0.10993319004774094,0.18502989411354065,0.010001951828598976,-0.01688840426504612,-0.33568644523620605,0.9417693018913269,0.0,0.0,0.0,0.0,0.0,0.0
650,1724914414232859101,-0.23846547305583954,0.11116565018892288,0.18571524322032928,0.009964363649487495,-0.0128138717263937,-0.33589306473731995,0.941760241985321,0.0,0.0,0.0,0.0,0.0,0.0
652,1724914414283696608,-0.2361837923526764,0.11222085356712341,0.18624751269817352,0.006991209462285042,-0.011608380824327469,-0.3375180661678314,0.9412214756011963,0.0,0.0,0.0,0.0,0.0,0.0
654,1724914414283975685,-0.23409129679203033,0.11328603327274323,0.1873115748167038,0.005766573362052441,-0.012176898308098316,-0.33899372816085815,0.940692126750946,0.0,0.0,0.0,0.0,0.0,0.0
656,1724914414284217560,-0.2323492020368576,0.114332415163517,0.188314750790596,0.010478208772838116,-0.012280382215976715,-0.33990389108657837,0.9403216242790222,0.0,0.0,0.0,0.0,0.0,0.0
658,1724914414291880280,-0.23134149610996246,0.11535897850990295,0.18917973339557648,0.009068465791642666,-0.012842964380979538,-0.33998903632164,0.9402980208396912,0.0,0.0,0.0,0.0,0.0,0.0
660,1724914414292148439,-0.23053288459777832,0.116226926445961,0.19001299142837524,0.008458690717816353,-0.013387111015617847,-0.3402549624443054,0.9401998519897461,0.0,0.0,0.0,0.0,0.0,0.0
662,1724914414295554573,-0.23010218143463135,0.11697959154844284,0.19056883454322815,0.009315766394138336,-0.0153702637180686,-0.3399219810962677,0.9402819275856018,0.0,0.0,0.0,0.0,0.0,0.0
664,1724914414302944741,-0.23023885488510132,0.11778730154037476,0.19083987176418304,0.008514215238392353,-0.01801782287657261,-0.34104883670806885,0.9398343563079834,0.0,0.0,0.0,0.0,0.0,0.0
666,1724914414312493154,-0.23077547550201416,0.11878341436386108,0.1906341314315796,0.008845341391861439,-0.020740197971463203,-0.3407009243965149,0.9399012923240662,0.0,0.0,0.0,0.0,0.0,0.0
668,1724914414323835633,-0.23179684579372406,0.11941186338663101,0.18981438875198364,0.007755553349852562,-0.025883076712489128,-0.3385980427265167,0.9405431151390076,0.0,0.0,0.0,0.0,0.0,0.0
670,1724914414332620705,-0.23312093317508698,0.12009979784488678,0.189330592751503,0.005502341780811548,-0.027637317776679993,-0.33872997760772705,0.9404615759849548,0.0,0.0,0.0,0.0,0.0,0.0
672,1724914414345832707,-0.2345578670501709,0.12090879678726196,0.18886224925518036,0.0035753059200942516,-0.029698867350816727,-0.33854594826698303,0.9404743313789368,0.0,0.0,0.0,0.0,0.0,0.0
674,1724914414353284886,-0.23618440330028534,0.12156498432159424,0.18817605078220367,0.0005112509825266898,-0.03420614078640938,-0.33806660771369934,0.9405002593994141,0.0,0.0,0.0,0.0,0.0,0.0
676,1724914414363015064,-0.23792347311973572,0.12211877852678299,0.1871783286333084,0.002739464631304145,-0.039616771042346954,-0.33811119198799133,0.9402680397033691,0.0,0.0,0.0,0.0,0.0,0.0
678,1724914414373287958,-0.2398691475391388,0.12264284491539001,0.18592683970928192,0.0028803942259401083,-0.0448438785970211,-0.33742958307266235,0.940277636051178,0.0,0.0,0.0,0.0,0.0,0.0
680,1724914414382824026,-0.2418869584798813,0.12315290421247482,0.1850258857011795,0.001250957720912993,-0.04949275404214859,-0.33782708644866943,0.9399052262306213,0.0,0.0,0.0,0.0,0.0,0.0
682,1724914414394914413,-0.24406245350837708,0.12350402772426605,0.1839856654405594,0.0007617014343850315,-0.05306212604045868,-0.3379565477371216,0.9396644234657288,0.0,0.0,0.0,0.0,0.0,0.0
684,1724914414402754022,-0.2462545931339264,0.12356677651405334,0.18285903334617615,-0.0006792141357436776,-0.05893664062023163,-0.33783993124961853,0.9393563270568848,0.0,0.0,0.0,0.0,0.0,0.0
686,1724914414412667010,-0.24857109785079956,0.12403280287981033,0.18185298144817352,-0.0010062673827633262,-0.061087481677532196,-0.33831241726875305,0.9390484690666199,0.0,0.0,0.0,0.0,0.0,0.0
688,1724914414423236991,-0.25073957443237305,0.12398500740528107,0.18032121658325195,-0.0007306536426767707,-0.06802903860807419,-0.33694642782211304,0.9390626549720764,0.0,0.0,0.0,0.0,0.0,0.0
690,1724914414433266666,-0.2529096305370331,0.12414322048425674,0.17926619946956635,0.0011623905738815665,-0.07194922119379044,-0.3376764953136444,0.9385076761245728,0.0,0.0,0.0,0.0,0.0,0.0
692,1724914414442526350,-0.2550222873687744,0.1240258663892746,0.17784550786018372,-0.0004348851798567921,-0.0774214044213295,-0.3368491232395172,0.9383701086044312,0.0,0.0,0.0,0.0,0.0,0.0
694,1724914414452738592,-0.2572403848171234,0.12420514971017838,0.1770555078983307,-0.003419799031689763,-0.07949662953615189,-0.33928048610687256,0.9373139142990112,0.0,0.0,0.0,0.0,0.0,0.0
696,1724914414464322808,-0.25911933183670044,0.12419188767671585,0.17598271369934082,-0.002018291736021638,-0.08265502005815506,-0.3391772508621216,0.9370821714401245,0.0,0.0,0.0,0.0,0.0,0.0
698,1724914414473334563,-0.2610298991203308,0.12419493496417999,0.1751481294631958,-0.0011015417985618114,-0.08556507527828217,-0.33962953090667725,0.936658501625061,0.0,0.0,0.0,0.0,0.0,0.0
700,1724914414499482413,-0.26292645931243896,0.12410006672143936,0.17415188252925873,-0.00251059141010046,-0.08836060762405396,-0.339509516954422,0.9364398121833801,0.0,0.0,0.0,0.0,0.0,0.0
702,1724914414499906186,-0.2647087872028351,0.12425012141466141,0.17363056540489197,-0.004752798471599817,-0.08919616043567657,-0.34128010272979736,0.9357080459594727,0.0,0.0,0.0,0.0,0.0,0.0
704,1724914414503108369,-0.26628828048706055,0.12432339787483215,0.17307716608047485,-0.004859372973442078,-0.09045182913541794,-0.34251531958580017,0.9351353645324707,0.0,0.0,0.0,0.0,0.0,0.0
706,1724914414513430899,-0.26765379309654236,0.12435998767614365,0.17223837971687317,-0.004705991130322218,-0.09299422055482864,-0.34218305349349976,0.9350084066390991,0.0,0.0,0.0,0.0,0.0,0.0
708,1724914414528146706,-0.2687121033668518,0.12434135377407074,0.17120975255966187,-0.002840976230800152,-0.096763975918293,-0.3403865098953247,0.9352890849113464,0.0,0.0,0.0,0.0,0.0,0.0
710,1724914414532456234,-0.26978278160095215,0.1245434433221817,0.17035172879695892,-0.002629439113661647,-0.0986403301358223,-0.3400317132472992,0.9352227449417114,0.0,0.0,0.0,0.0,0.0,0.0
712,1724914414584131199,-0.2707354724407196,0.12472504377365112,0.16969034075737,-0.0018969898810610175,-0.10162357240915298,-0.33950886130332947,0.9350950717926025,0.0,0.0,0.0,0.0,0.0,0.0
714,1724914414584418595,-0.27170702815055847,0.12499391287565231,0.16931425034999847,-0.0036020290572196245,-0.10360982269048691,-0.33945325016975403,0.9348922371864319,0.0,0.0,0.0,0.0,0.0,0.0
716,1724914414584701957,-0.27247846126556396,0.12511752545833588,0.16875354945659637,-0.00410301610827446,-0.10577370226383209,-0.3383311331272125,0.9350546598434448,0.0,0.0,0.0,0.0,0.0,0.0
718,1724914414584963647,-0.27309077978134155,0.1254006326198578,0.16854259371757507,-0.001328413374722004,-0.10561635345220566,-0.3382798135280609,0.9350990653038025,0.0,0.0,0.0,0.0,0.0,0.0
720,1724914414585278722,-0.2736453413963318,0.12568143010139465,0.168279230594635,0.0004694242961704731,-0.10524985939264297,-0.33770352602005005,0.9353495240211487,0.0,0.0,0.0,0.0,0.0,0.0
722,1724914414593400871,-0.2741111218929291,0.12578085064888,0.16783937811851501,0.001007110346108675,-0.10638837516307831,-0.3362226188182831,0.9357536435127258,0.0,0.0,0.0,0.0,0.0,0.0
724,1724914414603981175,-0.27450257539749146,0.12595465779304504,0.1676623672246933,0.0008171907975338399,-0.10669513791799545,-0.3356967270374298,0.9359076619148254,0.0,0.0,0.0,0.0,0.0,0.0
726,1724914414613687160,-0.2749122977256775,0.12613704800605774,0.16751256585121155,-0.001134761143475771,-0.1074155867099762,-0.33490630984306335,0.9361081123352051,0.0,0.0,0.0,0.0,0.0,0.0
728,1724914414624189821,-0.2752492427825928,0.1262768805027008,0.16749826073646545,-0.0022768843919038773,-0.10784077644348145,-0.3350723683834076,0.935997724533081,0.0,0.0,0.0,0.0,0.0,0.0
730,1724914414633281631,-0.27542996406555176,0.12636080384254456,0.16748124361038208,-0.002401141682639718,-0.10874711722135544,-0.3347732126712799,0.9359995722770691,0.0,0.0,0.0,0.0,0.0,0.0
732,1724914414642917987,-0.2756499648094177,0.12641896307468414,0.16749146580696106,-0.003698565298691392,-0.10868196934461594,-0.3348744213581085,0.9359667897224426,0.0,0.0,0.0,0.0,0.0,0.0
734,1724914414653519538,-0.2757807672023773,0.12640491127967834,0.16752366721630096,-0.003909158054739237,-0.10877697169780731,-0.33484748005867004,0.9359645247459412,0.0,0.0,0.0,0.0,0.0,0.0
736,1724914414662640588,-0.2758736312389374,0.12633872032165527,0.16754189133644104,-0.003912684507668018,-0.10894527286291122,-0.3344717025756836,0.936079204082489,0.0,0.0,0.0,0.0,0.0,0.0
738,1724914414684390495,-0.2759209871292114,0.12629751861095428,0.16757524013519287,-0.0037839622236788273,-0.10892841219902039,-0.33393293619155884,0.9362740516662598,0.0,0.0,0.0,0.0,0.0,0.0
740,1724914414684731101,-0.275935560464859,0.126276433467865,0.16758248209953308,-0.003877566196024418,-0.10879069566726685,-0.33322015404701233,0.9365435838699341,0.0,0.0,0.0,0.0,0.0,0.0
742,1724914414692751020,-0.27590203285217285,0.12624090909957886,0.16757343709468842,-0.003538532415404916,-0.10885414481163025,-0.33253178000450134,0.93678218126297,0.0,0.0,0.0,0.0,0.0,0.0
744,1724914414702651738,-0.27581775188446045,0.12621763348579407,0.16759733855724335,-0.0032222599256783724,-0.10907325893640518,-0.33211731910705566,0.9369049072265625,0.0,0.0,0.0,0.0,0.0,0.0
746,1724914414712859624,-0.2756322920322418,0.1262153536081314,0.16767831146717072,-0.0022882858756929636,-0.10822664946317673,-0.3319700062274933,0.9370580315589905,0.0,0.0,0.0,0.0,0.0,0.0
748,1724914414726114051,-0.27545854449272156,0.12618373334407806,0.16767264902591705,-0.0025352274533361197,-0.10801740735769272,-0.33125805854797363,0.9373334050178528,0.0,0.0,0.0,0.0,0.0,0.0
750,1724914414732473580,-0.27521732449531555,0.126133531332016,0.16782383620738983,-0.002082724357023835,-0.10861118882894516,-0.33065444231033325,0.9374790191650391,0.0,0.0,0.0,0.0,0.0,0.0
752,1724914414746996424,-0.27491456270217896,0.12605805695056915,0.1679576337337494,-0.0019698997493833303,-0.10891874134540558,-0.32920151948928833,0.9379547834396362,0.0,0.0,0.0,0.0,0.0,0.0
754,1724914414752704144,-0.2744503915309906,0.12596534192562103,0.16807787120342255,-0.0019411316607147455,-0.10994470864534378,-0.3270550072193146,0.9385859370231628,0.0,0.0,0.0,0.0,0.0,0.0
756,1724914414762697804,-0.2740585207939148,0.1259642243385315,0.16820845007896423,-0.002054500626400113,-0.11007948219776154,-0.3253070116043091,0.9391771554946899,0.0,0.0,0.0,0.0,0.0,0.0
758,1724914414774756566,-0.2736518383026123,0.12594126164913177,0.16818594932556152,-0.0019944224040955305,-0.11120949685573578,-0.32272905111312866,0.9399332404136658,0.0,0.0,0.0,0.0,0.0,0.0
760,1724914414782496156,-0.27326899766921997,0.1259143203496933,0.16813333332538605,-0.0019020525505766273,-0.11309611052274704,-0.3205719590187073,0.9404463171958923,0.0,0.0,0.0,0.0,0.0,0.0
762,1724914414792913189,-0.2729301154613495,0.12600605189800262,0.1682567447423935,-0.001944847172126174,-0.11421234905719757,-0.3196972906589508,0.9406090378761292,0.0,0.0,0.0,0.0,0.0,0.0
764,1724914414803170819,-0.2725684344768524,0.12609218060970306,0.16829727590084076,-0.0005461170803755522,-0.1151283010840416,-0.3186130225658417,0.9408671855926514,0.0,0.0,0.0,0.0,0.0,0.0
766,1724914414813394313,-0.27232274413108826,0.12612415850162506,0.1683097928762436,-0.0007170740282163024,-0.11542859673500061,-0.31776192784309387,0.9411180019378662,0.0,0.0,0.0,0.0,0.0,0.0
768,1724914414826622456,-0.2720302939414978,0.12611031532287598,0.1683170348405838,-0.001240115612745285,-0.11560790985822678,-0.31652018427848816,0.9415138959884644,0.0,0.0,0.0,0.0,0.0,0.0
770,1724914414832510567,-0.2717362344264984,0.1262185424566269,0.16851994395256042,-0.003063345095142722,-0.11501450836658478,-0.3154001832008362,0.9419581294059753,0.0,0.0,0.0,0.0,0.0,0.0
772,1724914414844969922,-0.27141451835632324,0.1262570470571518,0.16873276233673096,-0.002272627782076597,-0.11462752521038055,-0.3141353726387024,0.9424300193786621,0.0,0.0,0.0,0.0,0.0,0.0
774,1724914414853660961,-0.2710840404033661,0.126242533326149,0.16893811523914337,-0.0018424936570227146,-0.11458709836006165,-0.31281858682632446,0.9428737163543701,0.0,0.0,0.0,0.0,0.0,0.0
776,1724914414862648297,-0.2706049680709839,0.1262204945087433,0.16906413435935974,-0.001057037734426558,-0.11503259092569351,-0.31054720282554626,0.9435712695121765,0.0,0.0,0.0,0.0,0.0,0.0
778,1724914414873280704,-0.27019017934799194,0.12618227303028107,0.1691594421863556,-0.0014704772038385272,-0.11515245586633682,-0.308234304189682,0.9443142414093018,0.0,0.0,0.0,0.0,0.0,0.0
780,1724914414883635892,-0.2697981595993042,0.12614209949970245,0.16922694444656372,-0.002129961969330907,-0.11551281809806824,-0.3061619699001312,0.9449428915977478,0.0,0.0,0.0,0.0,0.0,0.0
782,1724914414893507523,-0.26940473914146423,0.12611912190914154,0.16925260424613953,-0.0014344826340675354,-0.11551661789417267,-0.30493026971817017,0.9453420042991638,0.0,0.0,0.0,0.0,0.0,0.0
784,1724914414903291006,-0.26908525824546814,0.12598824501037598,0.16937676072120667,-0.001910763094201684,-0.11575545370578766,-0.3039865493774414,0.945615828037262,0.0,0.0,0.0,0.0,0.0,0.0
786,1724914414913038988,-0.268706351518631,0.1258084774017334,0.1696190983057022,-0.0025665131397545338,-0.11592738330364227,-0.30281203985214233,0.9459699392318726,0.0,0.0,0.0,0.0,0.0,0.0
788,1724914414924151739,-0.2682272791862488,0.12559062242507935,0.169912189245224,-0.003209694754332304,-0.11637849360704422,-0.30125656723976135,0.9464092254638672,0.0,0.0,0.0,0.0,0.0,0.0
790,1724914414933182133,-0.2678549885749817,0.12552502751350403,0.1703188568353653,-0.0038191478233784437,-0.11520404368638992,-0.3006766438484192,0.9467349648475647,0.0,0.0,0.0,0.0,0.0,0.0
792,1724914414943314126,-0.2674432396888733,0.12539799511432648,0.1706787496805191,-0.003779652062803507,-0.11438551545143127,-0.30000269412994385,0.9470480680465698,0.0,0.0,0.0,0.0,0.0,0.0
794,1724914414953837610,-0.26695290207862854,0.12516285479068756,0.17129451036453247,-0.0032945056445896626,-0.11343491077423096,-0.2999285161495209,0.9471877217292786,0.0,0.0,0.0,0.0,0.0,0.0
796,1724914414964008586,-0.2664133906364441,0.1250166893005371,0.17192654311656952,-0.003286756109446287,-0.11222764104604721,-0.2992219924926758,0.9475550055503845,0.0,0.0,0.0,0.0,0.0,0.0
798,1724914414973880627,-0.26580309867858887,0.12489749491214752,0.17266373336315155,-0.003334642853587866,-0.10990406572818756,-0.29828235507011414,0.9481232166290283,0.0,0.0,0.0,0.0,0.0,0.0
800,1724914414982908939,-0.2647953927516937,0.12483058124780655,0.17350801825523376,-0.0011973725631833076,-0.10696884244680405,-0.29704704880714417,0.9488516449928284,0.0,0.0,0.0,0.0,0.0,0.0
802,1724914414996763871,-0.2638936936855316,0.12463711947202682,0.17418402433395386,-0.00031886936631053686,-0.10484826564788818,-0.29608678817749023,0.9493889212608337,0.0,0.0,0.0,0.0,0.0,0.0
804,1724914415002881964,-0.26306232810020447,0.12422200292348862,0.17471304535865784,0.000950876041315496,-0.10406690835952759,-0.29436665773391724,0.9500092267990112,0.0,0.0,0.0,0.0,0.0,0.0
806,1724914415013595516,-0.2623119652271271,0.12379664182662964,0.17538109421730042,0.0009823637083172798,-0.1021614596247673,-0.293826162815094,0.9503832459449768,0.0,0.0,0.0,0.0,0.0,0.0
808,1724914415032706347,-0.2613829970359802,0.12341523915529251,0.17619004845619202,-0.00010056491737486795,-0.09926038980484009,-0.29350611567497253,0.9507899880409241,0.0,0.0,0.0,0.0,0.0,0.0
810,1724914415033025907,-0.26047566533088684,0.12279727309942245,0.1766737997531891,-0.000250219862209633,-0.09713374078273773,-0.2919960916042328,0.9514743685722351,0.0,0.0,0.0,0.0,0.0,0.0
812,1724914415044848440,-0.2594990134239197,0.1220390796661377,0.1770322173833847,0.0003383217263035476,-0.09431322664022446,-0.29009830951690674,0.9523381590843201,0.0,0.0,0.0,0.0,0.0,0.0
814,1724914415052625475,-0.25845450162887573,0.12112390995025635,0.1775090992450714,-0.00012419745326042175,-0.0903201699256897,-0.28917598724365234,0.9530054926872253,0.0,0.0,0.0,0.0,0.0,0.0
816,1724914415063060097,-0.25714537501335144,0.1202511116862297,0.17847281694412231,0.00010536221088841558,-0.08582016080617905,-0.2894456684589386,0.9533395171165466,0.0,0.0,0.0,0.0,0.0,0.0
818,1724914415078867409,-0.2555287480354309,0.1191733330488205,0.1792314499616623,0.0019042472122237086,-0.08267544955015182,-0.2879699766635895,0.9540621042251587,0.0,0.0,0.0,0.0,0.0,0.0
820,1724914415082468460,-0.253983736038208,0.11821776628494263,0.1802314668893814,-0.00025334168458357453,-0.07766339182853699,-0.2877183258533478,0.9545609354972839,0.0,0.0,0.0,0.0,0.0,0.0
822,1724914415094255756,-0.25227272510528564,0.11713136732578278,0.1808779388666153,-0.0015204631490632892,-0.07266396284103394,-0.2853415012359619,0.955666184425354,0.0,0.0,0.0,0.0,0.0,0.0
824,1724914415102506880,-0.250385046005249,0.11606594920158386,0.181809663772583,0.00048012504703365266,-0.06508972495794296,-0.285482794046402,0.956170916557312,0.0,0.0,0.0,0.0,0.0,0.0
826,1724914415112774466,-0.24820667505264282,0.11474980413913727,0.18206456303596497,0.0026160720735788345,-0.06003882735967636,-0.28292331099510193,0.9572581052780151,0.0,0.0,0.0,0.0,0.0,0.0
828,1724914415124893513,-0.24595434963703156,0.11344386637210846,0.1825067549943924,0.004180052317678928,-0.053708937019109726,-0.28107771277427673,0.9581719040870667,0.0,0.0,0.0,0.0,0.0,0.0
830,1724914415132696560,-0.24375131726264954,0.11219683289527893,0.18303851783275604,5.952678475296125e-05,-0.046425819396972656,-0.28045201301574707,0.9587447047233582,0.0,0.0,0.0,0.0,0.0,0.0
832,1724914415143067491,-0.24106165766716003,0.1108337789773941,0.18356072902679443,-0.0005863957339897752,-0.03911624476313591,-0.2793270945549011,0.9593987464904785,0.0,0.0,0.0,0.0,0.0,0.0
834,1724914415153152116,-0.23818033933639526,0.1095314621925354,0.1840055137872696,0.0011460082605481148,-0.029715657234191895,-0.2773436903953552,0.9603104591369629,0.0,0.0,0.0,0.0,0.0,0.0
836,1724914415162863354,-0.23557554185390472,0.10828887671232224,0.18417178094387054,0.002023216336965561,-0.026004306972026825,-0.27623042464256287,0.9607375264167786,0.0,0.0,0.0,0.0,0.0,0.0
838,1724914415173314180,-0.2329109013080597,0.1073177233338356,0.1846378892660141,0.004369951318949461,-0.021688302978873253,-0.2758848965167999,0.9609360694885254,0.0,0.0,0.0,0.0,0.0,0.0
840,1724914415182674829,-0.23040519654750824,0.10592367500066757,0.18503038585186005,0.00220654159784317,-0.01937609538435936,-0.27452847361564636,0.961381196975708,0.0,0.0,0.0,0.0,0.0,0.0
842,1724914415192685270,-0.228305846452713,0.10502969473600388,0.18546831607818604,0.0034872640389949083,-0.018372610211372375,-0.2734922170639038,0.9616924524307251,0.0,0.0,0.0,0.0,0.0,0.0
844,1724914415202662901,-0.22677147388458252,0.10407495498657227,0.18628926575183868,0.0025175658520311117,-0.020994240418076515,-0.2720435857772827,0.9620526432991028,0.0,0.0,0.0,0.0,0.0,0.0
846,1724914415213646233,-0.2257932424545288,0.10325256735086441,0.18734678626060486,0.0008471619803458452,-0.021162955090403557,-0.2713886797428131,0.9622368216514587,0.0,0.0,0.0,0.0,0.0,0.0
848,1724914415225475844,-0.22527843713760376,0.10243867337703705,0.1884094774723053,0.001328828977420926,-0.020673317834734917,-0.27083903551101685,0.9624016880989075,0.0,0.0,0.0,0.0,0.0,0.0
850,1724914415232878059,-0.22526197135448456,0.10150585323572159,0.18949978053569794,0.0036591917742043734,-0.02057468146085739,-0.2707068920135498,0.9624350666999817,0.0,0.0,0.0,0.0,0.0,0.0
852,1724914415243257425,-0.2256392389535904,0.10061019659042358,0.1901549994945526,0.004311262629926205,-0.022026417776942253,-0.2697593867778778,0.9626662135124207,0.0,0.0,0.0,0.0,0.0,0.0
854,1724914415252797738,-0.2265273779630661,0.09958512336015701,0.1906076818704605,0.006793146021664143,-0.02215246856212616,-0.26980796456336975,0.9626353979110718,0.0,0.0,0.0,0.0,0.0,0.0
856,1724914415264085143,-0.22786115109920502,0.09820400923490524,0.19062550365924835,0.007154529914259911,-0.025404831394553185,-0.2697470486164093,0.9625694155693054,0.0,0.0,0.0,0.0,0.0,0.0
858,1724914415279049202,-0.22943758964538574,0.09700837731361389,0.1903689056634903,0.012386093847453594,-0.026544921100139618,-0.269043505191803,0.9626824855804443,0.0,0.0,0.0,0.0,0.0,0.0
860,1724914415282794016,-0.231561541557312,0.09520753473043442,0.189204141497612,0.013817868195474148,-0.0345720574259758,-0.2666993737220764,0.9630603790283203,0.0,0.0,0.0,0.0,0.0,0.0
862,1724914415293110918,-0.2337464690208435,0.09383275359869003,0.18840032815933228,0.020108945667743683,-0.03740469366312027,-0.2670203745365143,0.9627547860145569,0.0,0.0,0.0,0.0,0.0,0.0
864,1724914415302725230,-0.23619823157787323,0.09222926199436188,0.18750980496406555,0.023060420528054237,-0.04251852631568909,-0.26727908849716187,0.9624044299125671,0.0,0.0,0.0,0.0,0.0,0.0
866,1724914415312705192,-0.23879887163639069,0.09087974578142166,0.18635514378547668,0.02769586443901062,-0.04526000842452049,-0.266126424074173,0.9624766707420349,0.0,0.0,0.0,0.0,0.0,0.0
868,1724914415324449348,-0.24138803780078888,0.08935591578483582,0.18548138439655304,0.03179203346371651,-0.05178908631205559,-0.2645227313041687,0.9624629020690918,0.0,0.0,0.0,0.0,0.0,0.0
870,1724914415332730493,-0.24411024153232574,0.08798430114984512,0.18507035076618195,0.03472450003027916,-0.05531230568885803,-0.2653680443763733,0.9619327187538147,0.0,0.0,0.0,0.0,0.0,0.0
872,1724914415343106755,-0.24658146500587463,0.08655288070440292,0.1844308227300644,0.0368194505572319,-0.06022358313202858,-0.2641071677207947,0.9619068503379822,0.0,0.0,0.0,0.0,0.0,0.0
874,1724914415355286622,-0.2490745186805725,0.08532431721687317,0.1837121844291687,0.04016678407788277,-0.061392635107040405,-0.2631339430809021,0.9619657397270203,0.0,0.0,0.0,0.0,0.0,0.0
876,1724914415364442737,-0.25152525305747986,0.08410421013832092,0.1827610284090042,0.04206722974777222,-0.06433673948049545,-0.26185736060142517,0.9620404839515686,0.0,0.0,0.0,0.0,0.0,0.0
878,1724914415373223476,-0.25378742814064026,0.08314848691225052,0.18197502195835114,0.04557250440120697,-0.06545837968587875,-0.26097238063812256,0.9620456695556641,0.0,0.0,0.0,0.0,0.0,0.0
880,1724914415384420364,-0.25593435764312744,0.08211719989776611,0.18108528852462769,0.04612940549850464,-0.06987801939249039,-0.25955554842948914,0.9620915651321411,0.0,0.0,0.0,0.0,0.0,0.0
882,1724914415394042848,-0.25781673192977905,0.08134076744318008,0.18025973439216614,0.04875903204083443,-0.07162513583898544,-0.2580815851688385,0.9622299075126648,0.0,0.0,0.0,0.0,0.0,0.0
884,1724914415413057587,-0.2598254084587097,0.08070234954357147,0.17920488119125366,0.05035204812884331,-0.07291565090417862,-0.2572233974933624,0.9622806906700134,0.0,0.0,0.0,0.0,0.0,0.0
886,1724914415413704552,-0.26159921288490295,0.08030123263597488,0.17828981578350067,0.05197642743587494,-0.07511385530233383,-0.2563718557357788,0.9622525572776794,0.0,0.0,0.0,0.0,0.0,0.0
888,1724914415423238677,-0.26329687237739563,0.07992260158061981,0.17688441276550293,0.053939253091812134,-0.07816000282764435,-0.2544514238834381,0.962411642074585,0.0,0.0,0.0,0.0,0.0,0.0
890,1724914415433536676,-0.26491352915763855,0.07962024211883545,0.1759653389453888,0.055837444961071014,-0.08066461235284805,-0.2546236217021942,0.9620510935783386,0.0,0.0,0.0,0.0,0.0,0.0
892,1724914415443268052,-0.2663240432739258,0.07951889932155609,0.17509925365447998,0.0595574826002121,-0.08184125274419785,-0.2549475133419037,0.9616428017616272,0.0,0.0,0.0,0.0,0.0,0.0
894,1724914415452837606,-0.26766058802604675,0.07929719239473343,0.17380599677562714,0.061267513781785965,-0.08382388204336166,-0.254382461309433,0.9615141153335571,0.0,0.0,0.0,0.0,0.0,0.0
896,1724914415464180348,-0.2689521014690399,0.07907969504594803,0.17297790944576263,0.06128595396876335,-0.08635636419057846,-0.25514939427375793,0.9610855579376221,0.0,0.0,0.0,0.0,0.0,0.0
898,1724914415476135188,-0.27006644010543823,0.07913238555192947,0.1719820499420166,0.0618031769990921,-0.08811870217323303,-0.2550050914287567,0.9609307050704956,0.0,0.0,0.0,0.0,0.0,0.0
900,1724914415482534758,-0.27098265290260315,0.07918087393045425,0.17120742797851562,0.06471545994281769,-0.089637890458107,-0.25508859753608704,0.9605762958526611,0.0,0.0,0.0,0.0,0.0,0.0
902,1724914415502524307,-0.2717219293117523,0.0792679637670517,0.17085276544094086,0.0663377046585083,-0.09063585102558136,-0.25580668449401855,0.9601809978485107,0.0,0.0,0.0,0.0,0.0,0.0
904,1724914415512653867,-0.27233386039733887,0.07934489101171494,0.1707708239555359,0.0660589411854744,-0.09191909432411194,-0.25732994079589844,0.9596710205078125,0.0,0.0,0.0,0.0,0.0,0.0
906,1724914415514829609,-0.2729470133781433,0.07936637103557587,0.17062067985534668,0.0658833384513855,-0.09255079925060272,-0.2587609589099884,0.9592375159263611,0.0,0.0,0.0,0.0,0.0,0.0
908,1724914415528164101,-0.2735869586467743,0.0793815329670906,0.170257568359375,0.06496848165988922,-0.09366537630558014,-0.25920480489730835,0.9590718746185303,0.0,0.0,0.0,0.0,0.0,0.0
910,1724914415532336749,-0.2740263342857361,0.0793338343501091,0.16993296146392822,0.06580114364624023,-0.09554606676101685,-0.25889304280281067,0.9589138031005859,0.0,0.0,0.0,0.0,0.0,0.0
912,1724914415546386526,-0.2744152545928955,0.07944551855325699,0.16964983940124512,0.06689637154340744,-0.09659615159034729,-0.25822538137435913,0.9589127898216248,0.0,0.0,0.0,0.0,0.0,0.0
914,1724914415553995840,-0.2748097777366638,0.07958412915468216,0.1692609041929245,0.06792609393596649,-0.09710908681154251,-0.2577870488166809,0.9589065909385681,0.0,0.0,0.0,0.0,0.0,0.0
916,1724914415562529996,-0.2750466465950012,0.079624243080616,0.16903246939182281,0.0695306658744812,-0.09764572978019714,-0.25811654329299927,0.9586483240127563,0.0,0.0,0.0,0.0,0.0,0.0
918,1724914415575516827,-0.2752452790737152,0.07955895364284515,0.16883862018585205,0.07059025019407272,-0.09806788712739944,-0.2590923011302948,0.9582645297050476,0.0,0.0,0.0,0.0,0.0,0.0
920,1724914415588505574,-0.27538374066352844,0.07955481112003326,0.16881953179836273,0.07079911977052689,-0.09816606342792511,-0.2602655589580536,0.9579210877418518,0.0,0.0,0.0,0.0,0.0,0.0
922,1724914415593088636,-0.2754286229610443,0.07950828224420547,0.16880255937576294,0.07076811045408249,-0.09848129749298096,-0.2606693506240845,0.957781195640564,0.0,0.0,0.0,0.0,0.0,0.0
924,1724914415605071956,-0.27543023228645325,0.0794222354888916,0.16883976757526398,0.07084449380636215,-0.09862347692251205,-0.2607535719871521,0.9577380418777466,0.0,0.0,0.0,0.0,0.0,0.0
926,1724914415612651000,-0.27538883686065674,0.07931432127952576,0.16885749995708466,0.07093509286642075,-0.0987473577260971,-0.2607195973396301,0.9577277302742004,0.0,0.0,0.0,0.0,0.0,0.0
928,1724914415623271771,-0.2753627300262451,0.07926414906978607,0.16886352002620697,0.07038509100675583,-0.0987391397356987,-0.26105427742004395,0.9576780200004578,0.0,0.0,0.0,0.0,0.0,0.0
930,1724914415633150425,-0.2752624452114105,0.07919523864984512,0.1687142550945282,0.07053294777870178,-0.09925474226474762,-0.2607121765613556,0.9577070474624634,0.0,0.0,0.0,0.0,0.0,0.0
932,1724914415642758908,-0.27518701553344727,0.07922247052192688,0.16873803734779358,0.07095154374837875,-0.09896427392959595,-0.261308878660202,0.9575435519218445,0.0,0.0,0.0,0.0,0.0,0.0
934,1724914415652989371,-0.27516159415245056,0.07923935353755951,0.16872592270374298,0.07106523960828781,-0.09901579469442368,-0.2619851231575012,0.9573449492454529,0.0,0.0,0.0,0.0,0.0,0.0
936,1724914415663121223,-0.2751389145851135,0.07926051318645477,0.16874942183494568,0.07119358330965042,-0.09924282878637314,-0.2626321017742157,0.9571346044540405,0.0,0.0,0.0,0.0,0.0,0.0
938,1724914415673472131,-0.27509209513664246,0.07930679619312286,0.16878148913383484,0.07155385613441467,-0.09942594915628433,-0.2633741796016693,0.9568848013877869,0.0,0.0,0.0,0.0,0.0,0.0
940,1724914415683624042,-0.27500224113464355,0.0793284997344017,0.1688176691532135,0.07217179238796234,-0.09950413554906845,-0.2643054723739624,0.956573486328125,0.0,0.0,0.0,0.0,0.0,0.0
942,1724914415693634809,-0.27490100264549255,0.07936513423919678,0.1688542664051056,0.07296080142259598,-0.0991610586643219,-0.26532143354415894,0.9562679529190063,0.0,0.0,0.0,0.0,0.0,0.0
944,1724914415702646529,-0.2747957706451416,0.07937915623188019,0.16884683072566986,0.07325693219900131,-0.0995178371667862,-0.26598241925239563,0.9560245871543884,0.0,0.0,0.0,0.0,0.0,0.0
946,1724914415738644569,-0.27468085289001465,0.07940581440925598,0.1688811182975769,0.0734388455748558,-0.0997544378042221,-0.26682212948799133,0.9557519555091858,0.0,0.0,0.0,0.0,0.0,0.0
948,1724914415738940081,-0.27450940012931824,0.07942217588424683,0.16885702311992645,0.07387715578079224,-0.10023842006921768,-0.267508327960968,0.9554757475852966,0.0,0.0,0.0,0.0,0.0,0.0
950,1724914415739194260,-0.27436989545822144,0.0794646367430687,0.16892603039741516,0.07399247586727142,-0.10047028213739395,-0.268937349319458,0.9550411105155945,0.0,0.0,0.0,0.0,0.0,0.0
952,1724914415742863627,-0.27418074011802673,0.07946376502513885,0.1690501868724823,0.0753224641084671,-0.10028901696205139,-0.2706034183502197,0.9544855356216431,0.0,0.0,0.0,0.0,0.0,0.0
954,1724914415752727209,-0.27404287457466125,0.07947492599487305,0.16907814145088196,0.07596157491207123,-0.10100363940000534,-0.27182888984680176,0.954011082649231,0.0,0.0,0.0,0.0,0.0,0.0
956,1724914415762745252,-0.2739259898662567,0.07950904965400696,0.1691456288099289,0.07597431540489197,-0.10146840661764145,-0.2733387351036072,0.9535292983055115,0.0,0.0,0.0,0.0,0.0,0.0
958,1724914415773187939,-0.2737746834754944,0.07964835315942764,0.16938179731369019,0.07667461037635803,-0.10047920793294907,-0.2754555940628052,0.9529685974121094,0.0,0.0,0.0,0.0,0.0,0.0
960,1724914415782522577,-0.27362608909606934,0.0795697420835495,0.1692894995212555,0.07588162273168564,-0.10242238640785217,-0.276400625705719,0.9525514841079712,0.0,0.0,0.0,0.0,0.0,0.0
962,1724914415856268344,-0.2734568119049072,0.07960763573646545,0.1693876087665558,0.07589787244796753,-0.10290829837322235,-0.27804791927337646,0.9520183205604553,0.0,0.0,0.0,0.0,0.0,0.0
964,1724914415856563667,-0.2733401358127594,0.07965609431266785,0.16959455609321594,0.07589926570653915,-0.10314614325761795,-0.27992820739746094,0.95144122838974,0.0,0.0,0.0,0.0,0.0,0.0
966,1724914415856835338,-0.2732383608818054,0.0798461064696312,0.1698939949274063,0.0762091875076294,-0.10284554213285446,-0.2816103398799896,0.9509524703025818,0.0,0.0,0.0,0.0,0.0,0.0
968,1724914415857083530,-0.27313393354415894,0.08000386506319046,0.1700367033481598,0.07662682980298996,-0.10280787944793701,-0.2829688489437103,0.9505196213722229,0.0,0.0,0.0,0.0,0.0,0.0
970,1724914415857399459,-0.27307483553886414,0.08033666014671326,0.17045384645462036,0.07679595053195953,-0.10173600167036057,-0.28626295924186707,0.9496344923973083,0.0,0.0,0.0,0.0,0.0,0.0
972,1724914415857718326,-0.2729819416999817,0.08056102693080902,0.17059758305549622,0.0766443982720375,-0.10221979022026062,-0.2881511449813843,0.9490235447883606,0.0,0.0,0.0,0.0,0.0,0.0
974,1724914415857972113,-0.2727949023246765,0.0807860717177391,0.17049983143806458,0.07699940353631973,-0.10314197093248367,-0.2881889045238495,0.948883593082428,0.0,0.0,0.0,0.0,0.0,0.0
976,1724914415862566319,-0.27263057231903076,0.0812191516160965,0.17087994515895844,0.0796581357717514,-0.10207782685756683,-0.2894740700721741,0.948387861251831,0.0,0.0,0.0,0.0,0.0,0.0
978,1724914415874836588,-0.27252307534217834,0.08153203129768372,0.17107273638248444,0.08027085661888123,-0.10200650990009308,-0.29049819707870483,0.9480305910110474,0.0,0.0,0.0,0.0,0.0,0.0
980,1724914415883068595,-0.2724955976009369,0.08193918317556381,0.1714089959859848,0.08011305332183838,-0.10137731581926346,-0.2921942472457886,0.9475901126861572,0.0,0.0,0.0,0.0,0.0,0.0
982,1724914415893696945,-0.27229925990104675,0.08217170089483261,0.17137515544891357,0.07985667884349823,-0.10373423248529434,-0.2927163243293762,0.9471955299377441,0.0,0.0,0.0,0.0,0.0,0.0
984,1724914415903115055,-0.2721472382545471,0.0826045423746109,0.1716088056564331,0.07984289526939392,-0.10542658716440201,-0.29324811697006226,0.946845293045044,0.0,0.0,0.0,0.0,0.0,0.0
986,1724914415913074727,-0.271999329328537,0.08309391140937805,0.17213541269302368,0.08083552867174149,-0.10525036603212357,-0.2941420078277588,0.9465032815933228,0.0,0.0,0.0,0.0,0.0,0.0
988,1724914415924481773,-0.2719214856624603,0.08359859138727188,0.17262688279151917,0.0812249481678009,-0.10465901345014572,-0.2950302064418793,0.9462590217590332,0.0,0.0,0.0,0.0,0.0,0.0
990,1724914415933935948,-0.2719120383262634,0.08412037789821625,0.17292113602161407,0.08055663108825684,-0.1050315797328949,-0.29599350690841675,0.9459739923477173,0.0,0.0,0.0,0.0,0.0,0.0
992,1724914415944296052,-0.27187666296958923,0.08477828651666641,0.17334631085395813,0.07953134179115295,-0.10469768196344376,-0.2973375916481018,0.9456762671470642,0.0,0.0,0.0,0.0,0.0,0.0
994,1724914415954340464,-0.2716766893863678,0.08561642467975616,0.17421942949295044,0.07948566973209381,-0.10294822603464127,-0.2985285818576813,0.9454969167709351,0.0,0.0,0.0,0.0,0.0,0.0
996,1724914415964228182,-0.2715683877468109,0.0863509401679039,0.17496345937252045,0.07671643793582916,-0.10219410806894302,-0.3000563383102417,0.9453238248825073,0.0,0.0,0.0,0.0,0.0,0.0
998,1724914415973418864,-0.2713012993335724,0.08715792745351791,0.1758783906698227,0.07689663767814636,-0.1009066253900528,-0.30195218324661255,0.9448437094688416,0.0,0.0,0.0,0.0,0.0,0.0
1000,1724914415984423271,-0.27103710174560547,0.0878477692604065,0.17666710913181305,0.07732772827148438,-0.09995538741350174,-0.3035391569137573,0.9444010853767395,0.0,0.0,0.0,0.0,0.0,0.0
1002,1724914415993286122,-0.2707817554473877,0.0884147584438324,0.17736424505710602,0.07647176831960678,-0.0996256172657013,-0.30543026328086853,0.9438957571983337,0.0,0.0,0.0,0.0,0.0,0.0
1004,1724914416002775302,-0.270541250705719,0.08921542018651962,0.17811891436576843,0.07438642531633377,-0.09704462438821793,-0.3078024983406067,0.9435606598854065,0.0,0.0,0.0,0.0,0.0,0.0
1006,1724914416013028047,-0.27023109793663025,0.0899655744433403,0.17861248552799225,0.07200023531913757,-0.09630982577800751,-0.3091684579849243,0.9433743953704834,0.0,0.0,0.0,0.0,0.0,0.0
1008,1724914416024929916,-0.26976311206817627,0.0905614048242569,0.1786956489086151,0.07034127414226532,-0.09737730026245117,-0.3091048300266266,0.9434108138084412,0.0,0.0,0.0,0.0,0.0,0.0
1010,1724914416032723290,-0.26932960748672485,0.09150940924882889,0.17935366928577423,0.06911157071590424,-0.09476546198129654,-0.31146931648254395,0.9429900050163269,0.0,0.0,0.0,0.0,0.0,0.0
1012,1724914416044533509,-0.2688319683074951,0.09249380975961685,0.1799720674753189,0.06744874268770218,-0.09320436418056488,-0.3132445514202118,0.9426777958869934,0.0,0.0,0.0,0.0,0.0,0.0
1014,1724914416053263583,-0.2681903541088104,0.09351828694343567,0.18054668605327606,0.06538617610931396,-0.09136451780796051,-0.3146342933177948,0.9425404667854309,0.0,0.0,0.0,0.0,0.0,0.0
1016,1724914416062488973,-0.2674355208873749,0.09491905570030212,0.18129763007164001,0.06325482577085495,-0.08873479068279266,-0.3158956468105316,0.9425152540206909,0.0,0.0,0.0,0.0,0.0,0.0
1018,1724914416074390800,-0.26646295189857483,0.09622654318809509,0.18182863295078278,0.06279777735471725,-0.08575155586004257,-0.3174234926700592,0.9423085451126099,0.0,0.0,0.0,0.0,0.0,0.0
1020,1724914416082426106,-0.26573002338409424,0.09746130555868149,0.1821335107088089,0.059810999780893326,-0.08264601230621338,-0.3187677562236786,0.9423266053199768,0.0,0.0,0.0,0.0,0.0,0.0
1022,1724914416094043190,-0.264718621969223,0.09900300949811935,0.18290890753269196,0.05903012678027153,-0.07673172652721405,-0.3206380307674408,0.9422415494918823,0.0,0.0,0.0,0.0,0.0,0.0
1024,1724914416102714102,-0.26344814896583557,0.10046873986721039,0.183355450630188,0.056146666407585144,-0.07430050522089005,-0.3218076527118683,0.9422138333320618,0.0,0.0,0.0,0.0,0.0,0.0
1026,1724914416112575892,-0.26220986247062683,0.10200749337673187,0.1835382878780365,0.05226263403892517,-0.07142944633960724,-0.32393723726272583,0.9419294595718384,0.0,0.0,0.0,0.0,0.0,0.0
1028,1724914416124852445,-0.26081687211990356,0.10323631763458252,0.18339310586452484,0.04983094334602356,-0.06955988705158234,-0.32404905557632446,0.9421626925468445,0.0,0.0,0.0,0.0,0.0,0.0
1030,1724914416132510377,-0.25918567180633545,0.10451779514551163,0.18320369720458984,0.0477459542453289,-0.06639552861452103,-0.3245074152946472,0.9423412680625916,0.0,0.0,0.0,0.0,0.0,0.0
1032,1724914416144419993,-0.25758445262908936,0.10601385682821274,0.18359747529029846,0.04320631921291351,-0.0616995245218277,-0.3273811340332031,0.9418852925300598,0.0,0.0,0.0,0.0,0.0,0.0
1034,1724914416152716203,-0.2560027241706848,0.10740146040916443,0.1835603266954422,0.038308724761009216,-0.058071840554475784,-0.32818862795829773,0.9420469403266907,0.0,0.0,0.0,0.0,0.0,0.0
1036,1724914416162616703,-0.2541428804397583,0.10878608375787735,0.18383462727069855,0.03697487711906433,-0.05251666530966759,-0.3292415738105774,0.9420588612556458,0.0,0.0,0.0,0.0,0.0,0.0
1038,1724914416173243624,-0.2520833909511566,0.10996082425117493,0.1839224398136139,0.032743290066719055,-0.04863838478922844,-0.32818037271499634,0.9427936673164368,0.0,0.0,0.0,0.0,0.0,0.0
1040,1724914416183172086,-0.2497219741344452,0.11140049993991852,0.18426883220672607,0.03233412280678749,-0.041995562613010406,-0.3279663920402527,0.9432014226913452,0.0,0.0,0.0,0.0,0.0,0.0
1042,1724914416192572076,-0.2474021017551422,0.11294306814670563,0.18510784208774567,0.028706714510917664,-0.03311890363693237,-0.3308849036693573,0.9426528215408325,0.0,0.0,0.0,0.0,0.0,0.0
1044,1724914416202805650,-0.24468572437763214,0.11420869082212448,0.18513917922973633,0.022477127611637115,-0.02970479056239128,-0.3293851912021637,0.9434605240821838,0.0,0.0,0.0,0.0,0.0,0.0
1046,1724914416213296731,-0.2416485995054245,0.11593738198280334,0.18543538451194763,0.01845776103436947,-0.020803751423954964,-0.3315539062023163,0.9430262446403503,0.0,0.0,0.0,0.0,0.0,0.0
1048,1724914416223287662,-0.23849180340766907,0.11722605675458908,0.18593166768550873,0.012731504626572132,-0.013971292413771152,-0.334428071975708,0.9422317743301392,0.0,0.0,0.0,0.0,0.0,0.0
1050,1724914416232735648,-0.23575949668884277,0.11786990612745285,0.18495647609233856,0.012827736325562,-0.013903066515922546,-0.3314090669155121,0.9432975053787231,0.0,0.0,0.0,0.0,0.0,0.0
1052,1724914416243292079,-0.23306520283222198,0.11911693960428238,0.18530000746250153,0.00976102240383625,-0.01010281965136528,-0.3325123190879822,0.9429943561553955,0.0,0.0,0.0,0.0,0.0,0.0
1054,1724914416252614407,-0.23072019219398499,0.12002676725387573,0.1857624053955078,0.009870678186416626,-0.00833252165466547,-0.3338507115840912,0.9425374865531921,0.0,0.0,0.0,0.0,0.0,0.0
1056,1724914416263180173,-0.22890304028987885,0.12070413678884506,0.18636301159858704,0.010139978490769863,-0.01124192401766777,-0.3343861699104309,0.9423145651817322,0.0,0.0,0.0,0.0,0.0,0.0
1058,1724914416275253395,-0.22748716175556183,0.12143336236476898,0.18692536652088165,0.011580473743379116,-0.012332228943705559,-0.33525729179382324,0.9419746994972229,0.0,0.0,0.0,0.0,0.0,0.0
1060,1724914416282605630,-0.2265421599149704,0.1221144050359726,0.18763211369514465,0.011866629123687744,-0.011519969440996647,-0.3362794816493988,0.9416170120239258,0.0,0.0,0.0,0.0,0.0,0.0
1062,1724914416292831143,-0.2262057065963745,0.12287561595439911,0.1881118267774582,0.01102829072624445,-0.010610978119075298,-0.33649447560310364,0.9415611028671265,0.0,0.0,0.0,0.0,0.0,0.0
1064,1724914416302679306,-0.22617661952972412,0.12349646538496017,0.1885630041360855,0.010803707875311375,-0.011149575933814049,-0.3373447358608246,0.941253125667572,0.0,0.0,0.0,0.0,0.0,0.0
1066,1724914416312817881,-0.22655686736106873,0.12398821115493774,0.18865966796875,0.010098843835294247,-0.013168838806450367,-0.33800292015075684,0.9409987926483154,0.0,0.0,0.0,0.0,0.0,0.0
1068,1724914416324792315,-0.2272297590970993,0.12439229339361191,0.18837293982505798,0.01067967526614666,-0.015852928161621094,-0.33800050616264343,0.9409518837928772,0.0,0.0,0.0,0.0,0.0,0.0
1070,1724914416334793445,-0.22820697724819183,0.1248459592461586,0.18795575201511383,0.011627265252172947,-0.01863565482199192,-0.3374752104282379,0.9410781860351562,0.0,0.0,0.0,0.0,0.0,0.0
1072,1724914416346196051,-0.22940832376480103,0.1252894401550293,0.18740463256835938,0.010953241027891636,-0.021708302199840546,-0.33811697363853455,0.9407899379730225,0.0,0.0,0.0,0.0,0.0,0.0
1074,1724914416353808848,-0.23132042586803436,0.1258990615606308,0.18634238839149475,0.010637634433805943,-0.0236608125269413,-0.33792904019355774,0.9408140182495117,0.0,0.0,0.0,0.0,0.0,0.0
1076,1724914416362687638,-0.23331308364868164,0.12609554827213287,0.18512721359729767,0.008994183503091335,-0.029020236805081367,-0.3371818959712982,0.9409492015838623,0.0,0.0,0.0,0.0,0.0,0.0
1078,1724914416376391574,-0.2353917956352234,0.1264880746603012,0.1836448460817337,0.008919762447476387,-0.03388678655028343,-0.33666589856147766,0.9409719109535217,0.0,0.0,0.0,0.0,0.0,0.0
1080,1724914416383030408,-0.23745588958263397,0.12686601281166077,0.1821409910917282,0.007547607645392418,-0.04019716754555702,-0.33581075072288513,0.9410411715507507,0.0,0.0,0.0,0.0,0.0,0.0
1082,1724914416394293725,-0.23959077894687653,0.12734541296958923,0.18092277646064758,0.009287086315453053,-0.044291842728853226,-0.3369462192058563,0.9404357671737671,0.0,0.0,0.0,0.0,0.0,0.0
1084,1724914416403148917,-0.24175606667995453,0.1275557428598404,0.17953850328922272,0.008821108378469944,-0.04908917844295502,-0.33604422211647034,0.940524697303772,0.0,0.0,0.0,0.0,0.0,0.0
1086,1724914416412963763,-0.24401746690273285,0.12806755304336548,0.178238183259964,0.009849410504102707,-0.051520440727472305,-0.3368459641933441,0.9400976300239563,0.0,0.0,0.0,0.0,0.0,0.0
1088,1724914416424057625,-0.24631956219673157,0.12841783463954926,0.17698918282985687,0.007652238942682743,-0.05586778372526169,-0.33648422360420227,0.9399993419647217,0.0,0.0,0.0,0.0,0.0,0.0
1090,1724914416450202443,-0.24861523509025574,0.12871839106082916,0.17559832334518433,0.007751948200166225,-0.05953934043645859,-0.33615124225616455,0.9398921728134155,0.0,0.0,0.0,0.0,0.0,0.0
1092,1724914416450620402,-0.25066715478897095,0.12899377942085266,0.17467890679836273,0.008498645387589931,-0.06353525072336197,-0.33772608637809753,0.9390592575073242,0.0,0.0,0.0,0.0,0.0,0.0
1094,1724914416452594419,-0.25287488102912903,0.12925276160240173,0.17349937558174133,0.009239220060408115,-0.06828824430704117,-0.33885589241981506,0.9383113384246826,0.0,0.0,0.0,0.0,0.0,0.0
1096,1724914416462767286,-0.2548469007015228,0.129419207572937,0.1721898764371872,0.009776723571121693,-0.07282603532075882,-0.33843693137168884,0.9381157755851746,0.0,0.0,0.0,0.0,0.0,0.0
1098,1724914416473720624,-0.2566985487937927,0.12974026799201965,0.17124421894550323,0.011053929105401039,-0.07347238063812256,-0.33998367190361023,0.937491774559021,0.0,0.0,0.0,0.0,0.0,0.0
1100,1724914416483106640,-0.2585417330265045,0.1298624873161316,0.17010821402072906,0.01055163610726595,-0.07764170318841934,-0.34074732661247253,0.9368841052055359,0.0,0.0,0.0,0.0,0.0,0.0
1102,1724914416493146538,-0.26032042503356934,0.12994535267353058,0.1691501885652542,0.006926882546395063,-0.08082635700702667,-0.34096381068229675,0.9365696907043457,0.0,0.0,0.0,0.0,0.0,0.0
1104,1724914416503018322,-0.26207223534584045,0.13027840852737427,0.16861507296562195,0.00576281500980258,-0.08182182908058167,-0.3431249260902405,0.9357015490531921,0.0,0.0,0.0,0.0,0.0,0.0
1106,1724914416512852519,-0.2634041905403137,0.13031770288944244,0.16770526766777039,0.0069831847213208675,-0.08458907902240753,-0.3425840437412262,0.9356454014778137,0.0,0.0,0.0,0.0,0.0,0.0
1108,1724914416553468711,-0.26467064023017883,0.1303550899028778,0.16689036786556244,0.008673322387039661,-0.08661764115095139,-0.34248992800712585,0.9354800581932068,0.0,0.0,0.0,0.0,0.0,0.0
1110,1724914416553759689,-0.2658455967903137,0.13026337325572968,0.16585242748260498,0.00926731713116169,-0.09078782051801682,-0.34098169207572937,0.9356299042701721,0.0,0.0,0.0,0.0,0.0,0.0
1112,1724914416554009046,-0.26703107357025146,0.13033443689346313,0.16524676978588104,0.006261612754315138,-0.09255631268024445,-0.3406302034854889,0.9356095194816589,0.0,0.0,0.0,0.0,0.0,0.0
1114,1724914416554239923,-0.26799261569976807,0.13035279512405396,0.16465476155281067,0.005760539788752794,-0.09470245242118835,-0.34005042910575867,0.9356088638305664,0.0,0.0,0.0,0.0,0.0,0.0
1116,1724914416563122378,-0.2688141167163849,0.13034740090370178,0.16404989361763,0.00558995408937335,-0.09678290039300919,-0.33941957354545593,0.9356260895729065,0.0,0.0,0.0,0.0,0.0,0.0
1118,1724914416575612946,-0.26960259675979614,0.13043418526649475,0.16342048346996307,0.005180170759558678,-0.09762062132358551,-0.3389838933944702,0.9356993436813354,0.0,0.0,0.0,0.0,0.0,0.0
1120,1724914416582912463,-0.2700563371181488,0.13057264685630798,0.16307075321674347,0.008476409129798412,-0.09824234247207642,-0.3384702503681183,0.9357962608337402,0.0,0.0,0.0,0.0,0.0,0.0
1122,1724914416595112545,-0.27049434185028076,0.1307992935180664,0.16298209130764008,0.009220507927238941,-0.09854169189929962,-0.33814647793769836,0.9358747005462646,0.0,0.0,0.0,0.0,0.0,0.0
1124,1724914416603231765,-0.270942360162735,0.1309669017791748,0.16306649148464203,0.008231664076447487,-0.09883725643157959,-0.33845680952072144,0.9357406497001648,0.0,0.0,0.0,0.0,0.0,0.0
1126,1724914416613063913,-0.2713488042354584,0.13098426163196564,0.1628449559211731,0.0054494100622832775,-0.10019277036190033,-0.3372621536254883,0.9360480904579163,0.0,0.0,0.0,0.0,0.0,0.0
1128,1724914416625062688,-0.2715696096420288,0.1309979110956192,0.16282342374324799,0.005510750692337751,-0.10023081302642822,-0.3362956643104553,0.936391294002533,0.0,0.0,0.0,0.0,0.0,0.0
1130,1724914416632840687,-0.271750807762146,0.13096894323825836,0.1628291755914688,0.005875187460333109,-0.1002773866057396,-0.3354641795158386,0.9366822838783264,0.0,0.0,0.0,0.0,0.0,0.0
1132,1724914416666983326,-0.2718915641307831,0.13093580305576324,0.16284659504890442,0.006248469930142164,-0.10033346712589264,-0.3348851203918457,0.9368810653686523,0.0,0.0,0.0,0.0,0.0,0.0
1134,1724914416667533026,-0.27198365330696106,0.13088108599185944,0.16277123987674713,0.006498140282928944,-0.10068323463201523,-0.3343295156955719,0.9370402097702026,0.0,0.0,0.0,0.0,0.0,0.0
1136,1724914416674832371,-0.27204614877700806,0.13080736994743347,0.16266757249832153,0.006641356740146875,-0.10124348849058151,-0.3337717354297638,0.9371777772903442,0.0,0.0,0.0,0.0,0.0,0.0
1138,1724914416675073567,-0.2720631957054138,0.13078010082244873,0.16265715658664703,0.006382132414728403,-0.1015993058681488,-0.3332631587982178,0.9373219609260559,0.0,0.0,0.0,0.0,0.0,0.0
1140,1724914416683825112,-0.27204328775405884,0.13087652623653412,0.16287288069725037,0.00704695051535964,-0.10042218863964081,-0.33319520950317383,0.9374682307243347,0.0,0.0,0.0,0.0,0.0,0.0
1142,1724914416695233408,-0.2720317542552948,0.13088127970695496,0.16293422877788544,0.006957221310585737,-0.10022354871034622,-0.3325260877609253,0.937727689743042,0.0,0.0,0.0,0.0,0.0,0.0
1144,1724914416702882022,-0.27197515964508057,0.1308656632900238,0.16301096975803375,0.007064543664455414,-0.10028662532567978,-0.33209228515625,0.9378738403320312,0.0,0.0,0.0,0.0,0.0,0.0
1146,1724914416713439916,-0.2718949615955353,0.1308227926492691,0.16306805610656738,0.006986995693296194,-0.10044253617525101,-0.3315674662590027,0.9380434155464172,0.0,0.0,0.0,0.0,0.0,0.0
1148,1724914416725672817,-0.2717169523239136,0.13078323006629944,0.16303567588329315,0.006551629398018122,-0.1008094996213913,-0.3300820291042328,0.9385309815406799,0.0,0.0,0.0,0.0,0.0,0.0
1150,1724914416732994555,-0.2715319097042084,0.1307682991027832,0.16297796368598938,0.00632247980684042,-0.10073252767324448,-0.3287368714809418,0.9390127658843994,0.0,0.0,0.0,0.0,0.0,0.0
1152,1724914416744424977,-0.27133747935295105,0.1308131217956543,0.16302312910556793,0.006396261043846607,-0.10051882266998291,-0.32771265506744385,0.939393162727356,0.0,0.0,0.0,0.0,0.0,0.0
1154,1724914416752930108,-0.27117812633514404,0.13081780076026917,0.16321906447410583,0.005896596238017082,-0.10081441700458527,-0.3273126482963562,0.9395042657852173,0.0,0.0,0.0,0.0,0.0,0.0
1156,1724914416763598046,-0.27105337381362915,0.13080830872058868,0.16348278522491455,0.004455119837075472,-0.10139083117246628,-0.3266009986400604,0.939697802066803,0.0,0.0,0.0,0.0,0.0,0.0
1158,1724914416773256065,-0.2707294821739197,0.1307957023382187,0.1638050526380539,0.004347126930952072,-0.10246548801660538,-0.32489997148513794,0.9401713013648987,0.0,0.0,0.0,0.0,0.0,0.0
1160,1724914416782615393,-0.27040746808052063,0.13074886798858643,0.1642238199710846,0.004502120893448591,-0.10280913859605789,-0.32370978593826294,0.940543532371521,0.0,0.0,0.0,0.0,0.0,0.0
1162,1724914416793008262,-0.27013033628463745,0.13065111637115479,0.16450418531894684,0.004635465797036886,-0.10309720784425735,-0.32234635949134827,0.9409794807434082,0.0,0.0,0.0,0.0,0.0,0.0
1164,1724914416803449208,-0.2698623538017273,0.130434051156044,0.1646483689546585,0.004358852282166481,-0.10535349696874619,-0.3205729126930237,0.9413366913795471,0.0,0.0,0.0,0.0,0.0,0.0
1166,1724914416812526227,-0.26949799060821533,0.13029776513576508,0.1651487648487091,0.004604429006576538,-0.10598438233137131,-0.32032516598701477,0.9413489699363708,0.0,0.0,0.0,0.0,0.0,0.0
1168,1724914416824641399,-0.2691507339477539,0.13004101812839508,0.16550670564174652,0.0036667839158326387,-0.10644322633743286,-0.3194737732410431,0.9415906071662903,0.0,0.0,0.0,0.0,0.0,0.0
1170,1724914416832702345,-0.26875415444374084,0.1297612190246582,0.1657080203294754,0.0025882208719849586,-0.10648079216480255,-0.31791970133781433,0.942115843296051,0.0,0.0,0.0,0.0,0.0,0.0
1172,1724914416843822178,-0.2681679129600525,0.1294921487569809,0.16596563160419464,0.0024103301111608744,-0.10699088126420975,-0.3156384527683258,0.9428253173828125,0.0,0.0,0.0,0.0,0.0,0.0
1174,1724914416852626864,-0.26761242747306824,0.12917570769786835,0.16631926596164703,0.002907907124608755,-0.10687372088432312,-0.3140139877796173,0.9433795213699341,0.0,0.0,0.0,0.0,0.0,0.0
1176,1724914416862564165,-0.26710379123687744,0.12879066169261932,0.16692817211151123,0.002489587292075157,-0.10622931271791458,-0.3132576048374176,0.9437049031257629,0.0,0.0,0.0,0.0,0.0,0.0
1178,1724914416876542421,-0.26654449105262756,0.12834401428699493,0.16755411028862,0.000656994350720197,-0.10587135702371597,-0.3117235004901886,0.9442560076713562,0.0,0.0,0.0,0.0,0.0,0.0
1180,1724914416883383737,-0.26593270897865295,0.1280076801776886,0.16839970648288727,-0.00022932184219826013,-0.10505310446023941,-0.31089791655540466,0.9446197152137756,0.0,0.0,0.0,0.0,0.0,0.0
1182,1724914416892721496,-0.265158474445343,0.1275225281715393,0.16885726153850555,0.0010094124590978026,-0.1058950424194336,-0.30831852555274963,0.9453702569007874,0.0,0.0,0.0,0.0,0.0,0.0
1184,1724914416902969445,-0.2643880844116211,0.12716291844844818,0.1695563942193985,0.0015589946415275335,-0.10392070561647415,-0.30691400170326233,0.9460453987121582,0.0,0.0,0.0,0.0,0.0,0.0
1186,1724914416912803755,-0.26373738050460815,0.12668181955814362,0.1702059507369995,0.0005236758152022958,-0.10269840061664581,-0.3060404658317566,0.9464629292488098,0.0,0.0,0.0,0.0,0.0,0.0
1188,1724914416923847212,-0.26313072443008423,0.12621785700321198,0.17114299535751343,-0.0013037723256275058,-0.10074447095394135,-0.30629751086235046,0.9465889930725098,0.0,0.0,0.0,0.0,0.0,0.0
1190,1724914416932939975,-0.2623784840106964,0.12560050189495087,0.1718350648880005,-0.0027969777584075928,-0.10108502954244614,-0.3045603632926941,0.9471098780632019,0.0,0.0,0.0,0.0,0.0,0.0
1192,1724914416942913653,-0.261558473110199,0.12502658367156982,0.17251166701316833,-0.002991932677105069,-0.1005011647939682,-0.30258339643478394,0.9478047490119934,0.0,0.0,0.0,0.0,0.0,0.0
1194,1724914416953077460,-0.260622501373291,0.12446437031030655,0.17304882407188416,-0.002887293929234147,-0.09938642382621765,-0.3000171482563019,0.9487380385398865,0.0,0.0,0.0,0.0,0.0,0.0
1196,1724914416963121770,-0.2594273090362549,0.12386742979288101,0.1739434152841568,-0.0014778730692341924,-0.09799996763467789,-0.298828125,0.9492605924606323,0.0,0.0,0.0,0.0,0.0,0.0
1198,1724914416981999217,-0.2583741545677185,0.12338416278362274,0.1746090203523636,-0.001298578456044197,-0.0960364043712616,-0.29726311564445496,0.9499526023864746,0.0,0.0,0.0,0.0,0.0,0.0
1200,1724914416982718388,-0.25736212730407715,0.12295375764369965,0.17528052628040314,-0.0023033733014017344,-0.09299535304307938,-0.2954919636249542,0.9508054852485657,0.0,0.0,0.0,0.0,0.0,0.0
1202,1724914416992664976,-0.25620216131210327,0.12260040640830994,0.17634879052639008,-0.0018325831042602658,-0.09031254053115845,-0.2950710654258728,0.9511957764625549,0.0,0.0,0.0,0.0,0.0,0.0
1204,1724914417002772209,-0.2550271451473236,0.12202200293540955,0.1771807223558426,-0.001146604772657156,-0.08969176560640335,-0.29365453124046326,0.9516938328742981,0.0,0.0,0.0,0.0,0.0,0.0
1206,1724914417013068833,-0.2538059949874878,0.12142613530158997,0.17793479561805725,-0.0007832159753888845,-0.08719345927238464,-0.29295286536216736,0.9521424770355225,0.0,0.0,0.0,0.0,0.0,0.0
1208,1724914417023750900,-0.25236785411834717,0.12088531255722046,0.17893405258655548,0.002549925819039345,-0.08274766057729721,-0.2923745810985565,0.9527137875556946,0.0,0.0,0.0,0.0,0.0,0.0
1210,1724914417032925686,-0.2510625720024109,0.12018321454524994,0.17992354929447174,0.002327126683667302,-0.07892931252717972,-0.29095029830932617,0.9534740447998047,0.0,0.0,0.0,0.0,0.0,0.0
1212,1724914417043248210,-0.249642014503479,0.119430772960186,0.18097561597824097,0.0025799137074500322,-0.07517959177494049,-0.29101455211639404,0.9537567496299744,0.0,0.0,0.0,0.0,0.0,0.0
1214,1724914417052720391,-0.24801942706108093,0.11867097020149231,0.18204405903816223,0.00018144772911909968,-0.07037568837404251,-0.2906377911567688,0.9542416334152222,0.0,0.0,0.0,0.0,0.0,0.0
1216,1724914417063288461,-0.2463558465242386,0.11807900667190552,0.18325471878051758,-0.00234817317686975,-0.06514677405357361,-0.2909592092037201,0.9545120000839233,0.0,0.0,0.0,0.0,0.0,0.0
1218,1724914417076024917,-0.24447426199913025,0.11717253178358078,0.18416054546833038,-0.0014492584159597754,-0.06017160788178444,-0.289135217666626,0.9553943276405334,0.0,0.0,0.0,0.0,0.0,0.0
1220,1724914417085643501,-0.24238801002502441,0.11637619137763977,0.18514356017112732,-0.0012911282246932387,-0.05347485467791557,-0.2880743443965912,0.9561130404472351,0.0,0.0,0.0,0.0,0.0,0.0
1222,1724914417095283201,-0.24026980996131897,0.11558089405298233,0.18589408695697784,-0.0021409911569207907,-0.04633048176765442,-0.28738296031951904,0.9566922187805176,0.0,0.0,0.0,0.0,0.0,0.0
1224,1724914417103971361,-0.23790840804576874,0.11426597833633423,0.18652619421482086,-0.002314071636646986,-0.041363731026649475,-0.28633415699005127,0.957233726978302,0.0,0.0,0.0,0.0,0.0,0.0
1226,1724914417124104461,-0.23535290360450745,0.11306146532297134,0.18692278861999512,-0.0018684043316170573,-0.03582528606057167,-0.28609007596969604,0.9575310349464417,0.0,0.0,0.0,0.0,0.0,0.0
1228,1724914417124594739,-0.23264674842357635,0.11180510371923447,0.1872682273387909,-0.0010629546595737338,-0.029695596545934677,-0.2851206958293915,0.9580309391021729,0.0,0.0,0.0,0.0,0.0,0.0
1230,1724914417133233983,-0.2297745645046234,0.11049527674913406,0.18748511373996735,-0.00045781422522850335,-0.02117830701172352,-0.28436198830604553,0.9584830403327942,0.0,0.0,0.0,0.0,0.0,0.0
1232,1724914417152696076,-0.22700685262680054,0.10910778492689133,0.18734556436538696,-0.0005381490336731076,-0.01625007763504982,-0.2811852991580963,0.9595158696174622,0.0,0.0,0.0,0.0,0.0,0.0
1234,1724914417153188894,-0.2246839702129364,0.10761433094739914,0.1876833736896515,-0.00266848411411047,-0.012912001460790634,-0.28216180205345154,0.9592762589454651,0.0,0.0,0.0,0.0,0.0,0.0
1236,1724914417162737196,-0.22195611894130707,0.10590860992670059,0.1877744495868683,0.0023654543329030275,-0.011011664755642414,-0.2798120975494385,0.9599887728691101,0.0,0.0,0.0,0.0,0.0,0.0
1238,1724914417174032752,-0.2199898213148117,0.10486117750406265,0.18828853964805603,0.0008446620777249336,-0.011247063986957073,-0.2796698212623596,0.9600299596786499,0.0,0.0,0.0,0.0,0.0,0.0
1240,1724914417183150537,-0.21853087842464447,0.10402949899435043,0.18896843492984772,0.0018575683934614062,-0.011024056933820248,-0.27941516041755676,0.960105299949646,0.0,0.0,0.0,0.0,0.0,0.0
1242,1724914417192900963,-0.21757248044013977,0.1028541773557663,0.1896815299987793,0.0017993185902014375,-0.013022849336266518,-0.2781403660774231,0.9604504704475403,0.0,0.0,0.0,0.0,0.0,0.0
1244,1724914417202866935,-0.21714958548545837,0.10190559178590775,0.19068674743175507,0.0008746609091758728,-0.01384696550667286,-0.2782047688961029,0.9604215621948242,0.0,0.0,0.0,0.0,0.0,0.0
1246,1724914417214043873,-0.21722733974456787,0.1008966937661171,0.19153518974781036,0.002636154182255268,-0.013604586012661457,-0.2779557704925537,0.9604939818382263,0.0,0.0,0.0,0.0,0.0,0.0
1248,1724914417228315598,-0.21787120401859283,0.09978878498077393,0.19202782213687897,0.0025000351015478373,-0.013624021783471107,-0.27595576643943787,0.9610705971717834,0.0,0.0,0.0,0.0,0.0,0.0
1250,1724914417232623156,-0.21886423230171204,0.09867830574512482,0.19230641424655914,0.002036908408626914,-0.015790270641446114,-0.27440041303634644,0.9614837765693665,0.0,0.0,0.0,0.0,0.0,0.0
1252,1724914417266888236,-0.22023117542266846,0.09743613004684448,0.19213011860847473,0.004447828512638807,-0.018967341631650925,-0.27378541231155396,0.9615935683250427,0.0,0.0,0.0,0.0,0.0,0.0
1254,1724914417267390481,-0.2219076305627823,0.09593541920185089,0.19222843647003174,0.008467446081340313,-0.02164579927921295,-0.2740803062915802,0.9614259600639343,0.0,0.0,0.0,0.0,0.0,0.0
1256,1724914417267958872,-0.22411692142486572,0.09436608850955963,0.19149471819400787,0.013745567761361599,-0.02591995894908905,-0.2717691957950592,0.9619151949882507,0.0,0.0,0.0,0.0,0.0,0.0
1258,1724914417273039887,-0.22656911611557007,0.09293509274721146,0.1906108260154724,0.01736055687069893,-0.030721822753548622,-0.27106282114982605,0.9619147181510925,0.0,0.0,0.0,0.0,0.0,0.0
1260,1724914417282565631,-0.22945769131183624,0.09118904173374176,0.18953028321266174,0.021330630406737328,-0.03708517178893089,-0.2710396647453308,0.9616169333457947,0.0,0.0,0.0,0.0,0.0,0.0
1262,1724914417292960824,-0.2322588860988617,0.08977828919887543,0.18862086534500122,0.026525631546974182,-0.03999726101756096,-0.2711218297481537,0.9613478183746338,0.0,0.0,0.0,0.0,0.0,0.0
1264,1724914417302689201,-0.23548981547355652,0.08834096789360046,0.18712636828422546,0.02788469009101391,-0.04666374996304512,-0.26960450410842896,0.9614356160163879,0.0,0.0,0.0,0.0,0.0,0.0
1266,1724914417312587341,-0.2385387420654297,0.08689015358686447,0.18593569099903107,0.03231680020689964,-0.0523868203163147,-0.2691437304019928,0.9611311554908752,0.0,0.0,0.0,0.0,0.0,0.0
1268,1724914417324596974,-0.24153417348861694,0.0858025774359703,0.18517951667308807,0.03605152666568756,-0.055339403450489044,-0.26958146691322327,0.9607099890708923,0.0,0.0,0.0,0.0,0.0,0.0
