seq,stamp,px,py,pz,ox,oy,oz,ow,lx,ly,lz,ax,ay,az,timestamp,wx,wy,wz,aa_x,aa_y,aa_z,roll,pitch,yaw,vx,vy,vz,jx,jy,jz,fw
196,1724914142440358173,-0.132890373468399,0.082506738603115,0.1588827967643737,0.0117581291124224,-0.0842482522130012,-0.2919672131538391,0.9526379704475404,0.0,0.0,0.0,3.6872780392108337,4.026644049883509,1.539718727093563,0.0,0.0,0.0,0.0,-18.455130060783336,-103.55672955210984,70.23912963810511,0.0725219101322498,-0.1542612782490408,-0.6003946365103602,-0.2066390484849116,-0.1932679681496547,-0.0644612755343351,-7777.821502638103,-5676.93615017309,-1498.7225709498405,0.0
198,1724914142449168316,-0.134710893034935,0.0808040201663971,0.1583148837089538,0.009672618471086,-0.0878987982869148,-0.2894744873046875,0.9530922770500184,0.0,0.0,0.0,-64.83644162750572,-45.987975235010886,-11.664241440302176,0.008810143,-0.1625923349190998,-0.9123495959664136,0.6188167763072442,-9.663821747949436,-59.97663112940129,41.83260522047529,0.0703120787779373,-0.1626678178173247,-0.5954685851678504,-0.1741536016787046,-0.1577926582600819,-0.0508961333688628,-914.8536247193888,-645.8731744559914,-165.27461852804845,-0.0002990609941786
200,1724914142469688374,-0.1367319226264953,0.0792616158723831,0.1579188257455825,0.0099656460806727,-0.088675320148468,-0.2882575094699859,0.9533860683441162,0.0,0.0,0.0,244.40002338045997,181.2137537701974,48.675247197631734,0.029330201,0.0592780758736311,-0.0602023355074771,0.1195602356272465,12598.98869350366,-34480.57319818361,15319.367833917888,0.0711394474427032,-0.1640734402113814,-0.5930767226354567,-4.779630069363407,-3.491871865856666,-0.9213183241330968,45991.78157847759,33623.35553658486,8668.413562184622,-8.59588104229447e-05
202,1724914142470143006,-0.1389520466327667,0.0776396840810775,0.1574908792972564,0.0100474134087562,-0.0925641506910324,-0.2866033911705017,0.9535143375396729,0.0,0.0,0.0,265.6208220355718,196.72715604939592,52.673880225143655,0.029784833,5.913977118879387,-16.08390146559512,7.238785944823816,12237.81743366201,-33491.3216207003,14880.88292785544,0.0733614506958594,-0.1716042389329485,-0.5902830075249312,-4.663795584020893,-3.406024415928617,-0.8982714525024438,44372.63982130317,32435.244558146533,8346.919044902388,-7.081834113242515e-05
204,1724914142479274986,-0.1412701904773712,0.0761683359742164,0.1571811437606811,0.0108189806342124,-0.0936655476689338,-0.2850062847137451,0.9538769125938416,0.0,0.0,0.0,248.16643409713157,183.3427121457946,46.64803962532547,0.038916813,0.2618394657043881,-0.1707090435240514,0.343063797996034,-313.93190300877154,880.1840397806914,-376.0931455341019,0.0752283882701869,-0.1733913695413797,-0.5872291113747617,-0.2509710406245702,-0.1606554561606805,-0.0539875560589147,-13550.120345097555,-9967.420923828202,-2749.6771813630385,7.61111051598568e-05
206,1724914142488869283,-0.1436490714550018,0.0746316462755203,0.1564608663320541,0.0114808874204754,-0.096054121851921,-0.2823394238948822,0.9544246792793274,0.0,0.0,0.0,0.8435007385555924,2.01447398318055,-0.798563940233993,0.04851111,0.324359972878699,-0.4189152349662111,0.5552919590299882,-11.786391784246003,-7.834147557914562,-0.7637671815730105,0.0774523024993036,-0.1778052312800913,-0.5821454462089146,-0.2394094029027469,-0.1358008834123198,-0.0681527587653727,-13802.676293266102,-10162.19964092778,-2665.7873198881252,-0.0003048721393744
208,1724914142499846831,-0.1461699604988098,0.0734469294548034,0.1557996422052383,0.0107297599315643,-0.0974744707345962,-0.2810154259204864,0.95468008518219,0.0,0.0,0.0,-0.2617424898882081,0.202002446702723,-1.4312687465495184,0.059488658,-0.0349132522291116,-0.2783782804499777,0.2594793034872263,6.407797415256272,-6.441800345840836,2.976193504089835,0.0765965393909287,-0.1810712529263601,-0.5794980361934022,-0.2346910137335545,-0.1209226320806378,-0.0684050180640039,7.105798440874857,-68.19916464966676,-13.480368777250618,-0.0002047642608675
210,1724914142509837909,-0.1485607028007507,0.0721205621957779,0.15504190325737,0.0115655567497015,-0.1005132347345352,-0.2781761586666107,0.9551866054534912,0.0,0.0,0.0,0.7893954399059986,0.4018281575209173,-1.164431402083086,0.069479736,0.3849793524148232,-0.5177295631365239,0.5613144586160843,9.533039754583074,-10.63728946177425,3.605778595390008,0.0794781467566402,-0.1866654070926488,-0.5742212474876255,-0.2435946733485794,-0.129391953450253,-0.0955108679075236,38.974595800282984,-7.925465239994157,-15.465280866835712,-0.0003126431702786
212,1724914142519777549,-0.1510245352983474,0.0708677098155021,0.1538980603218078,0.011470821686089,-0.1030853912234306,-0.2765381038188934,0.9553892612457277,0.0,0.0,0.0,0.5218454407644728,0.0469077414705516,-1.735175493159856,0.079419376,0.1584212933449838,-0.4917537970981155,0.33407499846706,-20.013473198957463,1.7259991403942614,-19.076353796742264,0.0804936600177243,-0.1918029717770665,-0.5712487805768458,-0.2191302397101999,-0.1130421227577782,-0.0917718729828944,-6.2615919180575155,-33.11041960525132,-83.39221613118409,-0.000662261070485
214,1724914142531875778,-0.1532522737979889,0.0696915909647941,0.1531309932470321,0.01031487993896,-0.1058211922645568,-0.2756779491901397,0.9553518891334534,0.0,0.0,0.0,0.7502614847791449,-0.3154250670090306,-3.126515280823593,0.091517605,-0.0427703979219158,-0.4839390480902188,0.1590299332908424,110.79115457098538,-3.29931772269925,12.539349146890494,0.0796902408626646,-0.1977929390265956,-0.569771417361218,-0.2413764592422271,-0.1360061872155711,-0.1438552496659326,-21.789686431810004,30.631616217685774,-112.1434472892669,-0.0003320629382135
216,1724914142538825787,-0.1551583707332611,0.0685914680361747,0.1518099904060363,0.0137871298938989,-0.1087516993284225,-0.2740637063980102,0.9554433822631836,0.0,0.0,0.0,0.4364472576431115,0.1393362569443308,-3.8944940169993343,0.098467614,1.2359621657086632,-0.5226209290562686,0.3540089625212989,109.5851951315668,1.2919689975934243,16.405441393037673,0.0878454983015984,-0.2016182666536254,-0.5675799796936102,-0.2258252130908107,-0.1318793689970292,-0.1608792500564573,-54.61718133908124,70.28295035330332,-32.08147355331914,-0.0009153337235781
218,1724914142554659380,-0.1569869071245193,0.0674560666084289,0.1503157466650009,0.0152394967153668,-0.1113224625587463,-0.2723786532878876,0.9556071758270264,0.0,0.0,0.0,-0.7697311137877847,1.4271094636750234,-1.5737097768515724,0.114301207,0.2871365094970388,-0.2547915444236902,0.1935579373196737,-31.22397500870738,-125.5950478701334,-33.207383364540505,0.0918360064959766,-0.2059112666872754,-0.5648328212773986,-0.2838858822055137,-0.1460662144776314,-0.2746675534942717,751.8321374349217,392.937607902821,882.4710775844655,-0.0010880780302989
220,1724914142560353498,-0.1589482277631759,0.0664720833301544,0.1483825594186782,0.0147318672388792,-0.1148830950260162,-0.2724947035312652,0.9551604986190796,0.0,0.0,0.0,5.206834836764397,4.3026284234290495,4.958106955377872,0.119995325,0.1681152525694857,-1.2617677130825184,-0.0427778179178932,21.48642283896924,-68.4305773173399,-31.835482659018815,0.0929857915901697,-0.2130427942389925,-0.5657585737048004,-0.2823361316427393,-0.1331829825388801,-0.2721349195145039,782.8739056469574,346.891222066974,813.1742037120846,-0.0014690493104876
222,1724914142569522941,-0.1606199741363525,0.065835952758789,0.146882027387619,0.0188123937696218,-0.1173698902130127,-0.2728294432163238,0.9546908736228944,0.0,0.0,0.0,8.446854885971483,5.148839429296087,7.483508255129102,0.129164768,0.9910435770208436,-0.2884035545435295,-0.1919088933181352,37.21175371620644,39.110970991231795,3.855075109369747,0.1025104280927646,-0.2155029547498852,-0.5678150218876699,-0.1617276231857545,-0.0636067290801802,-0.1600285896956235,-100.1798212392147,-111.15694329581405,-144.05349885882865,-0.0010842130080505
224,1724914142582063795,-0.1622950285673141,0.0651372075080871,0.1449371576309204,0.0203743483871221,-0.1240169703960418,-0.2713185548782348,0.9542489647865297,0.0,0.0,0.0,-0.5883615099697952,0.2654115806565023,-1.5177097820260013,0.141705622,0.556636599883287,-0.9478147092065572,0.2015152418657819,-13.561000251537852,-2.165002243276952,-2.838957071335063,0.1092081130203752,-0.227589924014467,-0.5665264391745674,-0.1365212835615485,-0.0408692620712272,-0.1475229144532486,-389.0050605555135,-175.87648837259107,-328.07078022181315,-0.0014883013235939
226,1724914142593537261,-0.1638924032449722,0.0648241564631462,0.1433239132165908,0.0232258755713701,-0.127389594912529,-0.2719658613204956,0.9535549879074096,0.0,0.0,0.0,-1.5723123355362176,0.488855423253792,-1.1913678093405888,0.153179088,0.6223027664718396,-0.4434413412105171,-0.190161027522694,-11.804289308404371,-22.679815295849863,14.943319535259182,0.1169901399737927,-0.2323989854230744,-0.5693426249946069,-0.1705459887086462,-0.0540697453709784,-0.1913350751686078,237.2667053477267,105.2463587860484,274.5700013531721,-0.0011587135818279
228,1724914142601179460,-0.1653551906347274,0.0642746016383171,0.1416034698486328,0.0237612407654523,-0.1313474327325821,-0.2711993157863617,0.9532230496406556,0.0,0.0,0.0,1.8852188156539649,1.7297705013059377,2.1598062610520747,0.160821287,0.4428715883538235,-0.9559805309055142,0.1738744920001258,-8.490061762888825,13.13654400225168,-7.984786907001872,0.1202652420143721,-0.2398106880761518,-0.5688747855305549,-0.1754701280871504,-0.0419889138802678,-0.1870665706921839,369.79776724472345,29.199773129981768,281.73526708194606,-0.0012882507385294
230,1724914142610024458,-0.1667440533638,0.0642095208168029,0.1403384655714035,0.0262066982686519,-0.1320019513368606,-0.2728622853755951,0.9525938034057616,0.0,0.0,0.0,4.310203296958809,0.6246962898140946,3.0468436727858528,0.169666285,0.5212203194723692,-0.0187359944388777,-0.4661356582405954,7.231705603004613,7.812794683335575,-9.38872822878562,0.1258801990472979,-0.2394690310080093,-0.5731079338427341,-0.1329000606008445,-0.0251641286873658,-0.1515707996712185,58.09053429683157,-69.70909109040626,59.966974800475555,-0.0008514753310841
232,1724914142619027084,-0.1677194684743881,0.0638198181986808,0.138895571231842,0.0275997407734394,-0.1363406330347061,-0.2725069522857666,0.95204496383667,0.0,0.0,0.0,2.853271238754385,0.5031951659533066,3.2172499188547983,0.178668911,0.5714230927175665,-0.8477589374160144,0.0263364652937571,-4.927830998214972,-16.80766547713393,12.501438984886033,0.1312090174431915,-0.2470685516766338,-0.5738737443111299,-0.0987031297213913,-0.0312458926323286,-0.1329949796073881,-175.96066576092363,19.99136798402936,2.0529876144696573,-0.0011276359774019
234,1724914142628895040,-0.1685891449451446,0.0636417344212532,0.1378782540559768,0.0294600054621696,-0.1377849876880645,-0.2736988663673401,0.9514391422271729,0.0,0.0,0.0,0.9640998981099348,1.0626859475570931,3.054975336019895,0.188536867,0.409176228975404,-0.1993624889235087,-0.3067732061993379,-15.898342621099545,40.013416094095774,-13.558629306918144,0.1360722743646248,-0.248614940271391,-0.5772388993094495,-0.0807717528818194,-0.0135304854196607,-0.0887664875850031,-145.53776529198666,-22.274191867562845,-113.95334932156769,-0.0007383293981897
236,1724914142639882678,-0.1693865954875946,0.0635483190417289,0.137078195810318,0.0307669769972562,-0.1385006755590438,-0.2746184170246124,0.9510287046432496,0.0,0.0,0.0,-0.0733698296223064,-0.1482263278809398,0.6099394154235833,0.199524505,0.241139734070499,-0.0740575784118298,-0.2086398693342907,-18.974929255804195,2.5230977296401074,-2.5744572400434116,0.1393272566352917,-0.2491062335088728,-0.5796969752860308,-0.0806148772373589,-0.0108164833322534,-0.0726586553673644,4.22693124089912,-60.28540770871693,-126.59532317462131,-0.0005459358161737
238,1724914142648985520,-0.1701810359954834,0.063432402908802,0.1364179700613021,0.0309963133186101,-0.1390177309513092,-0.2759891450405121,0.9505490064620972,0.0,0.0,0.0,0.7090509000370373,-0.3205197854294469,0.1810104890275568,0.208627347,0.0406489456058107,-0.1180655935557854,-0.3188434224420334,-4.323307690442524,-5.6522262065537525,2.0338673964834237,0.1404676177916765,-0.249765807085788,-0.5828175546401727,-0.0819437310147961,-0.0151463462443164,-0.0735623032456587,90.0792911668863,-5.791927415082147,-15.765989188098342,-0.0004119502640966
240,1724914142659084908,-0.1709488928318023,0.0632524043321609,0.1356634646654129,0.0317751914262771,-0.1401525884866714,-0.2765518426895141,0.950192928314209,0.0,0.0,0.0,1.6650267278926272,-0.2318309128856647,0.3731100554231372,0.218726735,0.1953350701621309,-0.1843118669134471,-0.1398593384625203,19.084896923533652,-12.386245560574093,16.59222530286666,0.1428655617153024,-0.2514091142172523,-0.5845321689374506,-0.0652020763434926,-0.016645042553983,-0.068593645398181,32.498234849288,6.294416583646596,13.19006657595592,-0.0005084156201109
242,1724914142669171120,-0.1714974641799926,0.0630963817238807,0.1350332051515579,0.0332908779382705,-0.1425115764141082,-0.2762315571308136,0.9498833417892456,0.0,0.0,0.0,1.3666842036261142,-0.1933977103089619,0.4474134510999761,0.228812947,0.4257897979246927,-0.3679359439783825,0.0161103601519161,6.179605294853227,-18.623289843656035,12.098582010712434,0.1472574257125144,-0.2551047425725914,-0.5849202864978875,-0.0483343607071198,-0.0198237950443491,-0.06602772259534,-34.69946935328995,40.00440133396293,54.584742723520726,-0.0004470694934716
244,1724914142678912725,-0.171911358833313,0.062862291932106,0.134356677532196,0.0339981615543365,-0.1455302089452743,-0.2756180465221405,0.9495787620544434,0.0,0.0,0.0,0.980480645669766,0.5368498148755958,1.4234190364014505,0.238554552,0.3291553250360369,-0.5532879916814618,0.1023087667407471,-15.833375379580495,0.9451194800844612,-0.4797026947898861,0.1504147868246697,-0.2605828592788353,-0.584727526222389,-0.0378966391681991,-0.0205621824061403,-0.0598531690594086,-27.654740721801453,62.231031143243314,74.63846749047742,-0.000527820606577
246,1724914142689003647,-0.1722457855939865,0.0626910477876663,0.1338529884815216,0.0340476632118225,-0.147284522652626,-0.2755962908267975,0.9493128657341005,0.0,0.0,0.0,0.8267476299866894,1.0317473353733442,1.9095120723964905,0.248645474,0.1075684336054196,-0.33498857324604,-3.71866627045206e-05,-15.663930642176997,22.039981531839047,-10.730627531405071,0.1516368988267759,-0.2639247126436921,-0.5852545857245277,-0.0289536513428778,-0.0087410165347847,-0.0372362044026219,-142.6447381720997,44.73665676121935,-120.35849062034224,-0.0003837059485268
248,1724914142701131752,-0.1725358963012695,0.0627049878239631,0.1335861980915069,0.0341222211718559,-0.1476269513368606,-0.2763993144035339,0.949023425579071,0.0,0.0,0.0,-2.760461587193508,1.5115343534955317,-2.006793255538133,0.260773579,0.0093555790769196,-0.0617565876392687,-0.1387540070051708,-5.2343264163546905,17.664075588434567,-7.797630538984454,0.1522309496060442,-0.2644103470963215,-0.5870951657787021,-0.0197939765468067,0.0017355148702286,-0.0189140298693979,-570.4685294806425,-2008.9078710553888,620.8437686670397,-0.000167543506279
250,1724914142734278963,-0.1728181689977646,0.0628156140446662,0.1332386136054992,0.0361662246286869,-0.146718755364418,-0.2771795094013214,0.948861002922058,0.0,0.0,0.0,-46.555438070541754,-250.65773545819988,104.0713319199392,0.29392079,0.095280826566332,0.0830392915419996,-0.067460064930051,8776.529640943267,6372.329954355768,-4560.2287686478085,0.1558702166580491,-0.2613473026281117,-0.5889460228155489,-0.4297985580925569,0.110517676478878,-0.4041004286169709,129927.89754497216,16790.189433557156,88596.86968639639,-0.0002460527249103
252,1724914142734777115,-0.1730354279279709,0.0628714710474014,0.1330343633890152,0.0375524163246154,-0.1462290287017822,-0.2775446474552154,0.9487759470939636,0.0,0.0,0.0,19.150995842609177,-242.1110161575412,148.84535878044835,0.294418942,4.53301239032292,3.305101721433541,-2.3733032389166024,25.109652986612673,-529.1200505414145,-2378.915816621756,0.1583708566945956,-0.2595361105155916,-0.5898877856700436,-0.4532461767101381,-0.0162490849667307,-0.3513909638705286,137621.54812953417,57841.570442989934,71486.07196469858,-0.0001295723937986
254,1724914142735191462,-0.1732291281223297,0.0628204941749572,0.1329089701175689,0.0379607342183589,-0.1461615562438964,-0.2780022919178009,0.9486361145973206,0.0,0.0,0.0,78.14582152761791,-204.12292598231477,172.12601610667298,0.294833289,1.4818773621630716,0.6743597296437035,-2.583600229943123,-6606.748692564505,-5685.542942423066,-384.4046896309742,0.1592535675723644,-0.2590909194035733,-0.5909356832901683,-0.4224888449939756,-0.1123062508708441,-0.2748856024648312,127286.5956679063,88823.60977267163,46402.48440909171,-6.234257706377728e-05
256,1724914142738640905,-0.1733943969011306,0.062741033732891,0.1327574551105499,0.0388150624930858,-0.1461495608091354,-0.2784972786903381,0.948458194732666,0.0,0.0,0.0,83.77477793356698,20.19062044749734,51.22810020261322,0.298282732,0.4299348204748348,0.1183318091821376,-0.3735964122418833,-236.74172526146447,-127.57165572393524,490.34221519403377,0.1610561569701196,-0.2584824575901879,-0.5921843866012317,-0.0405045466746161,-0.02082466650667,-0.040529356275337,-748.5586075690409,48361.45631448568,-27528.042461559173,-9.581256614197547e-05
258,1724914142749036791,-0.1735834032297134,0.0625938177108764,0.1324424892663955,0.0391043908894062,-0.1470674872398376,-0.2783807218074798,0.9483386278152466,0.0,0.0,0.0,1.4124582168653164,0.7428166952193676,0.6740743854808473,0.308678618,0.1061442259097873,-0.154481910269912,0.0135812230523987,-5.332250641733047,-4.873947318887385,15.346704878198745,0.1621912082230179,-0.2600902225018107,-0.5923075878523687,-0.0143747070678852,-0.0092523711206755,-0.0315780319917324,-3968.801067275917,-950.5857550530123,-2401.547567182552,-0.0002446770254407
260,1724914142759180071,-0.1736915409564972,0.0625485479831695,0.1321095079183578,0.0406295321881771,-0.1474557220935821,-0.2783777713775635,0.948215126991272,0.0,0.0,0.0,0.2856817663385587,0.2071661641556407,0.6739251771897606,0.318821898,0.3075318520492233,0.0075605220502374,-0.0474598459042405,2.2151508645027596,2.393462543274258,-2.907804332789136,0.1654336324444793,-0.2599360753810184,-0.5927861672719935,-0.0109443421013644,-0.0053830018513694,-0.0265911184664213,-77.60535130708254,-38.926426149586014,-8.274109254786445,-0.0002849445362216
262,1724914142769641925,-0.1738090962171554,0.0624823048710823,0.1318986117839813,0.0411940179765224,-0.1482158601284027,-0.2785134315490722,0.9480324387550354,0.0,0.0,0.0,-0.1649433212007769,-0.0502837535112181,0.4982401558048338,0.329283752,0.1403724740526289,-0.1139538599146374,-0.0443217765405769,-8.822034956281627,-3.513643603042521,0.5570494301127213,0.1670766749671104,-0.2610350873823546,-0.5934636451649152,-0.0085221774632877,-0.0050964866806719,-0.0175737514568412,-23.938286083947567,-19.55658347952009,-29.7172034183183,-0.0001654758599689
264,1724914142784789600,-0.1738786548376083,0.0624321997165679,0.1316891014575958,0.0424253940582275,-0.148476168513298,-0.2785433530807495,0.9479286074638368,0.0,0.0,0.0,-0.1078817994142116,-0.2357218912570444,-0.2353651904089369,0.344431427,0.163685348916443,0.0105035198913954,-0.0302450783590009,47.71121459705237,105.38612124987225,-16.517608356375668,0.1696696067565341,-0.2608014601370905,-0.5939035389900537,-0.0197160961456717,-0.007561655870564,-0.01800307076331,80.20137809303412,26.67347062708787,23.586379145869383,-0.0001784090408322
266,1724914142788688884,-0.1739707142114639,0.0623984448611736,0.1316147148609161,0.0434716418385505,-0.1477227360010147,-0.2785928249359131,0.9479843378067015,0.0,0.0,0.0,0.2815668244871496,-0.0926531924967673,-0.0711088305225701,0.348330711,0.3960700528154882,0.5189677704417002,-0.1121641835638659,36.504985145616146,83.02095753419698,-11.28385327727194,0.1712373084623345,-0.258732974503175,-0.5939943023307169,-0.0195032897775799,-0.0085540553164369,-0.0191286248913065,77.64265825211389,35.57128516707918,42.308976214649334,-4.2841523904870514e-05
268,1724914142799774638,-0.1740575134754181,0.0623068511486053,0.1314010322093963,0.0437151119112968,-0.1481353491544723,-0.2781821489334106,0.9480293393135072,0.0,0.0,0.0,0.4415346262347189,0.2663906503491423,0.4037243698704532,0.359416465,0.072970548152016,-0.053910863599373,0.0692460650195522,-18.69696968913272,-33.51642533970739,-2.410423257684734,0.1718728013650952,-0.2594528848365454,-0.5933173416257049,-0.009227819584586,-0.0044799953891372,-0.0130604547083938,-22.17102552720706,6.843630780292725,3.7861655707017174,-0.0001769541491543
270,1724914142809017737,-0.1741535812616348,0.0622945912182331,0.131328210234642,0.0434096679091453,-0.149070993065834,-0.2786685824394226,0.9477538466453552,0.0,0.0,0.0,-0.0454687257920105,0.1327846113641164,0.1377989983595094,0.368659564,-0.0193236588924174,-0.2237478243513766,-0.0977251343010213,-1.4842370354893897,-6.147329698661093,-6.31883170790225,0.1720256118736925,-0.2613359729558183,-0.5946045977325075,-0.008887308688946,-0.0027969738998865,-0.0104359399750597,-40.11435048180834,-8.698053601375232,-19.33758944889702,-3.9851139638044896e-05
272,1724914142820191732,-0.174232542514801,0.0622434727847576,0.1311770528554916,0.043637465685606,-0.149865373969078,-0.2786847949028015,0.94761323928833,0.0,0.0,0.0,-0.3238538641396375,0.1133545984933491,0.0491383694731645,0.379833559,0.0789247050459498,-0.127270815728364,-0.0096693272094269,1.3663368148523602,5.810715684156218,-0.3443997214288901,0.1730015048771614,-0.2627183951524036,-0.5949674506352391,-0.0105072163722086,-0.0019791897039014,-0.0108703276621371,-14.43081991440973,-8.381863440415476,0.4999774045263647,-0.0001194863440744
274,1724914142833036065,-0.1744183003902435,0.0622563734650611,0.1310766637325287,0.0435189269483089,-0.1503777652978897,-0.2795485556125641,0.947283148765564,0.0,0.0,0.0,-0.3544356562198811,-0.0923845442787771,0.1800906579163026,0.392677892,-0.0131694985452975,-0.0943210081116698,-0.135527159341168,2.7619075875793024,-11.593647256909325,-8.885919461802214,0.1733505974526271,-0.2636118672050309,-0.596959625327077,-0.0173079910942774,6.983262771420584e-05,-0.0089397187756059,21.797766025924847,-21.604532435876163,10.173860092567356,-3.800532547008128e-05
276,1724914142839639970,-0.1745422631502151,0.0622536614537239,0.131013810634613,0.0435330234467983,-0.1510709077119827,-0.2801583707332611,0.9469919204711914,0.0,0.0,0.0,-0.1283890111196285,-0.254027664093287,0.2472049448786399,0.399281797,0.0387926973334423,-0.2189596102796522,-0.1911096609057077,-7.092227850631702,-6.316513927162826,-0.6261344225105834,0.1740106554728872,-0.2648179577486289,-0.5985061573143363,-0.0190543174092336,-0.0013956060456599,-0.0076492941062715,28.327488223642774,-9.43538040456747,7.206965336003199,-2.1259221504172495e-05
278,1724914142848774826,-0.174719899892807,0.0622284673154354,0.1309675425291061,0.042519811540842,-0.1512864381074905,-0.2807555794715881,0.946826696395874,0.0,0.0,0.0,0.0558051929708819,-0.1501569421095188,0.2756899806436436,0.408416653,-0.2150332762475252,-0.1179929257745095,-0.0983904345462518,-11.07070067183498,9.323128722703393,3.029840855889814,0.1723373466058007,-0.2657248308957892,-0.5996160751571148,-0.0185080397952184,-0.0041220092530402,-0.0047365572255602,12.78372311284306,18.648618973541957,1.606704715965158,1.1036720558983222e-05
280,1724914142860917670,-0.1749294996261596,0.0621563978493213,0.1309153288602829,0.0421683192253112,-0.1512929946184158,-0.2818517684936523,0.9465156197547911,0.0,0.0,0.0,0.0919103401541757,0.1937637758779775,0.2708011259110052,0.420559497,-0.0796474274701122,-0.0327044860240517,-0.1765291114612174,2.846482851866308,-0.0632545021264876,-5.1048265853918355,0.1719635082098512,-0.2657488813717615,-0.6018752645532105,-0.0178949108817949,-0.0035515091416913,-0.0020857121833843,4.214623046911644,12.851608009468071,-17.52013880542572,1.4981065013948284e-05
282,1724914142870355557,-0.1751030385494232,0.0621403641998767,0.1309118866920471,0.0417005196213722,-0.1514798551797866,-0.2829098105430603,0.9461908340454102,0.0,0.0,0.0,0.1407926881755812,0.201566194326257,-0.0201174114607956,0.429997384,-0.1136888659449838,-0.0852882097866203,-0.2149507307999725,12.376478701195277,-4.1795697965730705,-5.153499002757851,0.1714725625142519,-0.2661953756393762,-0.6040896063213839,-0.0167236551677607,-0.0006460752968897,0.0008551621546217,-4.222091149900926,-14.27255702410471,-35.73285202547477,5.045970635595126e-05
284,1724914142878818854,-0.1752319484949112,0.0621428862214088,0.1309283822774887,0.042189572006464,-0.152007982134819,-0.2839251458644867,0.9457802176475524,0.0,0.0,0.0,0.0337088975597656,-0.0338202847667798,-0.3597860225798545,0.438460681,0.1123602895278132,-0.1100968781852667,-0.2667817986201286,11.445806677266328,3.3267659689867703,1.10088623639062,0.1730742555069734,-0.2667263081237834,-0.6065609615084113,-0.0154054094426907,0.0002532304419173,-0.001832639017647,-12.109348136948066,-25.631531666354967,-25.440225622779597,5.584509495147087e-05
286,1724914142889079574,-0.1753921806812286,0.0621449276804924,0.1308625340461731,0.0425151847302913,-0.1520210802555084,-0.2846970558166504,0.9455314874649048,0.0,0.0,0.0,-0.0837821606495096,-0.2696857603996517,-0.4380284122528138,0.448721401,0.0399259124837802,0.0018880103934263,-0.1656065159075058,-9.546271541219724,-6.564661721010697,7.814649203057191,0.1739400656197214,-0.2664138898942995,-0.6082925404410485,-0.0165778364016802,-0.0018363653892499,-0.0060493002474997,5.00441825962179,-1.7808526447927593,17.014280889398027,-1.261138477547713e-05
288,1724914142899393833,-0.1755731403827667,0.0621048845350742,0.13080395758152,0.0418245308101177,-0.1530784517526626,-0.2853349447250366,0.9451993107795716,0.0,0.0,0.0,0.1384412618807603,-0.068184630443762,-0.0070722964228017,0.45903566,-0.0843210324884817,-0.2470411118212806,-0.1062151867917019,-10.196615524241334,-14.97086575375504,3.896500741836935,0.1734868951644188,-0.2687342121159586,-0.6098680042749175,-0.0171259532301988,-0.005302637837615,-0.0108479712760258,22.54911445910271,19.80632378202876,58.01561121479397,7.268060465926373e-07
290,1724914142912233868,-0.1757863461971283,0.0620140954852104,0.1305820494890213,0.0402457676827907,-0.1544915586709976,-0.2861168086528778,0.9448015093803406,0.0,0.0,0.0,0.444018572153339,0.1904474671039913,0.9973246429884984,0.471875695,-0.1856826243973229,-0.292793577147807,-0.0859416250688985,27.282391764432766,18.327688506316505,-22.749971678188963,0.1715831322799791,-0.2722484324685585,-0.611665922427886,-0.0122860383475451,-0.0018962261474335,-0.0036151759643985,-2.7113895195259943,-20.66153617365009,6.116810894022535,-0.0001445674318161
292,1724914142920950804,-0.175867885351181,0.0620281882584095,0.1306314170360565,0.041601575911045,-0.1547550410032272,-0.2877048552036285,0.9442172646522522,0.0,0.0,0.0,0.2635011745067562,-0.2311294071317558,0.6239282686271079,0.480592631,0.2603047619594476,-0.0034856314215927,-0.4282256730802966,26.353339311280727,20.88168547380472,-16.441173507015208,0.1748789843216109,-0.2716349661395925,-0.6154886206958309,-0.0080185945327251,-0.0006790484747676,0.0076469157318976,-20.79622017253407,-28.944320321474272,-66.0803252141272,7.276109128675827e-05
294,1724914142930328120,-0.1759296059608459,0.0619986616075038,0.1307231336832046,0.0430874042212963,-0.1547310948371887,-0.2890633344650268,0.9437395334243774,0.0,0.0,0.0,0.0676067069058937,-0.3066594888845532,-0.2302128458162506,0.489969947,0.2571520833375644,0.0681739227683433,-0.3521435739922167,-22.29985205020877,-4.446903812365262,9.39935092065166,0.1781624999571353,-0.2704257365711566,-0.6187461291193436,-0.0078280576543328,-0.0065865779095162,0.0067585836306403,-3.1148436778953403,25.603158574997213,-46.29400508527674,0.0001063074782162
296,1724914142939404802,-0.1760116070508957,0.0619086734950542,0.1307579278945922,0.042571946978569,-0.1548354178667068,-0.2902698814868927,0.9433753490447998,0.0,0.0,0.0,0.1955033965927298,0.2214383265506846,-0.2568814171103712,0.499046629,-0.1382223145130782,-0.0783967497324504,-0.2555308652522364,-18.31918948187122,-5.703247033501343,9.667495620775712,0.1775759791278614,-0.2707156850491981,-0.6212456768012617,-0.0067989573643014,-0.0065294286049062,0.003478722823476,8.627037384978447,33.24307256219784,5.062264539470466,5.8121089456121474e-05
298,1724914142950275805,-0.1760564148426056,0.0618817619979381,0.1307911276817321,0.0426574572920799,-0.1548063904047012,-0.2911147177219391,0.9431158304214478,0.0,0.0,0.0,0.2181510367147184,0.2581206243060125,-0.097683974094538,0.509917632,-0.0087424931278201,-0.0044051385552494,-0.1631503365171409,3.7890350075031254,8.364248160350025,-0.5635665372138767,0.1779674886496251,-0.2704491501429604,-0.6230659710646514,-0.0036043699953491,-0.0013210151412996,0.002046351179219,1.8888066863499144,-22.2993254593974,13.380161403251604,4.542420755838312e-05
300,1724914142959047573,-0.1760843694210052,0.0618783459067344,0.1308019459247589,0.0427807830274105,-0.1543898582458496,-0.2920825779438019,0.9428792595863342,0.0,0.0,0.0,0.2333425539853948,-0.1191995146397664,0.0107367580039218,0.5186894,-0.0329893872307157,0.0799909154878251,-0.2322298910474728,-0.3271057642562984,4.39898154193588,-4.109182234700104,0.1781984230393016,-0.2693977399843574,-0.6250171954785823,-0.00222668288907,-0.0006209871574154,0.0014306822524456,2.3463005854639523,-29.66614971743051,16.992860711517217,1.9067773579759155e-05
302,1724914142969948072,-0.1760956346988678,0.0618684403598308,0.1308202147483825,0.0430437847971916,-0.1540374606847763,-0.2932334542274475,0.942567765712738,0.0,0.0,0.0,0.2672414422867928,-0.2617501728840701,0.258720769222646,0.529589899,-0.0035425806851914,0.0572009965443354,-0.2260079949307858,-4.488552113310984,-5.907263118365463,1.8375876965703428,0.1787973860700492,-0.2683467668519329,-0.6274172989270878,0.0013501883619051,-0.0046159981063018,0.002643905227873,-9.98792180820504,14.454050262001394,11.780143797634588,2.079870872284848e-05
304,1724914142982374496,-0.1760450899600982,0.0617585629224777,0.1308667808771133,0.0421490930020809,-0.1541056036949157,-0.2944908738136291,0.9422048926353456,0.0,0.0,0.0,-0.0424151601553048,0.3078719725832271,0.2497103485074912,0.542016323,-0.161172051668787,-0.0702701140448864,-0.1852279482113737,-11.666951551983493,-18.43969273930625,-20.85146348016044,0.1774606099004044,-0.268798279483456,-0.6299272185167664,0.0038083814400096,-0.0063847635675555,0.0079472389927843,-16.81913627610493,32.523246472167585,-20.098094579816067,2.7010123189769984e-05
306,1724914142988651030,-0.176022008061409,0.0617262795567512,0.1309299767017364,0.0414594896137714,-0.1544665396213531,-0.2957912683486938,0.941769003868103,0.0,0.0,0.0,-0.1223017936983396,0.46978909696906,0.0621467307049386,0.548292857,-0.2311725289003427,-0.2119452717193626,-0.3926111095226651,-0.058758908048844,-11.01595882356741,-13.807503167690731,0.1767436729340487,-0.2696736421213027,-0.6326867594200096,0.0027805561071776,-0.0030251128475731,0.0089532032501562,1.725039205312263,13.126828672479302,-17.186551085282396,5.225220416020288e-05
308,1724914142999617914,-0.1760087013244629,0.0617336966097354,0.1310067921876907,0.0413282364606857,-0.154970183968544,-0.296738862991333,0.9413938522338868,0.0,0.0,0.0,0.1735660016617777,0.3709562478198961,0.116962369884823,0.559259741,-0.0192314646737672,-0.1113124451392048,-0.1754786104100351,12.308619487642074,5.032322407653947,9.038195749004212,0.1771167585624221,-0.2705366118466763,-0.6348753777137548,0.0022336585629592,0.0008722162787533,0.0077544223949743,28.343894556888586,-0.2168134058353565,8.501102106561564,6.875956912208303e-05
310,1724914143009826812,-0.1759762018918991,0.061744462698698,0.1310930848121643,0.0415154621005058,-0.1554684042930603,-0.2976194322109222,0.9410253763198853,0.0,0.0,0.0,0.4759036651491907,0.4523255116017077,0.2370375553404289,0.569468639,0.0397419750242363,-0.099317199600305,-0.185471026944064,5.23244742533066,3.774139144193266,-3.032116337765192,0.1780897389487941,-0.2712000429233557,-0.6369954337026779,0.0061289375580031,0.0048073676965079,0.0110988057085217,10.615212849961765,5.194309867120925,-5.9151795094881505,7.166638325430072e-05
312,1724914143019452365,-0.1758904755115509,0.061824794858694,0.1312239319086074,0.0420192740857601,-0.1557221114635467,-0.2986199259757995,0.9406440258026124,0.0,0.0,0.0,0.4056465935010215,0.4771288632499206,0.0196723821015044,0.579094192,0.0851680564976594,-0.0394002434901901,-0.2332918266646466,-0.0619193799163637,3.917970532911961,-3.787615843270821,0.1795426765813297,-0.2711738370311574,-0.6393590243043554,0.0115660182976355,0.0097680652526932,0.0125585660317977,-14.490816969081983,9.563133394909556,-7.513616126075317,9.78944098229116e-05
314,1724914143030485361,-0.1757292300462722,0.0619505532085895,0.1313493996858596,0.0423256009817123,-0.1558327376842498,-0.2999548017978668,0.9401871562004088,0.0,0.0,0.0,0.1548202743505335,0.6709893885589906,0.1273342308584315,0.590127188,0.0240202037488127,-0.025345752099326,-0.2601517795444886,0.9489158898520436,1.336097029348152,-0.1661517780792589,0.1806063441867618,-0.2709348928011734,-0.6423418775874434,0.0140280774544283,0.0145486508371828,0.0111065320371022,-11.816030174905684,13.33629851740055,15.495567488506962,6.932925341207019e-05
316,1724914143041673665,-0.1755789369344711,0.0621490702033042,0.131470650434494,0.0430847965180873,-0.1560093015432357,-0.3011050820350647,0.9397556185722352,0.0,0.0,0.0,0.1464942694283124,0.7721541364771587,0.3657987066664452,0.601315492,0.1082846588121434,-0.0096909626655486,-0.2362743872886269,-3.513826236059299,0.3490287557545684,-6.9675934777793955,0.1825449906584747,-0.2705641784385675,-0.645060563661923,0.0149849510630843,0.0247526718498622,0.0154690959790819,3.2836497230508783,-12.157456780320594,-31.37343436205651,6.950488823270935e-05
318,1724914143049516066,-0.1754528880119323,0.0623817220330238,0.1316174268722534,0.0433520451188087,-0.1560220867395401,-0.3023511171340942,0.9393410682678224,0.0,0.0,0.0,0.1943873073353803,0.5602748485616005,-0.1698710799134838,0.609157893,0.0200106604290629,-0.0127266943783438,-0.3409502035473034,-5.395126247174941,0.7549342167398563,-4.599821223679939,0.1834356705451239,-0.2701757639205448,-0.6478077742299955,0.0164689751817572,0.0300393257952804,0.0182052288553178,-2.3315043482902973,-17.56225764000356,-50.41191527901584,0.0001018291998336
320,1724914143060457047,-0.1752666532993316,0.0627160817384719,0.1318088173866272,0.0438526459038257,-0.1559776067733764,-0.3036291897296905,0.938912868499756,0.0,0.0,0.0,0.0400754608296589,0.5124443079252057,-0.4483204444033393,0.620098874,0.0504419285637032,0.0129647210494771,-0.2577549183395032,-5.830390585460228,-8.014270085401781,2.8527379355236313,0.1847472148281873,-0.2695200848213455,-0.6506573703225831,0.0186744704717174,0.0344316967033506,0.0084283970399656,-13.979682751591572,10.131661682201432,55.60025488051819,0.0001259707844922
322,1724914143069212756,-0.1750915646553039,0.0630446821451187,0.1318190991878509,0.0436112098395824,-0.1563789695501327,-0.304789125919342,0.9384814500808716,0.0,0.0,0.0,-0.0814553333996075,0.702777807245933,0.6064117289567295,0.628854583,-0.0609493085381757,-0.1298146377597416,-0.2660688702297402,-10.14064358217826,-3.305978403479757,-6.628190461250906,0.1849047737419482,-0.2702092284672955,-0.6532500562730248,0.017893704300711,0.0396961637097299,0.0076230478288534,-11.9878844106103,-0.798288039048515,76.41098731189423,-4.188061292969997e-05
324,1724914143078961061,-0.1749399602413177,0.0634551644325256,0.1319634020328521,0.0432762168347835,-0.1561952382326126,-0.3066879510879516,0.9379087090492249,0.0,0.0,0.0,-0.1777790226459812,0.4503975383825649,0.8731824541581665,0.638602888,-0.1317854585981296,-0.020936666847238,-0.3923152425464894,14.90781269949048,17.623059308710552,-5.445076378921959,0.184670686978092,-0.2697071240713583,-0.6571894534037397,0.017183407734489,0.0476488605860212,0.021114476999168,-9.694567327780833,-61.798913478072905,-52.78927384061505,9.428239518990404e-05
326,1724914143088692098,-0.1747568994760513,0.0639726594090461,0.1322301775217056,0.0449208728969097,-0.1554844826459884,-0.3081677854061126,0.9374642968177797,0.0,0.0,0.0,-0.2703055612892341,-0.4997852999284382,-0.4191228043084449,0.648333925,0.2286799393928458,0.2132482586268564,-0.3723943563201439,8.660765742203303,3.202580090727258,5.928836655868315,0.1877695893244319,-0.266996933852849,-0.6604842937693309,0.0144343060681251,0.0484822198632017,0.0246496926552968,6.456397822229266,-37.4990609593037,-74.63436138236338,0.0002003721079158
328,1724914143099409952,-0.174653872847557,0.0644368305802345,0.1324617266654968,0.0450741052627563,-0.1553921848535537,-0.3094998598098755,0.9370333552360536,0.0,0.0,0.0,-0.0126465560379122,-0.191692565597968,-0.5323839946813724,0.659051779,-0.0135385239789053,0.0012884090513175,-0.2630276284120618,-13.068171210910934,-26.780174831185903,10.4033623579795,0.1883804930942289,-0.2664563083443232,-0.6633525654401253,0.0116812642996615,0.036214806733902,0.0109213802519549,11.887446574898265,53.06737292327674,58.481857513764304,0.0001919866584967
330,1724914143111122913,-0.1744905710220337,0.0647702142596244,0.13245290517807,0.0442266389727592,-0.1574805378913879,-0.3104063272476196,0.9364250302314758,0.0,0.0,0.0,-0.0289697689992859,0.7412114721659688,1.0364755419954297,0.67076474,-0.0445997317128543,-0.4020391277961974,-0.1386236059680765,-1.0007786010379345,1.6584916477801048,-22.418623133729668,0.1885399819781946,-0.2707778008694136,-0.6659218521943097,0.0146592442076727,0.046166882459933,0.0142667129700342,-12.20932748717297,2.258941534223265,64.99412691093832,-5.601750654362418e-05
332,1724914143119293227,-0.1743667125701904,0.0652483105659484,0.132655069231987,0.0441570021212101,-0.1580322533845901,-0.3124178051948547,0.9356661438941956,0.0,0.0,0.0,-0.1903643475731845,0.3186199671971148,1.1745520246333494,0.678935054,-0.0433665947021333,-0.1827901973654411,-0.510089195477822,9.72528791114776,25.362085444877177,-23.053927855225915,0.1894014658419724,-0.2714617993745775,-0.6704616339118417,0.0128084571822224,0.0516047274027859,0.0270143489088647,-10.424923180356757,-48.66732980944705,-23.001564048185568,0.0001589347522778
334,1724914143132880716,-0.1742458045482635,0.0657933130860328,0.1330734342336654,0.0467094220221042,-0.1577669531106948,-0.3140646815299988,0.9350354075431824,0.0,0.0,0.0,-0.1212141162023361,-0.2736041827037718,-0.0396089812681612,0.692522543,0.3051218963388249,0.1285382603005112,-0.3169178984717714,6.065099933592045,-47.2100396048887,5.605572353912471,0.1946257374253502,-0.2689256078890821,-0.6745018828622067,0.0110390034227485,0.0480943398036393,0.034258434507512,-117.35803974128724,416.4002492834711,374.1680465041739,0.0003628961228897
336,1724914143139232467,-0.1741693317890167,0.0661225020885467,0.1333013325929641,0.0473323538899421,-0.1591330170631408,-0.3148887455463409,0.9344953298568726,0.0,0.0,0.0,-1.23022060257764,3.7370836706999455,3.713343254917655,0.698874294,0.2854999953991036,-0.3795410842593613,-0.3068817921341137,-3.825817679425085,-68.1461939795067,2.0835063247517134,0.1970979716236831,-0.2709109484101769,-0.6769725259651624,0.0102958421918527,0.04631119365209,0.0323061981538745,875.8163717569477,986.3327390585656,418.11714810442135,0.000194180485128
338,1724914143180495711,-0.1742119342088699,0.0665550157427787,0.1336764991283416,0.0461610928177833,-0.158913105726242,-0.3167904317378998,0.9339483976364136,0.0,0.0,0.0,316.48384246281125,139.57180340698733,-25.337539968390956,0.740137538,-0.069820932098336,-0.0164968644046498,-0.0859536045544823,-22289.18831047715,-6561.463606328888,-43915.192244494625,0.1952198840377919,-0.2708873107650095,-0.6807205306389726,-0.3388775613121879,1.2775344473257064,1.2633220269751746,194622.79826765764,410341.1079104525,229764.1945902038,0.000374765258273
340,1724914143180853065,-0.1743340790271759,0.0670154690742492,0.134131833910942,0.0451256074011325,-0.1587197482585907,-0.3196943998336792,0.9330419898033142,0.0,0.0,0.0,386.61156934356376,287.468579437882,57.48286931016901,0.740494892,-8.103905674653014,-2.381595839065939,-15.915148939910049,-3898.825424728107,-2828.4047110071965,-22014.065973064768,0.1939184706388937,-0.2706227482024781,-0.6866823968689251,-0.2247751484910054,1.327750593988938,1.254096812693405,-39745.97627542663,194173.66518079047,153656.0984861583,0.0004781949635408
342,1724914143181225927,-0.1743723601102829,0.0675258040428161,0.1345916241407394,0.0450608655810356,-0.1587915271520614,-0.3224667310714721,0.9320783019065856,0.0,0.0,0.0,279.9824845783734,274.3986814742225,84.38956326585776,0.740867754,-2.327918859227714,-1.96174322028467,-15.454898631242342,-77.90235590877091,5007.288102615347,-304.68568399412834,0.1946570124459088,-0.2702278385461975,-0.6926962080813549,-0.0544345077011598,1.4921051889545538,1.3079365744870302,-397195.5573897611,-281278.90625853045,-68434.72349526949,0.000456575206182
344,1724914143181540546,-0.1743766814470291,0.0680280104279518,0.1350229829549789,0.0445410832762718,-0.158254399895668,-0.3249630331993103,0.9313274025917052,0.0,0.0,0.0,125.49097510930932,120.53642697879155,25.53378268158147,0.741182373,-6.48555193770042,0.6440181729743182,-15.95933804973642,-12644.514305394645,7943.839262197892,-1455.459850045678,0.1939673273917843,-0.2690595155941694,-0.697766987383056,-0.0132994296903122,1.5342631449466348,1.3185570079083726,-471794.60828045063,-470494.29025641846,-180169.44874729248,0.0004194282591351
346,1724914143188978093,-0.1743989884853363,0.0685428231954574,0.1356001198291778,0.0443795472383499,-0.1570441126823425,-0.3277939558029175,0.9305475950241088,0.0,0.0,0.0,0.8261143013924145,-117.48659111920767,-101.21027316083988,0.74861992,-0.2573466833848605,0.2218957588684184,-0.7847394154679284,498.5204669052087,-42.34640269072157,1225.182915288707,0.1935369876332898,-0.2663162542914895,-0.7033763573388627,-0.0038514882527715,0.0641124095053866,0.0627284315398784,-9983.768212598676,-14644.041021447289,-6400.158957313794,0.0005640470210598
348,1724914143199878251,-0.1744545847177505,0.069160096347332,0.1360463351011276,0.0435466729104518,-0.156559333205223,-0.3302845656871795,0.929787576198578,0.0,0.0,0.0,0.2753763515248397,0.1955075497384428,-0.985784143896932,0.759520078,-0.2369402926493533,-0.0095025072418389,-0.4509066564270069,22.659397252490507,-13.347734875760542,15.12419287944616,0.1922734113711147,-0.2654756222818719,-0.7083963365799438,-0.0019425513581321,0.0643425276445173,0.04004999814072,-16.53570468786334,4892.775972901845,4240.049442766096,0.0004542855196518
350,1724914143209001763,-0.1744481921195984,0.0698060244321823,0.1364049613475799,0.0442926622927188,-0.1569685339927673,-0.3320355415344238,0.9290594458580016,0.0,0.0,0.0,0.3840753109402605,-0.2476427717312219,-0.1381299279507764,0.76864359,0.12853392568017,-0.0710967010075168,-0.4313027855300593,10.720736837050548,4.091607822555683,2.390651536880938,0.1945296985805215,-0.26535589401057,-0.7125273247474332,0.0013353794172292,0.0674580095720345,0.0394163821785555,3.272575855120012,-23.40626101886789,54.22239727266985,0.0003516639816553
352,1724914143219925294,-0.1744253039360046,0.0704992190003395,0.1368369460105896,0.0441459454596042,-0.156034842133522,-0.3341650068759918,0.9284600019454956,0.0,0.0,0.0,0.3068028793035384,-0.1741826052868278,-0.0517966416402844,0.779567121,-0.1380571223456188,0.1154070999243885,-0.4020242806690272,-9.17383082912646,12.902751573122204,4.604775038406695,0.1941219060883244,-0.263270924146139,-0.7167389851821674,0.0058550772931473,0.0570479469995874,0.0370092554355006,8.90520526373079,128.57960649788492,25.535107155244564,0.0004174222254752
354,1724914143232992978,-0.1742900162935257,0.0711444839835167,0.1372809112071991,0.0448211170732975,-0.1545737236738205,-0.3360123932361603,0.9280052781105042,0.0,0.0,0.0,0.6729706329993583,3.4109733130405804,0.5575190306831499,0.792634805,-0.0198301776840281,0.2188148099637712,-0.3117660159199358,-18.69590818260568,12.706846107035132,-7.773582092655612,0.1947846197717269,-0.2596782071712599,-0.7203050381324911,0.0081922829148233,0.0669467188905459,0.0389675199442764,9.242864145201583,117.2106906975016,-12.898683305768344,0.0003914281567949
356,1724914143243019850,-0.1742244958877563,0.0719509124755859,0.1377100497484207,0.0438982136547565,-0.1519684940576553,-0.338588535785675,0.9275432229042052,0.0,0.0,0.0,0.6211763508981434,3.3772336843813484,-0.0297892393622283,0.802661677,-0.4207379525632472,0.3831050536022587,-0.5026578263738184,-9.095275590853271,12.867277806316824,-23.63823094394754,0.1916733888317517,-0.2549404974418339,-0.7246569582588579,0.0187416339412802,0.1215630008517525,0.047694111537142,-66.81372099243119,-276.6060806841606,-120.31504067856956,0.000404562026316
358,1724914143250009657,-0.1740340143442154,0.0730010569095611,0.1380672752857208,0.0437220260500907,-0.1499889492988586,-0.3409319519996643,0.92701518535614,0.0,0.0,0.0,-0.1462284160302916,0.1124030067039791,-1.1716131981572488,0.809651484,-0.3338055851780275,0.4559042519316964,-0.6902996897559593,2.205012084346958,-4.930216798904555,-14.402007525408196,0.1904081109785501,-0.2508955773053435,-0.7289248947224316,0.0209837597849595,0.1350840167334537,0.0430999743299045,-65.92571671896116,-330.5845760044151,-85.56175001996016,0.0003034120462561
360,1724914143259088914,-0.1739174127578735,0.0740487873554229,0.138364166021347,0.0427087657153606,-0.1482129991054535,-0.34401735663414,0.9262078404426576,0.0,0.0,0.0,-0.2274905492894379,-1.279274150949922,-1.0310041841067952,0.818730741,-0.4344548737972234,0.2301701596993496,-0.6743144101031755,-8.7653631196688,-11.31504409972097,-2.625930578499837,0.1878943973100231,-0.2476919152677668,-0.7347243194203573,0.0141486516751427,0.1146173036748225,0.0263967022990367,27.60482592842306,0.3504079753594205,78.68524425948333,0.0002712769237088
362,1724914143269368905,-0.1737567633390426,0.0752179622650146,0.1385621577501297,0.0413928627967834,-0.1458735913038253,-0.3479145765304565,0.9251827597618104,0.0,0.0,0.0,0.481771094879045,0.5125236927358578,0.5134786414791326,0.829010732,-0.4975559233119688,0.2715388896154198,-0.7523665092075824,5.882643667061611,14.462661561353118,-1.6948031468302247,0.1845551685657648,-0.2435167505993951,-0.742027345415607,0.0179247140669804,0.1128143711171487,0.0252110304776973,45.45813428582261,84.87272977656265,53.05363993457072,0.0001700231173815
364,1724914143279853773,-0.1735442578792572,0.0763909816741943,0.1388901323080063,0.0414179116487503,-0.1425639241933822,-0.351458728313446,0.924357533454895,0.0,0.0,0.0,0.7067010255186323,0.4460879752384752,0.0304271603510182,0.8394956,-0.3073279195516955,0.5348051112030887,-0.7070660214917872,2.515967473780652,8.84209927878116,7.606799533669516,0.182866379618375,-0.2366493674183436,-0.7484766188305485,0.0241999239956793,0.1255444670981633,0.0373192414941687,-0.022549008031099,-73.04097462597474,-66.62886432915909,0.000279053851847
366,1724914143288884171,-0.1732951402664184,0.0776309967041015,0.1392741054296493,0.0408915393054485,-0.1397663652896881,-0.3541837632656097,0.923767864704132,0.0,0.0,0.0,0.5394686054574582,-0.7323092670643936,-0.7311484473688846,0.848525998,-0.4061507729185516,0.4881325818741978,-0.612814220787881,8.980995934588613,-5.46890927850432,20.0749474356322,0.1803062330587907,-0.2313144017921791,-0.7532536882399504,0.031423257730605,0.1235991471638913,0.0288487719655972,-39.18946081192369,-100.94408710340852,-20.595903221639556,0.0003252309858563
368,1724914143300078021,-0.172890156507492,0.0788242220878601,0.1394073367118835,0.0417776480317115,-0.1374641358852386,-0.3554236590862274,0.9235975742340088,0.0,0.0,0.0,-0.1860299227171031,-1.452263017747944,-0.0772816922898838,0.859719848,-0.0291563315831868,0.4227444061876204,-0.2543682351161688,-1.3028581088842444,1.7592911546667551,5.29750252440023,0.1804344040854879,-0.2261482845742016,-0.7552583266093039,0.0338484694239156,0.1082296204503938,0.0235345300285523,392.9431304752369,894.8954491175773,173.71870818997022,3.738355400112445e-05
370,1724914143311195136,-0.1725395917892456,0.0800454542040824,0.1397974044084549,0.040984746068716,-0.1337978988885879,-0.3581443727016449,0.9231202602386476,0.0,0.0,0.0,9.236398110683236,19.086966028355192,3.12704826310674,0.870836963,-0.4298685743721594,0.5262215796006068,-0.4905345240759637,-22.553685719435254,2.559353438982345,-12.06364124905628,0.1766358707211267,-0.2194226887207678,-0.759695612934546,0.0273343389790809,0.0912098755405642,0.027063752975392,4428.604180000512,3921.5343531188705,-3143.924195932943,0.00030253482668
372,1724914143340310114,-0.1720639616250991,0.0812795981764793,0.1399735808372497,0.0409328453242778,-0.1322535276412964,-0.3601100444793701,0.9225803017616272,0.0,0.0,0.0,411.2303087946998,291.4053681528976,-350.1108884279356,0.899951941,-0.0578321709869019,0.0861580290232973,-0.1418023387058287,496.62489058830306,13344.585289939798,-10337.49973845977,0.1757544456169636,-0.2162293793510335,-0.7634083820881967,1.0452080015203933,2.219046123411772,0.3323393983235689,-162910.9955037441,-295158.6401958044,-11607.845015582396,6.367584039866672e-05
374,1724914143340955747,-0.1713744103908538,0.0827434509992599,0.1401928216218948,0.0423440560698509,-0.1295433938503265,-0.3620527386665344,0.9221407175064088,0.0,0.0,0.0,303.5195036352791,96.48148409216584,-357.5977844632555,0.900597574,0.2697325274079783,8.893134786858127,-6.964207782889032,-2267.4221666399503,-3560.623741541124,1330.0525666218105,0.1766683572522759,-0.2097883688518725,-0.766907674233091,1.3160989511718242,2.4103127751012465,0.101133566193738,-200122.81868634408,-321275.53048441396,20366.208929796645,4.820497419655035e-05
376,1724914143341450453,-0.1706292927265167,0.0839900523424148,0.1401524692773819,0.0420221090316772,-0.1292146146297454,-0.3625169992446899,0.922019064426422,0.0,0.0,0.0,191.897461944418,-69.79567353108834,-335.4068051964531,0.90109228,-1.903783241334201,0.611275669529788,-1.7965181227334188,-4126.382798972239,-15754.639938114473,9839.853160124883,0.1759013231701747,-0.2093347497400904,-0.7677478621650747,1.4222601088578646,2.382319619862919,-0.0755791003300885,-214512.85714664235,-317022.42101840064,44770.04843665106,-0.0002189201219425
378,1724914143349346221,-0.1699754446744918,0.0854644477367401,0.1403104811906814,0.0400362014770507,-0.1260920017957687,-0.3646209239959717,0.921710193157196,0.0,0.0,0.0,-100.46819502934775,-167.11458588599487,7.1415916578954635,0.908988048,-0.816113964778338,0.5144176675283547,-0.4879678111324539,97.81095647969263,-5.320573316704376,104.26435249516014,0.1701077042398374,-0.2046704436685109,-0.7709117041110342,0.0771507432715052,0.1664671078218593,0.0234565856616031,-18436.088539189223,-1496.3975669323418,25494.649362369964,8.167577006226875e-06
380,1724914143360905684,-0.1691793948411941,0.0870457664132118,0.140639916062355,0.039547961205244,-0.1222153902053833,-0.3664689660072326,0.9215204119682312,0.0,0.0,0.0,1.056521562484409,-1.150531132626922,-0.8944984808103242,0.920547511,-0.3614242173669338,0.5704713664312433,-0.3228867917291418,39.86152428240056,-12.3180330482826,29.4800836566697,0.1664547636694732,-0.1975440632715246,-0.7735397500392799,0.0985518380057648,0.1558847711115714,0.0146027599205922,3787.1657681103047,6269.697866988476,-207.68991181107373,0.0001425687524802
382,1724914143369669596,-0.1681184470653534,0.0885387435555458,0.1406755596399307,0.0400532931089401,-0.1208007186651229,-0.3662655055522918,0.9217659831047058,0.0,0.0,0.0,1.0535669410551156,0.058174185951306,0.5245288366489882,0.929311423,-0.0085818733485329,0.3484508240759822,0.0364632715927625,17.489802180694877,-18.12192422870213,23.35238661710381,0.1662165372783694,-0.1945853298199115,-0.7727029607463317,0.1025296328928799,0.1442397652109575,0.005909238021617,63.78901022541499,154.8662430557154,97.4163543420839,-0.0002110393958226
384,1724914143384132379,-0.167077824473381,0.0900015458464622,0.1408049911260604,0.038785059005022,-0.1182714104652404,-0.3667642474174499,0.9219499230384828,0.0,0.0,0.0,3.506660098772107,2.702470952507838,0.3939728567129879,0.943774206,-0.2991165915929182,0.258479115159217,-0.0470802838320456,-26.26265921471869,63.67952055348259,-32.02248414343236,0.1619024187340323,-0.190785997668119,-0.7727653610118435,0.1320800483964106,0.1781833326032611,0.0496902775393941,-204.7214626733239,-281.2141042484211,-237.5685412028616,-0.0001088315702608
386,1724914143391338403,-0.1659101694822311,0.0915621444582939,0.1413093358278274,0.0385269820690155,-0.1143271699547767,-0.3680792450904846,0.9219342470169068,0.0,0.0,0.0,0.6874278172678041,-0.9900723576910532,-2.138500964611377,0.95098023,-0.5105337001012953,0.9683238785590064,-0.3720681156222237,-0.7897819416368819,30.308538590496305,2.390014815689349,0.1585138722206013,-0.1834698732622674,-0.7743263147813813,0.1626034782596761,0.19893382141968,0.0430751615099112,-387.8968615172226,-430.2777726040928,-169.19033186299328,0.0002308812048665
388,1724914143399254946,-0.1646180003881454,0.092983640730381,0.1414162665605545,0.038416177034378,-0.1116999387741088,-0.3678871393203735,0.922337532043457,0.0,0.0,0.0,-2.3543621127656107,-3.681944849354645,-1.8928699102298745,0.958896773,-0.268490595400147,0.6151313921033056,0.0598742340140094,14.132776505955798,-33.42577658173734,32.7824567443041,0.1561629135850157,-0.1787345818673342,-0.7730746904969084,0.1371847274815874,0.1574408407692011,0.0155307668218274,-81.38645223037044,-13.604982104241046,103.90537108993284,-0.0001827365876507
390,1724914143413035295,-0.1633521616458892,0.0946226418018341,0.1416788250207901,0.0365211181342601,-0.1078218296170234,-0.3682006597518921,0.92275071144104,0.0,0.0,0.0,3.788611945202682,3.960722967854389,1.2871382127559434,0.972677122,-0.4681279724734981,0.422901580844566,-0.0108084982854774,16.188645296830927,10.608807221133812,-13.959665995193609,0.1495803539681587,-0.17295208778114,-0.7723227278778354,0.1252855465777536,0.1441073878523697,0.0275019501735638,119.84937566001146,146.98391783379915,30.07795269635575,-1.0505173860308266e-05
392,1724914143422661116,-0.161921426653862,0.0961790308356285,0.1420003622770309,0.0373791269958019,-0.1045322865247726,-0.3690406084060669,0.9227594137191772,0.0,0.0,0.0,2.750780026663989,2.6347892186752446,0.227288781744158,0.982302943,-0.1060410882446252,0.690145825297978,-0.2045558318238284,-46.75723409962491,67.24796491339546,-33.5914247702998,0.1487239540878497,-0.1660900426969618,-0.7732967805649626,0.193033884166029,0.2153694974104407,0.0427051159463101,-465.788758544133,-574.8782870625892,-192.32833053209163,1.0842285295139024e-05
394,1724914143429142745,-0.1604764759540558,0.097809262573719,0.1423177570104599,0.0367697589099407,-0.0996602177619934,-0.3705803453922272,0.922705888748169,0.0,0.0,0.0,-1.8306412947647388,-2.9991981241630867,-1.3781732933607262,0.988784572,-0.7773486786059509,1.2983515823076843,-0.4810441091777113,-53.32639869764009,30.82930024206434,-9.358483412467526,0.143988398007934,-0.1573098457841275,-0.7751787012145976,0.1921511975958356,0.2116355786530612,0.0382770163179797,-496.2109656263667,-583.7717669102285,-161.79052759102214,1.490244660660127e-05
396,1724914143439452288,-0.1590002030134201,0.0993371680378913,0.1425370573997497,0.0355059243738651,-0.0959192365407943,-0.3708751797676086,0.9230332970619202,0.0,0.0,0.0,-3.492559531430664,-4.336732184684962,-1.6374986031786685,0.999094115,-0.5032043931945464,0.583005814815188,-0.0314883561541542,43.175170640757365,-48.6435709477598,26.422540771431866,0.1387188251413019,-0.1513135122826648,-0.7746469319521215,0.1454921508250466,0.1409805342640364,0.0126720305628849,34.858664405655865,201.66973525226845,54.32929670450062,-7.701725426496612e-05
398,1724914143450063032,-0.1574313342571258,0.1007542014122009,0.1425776034593582,0.0367181189358234,-0.0947615131735801,-0.3704503178596496,0.9232760071754456,0.0,0.0,0.0,-0.98155543990406,1.422347303024786,-0.1930085342278886,1.009704859,0.1360243662799251,0.2933923910271283,0.0612205947934303,33.020702510100044,-12.476531707312065,-3.4434476674348704,0.1399997592431711,-0.1483208072779869,-0.7735589743044552,0.1197173752205529,0.1224480662503118,0.0045372264236611,163.13969563636888,322.4124611721167,83.69035072744371,-0.0002740848767631
400,1724914143464050500,-0.1562756448984146,0.1022622883319854,0.1426542699337005,0.0384935215115547,-0.0924234390258789,-0.3716501295566559,0.922958493232727,0.0,0.0,0.0,-0.0550356146783741,1.8691534648944312,0.0105979852740722,1.023692327,0.0959442885353805,0.392100025797548,-0.2115422195330749,-82.0228560075937,-20.988242799541467,-39.83881008277171,0.1416580585887999,-0.1424752850816825,-0.7757418686363546,0.1326792451461909,0.2007742043166001,0.0124149134499855,-39.35073783797789,-189.20001938189375,-154.96843540402725,-0.0001586601949661
402,1724914143470888040,-0.1552011370658874,0.103945791721344,0.1427623331546783,0.0365627259016037,-0.0909348651766777,-0.3735998868942261,0.9223974943161012,0.0,0.0,0.0,-0.6770237514015514,-0.1636625298381906,-1.6156274540233766,1.030529867,-0.7294674182089133,0.1548536354180715,-0.5519207474197978,-42.83350890522729,-23.403240654843493,-25.590996716492356,0.1371823726116371,-0.1409022933691969,-0.7793681968988896,0.1290216426222592,0.2010854503883883,0.0106403642653445,-112.47170804071266,-183.0309621837769,-165.0874901769733,-0.0001027887657372
404,1724914143482683321,-0.1542516052722931,0.1053993701934814,0.1427827626466751,0.038900151848793,-0.0910369083285331,-0.3753539025783539,0.921579360961914,0.0,0.0,0.0,-2.441238924104386,0.0026010018370854,-2.082574711025927,1.042325148,0.3500673112670296,0.1086212835395067,-0.3615643812463846,158.54717131399627,-39.92793321434,31.479684290957636,0.1418814585638508,-0.1390403845668949,-0.7834532766397698,0.1181446588578793,0.1948986042765099,-0.0360099599905296,-271.6514178263531,-127.10535953767624,282.5335889389054,-0.0001719066579337
406,1724914143488505555,-0.1534555554389953,0.1067400723695755,0.1424646377563476,0.0426193960011005,-0.0932324156165123,-0.3753476738929748,0.9211978316307068,0.0,0.0,0.0,-4.3737075412149,-1.1432334710075018,0.4881447900031306,1.048147382,1.4657876914619543,-0.2273327901885901,-0.134192894886366,81.89240662244424,-38.62800829342697,27.76168548706586,0.1505513938079432,-0.1402360143131092,-0.7844285807834043,0.0995654828514442,0.1964286351848447,-0.0427540450190124,-201.56227538001423,-174.76724436221355,338.317711739976,-0.000485085714467
408,1724914143500361445,-0.1531722545623779,0.1082518324255943,0.1422446966171264,0.0410007834434509,-0.0939671546220779,-0.3759452700614929,0.9209529161453248,0.0,0.0,0.0,-3.616468336969696,-2.6832552245724983,2.0073019277634336,1.060003272,-0.2126465387238527,-0.2248141113434958,-0.0776342326110715,-37.23933163749635,17.63779562894464,-23.918035568288612,0.1482164205659368,-0.142734715933753,-0.7857486225516397,0.0191597773760925,0.1489299175554723,0.0027831057696694,156.33041846049335,67.14882486274466,-158.00068836615998,-0.0002804416285253
410,1724914143509659580,-0.1530286371707916,0.1097927913069725,0.1424261480569839,0.0422033295035362,-0.0939389839768409,-0.3780235350131988,0.9200503826141356,0.0,0.0,0.0,-1.488650907927894,-0.622016272478338,-1.5483651276050976,1.069301407,0.2018928780456196,0.0662533598621634,-0.5092294809683244,26.965515984212068,17.574863413898097,-25.196645139365913,0.1507502848485484,-0.141420416644514,-0.7903857900152733,0.008616422917282,0.1336288186243479,0.0080764224998945,149.01405236685005,168.77378619807794,-267.9398835799259,0.0001379688817059
412,1724914143529110968,-0.1531389355659485,0.1110858991742134,0.1421177983283996,0.0418590568006038,-0.095265157520771,-0.379291296005249,0.9194076657295228,0.0,0.0,0.0,-1.8385116098593373,0.507902541077959,-2.1023326824025785,1.088752795,0.0095221165709113,-0.1505465385484252,-0.1358315949026633,45.08562287309723,-35.970366624481805,13.029668247045146,0.1513739830118394,-0.1439177781537127,-0.7934697007423414,-0.0347744331137391,0.1631814389690582,-0.1082122376040786,43.72809664333326,-204.66168295389951,253.18284360545164,-0.0002849319801788
414,1724914143539074125,-0.1536339223384857,0.1132051944732666,0.1405683308839798,0.0440613143146038,-0.0995642095804214,-0.3792402446269989,0.9188702702522278,0.0,0.0,0.0,-1.087899678461813,-2.872047448146106,1.8575499911890136,1.098715952,0.7392684372995421,-0.6356102618164189,-0.0374854161507648,1.810203024356064,-12.641631630352991,8.571692843072958,0.1589390767796022,-0.1501167162327251,-0.7948321432198928,-0.0510902244519968,0.1630803459552909,-0.1093776002658071,72.69808293123617,-197.57400307258493,200.57825901451665,-0.001417182090982
416,1724914143549388706,-0.1541759371757507,0.1143573001027107,0.1399328708648681,0.0432737544178962,-0.1013689488172531,-0.3791529834270477,0.918746292591095,0.0,0.0,0.0,-0.3662476610030647,-3.3971221484890872,1.8241275980865377,1.109030533,-0.0048639715696036,-0.3811099128206832,0.0370536360572073,-14.266041737027988,28.442677072633835,-0.0718710856859656,0.158926397376847,-0.1540586290147673,-0.7950796522650044,-0.0564413991486816,0.1028958572253744,-0.069133064866059,69.16861044869779,105.57034440959308,-80.08223770964466,-0.0005043252938017
418,1724914143559581059,-0.1547904163599014,0.1153174117207527,0.1391524523496627,0.0452156700193882,-0.1024458184838295,-0.3791143894195556,0.9185492396354676,0.0,0.0,0.0,0.3307297995439353,-0.7451483182896634,0.2339820011068671,1.119222886,0.4326509416264114,-0.0532540156866073,-0.0371856948916885,19.697013588737832,19.88280346680747,-7.277163728881237,0.163407865545203,-0.1545335606736554,-0.7955464044534971,-0.0586379117359037,0.0928233891441889,-0.0714654669563241,47.68444411192485,117.44547600498376,-63.18967220182037,-0.0006293060238823
420,1724914143569384386,-0.1553497016429901,0.1162144169211387,0.1384999752044677,0.0471492707729339,-0.1030610427260398,-0.3793919682502746,0.9182685613632202,0.0,0.0,0.0,0.6030319692297548,-0.9397749639049402,0.4897635940553493,1.129026213,0.4067195005333195,0.0258354905490587,-0.1084632862285481,-1.315801364765548,1.1437281691215309,-0.895074357362236,0.1675517318148981,-0.1541085969625502,-0.7965655858398619,-0.0502451209327432,0.0878105831906301,-0.0648076618180226,-32.54515182739527,17.46564305988296,-7.991200155420068,-0.0005173736350372
422,1724914143579073848,-0.1557713747024536,0.117029920220375,0.1378887742757797,0.0489324666559696,-0.1039263159036636,-0.3794443011283874,0.9180560111999512,0.0,0.0,0.0,-0.2900087043731161,-0.4131434703561152,0.085927756188326,1.138715675,0.4067013248600366,-0.0293919432597277,-0.0560766922327075,-17.683959885525784,-5.4485215844352375,3.114070690756936,0.1715831395334652,-0.1542975847011008,-0.7971560946017133,-0.0468258365537277,0.0746015555695205,-0.0618757329342214,-77.91041903807655,75.90828036090637,-52.84992222648867,-0.0005079006979566
424,1724914143590423511,-0.1563467979431152,0.1177494972944259,0.137202501296997,0.0486219227313995,-0.1043073683977127,-0.3797526061534881,0.917901873588562,0.0,0.0,0.0,-0.98474502970092,0.734980032119875,-0.6624263474149199,1.150065338,-0.029077020401238,-0.0878910210157163,-0.0512100483233642,-12.097707807131355,-4.681164741984787,-15.746401102591722,0.1713690307631216,-0.1551813311466148,-0.7979080792507796,-0.0586642005120321,0.0825433603889607,-0.0637808525537497,19.02970644819077,-17.63651602981104,-3.97663585006255,-0.0005438820203372
426,1724914143599219411,-0.1569170951843261,0.1186060309410095,0.13661889731884,0.0487260483205318,-0.1048242449760437,-0.3809700310230255,0.917332887649536,0.0,0.0,0.0,-0.2703732358069608,-0.2299505357104623,-0.2750410801757121,1.158861238,0.0437797398863435,-0.1258411259147684,-0.2999761241131671,-0.6197072185912829,-16.971319746491588,-3.2661224018198287,0.1721913484910281,-0.1558209208014466,-0.8007311707710947,-0.0669284098592859,0.0892483988974985,-0.0729788463308089,101.95310752067456,-113.06346207145586,99.41328980129106,-0.0004453157079023
428,1724914143609180790,-0.1576073914766311,0.1194033473730087,0.135817140340805,0.0476346276700496,-0.1066923141479492,-0.3813379108905792,0.917021870613098,0.0,0.0,0.0,0.9791564642286286,-1.3941366285865158,1.3399166074637638,1.168822617,-0.0628278042197579,-0.4376838397752796,-0.0502993605317547,1.0341965126401322,1.4649926783502971,4.033811694180018,0.1717629121596317,-0.1600307787864305,-0.8019864840858558,-0.0620724974804733,0.0757640090279849,-0.0670244550037297,-91.2227064502177,112.7001032304302,-200.07310084588215,-0.0006244887392697
430,1724914143619011470,-0.1581475138664245,0.1201066672801971,0.1352888494729995,0.0478255599737167,-0.1072315797209739,-0.3822978734970093,0.916549265384674,0.0,0.0,0.0,-2.01959543849032,1.941001075268548,-4.140843756227154,1.178653297,0.0612009031759966,-0.1053557649244741,-0.2146773753367743,10.300580335310302,28.45213634383116,-13.3269715392168,0.1727295967741192,-0.1606894691866744,-0.8042725967588747,-0.0476765690253787,0.0616660737753552,-0.0466518665452087,-1842.9510613516925,-685.0576733994111,-1961.6831965506008,-0.0003917994066236
432,1724914143668981846,-0.1586843430995941,0.1206792667508125,0.1347578018903732,0.0471793785691261,-0.1080830097198486,-0.3828071653842926,0.9162700176239014,0.0,0.0,0.0,-484.74908786397873,-292.4725596759913,-458.8319209385873,1.228623673,-0.0123278722883133,-0.0432941575258097,-0.0185524223793268,16447.615926908078,-12644.060246962646,6905.7972478512775,0.1723230654483878,-0.1626615906333542,-0.805574123213802,-1.0335444869079424,1.0159437331301433,-1.831750971039071,-177794.2002636129,644012.609888559,476910.59021496354,-0.0003926806796395
434,1724914143669403569,-0.1591238528490066,0.1211112886667251,0.1339788287878036,0.0480243042111396,-0.1097227558493614,-0.3821373879909515,0.9163108468055724,0.0,0.0,0.0,-560.3273991329006,-18.564545736240007,-255.97799157515328,1.229045396,6.98255424429217,-5.420591255257977,2.9183456644494203,1362.682247565858,-7853.278585892294,6733.622950398485,0.1751326607700767,-0.1651259188061663,-0.8047460114831975,-1.2396293860480796,0.8914924165857769,-2.02675683779529,-716196.850506887,753415.3589141902,-168635.21641534753,-0.0006539090749047
436,1724914143669821693,-0.1597240269184112,0.1214289367198944,0.1330569237470626,0.0475994832813739,-0.1111568510532379,-0.3810952007770538,0.9165942668914796,0.0,0.0,0.0,-1082.3961484816364,339.5362599025709,-595.803492344909,1.22946352,1.2412297320418426,-6.673948409729838,5.638312114706864,-4626.444783930274,12091.624968789818,-9383.108134836795,0.1753429296678917,-0.168284769044916,-0.8028854552631218,-1.5036202088591608,0.9983703317946606,-2.04821282447125,-764621.4055459232,-156438.0349777851,-1154589.3712253522,-0.0007516786787988
438,1724914143670156301,-0.1602454185485839,0.1218269094824791,0.1324135214090347,0.0480490028858184,-0.1110621243715286,-0.3813135027885437,0.916491448879242,0.0,0.0,0.0,-1208.6485226012264,15.96725664301357,-1073.6769080482136,1.229798128,2.131183525694123,1.4124928744512188,-1.7558094726881832,15869.887009171394,3602.9603056035,-18959.271453334808,0.176140115797251,-0.1677166828171865,-0.8033882922477512,-1.9865715367654389,1.134454312504431,-2.3933730411937404,314167.0786964097,-1070351.3318579877,-602178.7851331523,-0.0005006538952174
440,1724914143670412649,-0.1608387976884842,0.1221069395542144,0.1317075788974762,0.0490841604769229,-0.1116548478603363,-0.381903201341629,0.9161189198493958,0.0,0.0,0.0,-992.3110917132418,-278.71072957200295,-1065.828427246764,1.230054476,8.793772719723636,-1.7024882968753965,-5.99958696056545,25221.680468766557,-11800.86534723046,-16063.077941826974,0.1786638434342085,-0.1678748378822087,-0.8050017612770933,-2.250315712111372,1.061811386805543,-2.676884090687959,823593.7001775554,-1116068.6584980115,33819.62771086562,-0.0005426029778712
442,1724914143679145268,-0.1613247543573379,0.1222850084304809,0.1312256008386612,0.0497334338724613,-0.1141961216926574,-0.3818637430667877,0.915787160396576,0.0,0.0,0.0,152.86976263014182,-72.81085856240674,182.37219909194937,1.238787095,0.363240877851859,-0.4844492184857371,-0.0087739438941827,-594.141149558156,90.18370871065817,416.6169653049801,0.1819790717321303,-0.1720230549099151,-0.8058482158250978,-0.0455414845493544,0.0158292874261936,-0.0454990812129936,75001.3409427944,16420.272520672635,81292.22626685102,-0.00034761318394
444,1724914143692581209,-0.1617277115583419,0.1224033832550048,0.1308146715164184,0.0493102893233299,-0.1161399781703949,-0.3817979991436004,0.9155929088592528,0.0,0.0,0.0,0.0955362829392623,-0.1618727670047089,0.294608870397484,1.252223036,0.0553658969663636,-0.2918523483385528,0.0195037988942638,-32.29202006825342,-26.7367445504451,12.547779879636783,0.1828026551212168,-0.175926834584511,-0.8063086236454184,-0.0506900889177366,0.0084874245487913,-0.0542688595784319,-3927.984591886646,1938.1139510764615,-4676.828134905438,-0.0002971651103319
446,1724914143699942568,-0.1621843427419662,0.1224645599722862,0.1303196549415588,0.0475828237831592,-0.1180631890892982,-0.3814906179904938,0.9155664443969728,0.0,0.0,0.0,1.197514705699397,0.1143722197420432,1.660102837318846,1.259584395,-0.2201693756294111,-0.6543187731761171,0.1539916263616362,-8.662043603625843,-6.435280502828762,2.697117543011436,0.1811380428733963,-0.1808691229115581,-0.8060614650191756,-0.0480559955683181,0.008846829123585,-0.048279426136137,98.33553057715643,22.722102536664657,107.08133840273354,-0.0003634978627076
448,1724914143709433237,-0.1624694317579269,0.1225550845265388,0.130093514919281,0.0474575869739055,-0.118983156979084,-0.3815535008907318,0.9154276251792908,0.0,0.0,0.0,1.50232283587014,0.1488769048500634,1.7169174303726384,1.269075064,0.0496230040856244,-0.1916513963505308,-0.0109520573205291,19.788770258740804,28.285458702003616,-3.449564208058481,0.1816880948471697,-0.1826394171825363,-0.8064990588321443,-0.0264164518640557,0.0107343496466594,-0.0221666070298125,-62.74414886566462,18.698505597909787,-93.06933380680285,-0.000145935990775
450,1724914143720113528,-0.1627080291509628,0.1226841062307357,0.1298767328262329,0.0478736422955989,-0.1199960485100746,-0.380902886390686,0.9155447483062744,0.0,0.0,0.0,-0.3079370627462563,0.5296233512609444,-0.4676433292135997,1.279755355,0.1571482707651617,-0.1355148938538091,0.1196306426658469,2.0525984131021486,5.449497431464126,5.195975592707066,0.1831820824110729,-0.1842945617599339,-0.8054882685798301,-0.0197191667677625,0.0117233891087451,-0.0162631478356196,-104.7863608361931,15.17477389081811,-123.7893912146398,-0.0001479341107153
452,1724914143734941987,-0.1629464775323867,0.1228505969047546,0.1297186315059662,0.0478374063968658,-0.1204225420951843,-0.3805482089519501,0.9156381487846376,0.0,0.0,0.0,-0.5295441550035882,0.3331143863170407,-0.6407485676497,1.294583814,0.0225735554669225,-0.0507252886206185,0.0519360163012593,40.42452132918896,-41.12189999494089,55.02231133019072,0.1834009382432789,-0.185174515544939,-0.8048574248117432,-0.0435350840201493,0.0285741303920517,-0.0442050457765326,85.84860503063595,-62.32045857455442,118.08647786689065,-9.085211362233676e-05
454,1724914143738550366,-0.1631276756525039,0.1229689344763755,0.129529669880867,0.0479567199945449,-0.1209909841418266,-0.3800225257873535,0.915775179862976,0.0,0.0,0.0,-0.131266437632259,0.0651532287259829,-0.1007093751274368,1.298192193,0.2119048891928083,-0.2402373461314243,0.3027992556048663,43.19209464570108,-42.87567960920122,56.792466779568855,0.1839934719794877,-0.1862263439268262,-0.8039253721493727,-0.0445005947137762,0.0290708126778201,-0.0454251489631581,99.68668898309708,-64.73317996203929,133.814547010597,-0.0001353139126582
456,1724914143759478486,-0.1633652597665786,0.1231252625584602,0.129421666264534,0.048057597130537,-0.1206059008836746,-0.3805344998836517,0.915608048439026,0.0,0.0,0.0,0.6575408583090594,-0.1331233775328864,0.7761421444198672,1.319120313,-0.0103104062772678,0.0330857506708612,-0.053806976444836,-18.493694041656894,5.537491413555473,-3.604129158665695,0.1839619530032032,-0.1853395914862659,-0.8049229071358334,-0.0307026215242327,0.0216350386239341,-0.0187145477142696,46.26674304021723,-35.24316404713393,12.218646113186011,-4.2609531403935475e-05
458,1724914143769359453,-0.1637589037418365,0.1234051212668418,0.1291735172271728,0.0471331365406513,-0.1199290454387664,-0.3807796239852905,0.9156431555747986,0.0,0.0,0.0,1.1547071981986614,-0.6015769816131085,0.7584134198499515,1.32900128,-0.2297874251537374,0.0527072293971195,-0.0267404532341317,-4.832997470811606,1.4366724213599855,2.820860197331585,0.1817223600231438,-0.1847794507496891,-0.8050909710951242,-0.0242137029137348,0.0213561484192146,-0.0133788499981681,20.278003170548285,-38.70596492279427,-17.859535743959274,-0.0001379201427315
460,1724914143780288180,-0.163834661245346,0.1235543042421341,0.129169151186943,0.0468954108655452,-0.1194703429937362,-0.3807857930660248,0.9157127141952516,0.0,0.0,0.0,1.013238358526738,-0.9193768223370432,0.3690406034122486,1.339930007,-0.0725344863631617,0.0617707793208061,0.0050743251449408,9.763986930645515,0.2537824819524674,1.1086845023787024,0.180896747226863,-0.1841254248418068,-0.8049115945359698,-0.0055746236957539,0.0078512342650824,-0.0024502350723807,-38.81716573528195,7.925480657615424,-53.25602510194013,1.5820035509589668e-05
462,1724914143789014996,-0.1638738512992859,0.1235824078321456,0.1291334778070449,0.0469157844781875,-0.11919866502285,-0.380774974822998,0.9157516360282898,0.0,0.0,0.0,0.4941945125023902,-0.592343090190844,-0.2185539671908814,1.348656823,-0.0195552493873581,0.0599747456688624,0.0021892958869981,4.782273239230993,-3.0403695974689993,-1.3309305329964698,0.1807051156202538,-0.1836140244780329,-0.8047968346444799,-0.0015564211299068,0.0020324964484279,-0.0036264826310317,-31.057749304220753,20.771397518507445,-39.64333063338039,-2.44104395542964e-05
464,1724914143800834972,-0.1638452708721161,0.1235874146223068,0.1290979981422424,0.0469770208001136,-0.1193427518010139,-0.3809293508529663,0.915665566921234,0.0,0.0,0.0,0.5820684232087449,-0.6142349657119215,-0.2438547452828508,1.360476799,0.0163415702889721,-0.0213422496129163,-0.0295571509913837,-0.5249331976904648,-8.098227198541505,2.7238932647228387,0.1809705713498955,-0.1837993561817035,-0.8051925907533448,0.0048252882413555,-0.0037775238842971,-0.0075508766065954,-4.863491928030445,27.04546537283924,27.42980527462059,-4.155724028397678e-05
466,1724914143812296582,-0.1637632101774215,0.1234974265098571,0.1289608925580978,0.0465024076402187,-0.1199655905365943,-0.3806593716144562,0.9157206416130066,0.0,0.0,0.0,0.3896453497777024,0.0169203994273207,0.3991826988465044,1.371938409,-0.0292623030413248,-0.1277046560207448,0.0617873069930058,1.6152353103274677,-5.27915602181318,12.060486854528676,0.1805542280116634,-0.1853665134623878,-0.8047515510981638,0.0119652958625238,-0.0121812631764779,-0.0093660363362815,-46.01829858483343,62.19061873103261,56.12491962709175,-0.0001540558228436
468,1724914143819475798,-0.1636556982994079,0.1233905032277107,0.1289053261280059,0.0462534911930561,-0.1204888373613357,-0.3801324665546417,0.9158833622932434,0.0,0.0,0.0,-0.0721720443191908,0.4954345668294891,0.8022115454043057,1.379117625,0.0074895231053227,-0.1476141851865951,0.1667682479671307,1.759938491163265,2.163552992184925,6.351086735902751,0.1804221460184006,-0.1866239560827156,-0.8037465673632097,0.0137135088596824,-0.0086865748904805,-0.0039929926537349,-51.499536384399896,28.66162930570063,21.729611617956262,-8.196001345946421e-05
470,1724914143831801137,-0.1635133773088455,0.1234147772192955,0.1289353966712951,0.0459263809025287,-0.1205036714673042,-0.3797730803489685,0.9160470366477966,0.0,0.0,0.0,-0.4354890931718405,0.0447983277193668,0.3419404390892225,1.391442964,-0.0419013921920694,-0.0164843746755592,0.0700139850605592,2.245791654894284,3.298086059122519,-10.490117837730455,0.1797521416624938,-0.1869784434248765,-0.8029197007194031,0.0061440478035734,-0.0023970122484371,0.0070328531087557,171.07685186533652,-19.99175184259629,-54.23655853577898,-7.135717251457665e-06
472,1724914143840434862,-0.1634930074214935,0.1233676746487617,0.1290238946676254,0.045952770859003,-0.1206496581435203,-0.3799159228801727,0.9159671664237976,0.0,0.0,0.0,2.254452833102185,-0.0275927599026821,-0.2284890555949471,1.400076689,0.0153054103577305,-0.0324062586675522,-0.0365215443761603,4.931501892916528,-1.7095509600527603,-7.086230880711132,0.1799524537081478,-0.1871972783667815,-0.8032862495572018,0.0034645889006061,-0.0048254692717439,0.0066428948418397,58.224265361614016,-9.067481859319578,-44.706030709492474,7.998154162539199e-05
474,1724914143861911556,-0.1633595526218414,0.123297706246376,0.1289738416671753,0.0458828583359718,-0.1214293092489242,-0.3790021538734436,0.916246235370636,0.0,0.0,0.0,-10.029413254101144,-0.2588099101157901,-0.0472818873466582,1.421553383,0.0306924539253311,-0.0619309381327936,0.091938470133725,49.09181384194166,-1878.6273427676947,3420.908161726868,0.1802873647964405,-0.1888595957979666,-0.8015514728990342,0.1889047773364609,0.0081346943993594,-0.008058105087116,-1826.949340969344,17.6436805961917,136.56987656090604,-8.326102015850194e-05
476,1724914143862667466,-0.1632118970155716,0.1233041584491729,0.128967598080635,0.0455602332949638,-0.1220176368951797,-0.3780664503574371,0.9165706038475036,0.0,0.0,0.0,-11.443812181760096,-0.2447170206109909,0.0593616874246849,1.422309293,0.0690885015198745,-1.5319495297694254,2.7686932710763528,46.80824359354122,-1771.9463600651686,3228.233948036892,0.1799842073264632,-0.1903738121625381,-0.7996660197147564,0.1808268797059815,0.0079161164088137,-0.0080768921289458,-1703.263914367339,21.74551223718016,132.89203625893327,-4.408896623227899e-05
478,1724914143871183595,-0.1630638986825943,0.1233121305704116,0.1289163529872894,0.045690219849348,-0.1223872825503349,-0.3770822584629059,0.916920244693756,0.0,0.0,0.0,-9.84429377184138,0.2380773314269845,0.4055340600264573,1.430825422,0.0852621011438247,-0.0474770694528861,0.2431267358223749,-17.06830105059298,91.24237708208334,-163.92625735186482,0.1803309559451391,-0.1911426020936362,-0.7976652265320119,0.0106938338844884,0.0100959580978745,0.000508521584571,726.7345925672034,-6.345420942035668,-23.308221039268144,-8.774439513104284e-05
480,1724914143879082321,-0.1630284041166305,0.123458981513977,0.1289681792259216,0.0451424717903137,-0.12185800075531,-0.3774512112140655,0.9168661236763,0.0,0.0,0.0,-0.1558994262155672,-0.2738590723043554,-0.2471273459779022,1.438724148,-0.1885130291567086,0.0646387433282479,-0.0799759169961842,-10.941207808197737,5.059231088382622,-14.575937125877717,0.1789444135300511,-0.1905274066743335,-0.7982054328066401,0.0071749582341382,0.0118454099212463,-0.0007029859793927,711.886082479287,-49.45245382859947,-34.53745268290235,4.228755684333033e-05
482,1724914143889862452,-0.1629116088151931,0.1234874203801155,0.1288537234067917,0.0452228970825672,-0.122056245803833,-0.3766842186450958,0.9171512126922609,0.0,0.0,0.0,-0.0541412844430475,-0.5809755359702952,0.0881041797337421,1.449504279,0.0425155534425837,-0.0152211930028653,0.1502737775940453,9.1087136642761,-2.4632687024742426,3.295626679243035,0.179100573353674,-0.1909773479057303,-0.7966117091190396,0.0097551224654885,0.001605342545166,-0.0047463216207273,-6.11531784176609,10.014034080933223,26.899621339822467,-0.0001404496637474
484,1724914143899107298,-0.1628299802541732,0.1234940737485885,0.1288563907146453,0.0453268960118293,-0.1221094951033592,-0.3765084147453308,0.9172110557556152,0.0,0.0,0.0,-0.2339977038034918,-0.1831361029962278,0.3035080053939787,1.458749125,0.0290307923322178,0.0012096852862202,0.0375333599164935,-3.0001874126961376,-1.6533901484048352,-6.669801403448464,0.1793025133501304,-0.1910281496794529,-0.7962617597411855,0.0069277773525122,-0.0008407595864792,-0.0002596449065812,-1.813542358008137,33.45552886938649,1.663466574098021,-1.8435599404699942e-05
486,1724914143910248058,-0.1627783328294754,0.1234637573361396,0.128846138715744,0.0450405664741992,-0.1223895624279975,-0.3763503134250641,0.9172527194023132,0.0,0.0,0.0,-0.0173598250650685,0.060993050963274,0.031560928150929,1.469889885,-0.0250898007803055,-0.0632690333256453,0.0374044733433592,-3.297722672582779,-1.395274697950838,2.9510119204157954,0.1789678717517425,-0.1917959860101827,-0.7959720166306894,0.0052852395319984,-0.0017874648599223,0.0006807972822242,12.665850457277632,15.355806070295287,-16.225097289435595,-2.3538197473144496e-05
488,1724914143920116213,-0.162720501422882,0.1234542801976203,0.1288668513298034,0.0447138771414756,-0.122503288090229,-0.3759671449661255,0.917410671710968,0.0,0.0,0.0,0.0483682009456537,0.1552093048553742,-0.057006390284818,1.47975804,-0.0439949375840076,-0.0386445019001913,0.0924211961710218,0.2020422059942693,1.892886434583412,4.222274957837113,0.1783723810085445,-0.1923333620344357,-0.7951267788097156,0.0062509065808225,9.033401987856848e-05,0.0005302562163755,9.069556206788214,19.08306718480764,-38.49108163626125,4.969400478989224e-06
490,1724914143934428786,-0.1626229286193847,0.1234773844480514,0.1288418769836425,0.0445585213601589,-0.1227088049054145,-0.3751530349254608,0.9177239537239076,0.0,0.0,0.0,0.2281832009045499,0.6262826704790311,-1.220626003244748,1.494070613,0.002859810317454,-0.0240588321890541,0.1247683461089539,2.718978280086575,1.0761040082819902,1.4475518571890678,0.1780823631844859,-0.1929888293598864,-0.7933983394097028,0.0059158605693537,0.0015835759972184,-0.0011523501563295,1888.5822995511303,1972.623089977046,639.3283936603979,-4.9123464265843066e-05
492,1724914143988879621,-0.1624875366687774,0.1235572546720504,0.1289018839597702,0.0458135269582271,-0.1219610795378685,-0.3740944862365722,0.9181938767433168,0.0,0.0,0.0,491.6861341436404,509.8541036837844,182.8718302376261,1.548521448,0.0360028061325004,0.0463484424450629,0.0352769892707398,-1999.052613879772,-14733.444631692017,29218.46748324181,0.1795882460870774,-0.1908470738258308,-0.7910155057770407,0.0704587663979054,0.1438091256486586,-0.296119670225778,-366624.2913998276,1076641.4138452928,664919.9111868746,2.35741966991024e-05
494,1724914143989225191,-0.1624630391597747,0.123607262969017,0.1287989020347595,0.045165792107582,-0.122804470360279,-0.3725301623344421,0.9187493324279784,0.0,0.0,0.0,364.1679224882516,884.2497983104175,414.0990555237852,1.548867018,-0.6591953545850245,-5.0774034482753425,10.196386763769992,13720.094570493677,1462.6137361200454,12453.51924438446,0.1787471324547591,-0.1932015023360334,-0.7878018794278333,0.2414464835676426,0.3211118641939947,-0.2325117066888538,-467951.10655865166,671705.6496233265,1094312.9365850976,-0.0001053826472914
496,1724914143989475194,-0.1623718291521072,0.1237194463610649,0.1287526190280914,0.0455712676048278,-0.1233264654874801,-0.3712770342826843,0.9191665649414062,0.0,0.0,0.0,229.2834634785191,977.7144497623524,764.5833708438602,1.549117021,5.616207498405121,-1.7655330770950304,10.24407208449609,-2168.4700996201573,4418.245210402974,10668.111192834423,0.1796724460894339,-0.1940923395794482,-0.7853140402554776,0.3088629596840064,0.6093097854186453,-0.0873809283423838,18734.168024993152,-2506824.1855088864,-39940.574801253504,-6.757286462022513e-05
498,1724914143989711425,-0.1623113602399826,0.1238992288708686,0.1287537962198257,0.045126374810934,-0.1236567795276641,-0.3696655631065368,0.9197934865951538,0.0,0.0,0.0,358.32378150159457,-257.49341303172184,433.29932345987663,1.549353252,-0.9831489852737209,-2.6926125941019787,15.102945194524256,-11164.026742756329,6511.327882102898,4404.364167492367,0.1787702006492352,-0.1953542584823047,-0.7818514270173859,0.3540134697701091,0.8011990042028572,0.1343244214029084,173574.61219876754,-5058536.787863394,-2289477.2109611104,-1.3124493285956094e-05
500,1724914143989958711,-0.1621984392404556,0.1241077482700347,0.1288204938173294,0.0450847037136554,-0.1235668435692787,-0.3682813644409179,0.9203627109527588,0.0,0.0,0.0,304.7771674405735,-1464.3211703131792,-362.4905883480721,1.549600538,0.5977167081673008,1.6189388625354366,12.007909783810089,7910.149762018332,2669.8048332255867,-10367.793255104218,0.1783254956118362,-0.195487648026412,-0.7788000651741596,0.4859017817313429,0.4606008748474721,0.1106950655767775,-571158.2620382006,-2573054.4283055724,-2132733.3023125,3.662926037218684e-05
502,1724914143990213098,-0.162067174911499,0.1241247877478599,0.1288070380687713,0.0452072098851203,-0.1239478588104248,-0.3670799732208252,0.9207852482795716,0.0,0.0,0.0,66.68046321282208,-1515.0874969714948,-620.9997629086951,1.549854925,3.007017463402597,-1.5659566668852305,9.932650346259145,9227.350314068235,-12202.570953726385,-7978.300255130717,0.1786109768849196,-0.1963282060442547,-0.7763369675481326,0.5036192435782831,0.0653356384390843,-0.0513727730819417,-912764.1888002008,-190751.55540014128,-989195.1795296863,-4.7174132776587786e-05
504,1724914144000122648,-0.1618567556142807,0.1241365075111389,0.1288854926824569,0.04686726257205,-0.1246909275650978,-0.3659527003765106,0.9210506081581116,0.0,0.0,0.0,-23.307118811643793,-3.78878116975129,2.6745101087962926,1.559764475,0.389330405453733,0.0018198600204632,0.1944016816169196,-123.49204820385576,68.7028515749468,-458.1033207119482,0.1820911735387946,-0.1966560237192038,-0.7744013155614405,0.0189831369224116,-0.0065396910483688,0.0066420108346632,-2908.0540662283483,71999.85889574778,29460.3547304232,2.0178318240896677e-05
506,1724914144008940335,-0.1617070287466049,0.1240182518959045,0.1289340555667877,0.0482063256204128,-0.1257830113172531,-0.364648163318634,0.921350359916687,0.0,0.0,0.0,-0.5165261374229632,-0.6041368331800809,-0.2129331036754136,1.568582162,0.4040994479865847,-0.094653906385421,0.2711490163826008,-9.086420686424937,-9.092548592660227,6.1746853170907094,0.1852150012221059,-0.1979132535784728,-0.7721595633973264,0.0143200994520213,-0.012766191491782,0.0052749297848255,1581.2381340302884,237.74221622239736,-192.03489535155188,6.489527748986959e-06
508,1724914144022887508,-0.1615659892559051,0.1238544285297393,0.129002496600151,0.0477390512824058,-0.1271465867757797,-0.3627357482910156,0.9219422936439514,0.0,0.0,0.0,-0.5985061997668645,-0.0110990777333825,0.0962932208381556,1.582529335,0.0399674225099953,-0.1806926407737131,0.3014747083680814,-16.33667279495218,-9.885671627598782,18.114645762758496,0.1850304711104222,-0.2011643237862068,-0.768416361245548,0.0073874009790984,-0.0189419920805775,0.0010279243577837,11.935476837510798,57.627891031492,32.60622599740773,2.7275063206697057e-05
510,1724914144031017924,-0.1615188419818878,0.1236663162708282,0.1289924681186676,0.0468825213611125,-0.1282238066196441,-0.3608478009700775,0.922577738761902,0.0,0.0,0.0,-0.4170379915678966,0.5290432778493265,0.4108527255258383,1.590659751,-0.0465448516476818,-0.2786831728515759,0.5243046488727655,6.792957966240634,8.059739130955009,5.153273028090521,0.1838763361760891,-0.2041735542206202,-0.7645625833351418,0.0020405244276613,-0.0169861561409794,0.0037104486053429,31.071385779782645,35.14987999934783,4.025936843225702,-2.353944972251998e-05
512,1724914144038894504,-0.1615314483642578,0.1235794574022293,0.1290594190359115,0.0471038520336151,-0.1287198066711425,-0.3593524992465973,0.9230808615684508,0.0,0.0,0.0,-0.1055202961007569,0.5671794463146124,0.1780592542560738,1.598536331,0.1399899175846883,-0.0617313816484162,0.3950843418934868,16.208677725617704,17.725586083271224,-13.8207378623875,0.1843623153890541,-0.2052212847467607,-0.7615288972340549,0.0005916359883011,-0.0106177681712216,0.0075640048423304,32.559645268071776,0.186479909129595,-27.438521145808675,6.737566441496285e-05
514,1724914144048953050,-0.1614973396062851,0.1234779208898544,0.1291234791278839,0.0478603616356849,-0.1292066425085067,-0.357877254486084,0.9235469698905944,0.0,0.0,0.0,0.1321932749953604,0.5092588378140696,-0.0707444142594688,1.608594877,0.2070285174559096,-0.0095536957254033,0.2892707293013243,-12.967964271653102,-4.7063006107398895,-2.446143919615526,0.1858521792105522,-0.2058512755423079,-0.7586255700421813,0.0005376677889703,-0.0080128024422316,0.0053578883608027,24.526979702843015,3.395139694487032,-14.865000849612084,5.190497710378853e-05
516,1724914144059638292,-0.1615239828824997,0.123415932059288,0.1291692554950714,0.0465244129300117,-0.129851222038269,-0.3562763929367065,0.9241435527801514,0.0,0.0,0.0,0.4044175906200867,0.6494378214488428,-0.1175400972021172,1.619280119,-0.1543889700520253,-0.1721448782660197,0.354776716512556,-10.645128320278625,4.231263450812547,5.584586921564558,0.1834904653558528,-0.20835549226854,-0.7551628655392639,0.0035116113543072,0.0002696586772064,0.0062885322591004,-1.927313692639416,-16.082033897620164,-13.243405186522285,5.0907079659291735e-05
518,1724914144069078765,-0.1614407449960708,0.1234691143035888,0.1292453408241272,0.0460592992603778,-0.1297050565481186,-0.3545491695404053,0.924851417541504,0.0,0.0,0.0,0.157654144713089,0.2540589403018262,-0.3164956512334956,1.628720592,-0.0615558217088611,0.0300078255930792,0.4029444678319167,10.993299702679826,10.510567238049363,0.8972537058680992,0.1821068031757864,-0.2087684399073547,-0.751286821225924,0.0083812273521681,0.0053522891771953,0.0034720857024614,18.731030652835983,-49.10283322644648,222.35148599411409,5.087424409451694e-05
520,1724914144080208227,-0.1613531857728958,0.1235249936580658,0.1292237937450409,0.0461999326944351,-0.1299262046813964,-0.3526513278484344,0.9255386590957642,0.0,0.0,0.0,0.9548418737422232,-0.3871807765280856,5.352061518179137,1.639850054,0.0760106314941921,0.0039326727208996,0.3577580950381588,6.895835194678722,-2.212026013431156,-6.392745435403221,0.1821200879729253,-0.2094464871918133,-0.7472756368196524,0.0054364292100785,0.0044492625359464,-0.0002885877235692,-38.13309872587631,-30.636061952241487,67.57682874507154,-4.429718935279124e-05
522,1724914144099235689,-0.1613288223743438,0.1235910579562187,0.1292718946933746,0.0461474098265171,-0.1303937882184982,-0.3512184619903564,0.926020324230194,0.0,0.0,0.0,-3.3413108305021098,-0.0924292935144635,-7.732434927589111,1.658877516,0.0294517404854148,-0.0338993892102877,0.160237767813203,5322.603545358382,1756.1623081013129,4384.965667228005,0.1820661746858871,-0.2106329998662386,-0.7443292813474277,0.063273241743758,-0.0128734438284539,0.2866435785038845,-635.040355081328,105.29396319768114,-2361.9943339252604,3.999176222800513e-05
524,1724914144099953144,-0.1612817496061325,0.1235813796520233,0.1294852346181869,0.0474737472832202,-0.1305301338434219,-0.3498721420764923,0.9264435172080994,0.0,0.0,0.0,-3.807995063193784,-0.0144562083668681,-9.472354510727197,1.659594971,3.9922365481189903,1.2736305250740678,3.4251587123230607,5134.127844200949,1695.6693249330124,4230.341898211001,0.1843787967544533,-0.2101822160253302,-0.7416881488624483,0.0607033802335563,-0.0129176293312466,0.2804787722825684,-604.0308024666076,100.57518752072276,-2273.133712791104,0.0001921271754987
526,1724914144110139194,-0.161373108625412,0.1235325410962104,0.1299014091491699,0.0477003306150436,-0.1295731514692306,-0.3489421308040619,0.9269169569015504,0.0,0.0,0.0,-3.2445650419949335,-0.1620947571029599,-10.64589837789267,1.669781021,-0.005102326182785,0.2104475393281403,0.1869691945256403,-214.23362030945583,-54.82918396244935,-143.95651454250554,0.183845800704469,-0.2084235171743135,-0.7393730251562074,-0.0107801524352737,-0.0062490853633709,0.0567666241860811,243.8460185585906,-59.76635517503662,512.5212882045911,0.0004251949467747
528,1724914144119198300,-0.1614853590726852,0.123464211821556,0.1305438429117202,0.045569933950901,-0.1283536255359649,-0.3480221331119537,0.9275394678115844,0.0,0.0,0.0,0.4834355939596234,-1.0682752089301542,-0.945374363870712,1.678840127,-0.5101456471651884,0.1129380779951316,0.2843221315576796,-18.14132312595092,-17.07593331620583,9.41806581837012,0.1786502610120836,-0.207881439384013,-0.7365950986320422,-0.0097727529940128,-0.0142980977421087,0.0515011910200433,233.2359485587096,-40.08827932986464,613.0358152997069,0.0006485575339011
530,1724914144130491703,-0.1615588665008545,0.1232076287269592,0.1308521330356598,0.0439967215061187,-0.1289682686328888,-0.3462506234645843,0.9281928539276124,0.0,0.0,0.0,0.6074494734323592,-0.6771063740476955,-0.4669162989105664,1.69013353,-0.1855423574867518,-0.1687757759809303,0.3719826011249629,65.79200527491726,5.711666693784204,9.251792079143083,0.1757482723826241,-0.2104981357781244,-0.7327111439145825,0.0009274527049427,-0.0288935767909546,0.0356980113235074,5.136852029873026,62.00422124115347,44.45016011297248,0.0003147202985075
532,1724914144139780681,-0.1614934355020523,0.1228920668363571,0.1312479078769683,0.046960886567831,-0.1296919137239456,-0.3437760174274444,0.9288663864135742,0.0,0.0,0.0,0.6105137795041679,0.1079440745899458,-0.0380972941492392,1.699422508,0.7086660829720941,0.1185061843417052,0.4693040415719871,19.01112932189207,14.225438956164034,5.318003412193264,0.181373414179049,-0.2101891241449039,-0.7281245121208726,0.0039721443457505,-0.0304822460766596,0.0384847547184916,18.216032135286028,65.22610504378525,33.58267391737206,0.0003622294661531
534,1724914144149023029,-0.1614849716424942,0.1226424276828765,0.1315656900405883,0.0475782565772533,-0.1296563446521759,-0.3416281044483185,0.9296321272850036,0.0,0.0,0.0,0.9433528281674974,0.5334141340620626,0.156585595129344,1.708664856,0.1739457398633837,0.0963941663057356,0.4710121846246124,-21.005836069685326,3.3560015479109566,2.342960080779811,0.1820335243949463,-0.2100995561191128,-0.7235820475034069,0.012214780513851,-0.0269191815285401,0.0350234702586877,-2.799878605904052,39.18587044707285,42.73643872100366,0.0003033116875327
536,1724914144159171675,-0.1612350940704345,0.1223702505230903,0.131928265094757,0.0493258573114872,-0.1295071393251419,-0.3388873040676117,0.9305644631385804,0.0,0.0,0.0,0.4824211033727381,0.8547739543132775,0.8318137321209362,1.718813502,0.3714103929703648,0.1945129141847949,0.5188400041349706,-12.34402368798901,11.310226360933868,-4.619090950230838,0.1846248809770358,-0.2091184844940394,-0.7179208718824927,0.022362655551344,-0.0198575906472413,0.0425309519213046,-52.62072643332782,7.115108987356731,-0.90692898413585,0.0002811622714709
538,1724914144169247900,-0.1610323637723922,0.1222398057579994,0.1324248909950256,0.0492997430264949,-0.127956211566925,-0.3370752930641174,0.9314380884170532,0.0,0.0,0.0,-0.1198550483322206,0.68085950533506,0.1479764724307268,1.728889727,-0.0711208228719159,0.3249050440845627,0.3789384828340852,-19.59511890819577,6.396952659191454,-7.63320367182493,0.1829903157766083,-0.2065976820091723,-0.7134727764503896,0.0220463738120262,-0.0096544301984771,0.0518335088657124,37.75514347054067,-200.27286682580208,113.57031373547528,0.0004236151363654
540,1724914144179357088,-0.1607899516820907,0.1221755892038345,0.1329747140407562,0.0495080649852752,-0.1264867931604385,-0.3352890610694885,0.9322721362113952,0.0,0.0,0.0,1.2509643586027437,-3.199901624350484,3.136258382181756,1.738998915,-0.0225190185124946,0.3232059451819117,0.3651734206117919,3.871759740421123,-1.557808210866252,-2.478154597907743,0.1818831743385815,-0.2040543300597635,-0.7091591183707864,0.0199374901424612,-0.0061360662700783,0.0454667259307933,-6.742199560313054,-180.48882895032187,150.10697456753235,0.0004647972813507
542,1724914144219050402,-0.1606285125017166,0.1219657287001609,0.133388951420784,0.0493009053170681,-0.1256513893604278,-0.3335643410682678,0.933014452457428,0.0,0.0,0.0,-21.201490604935145,21.335972002409335,-13.581285617302685,1.778692229,-0.0147041026118354,0.0447756045748104,0.0927935950894585,-1329.5345013004344,1383.6960575947985,9200.189894093864,0.180485740833389,-0.2029698248705003,-0.7051327320330669,0.2970732636223374,-0.686111704531811,0.7569113963266147,130038.37199121244,-136444.03152953586,84682.18288924196,0.000357696102898
544,1724914144219673375,-0.1604405790567398,0.121531642973423,0.1338677853345871,0.0489162094891071,-0.125385582447052,-0.3318643271923065,0.933676540851593,0.0,0.0,0.0,61.08586511361955,-65.00508021300078,40.005513010027926,1.779315202,-0.8559694464607146,0.9203783506505212,5.914284048824223,-914.2894313631576,658.0421284008225,5284.343359498127,0.1791851888532515,-0.2030647620104424,-0.7013271009758324,0.2835897483353164,-0.6724438676520137,0.7481425884341064,124708.13514671195,-123182.16858497754,71218.5405766026,0.0004149077319201
546,1724914144220577985,-0.1602077931165695,0.1209553331136703,0.1345176547765731,0.0482233092188835,-0.1251117438077926,-0.3296504616737366,0.9345331788063048,0.0,0.0,0.0,164.20390812757896,-156.19082329688382,84.99057248721363,1.780219812,-1.110177131312557,0.5337809439448962,5.3609985153661155,-393.72863581820275,-78.83092317048158,2084.7916764577267,0.1771795663096272,-0.2034490887530136,-0.6963665465105177,0.4475199456564809,-0.8454562450169618,0.8553715439415441,29771.748638431483,-11755.50621368776,-6340.846575662748,0.0005690725068103
548,1724914144221350160,-0.1597368717193603,0.1201651468873024,0.135268434882164,0.0473528131842613,-0.1248309090733528,-0.3265509009361267,0.9357026815414428,0.0,0.0,0.0,131.68112986850662,-106.57559908932431,43.13730771028062,1.780991987,-1.488498253230652,0.7026375105913382,8.748110110323577,-434.458327231538,198.82190505293025,3922.880706418122,0.1746362007612014,-0.2040970409942178,-0.689478184227763,0.5631006585459479,-0.9429502274749372,0.8988883158220582,-40213.360649412854,60424.24711568902,-50563.728063205876,0.0006050409709884
550,1724914144229578434,-0.1592037081718444,0.1194536015391349,0.1362286210060119,0.0471962057054042,-0.1223366856575012,-0.3250710666179657,0.9365549683570862,0.0,0.0,0.0,-32.170792405013884,54.83028294651456,-53.9290144560692,1.789220261,-0.1985004526210306,0.5977383060557191,0.3802598031488623,76.81440737153001,-15.540975239938495,-528.5479061220216,0.1721981583199388,-0.1997923540641644,-0.6854661095085577,0.0682867252580887,-0.0940449598235897,0.0948069183020576,-9086.192047863102,7794.201386543862,-3776.949184472057,0.0007949431385366
552,1724914144239044632,-0.1585192829370498,0.1184809207916259,0.1368877291679382,0.0459225736558437,-0.1201018840074539,-0.3220875263214111,0.937937319278717,0.0,0.0,0.0,-0.271551526986967,-0.1320400127766374,-2.344560980477896,1.798686459,-0.3421735034452988,0.420214677856823,0.6959392866852571,5.635017742605495,-12.061493268032956,13.152414691403354,0.1675185302607291,-0.1969853776885143,-0.6781572057334352,0.0683008896061476,-0.1014401677022762,0.0612231331399106,1836.400099508773,-3111.0992977031856,3013.953113780327,0.0004714070606683
554,1724914144249688343,-0.1578401923179626,0.1174169331789016,0.1374387890100479,0.0460146404802799,-0.118333026766777,-0.3190493881702423,0.939195156097412,0.0,0.0,0.0,0.9232366833698338,-0.991934160025977,0.589212555286077,1.80933017,-0.0331183232394058,0.3719226290471564,0.5942342528022512,5.7294936390162565,-4.734023159895994,-11.255814777792152,0.1658003973439603,-0.1941307898777698,-0.671129299744625,0.0621428200355449,-0.0950763432358714,0.0506678072224442,87.52380764966638,-66.24750409140219,132.44344030543812,0.0003740333291595
556,1724914144262120415,-0.1570917218923568,0.1163059100508689,0.1380526423454284,0.0445601940155029,-0.1160484179854393,-0.3166711926460266,0.9403545260429382,0.0,0.0,0.0,1.6522488641148565,-1.604372933108916,0.1564944271575683,1.821762242,-0.3003266108849924,0.3102100459411212,0.4296097366738217,-72.69389841550188,24.645674533232715,27.08487844644304,0.1609162831520693,-0.1911941807801473,-0.6651211035453859,0.0954280859544471,-0.130493916886305,0.0809491780248539,-93.45065756675504,122.57581363686636,-178.92517671122553,0.0004218530209313
558,1724914144269107374,-0.1562866568565368,0.1152326613664627,0.1387422084808349,0.041591253131628,-0.1130847111344337,-0.3144301176071167,0.9416027069091796,0.0,0.0,0.0,0.4020929115346705,-0.0731740318703364,-1.6595655823826776,1.828749201,-1.009287030188906,0.5986779810900551,0.7772037935163149,-41.495308516440545,29.63469535986627,20.253224033706175,0.152709964289849,-0.1879105698910144,-0.6589943261387131,0.1029468871829157,-0.1368167117600514,0.0730925545129466,-101.82594899361804,152.8938587051124,-99.25055756933294,0.0004847778670032
560,1724914144279940820,-0.1553776115179062,0.114032506942749,0.1391040235757827,0.0402143858373165,-0.1087344661355018,-0.3119828999042511,0.9429879784584044,0.0,0.0,0.0,0.5940739089540203,0.470238332970573,-0.0359205428574411,1.839582647,-0.4514135743438532,0.7240004344633314,0.5011606480278458,34.33726366102097,10.035576409194364,-17.359830923621793,0.1465998186856601,-0.1809642764989567,-0.6523435324670251,0.0959809707865737,-0.1236377979869924,0.0461254585744299,42.97887005078654,-11.658185318409616,148.89033443506773,0.0001524580028743
562,1724914144288967162,-0.1544204801321029,0.1128198280930519,0.1396160870790481,0.0399944707751274,-0.105008490383625,-0.3102411925792694,0.9439937472343444,0.0,0.0,0.0,1.1719711333119482,-0.0999117097959709,1.3006214578494093,1.848608989,-0.2705150630105356,0.8030593178284393,0.4055388659497723,8.9046135950577,-22.6943125964819,-2.2776765962593117,0.1433197537992836,-0.1743203743663135,-0.6475997002425056,0.1106469259262548,-0.125005677592167,0.0642518849678834,-9.37678803687102,-98.01772277961908,25.506190283134085,0.0002981797075704
564,1724914144299819271,-0.1531595885753631,0.1115851551294326,0.1404114961624145,0.0383270047605037,-0.1038268953561782,-0.3078832328319549,0.9449650645256042,0.0,0.0,0.0,0.1125478864147977,-1.618338655318647,-0.0217108230710749,1.859461098,-0.3191819156182808,0.1464053830186025,0.4893210552302647,-1.2739858503787271,-6.702186679660141,7.820437707015447,0.1388930413553334,-0.1734941532341767,-0.6420348641791559,0.1174572121765873,-0.1254162868905624,0.0691348647476051,-69.49280535974947,-109.34935559734298,41.374143732618585,0.0005092438385248
566,1724914144310405218,-0.1519030928611755,0.1101372689008712,0.1411003917455673,0.0375419482588768,-0.1002973988652229,-0.3050496280193329,0.9462958574295044,0.0,0.0,0.0,-0.3326106427369115,-2.4602232351445146,2.1017799252615417,1.870047045,-0.2995149462249559,0.6310858775995305,0.5731412270463981,-14.853728537787545,3.059608988913002,6.644149106382365,0.1345300330325619,-0.167702690542127,-0.6350118177421569,0.113330522078451,-0.1588686907169831,0.0640344480699024,-8.532083595559737,73.89927620956942,125.4658307291989,0.0004200804714451
568,1724914144319223510,-0.1509431153535843,0.1085740178823471,0.1416574120521545,0.0354209952056407,-0.0982193127274513,-0.3026381433010101,0.9473692774772644,0.0,0.0,0.0,-0.1616195577475387,-0.6815076627943668,2.656288351959154,1.878865337,-0.5532593220186368,0.3442121074741628,0.622373370619679,8.028214954725328,-10.745478679315298,-22.368918789745337,0.1286695478829112,-0.1654137324664323,-0.6290907430700718,0.1108177658400304,-0.1754226728405301,0.1015470990583198,-30.281927011504926,104.4959842065791,-162.14025588927515,0.0003576225223394
570,1724914144329300056,-0.1498039364814758,0.1068276762962341,0.1431225836277008,0.035893976688385,-0.0958348214626312,-0.3022158145904541,0.9477304816246032,0.0,0.0,0.0,-1.038701807619157,-0.7478750719432234,-1.568502860660801,1.888941883,-0.0486006332349008,0.4867883361609552,0.0751246365676261,12.52578273720697,9.175929794391823,-17.59882187693829,0.1279530915625571,-0.1606457832520921,-0.6276938337460971,0.1106092461353753,-0.168521941199029,0.1099171958863207,-120.52175428335698,23.80847574268851,-248.58613663904987,0.0012204903972232
572,1724914144339863465,-0.148662582039833,0.105100505053997,0.1438907086849212,0.0349250920116901,-0.092713825404644,-0.3008013367652893,0.9485267996788024,0.0,0.0,0.0,-2.682570856957021,-0.1597905949222848,-2.3043041459095432,1.899505292,-0.3321811546097299,0.5286431791114967,0.2957438437104266,-34.45972983281731,-67.23459250668122,11.847360902944873,0.1238382934640541,-0.1554979570790055,-0.6238453291004833,0.0883637990708177,-0.1922875461341675,0.0667807152429098,-48.96420612828291,3.873515746940136,123.824338586823,0.0005464169350597
574,1724914144349013534,-0.1480100601911544,0.1031129360198974,0.1444547176361084,0.030816288664937,-0.0946162417531013,-0.2997593581676483,0.948811173439026,0.0,0.0,0.0,-2.285267742484283,-0.5348923126883616,0.3621863286741269,1.908655361,-0.7078387422585738,-0.6508518902569899,0.3325154321563541,-14.15140230257544,-74.23811311575922,0.1803858221071781,0.116992699589522,-0.1617756786203181,-0.6215109177299739,0.059247469641587,-0.1771845505246707,0.059798373849659,7.578172058877826,-155.27256700122302,151.86051059000732,0.000427111675969
576,1724914144366287382,-0.1473800987005233,0.1013578101992607,0.1454276144504547,0.0296403430402278,-0.0957113653421402,-0.2981351613998413,0.9492504596710204,0.0,0.0,0.0,-3.323199055789739,-6.943683510069235,-1.565584222921368,1.925929209,-0.0749501305338002,-0.1505108617962907,0.2104623590844287,103.98876015995066,15.182011945213851,48.33485222804822,0.1151527302703976,-0.1647791314368066,-0.6181563878690228,0.049017630582675,-0.2576932129645009,0.102750295970452,-237.82811996996065,824.3624392266062,-410.4267906260325,0.0008263597931263
578,1724914144372085777,-0.1470714509487152,0.099559798836708,0.1461137682199478,0.0312108602374792,-0.096577949821949,-0.2963116466999054,0.9496831297874452,0.0,0.0,0.0,-5.048171565696072,0.1629408248683681,-4.527028818204062,1.931727604,0.6591065514318255,-0.0893068750534398,0.5985573104753629,41.11409209285334,-15.807444053492889,36.12503095277691,0.1184097160930061,-0.1656978028928596,-0.6147228251083674,0.0244328917188703,-0.3023989250922572,0.0857854888877582,-141.8635267178611,1176.9647530090806,-242.69861277565232,0.0006133704844019
580,1724914144378733973,-0.1471285223960876,0.0976080000400543,0.1464359760284423,0.0315140672028064,-0.0981649607419967,-0.2943550944328308,0.9501187205314636,0.0,0.0,0.0,-4.805028258385081,7.616762493718607,-4.0974163746135375,1.9383758,0.2808476175180777,-0.3953492351901346,0.6039004145405328,-48.66456439071828,-22.530318583000938,-8.487076663720076,0.1196565528400988,-0.168784332873185,-0.6109964843938553,-0.0152892634541634,-0.2413037256436219,0.0434832998026903,92.90065356388408,510.3846410240589,170.06631047022816,0.0003311488299798
582,1724914144389900322,-0.1474249958992004,0.0958940237760543,0.1468280851840973,0.0304179061204195,-0.0991392582654953,-0.2926734387874603,0.950572669506073,0.0,0.0,0.0,-2.7112350320259493,1.8603963680688729,-0.2207611395429469,1.949542149,-0.1081678252474211,-0.206119515532153,0.3348817757161723,-31.90007458100375,-10.099115160098354,-4.775587029286619,0.117857615931391,-0.1715127643298447,-0.6075056849595705,-0.047003291341543,-0.1857536122195213,0.0402204916412376,126.94961005969144,-324.4598056525121,110.95282016782588,0.000444487074621
584,1724914144398791146,-0.1479876786470413,0.0940141603350639,0.1472218185663223,0.0280268378555774,-0.1007735207676887,-0.2910877168178558,0.950961172580719,0.0,0.0,0.0,-2.011250671132963,0.3281295053841679,-0.90650554957367,1.958432973,-0.3709867763109548,-0.4873647689284479,0.4291633878218682,-17.057454272403632,-8.457441888929829,4.010502593661974,0.1139815074344294,-0.1762580903827962,-0.6041665025165845,-0.0701958634410875,-0.1912599134964168,0.0387634605876074,43.03029504199252,-139.9666397158631,-76.5495018215934,0.0004920628834602
586,1724914144409321181,-0.1488129943609237,0.0922518447041511,0.1475611329078674,0.0254037305712699,-0.1016644388437271,-0.2893895208835602,0.9514582753181458,0.0,0.0,0.0,-2.0033816558845663,-0.7419495288760434,-1.7053416142484945,1.968963008,-0.3946685656470091,-0.2873861204618896,0.3891588718673373,26.100846707607,11.79545184500826,-3.432710956790501,0.1091536457261617,-0.1797217342037778,-0.6003711615184115,-0.0839246237115167,-0.1759885603377773,0.0199562977533069,-43.0514316269206,-68.47807509381502,-34.25428220395664,0.0004851573247231
588,1724914144420199766,-0.1497883200645446,0.0902403742074966,0.1476403623819351,0.0259050000458955,-0.1032822504639625,-0.2874646782875061,0.95185387134552,0.0,0.0,0.0,-2.9639598163838805,-1.1144048460120448,-1.6103572433214937,1.979841593,0.2078860710198158,-0.2399396410561304,0.355933410860707,40.344722395947485,-14.212898036022615,-3.612029067566336,0.1107623922778033,-0.1827410628492625,-0.5967495428578294,-0.1135812697576685,-0.2086975145853964,0.0023116425466156,9.219054448608318,141.2334421927513,68.90505341187243,0.0002634823147825
590,1724914144428699333,-0.1509125977754593,0.0883085131645202,0.1476269960403442,0.0269962847232818,-0.1058262139558792,-0.2860180139541626,0.9519798755645752,0.0,0.0,0.0,-2.2379966724227076,1.251287674758176,-0.6250916447807927,1.98834116,0.4508920984804122,-0.4840919215541168,0.3215283426841828,-19.885717776954408,-17.375035127538943,-5.048527427206299,0.1141731531976183,-0.1871363464177187,-0.5944566092224286,-0.1403529002740438,-0.2056029057293198,-0.0112986294554042,87.619894931256,141.7050064453708,30.11144220313286,0.0002131934212454
592,1724914144438790318,-0.1524256765842437,0.0864935889840126,0.1473964601755142,0.0245150383561849,-0.1078980416059494,-0.2850220799446106,0.952113151550293,0.0,0.0,0.0,-1.3273715838354594,1.0444011320179314,-1.3492500830130365,1.998432145,-0.3305363369268713,-0.5234432070775884,0.2585953750376533,4.324625683692435,7.3434451212189025,-9.431644383213316,0.1104530554844702,-0.1926776051713428,-0.5924189542155156,-0.1520131784458023,-0.1823472241220818,-0.0059111994837932,50.387712714493,-37.43179882605446,-140.96486889892708,8.02291286236754e-05
594,1724914144448630248,-0.1539413332939148,0.0846754014492034,0.1475007832050323,0.0262877605855464,-0.1102183163166046,-0.2841655910015106,0.9520561695098876,0.0,0.0,0.0,-1.2139614224084871,0.5136324938780259,-3.4003357063453636,2.008272075,0.4965425707740379,-0.3433053856119799,0.1351313706248338,24.59829783375558,-1.8400914730570823,12.513664242319656,0.1151537325599225,-0.1961839416030349,-0.5914599860425305,-0.166723412684707,-0.1841621484488476,-0.0372566391203079,21.813208193312356,-12.997287386617096,4.420911665694277,0.0004194931832424
596,1724914144458697609,-0.1557505279779434,0.0828277021646499,0.1466327607631683,0.025816686451435,-0.1132031753659248,-0.2816772162914276,0.9524581432342528,0.0,0.0,0.0,-0.888396136754249,0.8044989861711986,-1.1632980704557387,2.018339436,0.1317927671435124,-0.5693444125067226,0.5192395214059169,-14.24280302047326,-10.936337608492064,6.772408321544672,0.1155648200539902,-0.2024793315629322,-0.5868354639473918,-0.17605057222121,-0.171800994213136,-0.0737015057772261,58.59304848872479,38.13822426525251,175.82618840409555,-0.0004551327552467
598,1724914144469628962,-0.1576315760612487,0.0810889452695846,0.1459757089614868,0.0260640140622854,-0.1164733171463012,-0.2804573476314544,0.9524171948432922,0.0,0.0,0.0,0.063731080876888,1.3311490278064522,0.2082038389048204,2.029270789,0.2370875386028347,-0.5522004707907975,0.2207897895497798,5.667901783397122,-5.68702279494741,-16.177444253471716,0.1178031530373051,-0.208755614708805,-0.585104725010989,-0.1853099656883152,-0.1680316292095733,-0.0572569170500507,6.641757108888747,14.975590125939997,-20.62092077255417,-0.0002207683734428
600,1724914144478721501,-0.1594165861606598,0.0794932693243026,0.1454766541719436,0.0262602213770151,-0.1196736469864845,-0.27971351146698,0.9522337317466736,0.0,0.0,0.0,-0.4843918412958725,1.2162044671585273,-1.0841462188698854,2.038363328,0.2586397680661231,-0.658782455609346,0.1578325492779014,-0.1227418574156828,0.4457401604789481,-1.836707543052711,0.1200012161490235,-0.2148735515623532,-0.5843739221235333,-0.1778422204381184,-0.1484684693495706,-0.0651666268614183,-7.146876059096968,-40.05664581611025,-38.730644440061795,-7.804483424357232e-05
602,1724914144491436818,-0.1613494157791137,0.0780859813094139,0.1444652378559112,0.026600208133459,-0.1227329447865486,-0.2782611548900604,0.9522603750228882,0.0,0.0,0.0,0.3695700324721862,0.2193905883927271,0.2620342188365683,2.051078645,0.2127485988851574,-0.4367551305125441,0.2249390699156069,-63.73033491146978,-23.4043086466152,-5.99893568078636,0.1222265201108595,-0.220731907050291,-0.5821531568555568,-0.2072187034409776,-0.149636132270861,-0.0827613006344147,-314.30607763961365,-268.53001270553614,-9.420743574184009,-0.0005239362449562
604,1724914144499081620,-0.1631873250007629,0.0767629742622375,0.1438177525997162,0.0236808601766824,-0.1250838786363601,-0.2781361043453216,0.952068030834198,0.0,0.0,0.0,-3.786558241687306,-2.7073807875311573,-0.3398961444198609,2.058723447,-0.5507903527045628,-0.8035061945691481,0.1272483613972638,-52.987127136088475,-22.30983482692555,-6.830556572314143,0.1179634799394953,-0.2269468537172417,-0.5819173942146045,-0.1920759108906318,-0.1465284760496505,-0.0731936893033573,-214.0086193215571,-189.83655078695423,-30.805312183612116,-0.0001969392557276
606,1724914144516469230,-0.1646154820919037,0.075264424085617,0.1429999768733978,0.0261527020484209,-0.1275179833173751,-0.2757370471954345,0.9523782134056092,0.0,0.0,0.0,5.528834707879611,1.6247056430227076,1.020035755286628,2.076111057,0.3822390771568046,-0.1764836231886274,0.2437129326587869,-26.13713135381492,232.92092396076993,-151.0728074110983,0.1237165370370272,-0.2305039364771294,-0.5779780188821101,-0.4859966611583601,-0.31674822820478,-0.1420393462141049,2838.2833412922273,1478.8470388656124,537.6477072777259,-0.0004533106841199
608,1724914144519434118,-0.1662605851888656,0.0742087364196777,0.1425308138132095,0.0268304925411939,-0.1267486363649368,-0.2760640382766723,0.95236736536026,0.0,0.0,0.0,15.108106930708557,6.631013891784207,2.8463750872546143,2.079075945,0.2644025029558672,0.6136260148515474,-0.2839644317831564,-44.40477960162757,176.16034054878978,-125.13959075820216,0.1246430291018335,-0.2285943468409579,-0.5786045844903271,-0.4582630202161719,-0.3061604302696332,-0.136497594230494,2547.246198160369,1346.908229929471,477.2334335059208,-5.180557640653435e-05
610,1724914144529261088,-0.1676176041364669,0.0728254914283752,0.1418976187705993,0.0243759788572788,-0.1291312426328659,-0.2753731310367584,0.9523133635520936,0.0,0.0,0.0,17.872366107427865,8.740016204955307,3.0167171582800503,2.088902915,-0.3237674230852806,-0.5973411311247846,0.2072098139353375,5.278041872443357,-46.505565696143385,25.571370492546237,0.121154447219212,-0.2346697878609131,-0.5772676695384891,-0.1223800068643061,-0.1413319808908864,-0.0766964107910892,-697.5992200423855,-254.61523368633368,-89.7285220542717,-0.0002935074930162
612,1724914144538892378,-0.1686479747295379,0.0714588835835456,0.1410431861877441,0.025379292666912,-0.1310825645923614,-0.2741743624210357,0.9523664116859436,0.0,0.0,0.0,1.913325001032837,1.8584535626399887,1.141897050732966,2.098534205,0.3418682579769674,-0.3210188839862636,0.2230682758204183,19.935132337717228,15.154168424576984,-0.6258692040189615,0.1240245954667159,-0.2380011156611185,-0.5754632433431975,-0.1041793718063166,-0.1329824075562791,-0.0766085192566263,-1438.1198967047062,-1150.1244929042296,-293.8569966383078,-0.000584537070757
614,1724914144549335466,-0.1697041988372802,0.0701710283756256,0.1403802335262298,0.0247624479234218,-0.1326694637537002,-0.2732715606689453,0.9524223804473876,0.0,0.0,0.0,-10.62664781978997,-15.085102132404886,-3.0501238151694503,2.108977293,-0.0067899509671759,-0.3160336244561369,0.1908008883516028,-24.19382411667247,2.9194458928665488,-4.505329285851151,0.1235699336469541,-0.2415222682303224,-0.5738472447128454,-0.0839312914440817,-0.1023469891930142,-0.0518568653069968,1547.5427995410594,-3089.403162278889,-5098.319907638008,-0.0003902195662726
616,1724914144580152396,-0.1707256734371185,0.0689243897795677,0.1398393809795379,0.0261294543743133,-0.1330504864454269,-0.2742282748222351,0.9520576000213624,0.0,0.0,0.0,286.99444452308444,-243.69270446734117,-587.2960891319515,2.139794223,0.0836031562056223,-0.003985884426919,-0.076763327549591,-14586.11929413488,-4426.082985135162,-12301.431092654868,0.1267280407220634,-0.2413488337324852,-0.5762801973143699,-1.5541091380625858,-2.205821192513042,-0.6387659094752394,210335.45215005497,343431.1843694265,136081.87847465894,-0.0002764882816641
618,1724914144580659436,-0.1715263575315475,0.0677878856658935,0.1395103186368942,0.0243926588445901,-0.1330422908067703,-0.2760420143604278,0.95158052444458,0.0,0.0,0.0,395.3170818047497,-66.6324030691926,-517.0037116526428,2.140301263,-7.433851620902204,-2.2851959760062504,-6.4166329349040465,515.9239756094968,-12566.186391784522,378.74901849387686,0.1237902887325975,-0.2420919634463068,-0.5797539119812055,-1.405799236933461,-2.330846709081598,-0.9412891405718256,186344.66834041817,363605.41934629314,185051.57948857464,-0.0001342219092937
620,1724914144581120287,-0.172101616859436,0.0666762664914131,0.1389540880918502,0.0235210824757814,-0.1354999244213104,-0.2763145565986633,0.9511765837669371,0.0,0.0,0.0,469.762170681006,106.96791314949898,-412.27909251475455,2.140762114,-0.769756043407259,-11.4554040384957,-0.8460250679205432,13662.539531280989,-18713.952386314297,11423.195594739283,0.1236948717786588,-0.2472827537165625,-0.5808243951389762,-1.1805505932963942,-2.286180075855558,-1.1461912137662762,149776.763869339,356061.5661906136,218075.8843751106,-0.0004129282471948
622,1724914144588927273,-0.1723641008138656,0.0654815435409545,0.1380431801080703,0.023684699088335,-0.1393021643161773,-0.2744984924793243,0.9511491060256958,0.0,0.0,0.0,83.5656885066946,157.88344098389916,78.01199315283671,2.1485691,0.3722218480578427,-0.9049329254698892,0.4578125090968485,78.30410759416044,791.93448374031,75.97646737369264,0.1259169812801288,-0.2547375427731833,-0.5780712233334727,-0.0265402479646059,-0.1224880328007951,-0.0880890565395002,-31446.66264010201,-3233.5345892309488,31851.904194867537,-0.0008391032408137
624,1724914144598947432,-0.1725389659404754,0.0646470189094543,0.137528195977211,0.0247710775583982,-0.1404824554920196,-0.2740899324417114,0.9510655999183656,0.0,0.0,0.0,0.2336136726581811,0.022247933784163,-0.8625232339394864,2.158589259,0.2826676050905449,-0.1649434114553238,0.0483623429824802,-8.289043815548025,65.15144738150809,-35.98884757607926,0.1286785687631121,-0.2564384223098245,-0.5777912150784017,-0.0155263153817528,-0.0743033155239678,-0.0461555479357055,-6046.485073733133,-10152.549538526191,-3697.687517578716,-0.0004698695724662
626,1724914144670784354,-0.1726629137992859,0.063934788107872,0.1369108259677887,0.0259768925607204,-0.139456957578659,-0.2748697698116302,0.950959324836731,0.0,0.0,0.0,734.9373241547457,2155.717047517238,1883.1305854799648,2.230426181,0.0211258938533327,0.0354015820530335,-0.0268832221611394,18143.474053515925,-36790.07853254455,-15619.39721580351,0.1306097777756533,-0.2536669728834202,-0.5794305090044392,-0.4445235102172091,-2.537845064733233,-2.707628331445676,-33530.64154256834,1063610.3328572148,1217824.5625000484,-0.0005772925813442
628,1724914144671044682,-0.1727790534496307,0.0632717311382293,0.1362034082412719,0.0262981727719306,-0.1407987028360366,-0.2753238976001739,0.9506214261054992,0.0,0.0,0.0,726.1670781563336,2433.5796944313415,2201.288567575348,2.230686509,4.761500123478977,-9.576796227509144,-4.10778394984306,21544.75052193775,-20366.638999363153,-4094.8432341940993,0.1322106140580828,-0.2559985020497727,-0.5808637006982637,-0.2524997757433311,-1.9745855098841645,-2.21558522275123,-241896.7892020935,478739.4980346826,548553.3174530934,-0.0006638744126612
630,1724914144671394804,-0.1727762818336486,0.0628499314188957,0.1356639862060547,0.0281798299401998,-0.1429494470357895,-0.2750363945960998,0.950329601764679,0.0,0.0,0.0,543.4311755130065,2324.024299103859,2076.1637473819064,2.231036631,13.875445664814016,-8.911213907221596,-0.0880489949659607,18708.419037955093,2648.356851673057,9159.567668811149,0.1371871018701055,-0.2590860623827961,-0.5813284627965979,-0.0036468296031237,-0.9954305669705086,-1.2983254602344907,-560229.5810293112,-520479.6495767072,-573060.2068790343,-0.0005278911496826
