seq,stamp,px,py,pz,ox,oy,oz,ow,lx,ly,lz,ax,ay,az,timestamp,lyap_z,wx,wy,wz,aa_x,aa_y,aa_z,roll,pitch,yaw,vx,vy,vz,jx,jy,jz,forward_velocity,forward_velocity_1
15264,1724557935955779918,0.4747784435749054,-1.217243194580078,0.1745738089084625,-0.0159059148281812,-0.1915718913078308,-0.1522192656993866,-0.9694722890853882,0.0,0.0,0.0,29.51382972056301,19.046198716795065,-9.971727067742663,0.0,0.1745738089084625,0.0,0.0,0.0,-0.48469766193054786,6.2828578432722795,-3.9757875250442374,0.09598219803401344,0.37535722536129706,0.32972379741035307,0.07788696910621136,0.03979548343143364,-0.025875489648206223,-2387.2546433994853,-1490.7794961181082,787.3046188227125,0.0,0.0
15266,1724557935973112160,0.4761283993721008,-1.2165534496307373,0.1741253286600113,-0.0155772725120186,-0.1924850940704345,-0.1516691893339157,-0.9693830013275146,0.0,0.0,0.0,-11.862645474460578,-6.792352278562049,3.6740271134103466,0.017332242,0.1741253286600113,-0.008400897173414443,0.10889601259119322,-0.06890931152464778,266.81060945255274,920.6723516195777,-399.0509121711863,0.0954380442874297,0.3773501755493325,0.32863941612233766,0.5894278081698019,0.3699088087710152,-0.19870787634427245,-4749.092284666844,-2950.7893160550393,1605.5691764067844,0.09000670152874032,0.04729027878378419
15268,1724557935974955823,0.4773154258728027,-1.2158067226409912,0.1737250834703445,-0.015622011385858,-0.1943466514348983,-0.150814026594162,-0.9691442251205444,0.0,0.0,0.0,-21.081560351112902,-12.518941554508427,6.7946286365555375,0.019175905,0.1737250834703445,0.5359282717260627,1.98563003542569,-0.8821044296771603,242.71464853740036,831.0447692981483,-359.47060176314056,0.09592030760424279,0.3811496172323784,0.3272731884819507,0.5594425864639421,0.3523187016582874,-0.18925808667278776,-4273.903616092058,-2654.6994867151784,1451.9101287434494,0.7675286340967928,0.36717742857632
15270,1724557935984828810,0.478376567363739,-1.2151148319244385,0.173328161239624,-0.0160214118659496,-0.1959507465362548,-0.1501309722661972,-0.9689207673072816,0.0,0.0,0.0,-24.87128159350803,-14.863219527352175,8.403358271107702,0.029048892,0.173328161239624,0.1550162867545183,0.3093535734734617,-0.11662420518707942,-38.372457500275054,-89.43653678335221,34.50710340852836,0.09710789662134921,0.3843006355677218,0.32635503393185944,0.09659326650239208,0.07126523319771394,-0.03392942271298516,906.3598527995624,566.186520465751,-273.8852695949741,0.13028119340052682,0.05897315129637665
15272,1724557935995141068,0.4792554080486297,-1.214367151260376,0.1730458438396453,-0.0144081665202975,-0.1970456540584564,-0.1492722630500793,-0.968856692314148,0.0,0.0,0.0,-1.6277473389537227,-0.36859881657396043,0.87387836275813,0.03936115,0.1730458438396453,-0.23844168823225054,0.25249068390319496,-0.224210865506405,-4.972298478776426,-12.150881475297405,6.834510528603239,0.09381523470987267,0.3871128920302672,0.3241387800520282,0.07717573453366455,0.06451826312051878,-0.02621661419729282,1170.242962609004,739.4587719117227,-378.7492336910255,0.10652559056518746,0.043676474888135926
15274,1724557936006079943,0.4800062477588653,-1.2137540578842163,0.1727725267410278,-0.0149168502539396,-0.1973424255847931,-0.1494460254907608,-0.9687618017196656,0.0,0.0,0.0,-1.4017220073347234,-0.009041397728579259,0.8082733208052403,0.050300025,0.1727725267410278,0.09219768260762264,0.0425634418011238,0.0509144537700852,10.192509743171835,-1.8012093404477572,0.26520547857713517,0.09506786398077448,0.3875238944960762,0.3247850230126514,0.06233134527900219,0.06380097688294484,-0.015195874193262071,6.068776877969398,-7.201041291002177,-33.832739643803066,0.08622817577032725,0.03466369614883023
15276,1724557936015933566,0.4805644452571869,-1.213056564331055,0.1727096885442733,-0.0146928960457444,-0.1982206255197525,-0.1486458778381347,-0.9687089920043944,0.0,0.0,0.0,-1.471457701301858,-0.4356671270213419,0.22783087512222577,0.060153648,0.1727096885442733,0.0148120221043384,0.17916689773069105,-0.1673609642124903,-4.855102904399944,-2.549376859692318,-6.2924377834649246,0.09461031618302433,0.3894375369297995,0.32319175643916276,0.04812262330578321,0.06421365610262342,-0.008999654213173613,1.2513319428536818,-21.803484009125846,-27.900878233626376,0.07291291957675336,0.027243879732244614
15278,1724557936026437977,0.4809744656085968,-1.2124556303024292,0.1725857853889465,-0.0146459704264998,-0.1980631202459335,-0.1483619511127472,-0.968785524368286,0.0,0.0,0.0,-1.3650492077622165,-0.42401909369828017,0.28195513951077134,0.070658059,0.1725857853889465,-0.00261111793270096,-0.031404611657843466,-0.055863390979584995,-1.1300753578103624,-14.773211030585884,8.141784210540806,0.09433047906209091,0.38916454011749757,0.32252673256741365,0.03233572417143549,0.05428955975853711,-0.01109684732598204,13.122114146229443,35.58852068208226,36.95748857386701,0.055504645912344136,0.013561346056997223
15280,1724557936036459762,0.4812344908714294,-1.2119394540786743,0.1724812537431717,-0.0147008560597896,-0.1974298804998397,-0.1483714133501052,-0.9689124822616576,0.0,0.0,0.0,-1.204932517386456,0.26231283447975384,0.9564329792073041,0.080679844,0.1724812537431717,-0.00888261303411336,-0.12904358494335705,0.0020907229981628776,-3.624635463739694,0.09752167826625602,1.3788798926076924,0.09420016972172994,0.38787505524058,0.3224177354625274,0.019973367882549553,0.05501906251426192,-0.0036663777023271393,21.454247284441955,1.7283121529469483,19.85158327294836,0.0418336998209057,0.00423519685334084
15282,1724557936045812761,0.4813691675662994,-1.211394190788269,0.1725060045719146,-0.0143960397690534,-0.1971922367811203,-0.148325890302658,-0.968972384929657,0.0,0.0,0.0,-0.9564597390267997,-0.30422220226181995,0.7279248273460274,0.090032843,0.1725060045719146,-0.06896030973456602,-0.04223794867983934,-0.023453861198691722,2.3823529346835945,10.480593495754869,-5.449174687725339,0.09345087846218193,0.387502264176331,0.32214182586494117,0.00895341831562746,0.05912677447719261,0.0071558509941418436,31.878372134951693,898.1218745872591,58.689691928211104,0.02873458302732866,-0.0027582105252406197
15284,1724557936055281426,0.4814017415046692,-1.210826396942139,0.1726169884204864,-0.0144279012456536,-0.1975400000810623,-0.1478312313556671,-0.968976616859436,0.0,0.0,0.0,-0.6036920127130864,17.389609014682943,2.080418138780453,0.099501508,0.1726169884204864,0.03800687282076077,0.06849783336525089,-0.10110446251990331,7.5189987158612315,7.749041950419144,-5.409367800229652,0.09344604470633101,0.3882373054106275,0.3211775361071184,0.0020228229682679455,0.04912005681420695,0.009934486114522523,37.41883411650614,-1609.9910169104253,-262.49473986652106,0.016105545164668483,-0.009279251006010486
15286,1724557936080912488,0.4813552498817444,-1.2103198766708374,0.1727476567029953,-0.0139340087771415,-0.1974062770605087,-0.1473372429609298,-0.9690863490104676,0.0,0.0,0.0,0.3666671088070874,-265.2314693542794,-32.77030354649264,0.12513257,0.1727476567029953,-0.03139467487709669,-0.006661093728716271,-0.04607840426134488,6509.979841411591,-3993.1602000840603,-9105.868232249424,0.09215397921369257,0.3881767673379551,0.31988996042657164,-0.004551653230919328,1.7746776912881614,0.1872401552145675,45.89206007735538,-26851.376000284683,-2812.1294805114157,0.002228672207995287,-0.005156883094081575
15288,1724557936081192198,0.4813539683818817,-1.2098181247711182,0.1728005856275558,-0.014130282215774,-0.1972947120666504,-0.14692984521389,-0.9691680669784546,0.0,0.0,0.0,0.3795280983562051,-272.79037244936717,-33.5613177404411,0.12541228,0.1728005856275558,1.8093914775221351,-1.1357679275133543,-2.620882621054102,6198.616448331883,-3805.761524506601,-8664.926487591705,0.09234972187332638,0.38792795707717054,0.3190697329700995,-0.0044471905708967086,1.6994746894533659,0.17795282800989964,42.785311444347826,-25031.277682161475,-2588.6378764612055,0.4452767635720872,-0.4317558151253089
15290,1724557936085986003,0.4813436865806579,-1.2094231843948364,0.1727273166179657,-0.0146255986765027,-0.1963804960250854,-0.1474114507436752,-0.969273328781128,0.0,0.0,0.0,0.3221839745978338,-229.060381340956,-26.3067694966964,0.130206085,0.1727273166179657,0.10397322043797978,-0.4058438504313565,0.23444092913630937,-239.15304351056355,111.36602794041544,393.4367876407906,0.09323065672843679,0.38588671248962375,0.3200834736241116,-0.002129896205698145,0.06890745611780602,-0.012338354338142565,-18.68805764550998,13792.192538075957,1925.070546197678,0.027882558711250876,-0.03084019314463903
15292,1724557936095737672,0.4813232123851776,-1.209018588066101,0.1726654320955276,-0.0151785928755998,-0.1958173662424087,-0.1476054191589355,-0.9693491458892822,0.0,0.0,0.0,0.006521541876579509,-1.92427788863501,0.6338586451551701,0.139957754,0.1726654320955276,0.08486552727240218,-0.13113579905994774,0.06022876431828741,-9.852655298337918,17.796679051322965,-11.12810460455119,0.09424679141358844,0.38455848884216837,0.3205852475458228,-0.002185990244729652,0.03869060915275924,-0.0032854666860355763,-14.43713935552992,12335.763475717285,1432.8427533218057,0.012653160486689652,-0.015910876502143713
15294,1724557936106514285,0.4812986254692077,-1.2086349725723269,0.1726664751768112,-0.0146479671820998,-0.1953954398632049,-0.1478291749954223,-0.969408392906189,0.0,0.0,0.0,0.06450670205171885,0.5322678269031256,0.23777983500402614,0.150734367,0.1726664751768112,-0.11531540527040537,-0.06289101101925125,0.020535370657453915,-16.121562146830883,5.665271443772766,-3.2624191916700687,0.09306754467735531,0.3838630436454822,0.32075456558521065,-0.0019695380471658197,0.03193914302838308,3.829238137220692e-05,-9.583513892132835,-120.47092435803029,-75.52011979685588,0.00836254089822107,-0.011969319111112636
15296,1724557936184091291,0.4813200533390045,-1.208199977874756,0.1726367771625518,-0.0148106459528207,-0.1955657452344894,-0.1478912085294723,-0.9693621397018432,0.0,0.0,0.0,-9.03567911869154,-203.38979268570063,-27.270006946191167,0.228311373,0.1726367771625518,0.0044197300928612215,0.003892728682889746,0.0024818040557260126,1725.9172762517744,2045.1167564667621,-53.48651432946496,0.09349924122615862,0.38414580133731774,0.32099167114622906,0.027841763240758155,0.720339710505641,-0.020966279789092823,-4291.582726312321,137202.62357061217,49943.26960930755,0.0020266702147304543,-0.0014790526828287293
15298,1724557936184710452,0.4813374280929565,-1.20775043964386,0.1726236939430236,-0.0150747299194335,-0.1959995776414871,-0.147822305560112,-0.9692809581756592,0.0,0.0,0.0,-11.713487693629345,-117.74827842416599,3.901473463561633,0.228930534,0.1726236939430236,1.0815616917115844,1.2802513127500466,-0.030898122591991234,1250.3094236651727,1432.1494992038977,46.550817622284384,0.09419125532035687,0.384936791190757,0.32105125900804055,0.022200672745746886,0.5933597455513961,-0.037984226072385496,-111.26112296748101,144579.3875511643,72414.80754479911,0.24496146239371822,-0.18721029611499623
15300,1724557936186783923,0.4813427627086639,-1.2074414491653442,0.1724279075860977,-0.0155255040153861,-0.1959094852209091,-0.1485312283039093,-0.969183623790741,0.0,0.0,0.0,17.314144101098073,225.50570442324806,307.30010988583433,0.231004005,0.1724279075860977,0.2759892079726885,-0.11979431268849217,0.7632063924652669,-373.0501703117729,5689.905050293204,-5321.220263207724,0.0953918807483042,0.384539693119384,0.3227254907897687,-0.02015881336626535,0.9556465387413482,0.18804775285383357,216788.50487701612,-346122.87917895406,-839594.1765088888,0.08149429962854647,-0.0760286654622722
15302,1724557936187185545,0.4813328981399536,-1.206994891166687,0.172525405883789,-0.0153994271531701,-0.196436733007431,-0.1481807380914688,-0.969132661819458,0.0,0.0,0.0,120.15661225983271,46.69123657256273,-106.59630016401884,0.231405627,0.172525405883789,0.12736701942582065,2.6605547900358397,-1.8176562579071378,-4176.351886360245,4016.6687253920572,-5467.7088684701475,0.09518969986139734,0.3856729178873965,0.3220511284464324,-0.010268922889338228,1.0501649583292192,0.32689158691751175,157387.44020073506,-477484.4827592309,-1026477.5558154995,0.21316552997812946,-0.24067109211803087
15304,1724557936187780791,0.4813393950462341,-1.2064242362976074,0.1727942079305648,-0.0133936982601881,-0.1969210058450698,-0.147306814789772,-0.9691973328590392,0.0,0.0,0.0,126.78334097347272,-265.9842789315037,-713.9995082654514,0.232000873,0.1727942079305648,-5.716570067177116,2.4876213397612035,-4.226780098645673,19744.11684846025,-13665.51353071594,12270.115641864719,0.09082330772258497,0.38738087478305816,0.31949491765031013,0.14553355552811809,0.9115270295988012,-0.13558979817452155,-282395.0145551106,-242616.66217305916,445835.81937095604,0.11780245859539785,-0.08493548970042596
15306,1724557936188159716,0.4814270138740539,-1.206090211868286,0.1726011931896209,-0.0153549285605549,-0.1960712522268295,-0.1477599292993545,-0.9692715406417848,0.0,0.0,0.0,-51.02742403934005,-289.7323590215214,-191.37268718582578,0.232379798,0.1726011931896209,8.89581313314313,-5.916873899601097,4.3587245447435015,16313.150974230406,-10645.886732701256,11637.372654069582,0.09477835158447005,0.3849954104177583,0.3210458973318392,0.16101980282155637,0.8027604882652213,-0.3909552305281636,-320126.707191004,8478.87519523906,1239862.6478469705,0.6524577552081041,-0.23975620803082676
15308,1724557936188690665,0.4814602732658386,-1.2057225704193115,0.1724817156791687,-0.0158523321151733,-0.1953320205211639,-0.1482972353696823,-0.969330668449402,0.0,0.0,0.0,-110.05549686841258,-232.29658447823897,363.2426394147833,0.232910747,0.1724817156791687,1.0043605236681357,-2.988443467305871,2.3389672068541367,-9726.251200971621,4171.752090130088,-3753.1441679422032,0.09575031910367127,0.3832977189810656,0.32221648776639666,0.06555921912618601,0.6469241837745585,-0.1335655975478005,-16886.27934210881,114304.71335425101,541590.2328464775,0.34262014664285945,-0.22594777383995107
15310,1724557936189522314,0.4815185964107513,-1.2052438259124756,0.1724897772073745,-0.0157139673829078,-0.1948008239269256,-0.1480321884155273,-0.9694804549217224,0.0,0.0,0.0,-1.2743157941084635,-129.25121949637327,158.4449080785854,0.233742396,0.1724897772073745,-0.39319105198846904,-1.2693955001013428,-0.7160170188972298,-1535.932388972325,1907.7510711131845,-3362.9939074530516,0.09514415212446668,0.38230368797211733,0.321469101950223,0.0648743382551924,0.533468318593286,0.010213667663719894,119905.46015176894,114563.0199800742,-227212.83027583503,0.22687156245338266,-0.09626583384994965
15312,1724557936198686512,0.4815824329853058,-1.204615354537964,0.1726359128952026,-0.0160175636410713,-0.1954708397388458,-0.1470902562141418,-0.9694839119911194,0.0,0.0,0.0,-2.78289989954731,-22.742797713202535,-0.8395901444766407,0.242906594,0.1726359128952026,0.12591377663945846,0.1285765069235855,-0.18879653670427962,30.943435661364646,63.75684753145439,31.668895868363542,0.09564939773203217,0.3836413692860795,0.31973323506249546,0.007673638739611022,0.07319081814607387,0.004073584007167952,133.851643060368,6810.63976103599,-7608.117723230534,0.02015179726299561,-0.00687838313454224
15314,1724557936205851794,0.4816413819789886,-1.2040650844573977,0.172598585486412,-0.0166037455201149,-0.1958897858858108,-0.1465818136930465,-0.9694665670394896,0.0,0.0,0.0,-0.15168130625610507,-0.8989750556041121,-0.6015944178791868,0.250071876,0.172598585486412,0.2036431525666451,0.08797597317661976,-0.10676609892805325,3.7909456987344434,-5.235498173949122,8.873545059216836,0.09682537578397836,0.3843423884338269,0.31897733240824255,0.007111189377800642,0.0642012968500687,-0.002892380184362331,242.79710077345896,2060.0913394867302,34.7716453414369,0.031521534300451154,-0.016088911039433204
15316,1724557936220066872,0.4817110002040863,-1.203507661819458,0.1726228147745132,-0.0169060304760932,-0.1961340755224228,-0.1461364924907684,-0.9694790840148926,0.0,0.0,0.0,-0.209093396074909,0.5094142191527125,-0.06341722435835698,0.264286954,0.1726228147745132,0.0585138713739536,0.025701612150305652,-0.05323929503804047,-6.453612415788397,-14.420680645272775,3.592739330705073,0.09736662691767821,0.3847793092602196,0.3182028935596575,0.0028911389647205965,0.06145112815507048,-0.0009931109143899164,-17.265046209363664,188.45760825688876,12.322426045163287,0.015043019060792856,-0.005883046705186365
15318,1724557936226970234,0.4817242324352264,-1.2030088901519775,0.1726069152355194,-0.0170294735580682,-0.1957893967628479,-0.1460151374340057,-0.9695649147033693,0.0,0.0,0.0,-0.3726215285305108,2.110055580475179,-0.06396508155361766,0.271190316,0.1726069152355194,0.02655406067759739,-0.10750829585875278,-0.029016482304215517,-4.318434627291456,-17.796980906988313,3.2734843568635728,0.09744009777708725,0.38406016963072365,0.3179100041067313,0.0017419696002386464,0.06732423066614746,-0.0020914399795626537,-234.0992761142538,519.8563246003251,922.3548398315207,0.023490039790202335,-0.01917317172077396
15320,1724557936313576668,0.4816851615905761,-1.2025307416915894,0.1726558208465576,-0.0167505983263254,-0.1949037164449691,-0.146028071641922,-0.9697462916374208,0.0,0.0,0.0,-249.2640031669199,360.0437404468812,1082.065586591708,0.35779675,0.1726558208465576,-0.00936030937570446,-0.019705140482326744,-0.001234581892577804,-3694.980326102259,-32970.58625117425,8606.505910516978,0.0965199207690155,0.3823719794778347,0.3176171169217616,-0.25452345459916614,1.6183248450852261,0.09573588254397691,-610074.0579336759,-398336.5718468806,49595.2310311012,0.0009913761404072583,-0.0017089857644796607
15322,1724557936313847124,0.4816161096096039,-1.2020916938781738,0.1726817935705185,-0.0168564319610595,-0.193702682852745,-0.1463403403759002,-0.9699379205703736,0.0,0.0,0.0,-414.77502446124174,251.97130513151387,1095.5102488478824,0.358067206,0.1726817935705185,-1.0118102811640346,-8.964645316534915,2.333715230825349,6624.132704438718,-9581.974190361469,-2609.0441252876117,0.09640442777090984,0.37989784834539353,0.3180422902216676,-0.3221464252461601,1.7159897969668236,0.38929995459557176,-898984.0081842524,-993393.6955139677,-481473.47140831477,0.21061062635455274,-0.6389051792705559
15324,1724557936314109901,0.4815143942832947,-1.2016171216964722,0.1728589683771133,-0.0173597931861877,-0.1930710822343826,-0.1460867077112198,-0.9700932502746582,0.0,0.0,0.0,-724.2865623446993,-160.67644043020664,833.3701622636812,0.358329983,0.1728589683771133,3.366440088285618,-5.484791786378667,-1.2222530020736022,14946.61888335267,9693.2868393801,-7538.554513929693,0.09710619519254637,0.37849438415066883,0.31754832354796886,-0.47320099816943184,1.7543366495829105,0.6797456532171964,-1297049.2046825374,-885895.7885930613,-1338918.598484384,-0.06685832080677931,-0.5854880358553846
15326,1724557936314403020,0.4813475310802459,-1.2011197805404663,0.1730600148439407,-0.018421372398734,-0.1926877200603485,-0.145664244890213,-0.9702134132385254,0.0,0.0,0.0,-1143.450672950642,-196.56222683816895,329.3008446897288,0.358623102,0.1730600148439407,7.186883557268976,-3.804008134965561,-1.4722157719586781,-10571.863297948681,-6755.688274612949,3023.9734100597907,0.0989989496954386,0.37742695740407445,0.31696880208910466,-0.7343670665796935,1.6069901558043966,0.8351130202017885,-669283.0253018113,484649.846480689,-843633.4030526283,-0.2639829534526754,-0.7102407876642097
15328,1724557936314683835,0.4810968935489654,-1.200692653656006,0.1733346730470657,-0.0183275509625673,-0.191408485174179,-0.1457555741071701,-0.9704546332359314,0.0,0.0,0.0,-1126.7380026512947,102.85516832018402,328.0750981424303,0.358903917,0.1733346730470657,-2.1324161568430426,-9.061212103394023,0.41991151564998613,-5266.74341125804,6621.088339730567,7499.37074471227,0.0983474706811421,0.37488317188028175,0.31682543641679806,-1.12338405147932,1.634147942339041,0.8735789281541315,1689067.0556551535,-304589.1866415251,950262.6967471626,-0.7063811562562266,-0.8402499314554429
15330,1724557936314971052,0.4807064235210418,-1.2001900672912598,0.1735548824071884,-0.0190335307270288,-0.1915361881256103,-0.1460209041833877,-0.970375955104828,0.0,0.0,0.0,-162.903912162521,-387.3308601058652,881.4428475118109,0.359191134,0.1735548824071884,4.556765789566689,0.28516381274016556,2.7975266986259064,2647.9183275825035,995.5951683329477,-4255.949174238685,0.09997405881043854,0.37488512676178387,0.31769337156295563,-1.371041759294485,1.6654947546703625,1.0239448527910895,2079529.7548024259,-500736.49443525576,1312978.8634591233,-0.9738615635826583,-1.39564002368904
15332,1724557936315250752,0.4803197979927063,-1.1997472047805786,0.1739113479852676,-0.0191049687564373,-0.190444678068161,-0.1457629352807998,-0.9706281423568726,0.0,0.0,0.0,71.11867836921692,-198.91369120822083,1081.530396163915,0.359470834,0.1739113479852676,-0.3249994497679616,-8.028742253383674,-1.8068871844527028,-12627.694519637183,-20525.23291566028,-13781.24023246235,0.09959816717565256,0.37270101024513225,0.316912899287135,-1.226113683251242,1.4219297608001398,1.3679733738571827,-460949.3684400943,1663202.3194218772,-147701.0329978146,-1.2277990735118651,-1.1815194018474022
15334,1724557936315628140,0.4799365997314453,-1.199292778968811,0.174475222826004,-0.0187248978763818,-0.1883607804775238,-0.1447836756706237,-0.9711885452270508,0.0,0.0,0.0,-763.5896391358401,932.6384884691524,586.3213950092554,0.359848222,0.174475222826004,-2.633227447765871,-11.090569221210247,-5.642747419853883,6810.45305756895,6696.0633802431075,-4838.885891153929,0.09762053147963341,0.3687455027771638,0.31419716244811535,-1.426903008252566,1.6889870026780045,1.7005345737445623,-1221234.2749976995,1529327.154368404,-1034028.406518845,-1.0922079975056873,-0.6761486490062962
15336,1724557936315899535,0.4794690310955047,-1.198739767074585,0.1749770194292068,-0.0189281105995178,-0.1875686347484588,-0.143943190574646,-0.9714628458023072,0.0,0.0,0.0,-901.6958778498024,1060.9737471740966,359.9825643234665,0.360119617,0.1749770194292068,1.738029639692936,-6.3829489212891914,-5.916642444842042,15682.198723565418,16909.778688543156,-968.096446634688,0.09741110204762904,0.367177792505562,0.31230365676042593,-1.6793272531143093,1.9860123967266974,1.8021039098974785,-493107.45104167506,457598.56939863414,-813386.5234871333,-1.6096139819867463,-1.40172988386851
15338,1724557936326043651,0.4789300560951233,-1.198177933692932,0.17549429833889,-0.0184469539672136,-0.1862677931785583,-0.1432923227548599,-0.9718186259269714,0.0,0.0,0.0,74.7956566740892,-88.44802426676621,-81.65158074904296,0.370263733,0.17549429833889,-0.10633256451094866,-0.25108406152807095,-0.14769812376981564,-80.43292679181168,277.2090851671893,275.59950782764196,0.0956668407551958,0.3647870961881779,0.3104437260446458,-0.05676906106025825,0.05967942566392992,0.044456287368880965,40561.22657142455,-47679.08461705009,-15522.398367174543,-0.049648955496290795,-0.043576694996323787
15340,1724557936334956300,0.4783956110477447,-1.1976124048233032,0.1758393347263336,-0.0185503009706735,-0.1847617477178573,-0.1433465629816055,-0.9720961451530457,0.0,0.0,0.0,0.12982670527193774,0.5334500572804415,-0.6318266699422279,0.379176382,0.1758393347263336,-0.0293050474820679,-0.3431312484575631,0.013458952027563538,12.066150048751652,10.246623199423883,7.847955735069068,0.09534019581458313,0.36173140585049746,0.3102595043168619,-0.05696319981997533,0.06578429364728322,0.03414077382640457,-4594.860983120854,5474.504202953094,5024.790051548753,-0.048988052254816436,-0.05654310340736052
15342,1724557936345764880,0.4778192639350891,-1.1968708038330078,0.1761484146118164,-0.0192525424063205,-0.1850743442773819,-0.1430160850286483,-0.972071647644043,0.0,0.0,0.0,0.04822287419005589,0.5989553045382303,0.3874256407115584,0.389984962,0.1761484146118164,0.1459895666780542,0.03730476184757809,-0.03585968105009052,-3.1245649654691956,3.5667201228225416,-7.872730696062856,0.09678669024971406,0.3621698938075833,0.30988828876607355,-0.05357269276509413,0.06956407803180298,0.034200765477196526,-14.063455160644718,21.591618438177527,26.38414843881273,-0.038054359275235136,-0.055630613039751975
15344,1724557936355468392,0.4772972464561462,-1.1961874961853027,0.1765291094779968,-0.0190179720520973,-0.1840903311967849,-0.1423790007829666,-0.972356617450714,0.0,0.0,0.0,-0.14498427853583706,0.9437681449263562,0.051798032179108056,0.399688474,0.1765291094779968,-0.05283186817115785,-0.20363554440893125,-0.1410860314124439,-7.569472958210968,-11.94971610577215,-7.121011994373232,0.09568742886008899,0.3603346204682374,0.30822861343927294,-0.055417329414275684,0.077547397854417,0.04128683297725999,-6.874439916587226,0.30543833869057124,-78.07266337822905,-0.04181131261864295,-0.05271636985538808
15346,1724557936365542754,0.4767220020294189,-1.1953316926956177,0.1769665330648422,-0.0190220978111028,-0.1831839978694915,-0.1415034681558609,-0.972655475139618,0.0,0.0,0.0,-0.0778849051207775,0.5783672579636283,-1.1895543521601695,0.409762836,0.1769665330648422,0.006047489593290619,-0.1892991925083867,-0.1738839379908356,9.691068705652107,-3.229446118309781,5.060396447560978,0.09502480110055654,0.35860300988986477,0.30617176581893735,-0.05640607187013558,0.08832129891811036,0.03471239071246579,9.391209297221923,-55.26533310455023,-63.94647708466744,-0.04224416269857102,-0.05806644518443933
15348,1724557936375294428,0.4761784970760345,-1.1944385766983032,0.1772228479385376,-0.0198126547038555,-0.1820271164178848,-0.1411381810903549,-0.972909927368164,0.0,0.0,0.0,0.03947200749744173,-0.1398617785207934,-1.253647526852847,0.41951451,0.1772228479385376,0.13686086765154315,-0.264708135828321,-0.04603940878156703,-2.9353116110701327,-9.567732178226041,9.025487933528941,0.09610059918086455,0.35607627919771906,0.3054318059209094,-0.05697434395407086,0.08932597726502678,0.018043678560443865,14.080646854131537,-22.992952940910108,71.55029933666917,-0.03317052620494305,-0.0648556099186659
15350,1724557936385321454,0.4755944311618805,-1.1935662031173706,0.1773188114166259,-0.0197851136326789,-0.1801318973302841,-0.1411674618721008,-0.973258912563324,0.0,0.0,0.0,0.201754692306229,0.15188847877462397,0.2692475088710833,0.429541536,0.1773188114166259,-0.061140157766796994,-0.3795611992833259,0.0023473614550864027,-4.611861546338074,-1.6061750078979742,2.581478175149501,0.09536168850345371,0.35228557897158813,0.30506892409348724,-0.055570777614637024,0.08541936691272412,0.010171354752502637,7.775200866021185,49.17119339839265,102.61527819051766,-0.03092267106483999,-0.07202508484983933
15352,1724557936395308305,0.4750660955905914,-1.192728877067566,0.1774263679981231,-0.0202107802033424,-0.1787151396274566,-0.1411271095275879,-0.9735170602798462,0.0,0.0,0.0,0.1957582570967089,0.8426346590324307,0.8040324421660824,0.439528387,0.1774263679981231,0.043345987069605366,-0.29764364048168956,0.005805934678426456,4.465771275255799,10.650186732754616,-13.716985099817435,0.09571191566899194,0.3493210024957171,0.3048283760621393,-0.052941404144892346,0.09232243251204153,0.023347817134173887,-16.016387724702955,28.480630406656225,-40.25798487289879,-0.0274585571258787,-0.0660400872482109
15354,1724557936406089012,0.4744949042797088,-1.1916348934173584,0.1778244525194168,-0.0201475247740745,-0.1779547482728958,-0.1394847780466079,-0.9738944172859192,0.0,0.0,0.0,-0.15631546891022685,0.6761982953754035,-0.7216704140870094,0.450309094,0.1778244525194168,0.021703724422418386,-0.15434221723539548,-0.3057368351136935,7.120008596071161,6.833374350274264,-6.462710007569159,0.0946957372497226,0.3479780314275257,0.30116897532896636,-0.051616828451759744,0.10316879629402109,0.026018399481221977,-21.14732276057059,-44.46093916657971,-86.02622771271916,-0.03185955513516566,-0.06140078057059105
15356,1724557936416408288,0.4739757478237152,-1.1905535459518433,0.177985206246376,-0.0210465658456087,-0.1773618012666702,-0.1385412514209747,-0.974118173122406,0.0,0.0,0.0,-0.2608451067392328,-0.06927975492861549,-1.0612380348387274,0.46062837,0.177985206246376,0.18533488508602694,-0.1476263379424674,-0.1508188761274099,-1.0192385874408054,-21.20872242639404,18.007698660176178,0.09599497310289634,0.34660968397623004,0.2993670665055893,-0.05598752629388315,0.10688813440903289,0.008996050610994288,14.110993133441898,-66.82264995410017,3.876623877611742,-0.02143891584507764,-0.06724065735758843
15358,1724557936424858864,0.4734633266925812,-1.1896357536315918,0.1780156791210174,-0.0215896423906087,-0.1754266172647476,-0.138544425368309,-0.9744561910629272,0.0,0.0,0.0,0.026152164749284168,-0.5964709928813887,-0.7739314102069964,0.469078946,0.1780156791210174,0.059934580711731245,-0.4781262434347607,0.022084265750171393,-5.319563681508934,-8.60856107135109,5.986645841531387,0.0964288181674917,0.3425699890684738,0.2991520417609924,-0.05706587610642444,0.10332899644982518,0.004099384430023889,11.224930748126056,-19.586766311827866,34.88383804875561,-0.025640947603794186,-0.08182541762984831
15360,1724557936436125905,0.4728740155696869,-1.18855082988739,0.1780692785978317,-0.0223395377397537,-0.1749117821455001,-0.1376866847276687,-0.974653422832489,0.0,0.0,0.0,-0.188934685062911,-0.17422876560725697,-0.3675935505975529,0.480345987,0.1780692785978317,0.1430056046788481,-0.11692441793859921,-0.12789326483479582,14.53479282153232,12.297539630777232,7.017317186572721,0.09748414165419057,0.34139830107000835,0.29749432421919103,-0.054461423260057984,0.09397514312194488,-0.007542106151701589,-21.112704732831833,61.09841403098555,72.3254999634116,-0.02211659126631708,-0.07056080672370481
15362,1724557936446203225,0.4723057448863983,-1.18762469291687,0.1778824180364608,-0.0243079010397195,-0.1743025332689285,-0.137974128127098,-0.9746748208999634,0.0,0.0,0.0,-0.4199260303505796,0.6543947635201626,0.6880840893315692,0.490423307,0.1778824180364608,0.3540289103659074,-0.17110607611271117,0.12604774585546863,-10.135929687817672,5.8902511255212,-7.697558944635149,0.10143893449719789,0.3395564047879267,0.2986536027558545,-0.060151757481772705,0.09813176530115442,-0.005246896095203013,36.594369568429066,-15.596908033630386,35.870507168280966,-0.019144554120516816,-0.08118177620885482
15364,1724557936456034352,0.4716783165931701,-1.1866002082824707,0.1779583543539047,-0.0238749664276838,-0.1742798238992691,-0.136740505695343,-0.9748634099960328,0.0,0.0,0.0,0.5106553691499442,-0.43716043664068494,0.38003733840873133,0.500254434,0.1779583543539047,-0.0436703667969121,-0.005138536885370323,-0.2651396368576471,-21.348932412998884,3.5803210380421255,-21.381103174765247,0.1000914119440674,0.3397683529672155,0.2958976638304008,-0.06289189644928328,0.10688546274916177,0.005932690981243383,-400.0766610215139,877.2294333992725,-96.22752474514019,-0.03148142474119232,-0.08179740221306678
15366,1724557936465035827,0.4711198508739471,-1.1856160163879397,0.1779969930648803,-0.0233418755233287,-0.1739021092653274,-0.135450929403305,-0.9751237630844116,0.0,0.0,0.0,-7.168136174594656,15.604276469464457,-1.020995706586356,0.509255909,0.1779969930648803,-0.0783890415903033,-0.0825393476689837,-0.3058722307619928,-1.936055606832042,-6.423349521242518,-1.7383916275250701,0.09839207184285201,0.339301822609851,0.2929139513008443,-0.05178933523292173,0.09200878453287054,0.0031134865326656325,-2001.0788806712067,7213.627480648956,10248.574492966127,-0.0276708353928929,-0.08252462801282778
15368,1724557936496662990,0.4706211686134338,-1.184631586074829,0.177964448928833,-0.0244339015334844,-0.1734010577201843,-0.1344422101974487,-0.9753257632255554,0.0,0.0,0.0,-198.0288023400867,847.323550830466,1479.2679551859246,0.540883072,0.177964448928833,0.07384133381454833,-0.043960746967108444,-0.05118296986874434,-10143.346771523047,-11048.712241069308,-12387.496266548764,0.10011149522913755,0.3380786780344807,0.291060028052593,-1.2121089007459886,2.503186566016666,-0.1078313172072285,246131.69876314112,-547291.3208684938,-106081.7938346588,-0.005481486743962334,-0.022503225073256135
15370,1724557936497063956,0.4701290726661682,-1.1836153268814087,0.1779206693172454,-0.0235884152352809,-0.1724308729171753,-0.1335669159889221,-0.9756388068199158,0.0,0.0,0.0,-98.05649520970564,624.9625531606926,1435.9555801639492,0.541284038,0.1779206693172454,-4.04488307284851,-4.530289998258689,-5.081159415722849,-11346.99293767592,2398.1197581017914,-23262.64138496733,0.09771576804293035,0.3364722683578359,0.2887214846186189,-1.2923318812845537,2.846854244604856,0.49284239044959577,262400.56123973243,-617050.4862846755,-228342.94217863167,-0.393276482433555,-1.7878775873920354
15372,1724557936497421049,0.4696469008922577,-1.1824994087219238,0.1782881170511245,-0.0215857438743114,-0.172412097454071,-0.1309027671813964,-0.9760494828224182,0.0,0.0,0.0,-0.19795230713734935,384.7459130192482,1316.1507727968412,0.541641131,0.1782881170511245,-8.43868330873584,0.6469815823068698,-16.79662820838524,-11731.28839219388,13873.097932348173,-31313.32327791814,0.09261892621643879,0.3372722015490693,0.2824183245416581,-1.2949034242271367,2.996199751127876,0.9858595497115491,262754.8646331468,-646998.5357027595,-328564.6792426188,-0.7424185797398875,-1.6468669980496784
15374,1724557936505389708,0.4691736400127411,-1.1815286874771118,0.1784731894731521,-0.0211407132446765,-0.1724754869937896,-0.1287662386894226,-0.976332187652588,0.0,0.0,0.0,86.45670404578969,-200.55135634580532,-68.75340168749082,0.54960979,0.1784731894731521,-0.01601601604993939,0.006341538474789754,-0.5522789590686457,593.0969770816838,-45.06993926167661,1139.7203572848991,0.09095502701737636,0.33772590585676,0.27777882268915,-0.051116514049585504,0.10859766871184462,0.005977001942616411,2045.1909652298643,-31287.17130029778,-92552.64647288028,-0.03006500393805114,-0.07568009169255221
15376,1724557936515147278,0.4687737226486206,-1.1806269884109497,0.1783254295587539,-0.0220939237624406,-0.1725824624300003,-0.1277606934309005,-0.9764243364334106,0.0,0.0,0.0,0.920299185271864,-2.074386354265512,-1.1655879081070095,0.55936736,0.1783254295587539,0.2287267735433666,-0.011365354530726025,-0.17042520683020984,17.24882752634968,-6.592400660567059,19.407810364059188,0.09260171607137654,0.3377679235690651,0.27601299110689975,-0.03943175316681646,0.08512449257285937,-0.01714005340735625,-4608.295585935449,10633.147679396696,3538.0351500697943,-0.008426906409372993,-0.06474638438425592
15378,1724557936525093971,0.4683972597122192,-1.179854154586792,0.1781346946954727,-0.0235794521868228,-0.1721966415643692,-0.1266098171472549,-0.9766075611114502,0.0,0.0,0.0,-2.7584280278081885,5.2595094152336355,-0.33319915799342903,0.569314053,0.1781346946954727,0.3208677045954976,-0.12538152394997182,-0.17739605981902415,6.973308016349437,-9.554111556457542,-0.2587153564808422,0.09513634534540884,0.3366916432654897,0.2740275054154189,-0.033088565846956186,0.06784992307796855,-0.01653039799016276,187.29447433755297,-524.2211342228571,-2936.650109309662,-0.008209849741885652,-0.059537478318484514
15380,1724557936581823045,0.4680600762367248,-1.1791912317276,0.1780528128147125,-0.022839980199933,-0.1707598716020584,-0.1253376603126526,-0.9770413637161256,0.0,0.0,0.0,188.12522527486817,-432.6425031093677,-1144.1364156782417,0.626043127,0.1780528128147125,-0.02451126944717321,-0.04985916423058557,-0.04903228267366966,-19711.114253413212,-15033.97318392355,-35826.54085146033,0.09268803443209148,0.33413644408135434,0.2708138594326255,-1.2883726657928491,2.6297998882700995,-0.16306761462203667,138592.080634478,-398547.6861250333,-717673.1721433811,-0.001983780796910614,-0.00867119574726642
15382,1724557936582085836,0.4677199423313141,-1.1784969568252563,0.1780097633600235,-0.0220216047018766,-0.170186161994934,-0.1242222040891647,-0.9773027300834656,0.0,0.0,0.0,224.71059556317505,-537.8530229773896,-1333.5835804546653,0.626305918,0.1780097633600235,-5.22840259874285,-4.018955231530903,-9.50754095560349,7758.422776714846,7179.490728858257,-8275.523301024714,0.09041800866043086,0.3333131844821564,0.26807837714701216,-1.238679098421244,2.5155236782043175,-0.4651260367814416,363731.7905246445,-936663.0477424961,697925.9158020003,-0.464518832938218,-1.8564535387515084
15384,1724557936582344695,0.4674134850502014,-1.1778780221939087,0.1778125315904617,-0.0223456695675849,-0.1707058101892471,-0.1235687062144279,-0.9772876501083374,0.0,0.0,0.0,376.11354998323327,-917.066832387909,-791.1375694225159,0.626564777,0.1778125315904617,3.807553165652933,3.521398740766686,-4.58229476837107,7655.597318939213,7813.379918935143,9039.400362358752,0.09102260791768209,0.3343284840867273,0.2669155060242473,-1.1714303365430396,2.350032768842084,-0.857294097126271,763651.6082078894,-1673725.1583146816,3033642.4620667016,-0.23298253051509973,-1.8964024397908223
15386,1724557936582615809,0.4670994281768799,-1.1772525310516355,0.1775530278682708,-0.0219918973743915,-0.1706350296735763,-0.122952252626419,-0.9773856997489928,0.0,0.0,0.0,633.9105956626724,-1430.120535867853,297.7025038879233,0.626835891,0.1775530278682708,-1.8548819153009248,-0.4128924596593899,-4.967487304330475,-4286.961536474822,-12795.318109203034,-527.3703700813785,0.0900502803710284,0.334338710185599,0.2654848891386854,-1.0364304719902293,2.0225340256351956,-0.8662460708399635,638333.4967112454,-1150597.9267873012,2551023.7055133516,-0.17000686796747216,-1.917543832572054
15388,1724557936582886548,0.4668518006801605,-1.1767818927764893,0.1773430854082107,-0.0221310220658779,-0.1702224016189575,-0.122263878583908,-0.977540910243988,0.0,0.0,0.0,722.2307183955674,-1541.0777308806832,592.2403786826164,0.62710663,0.1773430854082107,1.4722096707279453,-3.4130690652709537,-4.86872157708037,10895.187216909262,-9742.560407628636,509.19158324730853,0.08996460374991705,0.3335369231818141,0.26400742662590015,-0.8280458822132033,1.5752841605748955,-0.696230972039416,270150.6887723719,-317618.66059660143,955215.1107760359,-0.151791938357757,-1.4989788426971073
15390,1724557936585147197,0.4666143655776977,-1.17629873752594,0.1772643625736236,-0.0217351056635379,-0.1700366586446762,-0.1212031692266464,-0.9777141213417052,0.0,0.0,0.0,274.59358923777484,-518.4827342660726,246.99095296873844,0.629367279,0.1772643625736236,-0.2061452097978687,-0.16466428219221696,-0.9920579534520844,-619.8092782263462,1208.0025729181732,1451.9830454189353,0.0887133233169941,0.33336620319714466,0.2616082764879737,-0.09115280675386561,0.18447917332548158,-0.03176347203274288,-169901.3983367077,386655.8174467085,-131543.15634557063,-0.03224221060168549,-0.15670618872092815
15392,1724557936596961502,0.4663942456245422,-1.1759248971939087,0.1770780086517334,-0.0219274181872606,-0.1699148118495941,-0.1207671836018562,-0.9777849912643432,0.0,0.0,0.0,2.9824656703145074,-6.265188033991083,0.49322284198724087,0.641181584,0.1770780086517334,0.04161931252494562,-0.027757349757862895,-0.06763164305826039,9.874875127432166,6.311593997954902,31.433294960990978,0.08891947549224034,0.33311045745688816,0.2607353106887804,-0.018829536795376356,0.031985433375822936,-0.011726311748358142,-10781.227165276414,20360.64921984427,-9714.209036323458,-0.004145749435466366,-0.02957443352686893
15394,1724557936607142876,0.4662007987499237,-1.1755962371826172,0.1769941300153732,-0.0220194403082132,-0.1699112057685852,-0.1199391335248947,-0.9778854250907898,0.0,0.0,0.0,0.33643947497330773,-0.7276802456069511,-0.5779125965585029,0.651362958,0.1769941300153732,0.04479514670628927,-0.009794634654582714,-0.15834190045716856,4.294107786547625,-6.974044410229867,-2.199179828664648,0.08881683700629503,0.33315417875070896,0.2590267291706778,-0.016007754568796884,0.02647823605069277,-0.017258035294036134,-120.50423251527198,246.03448687877543,-18.144247532777783,-0.0068484939392334885,-0.02746818766497076
15396,1724557936615427308,0.4660883545875549,-1.1754159927368164,0.1767903566360473,-0.02242411673069,-0.1694640964269638,-0.1193201467394828,-0.9780296087265016,0.0,0.0,0.0,0.2777111254018234,-0.6972177479278826,-0.141355294508678,0.65964739,0.1767903566360473,0.10721295473175949,-0.12647491247008447,-0.13132759367585478,2.7260042124880655,-5.202770295513336,6.3302081802233285,0.08929842143456963,0.3322073777279976,0.2577816509388655,-0.012820888639396344,0.01919080909973303,-0.022278912403415063,-7.061283196140133,16.417579544652785,50.516579547499376,0.0008583770419678153,-0.025604687415672088
15398,1724557936625418183,0.4659693241119385,-1.1752551794052124,0.1765957027673721,-0.0228141881525516,-0.1691641062498092,-0.1190953999757766,-0.9780998826026917,0.0,0.0,0.0,0.20749669845192276,-0.37968381767052484,0.33708883449421534,0.669638265,0.1765957027673721,0.07651325950404682,-0.07144345244532843,-0.03110117237794299,-9.096560979314665,-1.2354705628288745,4.701149454901651,0.08993418588922991,0.33152424868099434,0.25738672569068616,-0.01133517506874071,0.014423124383164065,-0.018092014024444936,-6.449536967847956,31.497276543604798,5.0250171669790795,-0.0006784104636566249,-0.021073022432480954
15400,1724557936635564490,0.4658602774143219,-1.175126075744629,0.1764264702796936,-0.0224876943975687,-0.1683599203824997,-0.1189542040228843,-0.9782633185386658,0.0,0.0,0.0,0.1480168025541811,-0.06304068000969248,-0.05359384998737615,0.679784572,0.1764264702796936,-0.07785329420023758,-0.15346647073476472,-0.03832968777400261,-5.523387325123828,-2.581330222211948,0.7910898412161131,0.08896348134985567,0.33000806400004606,0.2568300813962789,-0.008624072113439851,0.011575598265046949,-0.015516577128301456,-9.776348953015441,24.38412380109998,-22.83452244126323,-0.0013713459079788257,-0.018282425435099753
15402,1724557936648829808,0.4657827019691467,-1.1749924421310425,0.1762408018112182,-0.022668469697237,-0.167774811387062,-0.1189100891351699,-0.978365123271942,0.0,0.0,0.0,-0.049552778790943774,0.1420799496667593,-0.08472749546142921,0.69304989,0.1762408018112182,0.016943807151483484,-0.09227468627062003,-0.0017599291818166704,-3.680027843214755,-9.85237890093513,0.6504272733121965,0.08914309987726848,0.32879100199518274,0.2566905099741582,-0.00872760776712056,0.01451330931809025,-0.021559206220032934,8.049905259706884,-10.276372933484756,39.41587538526147,0.001586649484455429,-0.012291088822002137
15404,1724557936655562900,0.4657140970230102,-1.174879550933838,0.1760697960853576,-0.0226014927029609,-0.167071908712387,-0.1189044117927551,-0.9784875512123108,0.0,0.0,0.0,0.0830582480313064,-0.015076457706709845,0.3233887878681265,0.699782982,0.1760697960853576,-0.04483316549478168,-0.20804713283750267,-0.0045791014631526485,-3.8468089807645947,-6.39013620758092,-1.7180714754205932,0.08878839872658277,0.3273984216253386,0.25652655158823,-0.00920392521461011,0.0151986703199114,-0.020862489424642305,27.829374920265657,-14.540467866489799,27.876761391454387,0.0028632627614207672,-0.02154759103463452
15406,1724557936665828984,0.4656350314617157,-1.1747480630874634,0.1759266108274459,-0.0226241666823625,-0.166551262140274,-0.1186793223023414,-0.978603184223175,0.0,0.0,0.0,0.4960771216658683,-0.02659779899006054,0.09714872403610963,0.710049066,0.1759266108274459,-0.000921152736496655,-0.10452838918676939,-0.04255584986485599,3.1227998443738154,4.3427571815161325,-2.2040564931302713,0.0885991882332719,0.326368291939954,0.2559667293179933,-0.0059438091302972396,0.013214595042171595,-0.014100285794757639,18.01602945799946,-0.8453449974485512,-33.975634338239054,0.0004857707922978369,-0.014557322166865595
15408,1724557936675771565,0.4655928611755371,-1.1746127605438232,0.175784945487976,-0.0227439925074577,-0.1660006642341613,-0.1184068322181701,-0.978726863861084,0.0,0.0,0.0,0.46128515916817703,-0.03233610212626903,-0.3556111562184531,0.719991647,0.175784945487976,0.019009705091255307,-0.1166299923014913,-0.050072293791611544,1.052949562375164,-4.909731644598173,1.3061582260469033,0.08858597345131776,0.3252572208324719,0.25533495121993144,0.0007074504805331117,0.014555028630539368,-0.018541644996815876,-19.22899494444953,9.796747671177817,-1.2074241068243743,0.003921250573198892,-0.011646620219859018
15410,1724557936685569747,0.4656475782394409,-1.174461007118225,0.1755618155002594,-0.0229426641017198,-0.1650533527135849,-0.1182848215103149,-0.978897213935852,0.0,0.0,0.0,0.12099180987634653,0.16382327132193952,0.060603792000627044,0.729789829,0.1755618155002594,0.020137712861156145,-0.20039157140592667,-0.017362508155048313,-6.085229252802416,-8.722340346876429,4.249301008265808,0.0886679106044996,0.3233165340259728,0.2549728529031073,0.003221854462431395,0.012624178784385265,-0.021146436837327087,-21.7543501025407,19.78983876081275,32.564102108386244,0.01606297278107336,-0.005827823189539671
15412,1724557936695277684,0.4656561315059662,-1.1743659973144531,0.1753721684217453,-0.0226650424301624,-0.1636304855346679,-0.1184868738055229,-0.9791180491447448,0.0,0.0,0.0,0.03461098186516884,0.3537281940063016,0.2813693562536119,0.739497766,0.1753721684217453,-0.09857555274078421,-0.2867378024929614,0.032651417423116585,3.1833393083831076,8.807438383802724,-6.1670041235628705,0.08773446320398683,0.3205157674759372,0.25504719162198486,0.0030918978205853875,0.01768574862860106,-0.01741814951206777,-3.7571894223525852,-11.717545021112787,12.850355504876184,0.009307224508345435,-0.007753608088887302
15414,1724557936705153986,0.4657088816165924,-1.1741119623184204,0.1752214133739471,-0.02298722602427,-0.1635918021202087,-0.117727018892765,-0.9792087078094482,0.0,0.0,0.0,0.04915617652579893,-0.07627996612441124,0.3089089605033074,0.749374068,0.1752214133739471,0.08771561280932771,-0.021892165978434415,-0.14198304231917624,1.7375452299917002,6.8234769331634,-4.36613093599691,0.08813084695645552,0.3204235690602672,0.25355543042383727,0.003915986593021614,0.019494731750704375,-0.015670905988386608,5.279254982795946,-24.990778296236424,-7.751886210579251,0.015838738671659178,-0.005802766838851229
15416,1724557936715430386,0.4657338857650757,-1.1739782094955444,0.1750560253858566,-0.0226598475128412,-0.1627171486616134,-0.117548868060112,-0.9793835282325744,0.0,0.0,0.0,0.14410989215654565,-0.13476034711009977,0.11654272486636819,0.759650468,0.1750560253858566,-0.07754016079611205,-0.16554851276620425,-0.0444666454805091,-6.446176079508826,-0.916082073257069,-1.5169363500156967,0.08713410475451051,0.31876889227139654,0.25291914774694985,0.00405453729780092,0.015936690012352983,-0.011085036989048724,10.054162969650761,7.346302258245627,-46.391805872955516,0.010373704101436905,-0.0058790663138163475
15418,1724557936726429946,0.4657975733280182,-1.1737685203552246,0.1749930679798126,-0.0223146881908178,-0.1626006364822387,-0.1165500283241272,-0.979530155658722,0.0,0.0,0.0,0.2642871503033394,0.0995388585989817,-0.719552896466266,0.770650028,0.1749930679798126,-0.03500747861090769,-0.021824395615711496,-0.19073604130229188,5.556246639095567,0.6956340167151343,0.9040310251053842,0.08605245153628005,0.3187111719328647,0.25069626394311634,0.007177639585680851,0.01694419673604841,-0.013684992200337476,-3.8279289494998228,0.1050756865482887,-32.42403995822435,0.011611062408709641,-0.0007408400074065259
15420,1724557936736669701,0.4658842980861664,-1.1736152172088623,0.1747770458459854,-0.0225459747016429,-0.161963403224945,-0.1162720099091529,-0.9796634316444396,0.0,0.0,0.0,0.08445264772771954,-0.10143184814036443,-0.6360703007647339,0.780889783,0.1747770458459854,0.03799202557631747,-0.1326243245941645,-0.046101444008148536,11.987631081992165,-5.053568278177885,15.377258443917576,0.08624816047705935,0.31739876548125556,0.2500780757589185,0.009696633492985995,0.018039172815520033,-0.025658956107433184,-20.217342115861562,-25.025268663875952,33.50895512095888,0.0179002298576306,-0.0023106125470716693
15422,1724557936745657074,0.465981125831604,-1.1734288930892944,0.1745104491710662,-0.0234997030347585,-0.1614656001329422,-0.1165734902024269,-0.9796873331069946,0.0,0.0,0.0,-0.11819089893810034,-0.3689295286067808,-0.13489923495282208,0.789877156,0.1745104491710662,0.18405479544609873,-0.1325516122999712,0.10197923021400862,7.192448213708097,1.7263137142251619,5.659678598259362,0.08816761101147344,0.31613215526095434,0.2509297160565679,0.009181317903610875,0.01548394429367761,-0.027168877117969004,-11.731036968066187,-10.76392682871359,46.789093810016766,0.02403402116942242,-0.004206071512734301
15424,1724557936757713098,0.4660660624504089,-1.173327088356018,0.174223244190216,-0.0242878701537847,-0.1610577404499054,-0.116412729024887,-0.9797543883323668,0.0,0.0,0.0,-0.08469064929266812,-0.1914267011204629,0.2840465504141654,0.80193318,0.174223244190216,0.12425213125709142,-0.08395127767202896,-0.004722301919657347,-0.7628185973867367,2.818203131408806,-6.321126375552389,0.0896177448585876,0.3151291052692977,0.25077555566983756,0.006772261650318967,0.009667668423631426,-0.028259829326744423,6.694096812684585,23.306949115262842,51.483078401859906,0.015864557009308,-0.0030244301697192775
15426,1724557936765201184,0.4661155045032501,-1.1732490062713623,0.1739909946918487,-0.0247998684644699,-0.1608703136444091,-0.116175428032875,-0.9798005223274232,0.0,0.0,0.0,-0.016354602724980016,0.02302011077725391,0.7473806449545378,0.809421266,0.1739909946918487,0.13806262131356759,-0.06848989941146137,-0.04029168030290997,-4.196952389718358,-0.8264496991648613,-0.460771654610275,0.09053866760386123,0.31464546798056087,0.25041101322348874,0.006673554858604547,0.009587711783275665,-0.02439092911284213,5.831771175519329,20.56251076209175,32.481676584421066,0.01813865623062626,-0.006164131511341382
15428,1724557936775214230,0.4661832749843597,-1.1731642484664917,0.1738354712724685,-0.0249514300376176,-0.160311073064804,-0.1162103116512298,-0.979884147644043,0.0,0.0,0.0,-0.0020682015725198566,0.12078202777349978,0.6790460770133695,0.819434312,0.1738354712724685,0.015149128316727618,-0.11547728121971951,0.01252658404943408,-2.7638551570519914,0.10733200139975718,0.19909194782988715,0.09069693457850114,0.3134825524581318,0.2504323107597853,0.006467314104533273,0.010269409155753806,-0.013818346899809875,4.771319117381126,2.3311105255751734,-35.629878234306666,0.013022730030694202,-0.0005923838840076767
15430,1724557936785957584,0.4662492871284485,-1.1730331182479858,0.1737067699432373,-0.0254510380327701,-0.1600657552480697,-0.1158897206187248,-0.979949414730072,0.0,0.0,0.0,0.0877440431644298,0.06015388564703561,-0.03577520750764651,0.830177666,0.1737067699432373,0.09509419122834276,-0.05899552074483697,-0.04384348777497645,-3.763566656723915,-0.5450481721334635,-1.5175096874932463,0.09154798888571763,0.3128942632766996,0.24987865489332736,0.006658677153684067,0.01217449509766766,-0.01086686010869009,4.103985239630401,-13.439717254453226,-43.326103187323746,0.012223810164592019,-0.0008371249614590498
15432,1724557936795427999,0.4663166403770447,-1.1729180812835691,0.1736131459474563,-0.0253341104835271,-0.1595278084278106,-0.115776315331459,-0.9800536036491394,0.0,0.0,0.0,0.09108169678398709,-0.13221252347426926,-0.2523270121995967,0.839648081,0.1736131459474563,-0.034090375836858575,-0.11259766989149061,-0.02708026229105156,-1.7169596904030873,-3.624868164128076,2.84337020988265,0.09111125964089904,0.3118557751806067,0.2495080947142606,0.008073461563341766,0.011765981467021902,-0.013797830233375663,-2.3659360115604198,-12.708511489977955,-1.904753366224734,0.012447323671027133,0.000751693784126231
15434,1724557936805784590,0.466411143541336,-1.1728005409240725,0.173425942659378,-0.0258444026112556,-0.1589307337999344,-0.1157646030187606,-0.980138659477234,0.0,0.0,0.0,0.03579130219500254,-0.1777106374046819,-0.03465164952925137,0.850004672,0.173425942659378,0.08317411861313746,-0.12709015425297407,0.01452331075787712,-2.2450896188413916,-3.509299271850712,-0.20193425985870483,0.09198213281743223,0.310531311076065,0.24953903202900465,0.008356376783932973,0.009387854794049133,-0.015763701881002845,0.2907395328448583,3.767215089030345,7.692067137194858,0.016611440765093178,0.00019747082992586378
15436,1724557936816050189,0.4664891064167022,-1.1727241277694702,0.1732876449823379,-0.0255371443927288,-0.157959759235382,-0.1156502813100814,-0.9803171157836914,0.0,0.0,0.0,0.09605742109396664,-0.05600283122243077,-0.09128527968737643,0.860270271,0.1732876449823379,-0.07793076799705473,-0.18458481582958006,-0.030480163180375757,-5.313704305744537,-0.44029731491064616,-5.021320056371847,0.0910270570710268,0.3086729304398597,0.24903007812895722,0.008810021258799594,0.008091792953692334,-0.014540536954132932,-7.749607704531664,-9.107999986566082,-18.589928803448906,0.012853015446506327,0.001132804287703514
15438,1724557936825013846,0.4665775895118713,-1.1726465225219729,0.1731489449739456,-0.0253622289746999,-0.1572950780391693,-0.1153110787272453,-0.9804685115814208,0.0,0.0,0.0,-0.08001120015889923,-0.30172471651639154,-0.3602399588893862,0.869233928,0.1731489449739456,-0.04431874255384054,-0.14814177851321184,-0.08047844800496304,4.666517815836879,2.568805554869882,-2.483591287820129,0.09036295866399413,0.307415852414134,0.24814998200348462,0.010076998930276915,0.008139638611645239,-0.017005843384952257,-21.82976247998014,-20.292805456745995,-9.183623931110606,0.015829349326803216,0.0023684702659101196
15440,1724557936835453915,0.4666852951049804,-1.1725678443908691,0.1729527711868286,-0.025469297543168,-0.1565993875265121,-0.1149277687072753,-0.9806220531463624,0.0,0.0,0.0,-0.3345118149111399,-0.427002277509301,-0.20293652323285039,0.879673997,0.1729527711868286,0.01554686270089786,-0.1395243197202456,-0.06878169623723021,-2.455751099428922,-5.6035445539209,5.624886617167193,0.09025715065746213,0.3060298832293822,0.24726198924181567,0.0065500468856782845,0.0012558360398742252,-0.021802854523112813,-4.869054582263739,6.6064077603564435,9.776653977182914,0.016957919736384445,0.0020183742000034286
15442,1724557936846406880,0.4667137563228607,-1.172626256942749,0.1726793497800827,-0.0251140762120485,-0.1550509333610534,-0.1152191907167434,-0.9808430075645448,0.0,0.0,0.0,-0.16367209975744734,-0.14083880275167276,-0.15664805894938794,0.890626962,0.1726793497800827,-0.10546227715327385,-0.2747753728129676,0.04458914056080828,-1.0421465256126505,0.681091522100699,0.00968812000392294,0.08917014719140799,0.30298859920728916,0.24748920127708587,0.0029242620201657132,-0.0007510262387881994,-0.02107764602975415,10.708820178640782,6.1534353432896225,-0.9327885307566266,0.008606015012788477,-0.004168893880325865
15444,1724557936855708163,0.466743528842926,-1.172597050666809,0.1725139915943145,-0.0250113122165203,-0.154280811548233,-0.1150570958852768,-0.9809861779212952,0.0,0.0,0.0,-0.10268101384839451,-0.2413652248642817,-0.20607265171163536,0.899928245,0.1725139915943145,-0.03612206935506464,-0.16552507220198484,-0.03700098366399675,1.3357548229431302,4.700899531653539,-3.982180768604272,0.08868466991946844,0.30148570627206034,0.2469869499730502,0.002723824399275543,-0.001726209381672561,-0.024294965557595916,0.35735186703077915,-1.291844009631058,26.020376019347125,0.008975821121748318,-0.0032044414490872255
15446,1724557936864921975,0.4667642712593078,-1.1726573705673218,0.1722306609153747,-0.024728825315833,-0.1533990651369094,-0.1149567067623138,-0.981143355369568,0.0,0.0,0.0,-0.15597616876652914,-0.16641433021757301,0.3196657974297554,0.909142057,0.1722306609153747,-0.07966518641427225,-0.1865111307883518,-0.029975301488166357,-1.967345694201128,0.42424888450762754,0.3620326342844127,0.08781839153973654,0.2997982466563289,0.24654033571904035,0.001037239872157869,-0.005196155301504746,-0.024917447515397484,-19.27233332055771,-25.554978161182532,-10.407121484664994,0.009640836388239956,-0.005918273872772188
15448,1724557936876187501,0.4667592346668243,-1.1726973056793213,0.1720302999019622,-0.0244424771517515,-0.1525633782148361,-0.1148180812597274,-0.9812970757484436,0.0,0.0,0.0,-0.5588752642491737,-0.9183489434674573,-0.7268730835206721,0.920407583,0.1720302999019622,-0.06383238862571153,-0.14451515838337053,-0.0314131207054701,2.0457328390241485,3.1842835289992446,0.3317677530550471,0.08694682743798579,0.29820731692098684,0.24602276618151295,-0.0003470013559780938,-0.00417574300529111,-0.015982557515293205,-1056.4374014743344,-1861.3476353025342,-1964.9683202558726,0.003985724827039245,-0.005067214725223192
15450,1724557936906964005,0.4667569696903229,-1.1728788614273071,0.1716899871826172,-0.025446068495512,-0.1512576937675476,-0.1149219796061515,-0.9814614057540894,0.0,0.0,0.0,-118.88944571185205,-209.09223612133738,-218.60341346354159,0.951184087,0.1716899871826172,0.052964908085763075,-0.0922148903123421,0.017423196318915212,-964.4701989281862,-1279.196232359104,-516.3160552486293,0.08866412398535134,0.29533310794528334,0.2463210347078312,-0.054205733861351746,-0.11726882124219173,-0.16615235955805474,13200.473698396629,24867.414181376895,29605.174725061806,0.00177394899128526,-0.002130679253452116
15452,1724557936908080347,0.4666942656040191,-1.1730142831802368,0.1714982241392135,-0.0249156430363655,-0.1503364294767379,-0.1146716251969337,-0.9816458821296692,0.0,0.0,0.0,-103.46299431501143,-180.05085815207076,-184.06846460243491,0.952300429,0.1714982241392135,-1.0629212208229828,-1.5721021133316586,-0.5799333145210236,-4546.897116875993,-8996.652793229146,-14014.741865613765,0.08723519100105341,0.29364178496823135,0.24548606106237258,-0.19167029179629935,-0.35900515014373013,-0.41884276538087306,27165.09177715698,49456.51454522315,55354.29394187947,-0.03065305337178512,-0.07743380717091837
15454,1724557936908359532,0.4666312932968139,-1.1731311082839966,0.1713640391826629,-0.0245219990611076,-0.1496809422969818,-0.1139650419354438,-0.9818382263183594,0.0,0.0,0.0,-94.9470514753665,-164.60661180452246,-166.90945011569593,0.952579614,0.1713640391826629,-2.580023583076016,-4.619430207794393,-5.433802782220847,-5264.026276741759,-10576.581736520691,-16851.634181275553,0.08602516012383414,0.2924882006509604,0.24379084850233282,-0.21918184934269158,-0.40672470854346265,-0.4672793750100659,29939.95703731513,54276.51260992976,60255.1152972806,-0.16772559349757946,-0.262973982253006
15456,1724557936917479504,0.4665318131446838,-1.1733471155166626,0.1710801273584365,-0.0249423962086439,-0.1486722230911255,-0.1140427142381668,-0.9819719195365906,0.0,0.0,0.0,10.404298242832294,19.807110044597273,23.33536392403478,0.961699586,0.1710801273584365,0.06203939544023508,-0.23167095276802574,0.03260679645036938,131.0622366263154,228.48774639489187,270.92376578255903,0.08662519310000154,0.29035762570674817,0.2439099975291714,-0.013984292738236093,-0.025725656238378747,-0.02817489639594406,4715.442704037157,8186.7031068957485,8292.162342833502,-0.0067099131386940064,-0.014279626613105638
15458,1724557936925509828,0.466397762298584,-1.1735681295394895,0.1708747744560241,-0.0249296128749847,-0.1479582488536834,-0.1135778874158859,-0.98213392496109,0.0,0.0,0.0,-0.0675621840981212,0.45703814822349864,1.0569090014078173,0.96972991,0.1708747744560241,-0.00720030750698284,-0.18313692143830373,-0.11432034960957238,-3.0633725060361017,5.65957787037782,-13.084477025558002,0.08625693240740218,0.28897171450851866,0.24282314301832222,-0.0159600919876155,-0.0220096358721662,-0.016228148539505938,-719.7719000615919,-1354.2815577928145,-1578.17589048149,-0.014587519843014849,-0.017171222816640398
15460,1724557936935154225,0.466252326965332,-1.1737165451049805,0.1708264946937561,-0.0250048357993364,-0.1473650336265564,-0.1126889437437057,-0.9823235273361206,0.0,0.0,0.0,-0.24181727042461199,-0.38025587962376417,-0.3091720038352307,0.979374307,0.1708264946937561,0.027643550740646592,-0.13300462791010723,-0.18014146387962582,3.0349978435531204,2.5116978252950535,0.9230123998924447,0.08597726817263389,0.2878431175939351,0.24090254507122782,-0.014544372407362616,-0.017667920899334888,-0.011024755362703864,-19.85251465497072,-52.49994756290873,-76.07154855132941,-0.0161410971539836,-0.012225798840378273
15462,1724557936948693311,0.4660655856132507,-1.1739990711212158,0.1705628335475921,-0.0254829972982406,-0.1464145928621292,-0.112470306456089,-0.9824784398078918,0.0,0.0,0.0,-0.5445194267080722,-0.4388149961067964,-0.0927844612103561,0.992913393,0.1705628335475921,0.05775146929820624,-0.15005732433855484,-0.020385360397152996,-1.6041856637662528,-26.02551864369021,7.488761256775568,0.08662641035340904,0.28584284826206824,0.24043329955911424,-0.02520448276668219,-0.038599971379511544,-0.03134147548415811,47.90454951132497,91.72502698526462,89.69931200291205,-0.01212883179429534,-0.014110771665111477
15464,1724557936955682937,0.4658482372760772,-1.174332857131958,0.1703009456396103,-0.0257693380117416,-0.1449791491031646,-0.112472228705883,-0.982683539390564,0.0,0.0,0.0,0.04385183221191591,0.5488993163347451,0.8001825276486764,0.999903019,0.1703009456396103,0.032725865575823694,-0.4213324031199019,0.01640283027445367,-0.8711561644658974,-12.004087361312036,-2.7399393441994633,0.0868139725887639,0.2828989936435906,0.24028652870442885,-0.028134202706912248,-0.037671756069563855,-0.02691000609653127,58.72074119712212,80.1171232820285,69.15460887168746,-0.029455969315286188,-0.029695891627938106
15466,1724557936965124968,0.4656203687191009,-1.1745599508285522,0.1701815277338028,-0.026069302111864,-0.1441297531127929,-0.1118907928466796,-0.9828669428825378,0.0,0.0,0.0,0.2735929125249712,0.5248402013155913,0.7056872653411521,1.00934505,0.1701815277338028,0.05905640704962846,-0.19275471313999726,-0.11154768188462486,6.655276497682523,6.861109526212779,-0.42159041012934684,0.08702177068189437,0.28117730262853674,0.23902962088589239,-0.021814579132744427,-0.027181715584490007,-0.017235101947512987,-26.590843290909397,-28.514484110105734,-4.085997951409809,-0.02448774718783713,-0.02107425983815965
15468,1724557936975018106,0.4654285907745361,-1.1748613119125366,0.169963464140892,-0.0270545333623886,-0.1427368521690368,-0.1118328049778938,-0.9830502271652222,0.0,0.0,0.0,-0.5173271868580047,-0.026419935716170517,0.7266495555409375,1.019238188,0.169963464140892,0.1649786185446269,-0.30469665333066603,0.020379966273216997,-1.9400870272437778,-1.7255968199094323,3.207357385114529,0.0886356831543885,0.2781568607892749,0.23896351213370565,-0.023209785446084652,-0.02806535127562171,-0.013560083020039748,-45.8858461407406,-43.831150934862904,-26.697529873529987,-0.018990828728938088,-0.01796681550257772
15470,1724557936986123783,0.4651231467723846,-1.175143122673035,0.1699186116456985,-0.027048010379076,-0.1416231989860534,-0.1114297658205032,-0.9832572340965272,0.0,0.0,0.0,-0.6022943080971113,-0.3649600333142329,0.0709062556099549,1.030343865,0.1699186116456985,-0.014231877040054984,-0.20430975708659077,-0.0702630922758994,-11.844849507689208,8.474839824123393,-9.722386118626916,0.08819961690644759,0.2759656362967152,0.23794712716821068,-0.03364631574730481,-0.02757462263102184,-0.0010622037572929344,35.44603033883341,-24.416456119957676,-86.17036440155367,-0.030371554748919505,-0.021500218936206156
15472,1724557936995279171,0.4647687375545501,-1.1754121780395508,0.1699313521385193,-0.0265975482761859,-0.1410087049007415,-0.110702097415924,-0.9834400415420532,0.0,0.0,0.0,0.047505054823038906,-0.5427104540523198,-0.9227422280201772,1.039499253,0.1699313521385193,-0.09028189822294724,-0.13097918424644647,-0.17105347262334833,1.489079855366073,-2.1735946443300023,2.8654033886364356,0.08690251559279764,0.274908012220158,0.2362170070763244,-0.0366135957840541,-0.03400405002847151,-0.008371613448866277,41.25125291186711,-18.790522305494104,-64.3526829462777,-0.04321926255632414,-0.02964975575977227
15474,1724557937005429132,0.4644207060337066,-1.1758092641830444,0.1697365194559097,-0.02693298086524,-0.1396906375885009,-0.1107114031910896,-0.983617901802063,0.0,0.0,0.0,0.13174019612589838,-0.7264083058040687,-1.078793306789281,1.049649214,0.1697365194559097,0.03505869257178358,-0.26762774705599846,0.014151471521520286,17.142707684784362,-7.1698134430739735,11.935101205898661,0.08723222334259274,0.27218937068685606,0.23612026676248962,-0.031949883753551234,-0.03771723990628573,-0.019136891402016687,-9.19717283172045,-5.035485372389267,38.09189753066754,-0.035764642392345405,-0.029273451603966116
15476,1724557937016415816,0.4640974998474121,-1.1762069463729858,0.1695269644260406,-0.0286671090871095,-0.1383831202983856,-0.1108351871371269,-0.983739733695984,0.0,0.0,0.0,-0.1773781472286151,-0.6263826435396176,-0.02444619001605708,1.060635898,0.1695269644260406,0.28041031029068214,-0.27155966013402744,0.0702167715895655,8.514557280877284,-10.949148994696102,12.394073343024768,0.09045276592504838,0.26914913262333773,0.23664297425720096,-0.034400112489539225,-0.049986159056217616,-0.031205345657557615,-4.217964503330418,65.13045885717341,143.40515851234105,-0.03067711700280533,-0.02527671635359392
15478,1724557937025139140,0.4637629091739654,-1.1767385005950928,0.1691707223653793,-0.0301292948424816,-0.1365895271301269,-0.1116053387522697,-0.983859658241272,0.0,0.0,0.0,-0.048512716044241566,0.3298221833675483,1.5550989752142619,1.069359222,0.1691707223653793,0.25898456082192167,-0.44043027862773515,0.22883383528191426,-14.294636813846473,-3.237962883160213,-4.235999694376937,0.09315961526954751,0.26514030269353533,0.23833869766995586,-0.035631326803493124,-0.05205418720459676,-0.023979709617357514,5.225422453399802,59.52101312682407,95.49097738750902,-0.03915113963293878,-0.034339573805677516
15480,1724557937035475142,0.4634279906749725,-1.1771677732467651,0.1691293269395828,-0.0300539378076791,-0.1351780891418457,-0.1111308485269546,-0.9841105341911316,0.0,0.0,0.0,-0.11142421280210035,0.33154296783492265,1.4940053353086156,1.079695224,0.1691293269395828,-0.033748654707179936,-0.2764724179892077,-0.08951202539144941,-30.56209675237386,7.134740779678422,-19.81552116327785,0.09249047331064424,0.26238071864210216,0.2371100961258433,-0.034998358972842425,-0.0417025350459852,0.0009946193723076036,-3.835979362572149,-10.547814037219696,-38.13191943980355,-0.038801423259144506,-0.022764050491350735
15482,1724557937046107094,0.4630275070667267,-1.1776130199432373,0.1691945791244506,-0.0280947051942348,-0.1334310919046402,-0.1104164943099021,-0.984487235546112,0.0,0.0,0.0,-0.12759411846203061,0.10222351845529509,0.7362058995687768,1.090327176,0.1691945791244506,-0.3831851498632275,-0.29606945706645793,-0.180062480703084,-10.135711571146146,-0.7150676198052324,-2.1590274123606754,0.08783175408918129,0.25941811016705757,0.23484335003772977,-0.03807132714262451,-0.04550464272185195,0.00679283597116509,13.96711312132616,0.6732515918695103,-54.206507719782,-0.046401121882068436,-0.024967038182332296
15484,1724557937055428992,0.462669312953949,-1.1780668497085571,0.1692632585763931,-0.0268141720443964,-0.1319531798362732,-0.1098792105913162,-0.9847822785377502,0.0,0.0,0.0,0.12919337488017968,0.29029049830692544,0.37040913318609786,1.099649074,0.1692632585763931,-0.2918833059175577,-0.29351454425408596,-0.14822475168924376,12.495951419613128,9.559032232431157,-3.5408591508825236,0.08468519645222544,0.25681124175576775,0.23317582070217427,-0.0379412763435667,-0.04079337161419261,0.015215525786830497,25.928707729147952,-16.2921751677419,-71.85760300705827,-0.048910904328789015,-0.024009467448598328
15486,1724557937065389540,0.4622965455055237,-1.1783891916275024,0.1694983392953872,-0.0260192640125751,-0.131423607468605,-0.1086938604712486,-0.985005795955658,0.0,0.0,0.0,0.37023733726666497,-0.26010426305733914,-0.6924732994095701,1.109609622,0.1694983392953872,-0.1386636665877743,-0.09948200278694452,-0.25752846277892866,14.17547226183562,1.3376788419767305,6.170066141568543,0.08261208107065972,0.25603805643458044,0.2304476052866819,-0.03542792156612151,-0.040191300924789175,0.013230937752746641,3.1264493641011564,-53.46663572560822,-61.03074827919457,-0.04837520786258711,-0.02229505648666114
15488,1724557937075163090,0.4619694352149963,-1.1788570880889893,0.1695282012224197,-0.0260801818221807,-0.1301680505275726,-0.1085102185606956,-0.9851911664009094,0.0,0.0,0.0,0.19869842594412557,-0.7654888115908292,-0.8509008424260643,1.119383172,0.1695282012224197,-0.01169590488853529,-0.26039515548684294,-0.03281556236121227,5.05230981930511,-8.110512255113777,12.487806412258754,0.08235991715595586,0.25352816435238307,0.2299006398822886,-0.030678659023976707,-0.04580753563427464,0.0017329237307439627,-30.562832317545094,-24.653863832746328,34.34306123243831,-0.04287372052128028,-0.020834978906130546
15490,1724557937085910578,0.461672693490982,-1.179324984550476,0.1695311963558197,-0.0259381830692291,-0.1288238763809204,-0.1083906516432762,-0.98538476228714,0.0,0.0,0.0,-0.2835512853501285,-0.7107004513802977,0.11565904481338088,1.13013066,0.1695311963558197,-0.051218995703846075,-0.2488355429129344,-0.02274592862377013,-5.003019953966408,-8.878901361353066,4.748367577060045,0.08169019546223504,0.2508828390778683,0.22942277438365094,-0.03193779216788073,-0.0562902062055457,-0.003564722262938247,-45.89554100104121,-10.541704291492692,59.39980806806633,-0.03570501307499208,-0.016964043227377316
15492,1724557937095211393,0.4613408148288727,-1.1799511909484863,0.1694671064615249,-0.02567994967103,-0.1268768310546875,-0.1086444705724716,-0.985616147518158,0.0,0.0,0.0,-0.7186642374905337,-0.9346271295275712,0.4223633743989748,1.139431475,0.1694671064615249,-0.10842069608477706,-0.4115387845453428,0.05209554216214762,-8.444624471211188,-3.2331015130809266,1.0616158094664636,0.08072562878339852,0.24702848950976808,0.22960069046282575,-0.03591434430836671,-0.06077008817877072,0.0024093718632913763,-15.09077427332502,-13.06350675527559,4.596248150347086,-0.04686455778826387,-0.021472927714745384
15494,1724557937107406170,0.460899144411087,-1.1805874109268188,0.1696451902389526,-0.0243005789816379,-0.1253796368837356,-0.108520932495594,-0.985856294631958,0.0,0.0,0.0,-0.3959717108500711,-0.9178522898672563,0.024642958418599425,1.151626252,0.1696451902389526,-0.24808731459584407,-0.22295435315801473,-0.04664523023327284,14.690664300900622,-1.8233715166643378,10.674533995991716,0.07750417678171277,0.2443630694172942,0.22879455156823322,-0.0493329974762986,-0.0794101509820706,0.004043077892367464,97.76577281939637,135.09671097484824,7.17359584815852,-0.04924049154545625,-0.019693764636598055
15496,1724557937115158277,0.4604520797729492,-1.1813372373580933,0.1696244925260543,-0.024478105828166,-0.1241336464881897,-0.1089845448732376,-0.9859585165977478,0.0,0.0,0.0,0.7133022196623684,0.7884019681308887,0.2763244190128208,1.159378359,0.1696244925260543,-0.0053692976648536984,-0.32228227943205584,0.12860980822177387,29.96085995783387,-6.119837218476668,7.823848053037507,0.0776610430521472,0.24179498686051518,0.22961919598791294,-0.04893142400955597,-0.0835160633019214,0.003695366754706164,16.716795851876526,32.00984789691997,86.31637115894927,-0.07525845180067313,-0.0349912972317636
15498,1724557937125029998,0.4600788950920105,-1.1819956302642822,0.1697409898042678,-0.0259816069155931,-0.1228251159191131,-0.1088780462741851,-0.9860955476760864,0.0,0.0,0.0,-0.7103381822239885,-1.2600912880751416,1.8053600623865824,1.16925008,0.1697409898042678,0.27343679821342715,-0.2985563088652418,0.020002176273573653,23.6575354988222,2.615896899558515,-9.534162949438658,0.08035155211279112,0.2388412679931565,0.22958230724998263,-0.03357425585472962,-0.05916407989115724,0.010460659501301983,2.165528033290869,179.12470669418758,757.3969376032742,-0.05330534091904339,-0.018945522473653456
15500,1724557937186829775,0.4596402049064636,-1.1827384233474731,0.1698688566684723,-0.0249860472977161,-0.1210297644138336,-0.1089385896921157,-0.986336588859558,0.0,0.0,0.0,56.05541213611059,159.3931046295147,281.71252208598025,1.231049857,0.1698688566684723,-0.03854027371360131,-0.05469360951710032,-0.0013649274705369824,-19799.64770902436,-12214.264382849162,-11621.197121515635,0.07788487798899722,0.23547847275284073,0.22922097792847188,-0.954156753126199,-1.578929167717888,0.5553570693749634,-489541.0934306634,-1657660.7464604934,-766122.5054521204,-0.009860505259725426,-0.0037066028363023
15502,1724557937187296938,0.4591911137104034,-1.1834815740585327,0.1701302528381347,-0.0228229388594627,-0.1194859147071838,-0.1079082712531089,-0.9866904616355896,0.0,0.0,0.0,-174.37209504495422,-620.8677472377879,-78.91306472272743,1.23151702,0.1701302528381347,-9.35810623715291,-5.803893693285644,-5.471396401737419,-4188.443890908581,-3538.8563211131277,-7586.380559321035,0.07285625039919029,0.23296728046670567,0.2263907668620169,-0.9277191783021408,-1.5038168780670276,0.6879264459155934,-928716.7818299785,-3535972.977727521,-1727950.7595759025,-1.3880797221677197,-0.44671878504451923
15504,1724557937187749479,0.4587860107421875,-1.184123992919922,0.1704978495836258,-0.0217480566352605,-0.1186210438609123,-0.1064225807785987,-0.986980438232422,0.0,0.0,0.0,-785.5535935380176,-3038.9469368263135,-1279.9708876684572,1.231969561,0.1704978495836258,-4.344365653948924,-3.5617858878130564,-7.09726581558585,8320.212443131739,-7526.536211179931,9184.362382166712,0.07010521016219873,0.23158893846268747,0.22298047061371074,-1.1078788629907876,-2.127442829991651,0.4932208813058878,-809041.9383782219,-783051.5450004474,1651851.1376402525,-1.3416881414636432,-0.3648506975569801
15506,1724557937188066562,0.4583874642848968,-1.1849558353424072,0.1705833524465561,-0.0215069744735956,-0.1172217577695846,-0.1062253415584564,-0.987174153327942,0.0,0.0,0.0,-921.7783754753732,-2274.0745962489636,200.4465119879236,1.232286644,0.1705833524465561,-2.319110260352952,-8.721247562184898,-1.3463514401186445,1586.2927506545293,-34731.75822641319,38866.29760309399,0.06922492985312248,0.22886001190171654,0.2223453596895933,-1.4430440992206286,-3.460044000572907,-0.10141983284364642,857529.9793917624,7451852.105333827,6668170.6900199205,-1.818610058333386,-0.5933956775651982
15508,1724557937188340039,0.4579489231109619,-1.186099410057068,0.1704680919647216,-0.0216545369476079,-0.1140883490443229,-0.1081196218729019,-0.9873323440551758,0.0,0.0,0.0,-383.6667256293772,952.5236982571078,2495.6099006780537,1.232560121,0.1704680919647216,-3.0176623543291488,-22.573731146205013,14.17207571826127,10430.7252507874,5743.426571215621,-10265.036484881284,0.06918923634469586,0.22243334875244647,0.22587437091457185,-1.6632285301975571,-3.627053111870282,0.44301057183315606,1766639.1659710505,8549966.223740919,4823313.072506247,-2.344799594445952,-0.7491509649284929
15510,1724557937188603392,0.457495778799057,-1.1869139671325684,0.1708039939403534,-0.0220606736838817,-0.1132683530449867,-0.1073365435004234,-0.9875032305717468,0.0,0.0,0.0,30.601595809114173,2380.361118351177,2860.677441081163,1.232823474,0.1708039939403534,3.0223610799803,-6.758785983787989,-5.525228018975645,22037.605909530128,57790.87395910964,-71901.20091007798,0.06963034272889411,0.22075862066520857,0.22425988198032362,-1.6573837296409124,-2.9797667433101624,1.2282656822129994,1513536.7684950507,5202035.76653449,1315973.194604626,-2.5873138752234053,-0.7052662221335588
15512,1724557937195220795,0.4570518136024475,-1.187800049781799,0.1710808724164962,-0.0208542477339506,-0.1119922325015068,-0.1065922901034355,-0.987755537033081,0.0,0.0,0.0,149.93660929376452,268.4289899414843,-113.03298808701057,1.239440877,0.1710808724164962,-0.3776676696935066,-0.35532871021986234,-0.263103860798684,-302.2637834128089,595.3148111191218,500.18202777445515,0.0667076138636709,0.21853130391757222,0.2223159756585308,-0.05684033230557617,-0.11536694801507963,0.025266734731324902,5734.748215275369,-206482.9309723125,-273139.5645550313,-0.10177576098650283,-0.026869243477537455
15514,1724557937205867029,0.4566222429275512,-1.1887108087539673,0.1710659861564636,-0.0212286338210105,-0.1099290922284126,-0.1065790802240371,-0.9879807233810424,0.0,0.0,0.0,0.33794052201512015,-0.11609113111464975,-2.356909757087646,1.250087111,0.1710659861564636,0.027553479656005655,-0.3951217872464351,0.008998921501029987,31.24910195963757,-1.9408477925393899,21.036196870691086,0.06696020325525918,0.21432773344678516,0.22212620614817893,-0.03518679968644389,-0.07394504536285007,-0.000389817123007119,-13113.56180930465,-24775.08557788226,8339.034818164475,-0.056575530083900843,-0.02115102088926696
15516,1724557937257694408,0.4561011791229248,-1.1896158456802368,0.1713002175092697,-0.019385702908039,-0.1086690574884414,-0.105691023170948,-0.9882533550262452,0.0,0.0,0.0,-442.5851955039665,-1170.7753232370262,-89.09372814071531,1.30191449,0.1713002175092697,-0.07190168161296535,-0.04234420341893569,-0.041764912939407366,-736.0126884788722,-6354.557242957078,1347.8728027596017,0.06273506132488152,0.21227802075196647,0.21977058663406002,-0.44557168948148274,-1.0909015516338059,-0.10916811002473992,-280255.99349656777,701629.0806987237,1019254.9264500383,-0.014265437266316936,-0.005028206392747793
15518,1724557937258737760,0.4556271433830261,-1.1907765865325928,0.1711839288473129,-0.0193988773971796,-0.1050982773303985,-0.1063880696892738,-0.9885644912719728,0.0,0.0,0.0,-740.6978468689658,-423.5177544496778,995.7915422574596,1.302957842,0.1711839288473129,-0.8552409126041981,-6.805998440296012,1.392872194235044,2118.829118680496,-13670.01213449385,2218.015524661944,0.06205613534768761,0.20510017047228754,0.22080059367443303,-0.9164735912466995,-2.33661117625752,-0.20395147161917748,548337.4889058298,2247746.638817612,710805.5531040677,-0.6498628376158169,-0.22816491606720665
15520,1724557937259138049,0.4551893174648285,-1.1918998956680298,0.1710880845785141,-0.0198202300816774,-0.1024501025676727,-0.1068034619092941,-0.9887892603874208,0.0,0.0,0.0,-393.1143014072743,711.4342681594005,1229.7931800201334,1.303358131,0.1710880845785141,0.43360085206733595,-13.381747387307291,2.410180170737843,-780.9461796629259,9633.860690263398,-11448.29402991791,0.062358955669267496,0.19969396203173292,0.22144359706708716,-1.2574051826370578,-2.3878227230736684,0.36153158114859707,1238185.484458176,2114053.415633175,-602529.6252512494,-1.6024735178800706,-0.5140684834486458
15522,1724557937259553874,0.4545957744121551,-1.1927120685577393,0.1714980155229568,-0.0192667264491319,-0.1028354316949844,-0.1051200106739997,-0.9889405965805054,0.0,0.0,0.0,281.5177802959673,1278.9443631003967,466.45694804105057,1.303773956,0.1714980155229568,-1.6193048956562635,1.8818233998293903,-8.393365223665366,-2457.7578978814263,21689.183638676313,-13192.117685379342,0.06098854868193002,0.20069010202088805,0.21793828435913568,-1.2227735509413833,-1.72941265759232,0.7939068022267719,1172046.3818036872,564665.3487623606,-1638412.7217209793,-1.9760019422375996,-0.7627932042366554
15524,1724557937260278711,0.4539679884910583,-1.1936829090118408,0.1718309819698333,-0.019155815243721,-0.1023461669683456,-0.1044763550162315,-0.989061713218689,0.0,0.0,0.0,562.0525808456157,677.3004177945814,-471.83660438073707,1.304498793,0.1718309819698333,-0.26836108156726685,-1.3714834723114997,-1.7969503889098128,1643.0197441211742,-3861.887044164484,7934.56894863992,0.06051792340981618,0.199776918343828,0.21655010012651563,-0.7682538167104642,-1.1870396147344096,0.4076005015085711,322192.25039579096,-734219.3307771236,-1109834.055195601,-1.2022759851463505,-0.4626587253516008
15526,1724557937264984608,0.4533422887325287,-1.194614291191101,0.1721675097942352,-0.0209080688655376,-0.1015817299485206,-0.1040960773825645,-0.9891451597213744,0.0,0.0,0.0,97.26324352872824,149.69574399613026,-52.959444079125696,1.30920469,0.1721675097942352,0.7184784741859916,-0.40586073929620337,-0.0811137082797546,109.27055274062947,138.15313281561743,249.43302075805863,0.06379834481944345,0.1978943932195284,0.21604045659469573,-0.10956625409851029,-0.16798927122321317,0.054529662822683456,-70409.59096114022,-81168.5433411336,62349.4581880619,-0.18299330775496653,-0.07273605067477032
15528,1724557937275122199,0.4527424573898315,-1.1956636905670166,0.1723494380712509,-0.0192801915109157,-0.0990412384271621,-0.1038945689797401,-0.9894570112228394,0.0,0.0,0.0,2.7783495419998983,2.6872175832530605,-3.142605735826346,1.319342281,0.1723494380712509,-0.36709171803276974,-0.4694114826999873,-0.06787202314059582,-45.05931861509261,-11.681992343528194,16.179835148172497,0.05988263060462383,0.19318730883561058,0.21504056830941487,-0.05622668897612826,-0.11039212667746057,-0.00041743758117274155,-4903.940093770767,-7531.567329610763,2674.6814389434167,-0.08185425850860176,-0.032254364499190544
15530,1724557937285774421,0.4521764516830444,-1.196916580200195,0.1721394509077072,-0.0189796723425388,-0.0954792201519012,-0.1053351461887359,-0.9896605014801024,0.0,0.0,0.0,-0.02783650858948894,0.4716621612521896,0.2832605044166421,1.329994503,0.1721394509077072,-0.15283666328454232,-0.6544401665124138,0.27095948450643687,13.979954250710362,-0.6220668228878914,5.832484422888884,0.058728247012462965,0.1860571816112067,0.21755361850676405,-0.05442563710176884,-0.11528269091991916,-0.008400849053591841,-132.7738889906551,-44.04131790771274,198.51981824641817,-0.07228910435791247,-0.030695278982292972
15532,1724557937295637153,0.4516278803348541,-1.198032259941101,0.1721598953008651,-0.0189399309456348,-0.09295604377985,-0.1057661771774292,-0.9898555874824524,0.0,0.0,0.0,-0.14416914017005622,1.5344334598475768,1.1171744826958496,1.339857235,0.1721598953008651,-0.070967519722621,-0.5076377742528858,0.0912768419676386,3.0309147486243715,13.755713758048913,-22.831294905939984,0.05814086636075357,0.18100648903494138,0.218170325132761,-0.05649835232034661,-0.10213121063052455,0.003823421689768125,-29.469652461870268,19.79503477776955,49.46114266724916,-0.07787244912663407,-0.029737600036807088
15534,1724557937305784236,0.451045423746109,-1.1989538669586182,0.1722169667482376,-0.0185765400528907,-0.0910152345895767,-0.1048274040222168,-0.990142583847046,0.0,0.0,0.0,-0.627715211045385,0.8170122961662019,1.252724885046807,1.350004318,0.1722169667482376,-0.09522885091622674,-0.37984210852475236,-0.18855171463663134,25.214903824401258,9.205986081239793,-9.862468763515203,0.056788599438526356,0.17726841700938584,0.2160041770603938,-0.057272366930043006,-0.0844630150716199,0.013883070318582824,-38.80207023444861,-75.75465800541198,-9.306701902133653,-0.07534193865065147,-0.035606177109958746
15536,1724557937315919743,0.4504662454128265,-1.199745535850525,0.1724412888288498,-0.0209034699946641,-0.0896489024162292,-0.1040461361408233,-0.9903032779693604,0.0,0.0,0.0,-0.9313804379726021,-0.001950301446314917,0.9289349105520561,1.360139825,0.1724412888288498,0.4398172699041921,-0.3208381309350694,-0.10916946682109728,-21.84239123804183,7.616010485731488,-3.96072849187442,0.0610163349705719,0.17408734873675702,0.2146879341560768,-0.06921728302593522,-0.08553870039784783,0.029225879786903164,35.63889741523276,-39.314855473397216,-123.09899674575408,-0.07521018482834181,-0.03515827850294257
15538,1724557937325054745,0.4497345387935638,-1.2005881071090698,0.1727666705846786,-0.0192240551114082,-0.0884242877364158,-0.1030798628926277,-0.9905483722686768,0.0,0.0,0.0,-0.06572186219958853,-0.0195225418185494,-0.9460601000657188,1.369274827,0.1727666705846786,-0.37417495362376935,-0.2364912894077025,-0.2424441033963843,-38.895193369601536,4.234846934771149,-2.496111739846244,0.057189413952453944,0.1720615725832408,0.21231397519166076,-0.07569066605245567,-0.08469877466602327,0.03289661664641397,80.37634907247237,4.697532767659802,-170.47247765281384,-0.10239207726126676,-0.052241700905976206
15540,1724557937335365379,0.4490054249763489,-1.2013736963272097,0.1730741709470749,-0.0183246359229087,-0.0870536118745803,-0.1024910360574722,-0.9907479286193848,0.0,0.0,0.0,0.5955857418136312,0.10596604957264244,-2.2989680990950703,1.379585461,0.1730741709470749,-0.1908664359240664,-0.25099795122594987,-0.12744361931448,17.9227021965856,-15.826541581526564,25.84117944018269,0.05497014330260184,0.16955134999579471,0.2108354535835022,-0.06888635598946635,-0.08619728529586723,0.007455955243070633,-12.755215879191669,52.750935755060674,26.263968829042277,-0.08890635929838163,-0.047670383769244526
15542,1724557937345466023,0.4483277201652527,-1.2023433446884155,0.1729281544685363,-0.0186916049569845,-0.0842533484101295,-0.1038385182619094,-0.990842878818512,0.0,0.0,0.0,-0.2941071904519803,1.040322174577954,-0.475443378938754,1.389686105,0.1729281544685363,-0.008409605167786773,-0.5535369626867225,0.27890171101009936,14.282901677017502,-9.852376165624875,15.000763191873592,0.0553066014576151,0.16381351336037864,0.21337534642836448,-0.06350725124599776,-0.08264033942779037,-0.014098286216716716,-100.08187310110034,43.484757121839685,147.6097135702145,-0.08239472295932486,-0.04771371674095197
15544,1724557937357392867,0.4476208090782165,-1.2031408548355105,0.1727650463581085,-0.019625537097454,-0.0820165202021598,-0.1043460518121719,-0.9909591674804688,0.0,0.0,0.0,-1.6567537855516212,0.8686006505418202,0.821373632951341,1.401612949,0.1727650463581085,0.10869196598723896,-0.3879709541197578,0.1025095290813268,-15.367172345897865,14.24287898252782,-34.69927339659819,0.056759581900856,0.15912502904110304,0.21434956875191488,-0.07865702768495098,-0.06054090359876341,0.003588252281970128,33.25128930147598,-48.67050062027229,-60.992715711924355,-0.06905921057729253,-0.04584835332344303
15546,1724557937366082264,0.4468145966529846,-1.2036268711090088,0.1729055196046829,-0.0188350044190883,-0.0808328464627265,-0.1029897108674049,-0.9912136793136596,0.0,0.0,0.0,-0.434026926993095,0.22871280201390976,-0.783090828245253,1.410302346,0.1729055196046829,-0.18428202856643128,-0.2619230020260944,-0.32504955289303256,-27.578370028875817,2.760642072248615,-19.335914023873244,0.05468856314744758,0.1570099328838569,0.21136552827168018,-0.09550022760831567,-0.05922471943526375,0.006537431951610273,175.86183367075884,-8.524018524584598,-122.28393830235984,-0.10371824107971755,-0.07569790146385551
15548,1724557937375041126,0.4459339082241058,-1.2041878700256348,0.1728751510381698,-0.0172503814101219,-0.0791436731815338,-0.1021084561944007,-0.9914699196815492,0.0,0.0,0.0,1.4661368878726941,0.7538036909624202,-1.302594948546139,1.419261208,0.1728751510381698,-0.37465906622106276,-0.34567847378330124,-0.22238891734498548,5.4329875888522885,-6.249924037416518,13.60400183915825,0.05099445667780451,0.1540225794789224,0.20918606378325136,-0.08549354511118779,-0.05646224697888158,-0.010846261245286648,17.598098739243184,-21.9571674054363,-52.51481277268819,-0.10735206731009869,-0.08305829924125566
15550,1724557937385919004,0.4451731145381927,-1.2047207355499268,0.1726586818695068,-0.0176363345235586,-0.0771583244204521,-0.1018089279532432,-0.991650402545929,0.0,0.0,0.0,-0.9113892000676702,-0.5491887441970333,-1.8015585675873194,1.430139086,0.1726586818695068,0.03686975940650839,-0.37273330451074466,-0.04607668837987372,20.80978474959382,-2.3984264068529804,13.17597497783203,0.05128708826958255,0.14999895005764716,0.20846998082113682,-0.06493316313151531,-0.04237894175032153,-0.016591752743054577,-154.3279729515132,-30.93648419581806,27.020117923144685,-0.07470762442877922,-0.0610157782315049
15552,1724557937400054112,0.4443472325801849,-1.2051984071731567,0.1724849194288253,-0.0181024521589279,-0.0743221789598465,-0.1023400053381919,-0.9918039441108704,0.0,0.0,0.0,-1.912942692279124,0.6454370225505617,-0.08081246128834607,1.444274194,0.1724849194288253,0.01836503270030863,-0.4050058161432313,0.08446985566337525,120.60021023893678,-82.67698557273675,130.77472956961464,0.051679718677495996,0.14422028205401158,0.20937759037604414,-0.12927275517861148,-0.0840092461790789,-0.0654459520734072,256.71411001247435,368.7892714383256,302.3705346205704,-0.06174263455460446,-0.0516470068756319
15554,1724557937405319654,0.4435275793075561,-1.2057392597198486,0.1720360517501831,-0.0208996310830116,-0.0719076618552208,-0.1047579422593116,-0.991674542427063,0.0,0.0,0.0,0.08132259514698692,3.144915159488974,1.8656466323033551,1.449539736,0.1720360517501831,0.8925149749593726,-0.9980370077663363,1.0114679388907202,99.95859189897365,-54.96776925055107,99.30777309703495,0.05709596594635781,0.13868331412175974,0.2144607601635513,-0.13416941415453465,-0.07356771436393572,-0.059250609428468604,279.8953597762023,313.94669877818694,212.2784820867142,-0.16050296003402983,-0.14213555418184629
15556,1724557937418167147,0.4424776136875152,-1.20577073097229,0.1720897108316421,-0.0214516222476959,-0.0726518929004669,-0.1039690896868705,-0.9916914701461792,0.0,0.0,0.0,0.5788458934587322,2.1396803707540575,-0.3405126144800086,1.462387229,0.1720897108316421,0.10612661310275467,0.10313382731583753,-0.11829857966977361,-42.97830542141166,17.80940298738425,-46.239090490276645,0.05825726022140468,0.1400937165759573,0.213005689388123,-0.1014246168318067,0.0032591499975609395,-0.013681736241766274,21.756230956289404,-226.60814052595506,-232.38766892811302,-0.08019173349215603,-0.07797779331596986
15558,1724557937426791131,0.4414888918399811,-1.2057095766067505,0.1718683391809463,-0.0207465458661317,-0.0720229670405387,-0.1028273180127143,-0.991871416568756,0.0,0.0,0.0,0.668238584936165,-0.673454648891133,-2.6958259121658736,1.471011213,0.1718683391809463,-0.1589788088267272,-0.13635474369205386,-0.2756794886572168,-23.676589296418307,-33.70746091668731,9.552540004096828,0.0565433000906407,0.13905613393522015,0.21054073292767425,-0.10783616213174696,-0.0005190657221447736,-0.039122274624009634,58.42785440344245,-100.3217202990035,-18.520370765731286,-0.10600838765036717,-0.1162363594468155
15560,1724557937435712345,0.4405897259712219,-1.2057844400405884,0.1713951677083969,-0.0196438375860452,-0.069700539112091,-0.1031719520688057,-0.9920239448547364,0.0,0.0,0.0,1.6330376193833378,0.5161048647613387,-0.5115035788289224,1.479932427,0.1713951677083969,-0.30501226880903626,-0.49186061846263057,0.06611446161275598,17.659494939047796,-14.710606132704122,34.36536855594315,0.0538699658485411,0.13464226407368513,0.21089078683233725,-0.08884658144209112,-0.008699061713201672,-0.06082685054478176,-13.532950093097018,163.08975595753827,257.7426584453434,-0.09228563126286282,-0.10351955206350134
15562,1724557937445628020,0.4398403763771057,-1.2058740854263306,0.1707061976194381,-0.0211594067513942,-0.06801638007164,-0.104838877916336,-0.9919350147247314,0.0,0.0,0.0,0.15782008437552086,2.461115667172109,2.1863243194650988,1.489848102,0.1707061976194381,0.24512385190310107,-0.36067076134177134,0.36336906659483453,24.322447532985315,21.235695560610047,-5.489821531356995,0.05675457794701984,0.13087226811056935,0.2143208416810562,-0.07811535661065605,0.012211765363950633,-0.044722872242298095,-74.72313442404773,61.86925793257564,94.01215262266828,-0.06605066733259718,-0.08104139325037488
15564,1724557937456180290,0.438987523317337,-1.2055065631866455,0.170512318611145,-0.0219467412680387,-0.0678663626313209,-0.1042931303381919,-0.9919856786727904,0.0,0.0,0.0,0.2009189260001456,1.6059817086664099,1.1787440001298297,1.500400372,0.170512318611145,0.15187343971746967,-0.046690331554888574,-0.09285807881347624,-14.624800661859563,13.98079834441102,-26.418092940636846,0.058224919880019724,0.130436685445141,0.2133056211116373,-0.08683108305551812,0.042137795953735235,-0.015338478951955281,65.08470841518366,-105.1874170611753,-155.32706006109797,-0.06861897702623965,-0.0879798413934299
15566,1724557937465009773,0.4381764531135559,-1.205080509185791,0.1703993082046508,-0.0218169074505567,-0.067702442407608,-0.1034111455082893,-0.9920920133590698,0.0,0.0,0.0,1.2262518097379003,0.4988155931698868,-0.6348267309483091,1.509229855,0.1703993082046508,-0.020016039071011592,-0.03978465791544285,-0.20187368423865198,-0.05378415548846327,2.5475992523006976,1.9305519010164955,0.05781230602975561,0.13018933938408683,0.21149039436443784,-0.07747054884599436,0.04723060073925467,-0.016795161631994127,66.06480806030433,-91.94340644650504,-116.46740214657781,-0.07734739474167314,-0.1005881177892026
15568,1724557937476024204,0.4375208616256714,-1.2045743465423584,0.1701594144105911,-0.0231603756546974,-0.0679091662168502,-0.1034058034420013,-0.9920479655265808,0.0,0.0,0.0,1.2660734050278304,-0.05427231351935813,-0.6957169207056999,1.520244286,0.1701594144105911,0.24613968345117915,0.012533566673151432,0.015561624566700433,-3.0244909758616876,-5.7385203902701685,12.35943065040825,0.06054687601629831,0.13031700468527233,0.21167118433080911,-0.061681767203062066,0.05165332349348262,-0.03024315098274144,-202.32949849084693,219.75681878734855,-228.17833770414418,-0.0452960932733024,-0.07002197704349103
15570,1724557937485812298,0.4368983209133148,-1.2040191888809204,0.1697897762060165,-0.023155752569437,-0.0672360509634018,-0.1037482991814613,-0.9920582175254822,0.0,0.0,0.0,-2.505716505780248,4.445021573146605,-4.865824634966956,1.53003238,0.1697897762060165,-0.01996024683952901,-0.13486761337071096,0.07233026932780422,-18.099880488969116,-9.083668461285509,3.197720689747855,0.06043323437453424,0.12895653676642166,0.21230338851725808,-0.05074532784104768,0.04715731981135107,-0.03248432398076373,-46.43743963100951,21.07159501129877,5.877548322657077,-0.04494930264888439,-0.07837557693199658
15572,1724557937506019049,0.4364092350006103,-1.2034651041030884,0.1693536192178726,-0.0231806952506303,-0.0665293261408805,-0.104021281003952,-0.9920766353607178,0.0,0.0,0.0,10.693533727104722,-13.425435024495357,13.270439410864725,1.550239131,0.1693536192178726,-0.006666841695195787,-0.06914690752939914,0.028400887769195034,377.50501653841155,-796.7780226221478,714.1772074744856,0.06036150444485499,0.12752719425720757,0.2127959132200421,-0.2525136164243804,0.3415631786921267,-0.32423440937449755,2170.091414449257,-2929.629480967368,2863.166212447769,-0.014976778076857735,-0.03199430830625144
15574,1724557937507547793,0.435996800661087,-1.202906608581543,0.1688229441642761,-0.0238171815872192,-0.065510481595993,-0.1048777922987937,-0.9920392632484436,0.0,0.0,0.0,14.186486370928398,-18.14063648591199,17.874827186272732,1.551767875,0.1688229441642761,0.6140268100097723,-1.3797458873045214,1.203046253004613,326.6112207768076,-700.2281415599344,626.0045067118668,0.0615171938332822,0.12530984305062054,0.21451695882552593,-0.2337742953603108,0.31780128630826354,-0.300742592818648,1941.6825374757955,-2615.1164700122986,2558.9313728868224,-0.14099064001017214,-0.3832692990797451
15576,1724557937515789256,0.4356701672077179,-1.2023991346359253,0.1684054285287857,-0.0229933131486177,-0.0647085532546043,-0.1050714626908302,-0.9920908212661744,0.0,0.0,0.0,14.941891229254505,-18.844515602997134,18.839937305864453,1.560009338,0.1684054285287857,-0.22212796931669085,-0.17179081084525682,0.03685000993058877,-59.37946164497262,89.55126024725254,-85.11377652157482,0.05971375602106975,0.1238782338244974,0.21473602281716075,-0.03117406201332784,0.05290171119783338,-0.04199432625892019,-426.2130609831075,592.1156407949455,-539.4304514580742,-0.019145677292596395,-0.05782932155479465
15578,1724557937527972073,0.435442715883255,-1.2019108533859253,0.1680498868227005,-0.0219336245208978,-0.0639355033636093,-0.1052236706018447,-0.992148756980896,0.0,0.0,0.0,0.4230233873436229,0.5706701792786513,0.4445802277325295,1.572192155,0.1680498868227005,-0.1877585670847105,-0.10766669798049536,0.015451392133165308,20.543520859519703,1.4613861469780272,4.108483016712748,0.057440084167098726,0.12255776832740645,0.21484798065390945,-0.022767836431590638,0.06280306670282698,-0.03859220518870288,-451.31415620823645,494.57745224774567,-560.8749644141897,-0.006055210595951143,-0.03019695841027833
15580,1724557937535308237,0.4352575838565826,-1.2013497352600098,0.1677252054214477,-0.0221443884074687,-0.0635317265987396,-0.1054650545120239,-0.9921444654464722,0.0,0.0,0.0,0.3830863117017817,-0.6563499119924505,0.5225498327877587,1.579528319,0.1677252054214477,0.041243184279397105,-0.11374204820767453,0.07150110073159804,27.014030851174454,1.4857062019523026,3.847926322616485,0.05780103651898896,0.12169453499747247,0.21532720428519309,-0.02084390378551859,0.06592025822067882,-0.034600347438775714,-7.559510557710901,-111.0724011451299,1.0961205512685872,-0.002876004753908969,-0.04604788866942956
15582,1724557937546920044,0.435096263885498,-1.2007784843444824,0.1675009280443191,-0.0237942095845937,-0.063384860754013,-0.1056232899427414,-0.9920988082885742,0.0,0.0,0.0,0.2564224776545899,-0.9134755007516313,0.36008570814398855,1.591140126,0.1675009280443191,0.2777052383416997,-0.053963334126843905,0.04648301228944284,-18.382278071051275,-9.857590914034564,12.163759210458966,0.0610868696005071,0.12103695864442005,0.2158324839997402,-0.014174743582458404,0.03842602022483277,-0.028929306724103654,-6.214661487517597,60.417687368331954,20.161496195269397,-0.0006803591228909261,-0.02615929863717492
15584,1724557937556875845,0.4349527359008789,-1.2004878520965576,0.1671308428049087,-0.0228671971708536,-0.0618425086140632,-0.1070955023169517,-0.9920600652694702,0.0,0.0,0.0,0.23461436509169398,0.3927700068703528,0.8523365008758522,1.601095927,0.1671308428049087,-0.23604134615288958,-0.28019157240938136,0.28980346321724526,-19.471810468815015,5.218391036177794,-2.3351156480916084,0.05906273824369872,0.11807921765553239,0.21856450584680817,-0.01433561084836299,0.04174555636389243,-0.02643952942536565,21.45316592891014,56.88694963334238,-16.96135833353636,-0.0033107651627343076,-0.02483933977671007
15586,1724557937565760078,0.4348260164260864,-1.2000174522399902,0.166981041431427,-0.022208672016859,-0.0617090761661529,-0.1073868498206138,-0.9920518398284912,0.0,0.0,0.0,0.612656231376156,0.30897764676835915,0.17518917418218183,1.60998016,0.166981041431427,-0.15429944037082932,-0.012308758248794238,0.05678408250198322,9.390612348220433,18.92424293481919,-16.509088120592242,0.057750858969026354,0.11794060167581853,0.21906522767029019,-0.010263117569065727,0.0457054854014487,-0.014092507830389067,26.252782486904472,-10.501313759465408,-73.538054688325,-0.00041524566538283874,-0.027106976987660167
15588,1724557937578372998,0.4347681999206543,-1.199570655822754,0.1668528765439987,-0.0219972543418407,-0.0618423409759998,-0.1075443923473358,-0.9920312166213988,0.0,0.0,0.0,0.6519181442409312,0.15737021257926465,-0.7043340662165654,1.62259308,0.1668528765439987,-0.03245722562125374,0.02532015223620807,0.022595717861492202,4.872883437553016,-42.28371047598293,25.01894539547556,0.05737741931327064,0.11824304448736621,0.21937026513192026,0.0002265385763280392,0.04715391704552019,-0.03363174606697328,-24.376278297785404,-28.572230538230933,108.53039741516879,0.004410805413652676,-0.013199835544151751
15590,1724557937585360782,0.4347884058952331,-1.1991957426071167,0.1665270030498504,-0.0221717096865177,-0.0602686814963817,-0.1085699871182441,-0.9920124411582948,0.0,0.0,0.0,0.3751617937230196,-0.10636592664115296,0.7441701416786595,1.629580864,0.1665270030498504,-0.016939641396915135,-0.4453943151447608,0.30477362747516346,6.457766917853529,-32.22150471142939,13.056228132364938,0.05748721821277641,0.11501360069560276,0.22133110420113133,0.004086158237363691,0.048418246842842905,-0.03528291619478452,-33.628302019874596,-55.95276101506314,125.30519287909536,0.019854719561571022,-0.014412101059532646
15592,1724557937595868388,0.4348502159118652,-1.1987696886062622,0.1663356274366378,-0.022919675335288,-0.0591425970196723,-0.1085591465234756,-0.9920644164085388,0.0,0.0,0.0,0.11625474499636326,-0.982025580874144,0.7654203609966499,1.64008847,0.1663356274366378,0.1178638065041297,-0.22872370088210753,0.010211491452324592,-8.04511114234199,21.061782124851575,-20.519394799787158,0.058721978203954646,0.11260808971191148,0.22129845004625065,0.0052287532724228925,0.04276113705059004,-0.011971746659217075,-27.929724286580146,-21.835830351208354,-29.382606367947112,0.01659281530028785,-0.0051490177279383785
15594,1724557937605520659,0.4348948895931244,-1.1983373165130615,0.1662754118442535,-0.0222027115523815,-0.0589770674705505,-0.1080176681280136,-0.9921497106552124,0.0,0.0,0.0,-0.18249937208203612,-0.647497748623163,0.2033573657181879,1.649740741,0.1662754118442535,-0.1448725344235215,-0.02151577208544695,-0.12122538531708613,-17.264047185981347,-2.3094661818681264,15.508149609520629,0.05719025543694064,0.11246854638270073,0.22011078672229933,0.0064175072478533934,0.029348770150221526,-0.017467560477245847,-29.648976003911617,75.0354034949927,29.909357256777454,0.01490687743934474,-0.005755885371154741
15596,1724557937615905482,0.4349815249443054,-1.1982051134109497,0.1659685522317886,-0.0213921219110488,-0.0572123564779758,-0.1099281907081604,-0.9920610189437866,0.0,0.0,0.0,-0.4758435336554855,0.582867880507675,1.49875230120588,1.660125564,0.1659685522317886,-0.2129172672608075,-0.31115598965864333,0.3652406721071756,3.306646673755772,21.32312120388379,-8.355132951920087,0.0553800519483634,0.1090289848573557,0.22373819302301906,0.0011071829477664608,0.0309156114877851,-0.006721953320711904,13.104362691379334,27.44289105728629,6.221741166345392,0.01410936399854021,0.0018475256696393124
15598,1724557937625371179,0.4349295794963836,-1.1977555751800537,0.16610187292099,-0.0207232199609279,-0.0586616732180118,-0.1090935096144676,-0.9920827150344848,0.0,0.0,0.0,0.004978011102295968,0.05719652883177018,0.5350859405623604,1.669591261,0.16610187292099,-0.09655513721908641,0.3152953108137794,-0.19009968426151636,4.1481434151369925,26.48294222879535,-27.74972562103445,0.05428477386823381,0.11210760919274335,0.2220950023936466,-0.0030906233822456386,0.040160036256487786,0.011468229949611164,47.29055241731573,-50.35680315158298,-113.73659547700365,0.003500360698593068,-0.01378078865574009
15600,1724557937636219274,0.4349258542060852,-1.197411060333252,0.1661937534809112,-0.0198024027049541,-0.0591699630022048,-0.1085799634456634,-0.9921276569366456,0.0,0.0,0.0,0.47440672461236455,-0.42470958493478816,-0.8470630607681415,1.680439356,0.1661937534809112,-0.15281607144581646,0.10904071136907587,-0.10673454265352283,-3.1440889599209454,-17.88833812082071,8.48480730960791,0.05250326053018518,0.11335059747489468,0.2209949247416958,0.0025387262378231412,0.029349838446869114,3.403806447188629e-05,8.911633309236482,-3.0657178094244184,-37.254782967214254,0.005625817028616198,-0.0060699340160148664
15602,1724557937646570599,0.4349806010723114,-1.1971310377120972,0.1661107838153839,-0.0189873240888118,-0.0587443672120571,-0.1085673421621322,-0.99217027425766,0.0,0.0,0.0,0.2272571024969628,-0.047944305382572106,-0.342215140830178,1.690790681,0.1661107838153839,-0.1651905118354676,-0.06501887338714143,-0.011003357338355928,15.172565527280964,-9.840983471780506,8.328895469859255,0.05077646733082645,0.11268434503408348,0.22084548940686466,0.00700974214855421,0.03060134388030633,-0.006689935040171235,-27.188377426143028,24.228713263415703,18.23059296072179,0.011917243793315794,-0.00160725323626121
15604,1724557937655329139,0.435054749250412,-1.1968367099761963,0.1660620123147964,-0.0194355249404907,-0.0583496429026126,-0.1087756976485252,-0.9921620488166808,0.0,0.0,0.0,-0.03541989833304707,0.07408080998506206,-0.40887433028610887,1.699549221,0.1660620123147964,0.08899973298744321,-0.09952672251496174,0.05513274316216943,17.92001938669338,-1.2545502131576178,4.932301714599942,0.05160530052488516,0.11178906566663846,0.22128589823934025,0.0074834071218568,0.028930121825219146,-0.007409437021530962,-21.682901359969712,21.515111980266294,0.21773711841736532,0.01615868460944347,0.0003623251370337576
15606,1724557937668696167,0.4351347386837005,-1.1965453624725342,0.1659254133701324,-0.0201833415776491,-0.0580071173608303,-0.1091763898730278,-0.9921231865882874,0.0,0.0,0.0,-0.1557684469876865,0.516369541682236,-0.24625950997332224,1.712916249,0.1659254133701324,0.10205288590523959,-0.061514026731284054,0.06763969999284422,-12.463262870710881,-11.950808609712986,15.404146492442418,0.053065594860260926,0.11092063353679496,0.22215114524942187,0.005184110212745452,0.03532424377574728,-0.019540196291892187,9.273853315207644,-35.395784872620006,33.159913427770576,0.011705107922321992,-9.07881164351911e-05
15608,1724557937675177025,0.4351658225059509,-1.196273922920227,0.1657694876194,-0.0202216152101755,-0.0573895424604415,-0.1098527163267135,-0.9920836687088012,0.0,0.0,0.0,-0.03823565608185514,0.0717864362000169,0.03461368204843218,1.719397107,0.1657694876194,-0.020949875756983625,-0.1854526388485273,0.21293428866377456,-7.817744339814283,-3.769898176307013,5.189201657361533,0.05307535845233681,0.10964723082459865,0.22347347845229548,0.00422563889525307,0.03879022447980418,-0.019058394266664003,16.408663777524033,-66.75396936689276,23.29242906857333,0.016508014749495103,-0.007229575583962238
15610,1724557937685280713,0.4351995289325714,-1.1959307193756104,0.1656557023525238,-0.0205899886786937,-0.0575240179896354,-0.1098023355007171,-0.992073893547058,0.0,0.0,0.0,0.10035372949125784,-0.5736058503712453,-0.04581265955295377,1.729500795,0.1656557023525238,0.07587700775717625,0.018307445874708908,-0.006034765564969154,-10.195435046180465,-3.368160028994142,-7.5101155428392845,0.05383637771564364,0.1098351999265102,0.22342217225864772,0.005566601622803091,0.03222223951862446,-0.019334461902404954,30.62562539216587,103.07280089916559,-28.7589841701611,0.011948885955958489,-0.005422737213058378
15612,1724557937695210115,0.4352765679359436,-1.1956278085708618,0.1653849482536316,-0.0196643490344285,-0.0561933182179927,-0.1101231724023819,-0.992133378982544,0.0,0.0,0.0,0.5694471149509863,2.0789610570224166,-0.5343302561473527,1.739430197,0.1653849482536316,-0.21836108575937516,-0.24479438377284635,0.057589541881326874,-14.998046829746981,-13.195109538844676,1.7959149988175713,0.05171646317704923,0.10737775738642195,0.22386760972776817,0.006247218903016716,0.027272707561181164,-0.01996977416436696,-0.14504151680929311,70.75146755554893,-12.056086369923921,0.01717733800968499,-0.002235702877486502
15614,1724557937713714640,0.4353400468826294,-1.1952346563339231,0.1652670949697494,-0.0197404362261295,-0.0559371188282966,-0.109486885368824,-0.99221670627594,0.0,0.0,0.0,-1.0674183498616774,-3.3844069739569917,0.523461806674181,1.757934722,0.1652670949697494,0.008796946240120602,-0.030236662281228937,-0.06821512948925731,-41.10412907599498,-60.894474433785874,11.480023827697904,0.05174056097353846,0.10688424554501205,0.22257061860927876,0.03405825619034886,0.1546262077918641,-0.04607732475700743,-245.70306078115152,-1134.9464089921962,249.07752127353004,0.0086692695921502,-0.0019770009077643494
15616,1724557937716206102,0.4354351758956909,-1.1948046684265137,0.1651389747858047,-0.0196283943951129,-0.0556677728891372,-0.1094481945037841,-0.9922383427619934,0.0,0.0,0.0,-1.7323265260472718,-6.493762484349778,1.2084068023505252,1.760426184,0.1651389747858047,-0.11151884528802983,-0.20626964146975157,-0.033481485988339575,-42.13965524785488,-54.9545640850657,14.545893115056606,0.05145096203336452,0.10637531797954258,0.22246017935423998,0.03053659445380852,0.1427501008679073,-0.044124262478351106,-204.4979416698112,-991.1897784703688,228.9581452981291,0.08035257842940101,-0.005978954669953336
15618,1724557937725016349,0.4354660212993622,-1.1944764852523804,0.1649776399135589,-0.0184807553887367,-0.0546376183629035,-0.1099982038140297,-0.9922568798065186,0.0,0.0,0.0,-1.590682165796984,-7.225437935042385,1.7937590878921588,1.769236431,0.1649776399135589,-0.29112955051599454,-0.20130829908198414,0.11351446837079643,1.3163648698435702,0.5028552135149011,12.531153060728865,0.04898235213753052,0.10455378975309049,0.22337509292347466,0.005341215766581087,0.03173323094083713,-0.020252634172304163,56.98515006171043,256.21470502885376,16.199498502364676,0.013513253038004163,-0.006720792255588946
15620,1724557937736179444,0.4355516731739044,-1.1942002773284912,0.1647241115570068,-0.0188298933207988,-0.0535476729273796,-0.1110465228557586,-0.9921928644180298,0.0,0.0,0.0,-0.37593801929618453,0.4333446028577872,1.2639802405664342,1.780399526,0.1647241115570068,0.030537744583977167,-0.19654746757549152,0.19465254738169036,11.360649020100436,10.673221323056135,-0.31388390647035447,0.049537248361369406,0.10225535616149178,0.22544837627554826,0.005534784539371174,0.027106800739680637,-0.013181660173156473,50.214031103229445,351.66060532335416,-44.128906955002144,0.015260077894736209,-0.00047116319974467417
15622,1724557937746515229,0.4355884194374084,-1.1938974857330322,0.1646790653467178,-0.0187581684440374,-0.053585797548294,-0.1116623282432556,-0.9921230673789978,0.0,0.0,0.0,-0.4177628353243869,0.8677049142879005,0.8397326474389963,1.790735311,0.1646790653467178,-0.01907779215874096,0.011827799004496715,0.11884725679734069,-10.322758205907263,26.10202881557796,-16.04197317555971,0.049466618656301295,0.10231667719300538,0.22668778611063428,-0.002114417840420657,0.03969887375015446,0.005916855857433845,34.21957998593417,-47.3048895121135,-113.05021307290548,0.010441077767669818,-0.003467460646332591
15624,1724557937755667223,0.435523122549057,-1.193449854850769,0.1648164838552475,-0.0178625825792551,-0.0548701174557209,-0.1112793162465095,-0.9921124577522278,0.0,0.0,0.0,0.20551552760497185,-0.2891386709251409,-0.7784050982785675,1.799887305,0.1648164838552475,-0.15830391141304317,0.2988617629375065,-0.09853426770704714,-3.0364943414774603,5.265253485924862,-6.842787651192383,0.04793793715411914,0.10509252340737907,0.22591609336076954,-0.003325873964740822,0.04479896708622988,0.005432880312453037,44.849614235056976,-87.56990336923596,-133.8603116444707,0.0024053941013129345,-0.015924367686139758
15626,1724557937765275938,0.4355295896530151,-1.1930608749389648,0.164772018790245,-0.0175100434571504,-0.055245753377676,-0.111333779990673,-0.9920917749404908,0.0,0.0,0.0,0.401877099277284,-0.7388112686894128,-1.6313734307022942,1.80949602,0.164772018790245,-0.0646448416752958,0.08617408709611363,0.006303035840963626,8.764279741888341,-17.967323283066435,7.95004197613121,0.04732736366625979,0.10591672051927957,0.22601656863129066,0.002057539837576172,0.03348199446411826,-0.00936583523316159,14.408818200243624,4.57078553088759,-30.569670478335638,0.010162536128518519,-0.008737474942829209
15628,1724557937778288307,0.4355807602405548,-1.1927485466003418,0.1645666509866714,-0.0177915189415216,-0.0547835789620876,-0.1116854473948478,-0.9920728802680968,0.0,0.0,0.0,0.48316476341106585,0.22587727593445006,-1.0035644464772226,1.822508389,0.1645666509866714,0.032076650153763646,-0.07418412496635203,0.05758105596129071,37.595921257404456,-15.94301012606205,22.252518456863125,0.04781909020595047,0.10491687215072026,0.22672300781087235,0.004495874955310342,0.03160371540417373,-0.032201648165356644,4.077936197587192,3.686980263613644,121.03643654843975,0.010829294580531227,-0.003239660639461082
15630,1724557937785741098,0.435616672039032,-1.1924805641174316,0.1642565727233886,-0.0195702016353607,-0.0541763827204704,-0.1126962751150131,-0.9919584393501282,0.0,0.0,0.0,0.5042981864394732,-0.04736155100162032,0.20920058530664498,1.82996118,0.1642565727233886,0.4410232882670337,-0.20845405517156446,0.30158948511053424,32.200514303476254,-2.5465798667443558,18.009909747539723,0.05133242054379088,0.10325383563211003,0.22890275086312212,0.009359350931088528,0.03486745082279441,-0.03647374906118461,11.334241473922415,334.1100690502894,-8.446880447927825,0.017071791758404054,-0.007950563749649931
15632,1724557937795345403,0.4357627630233764,-1.1921591758728027,0.1639697849750518,-0.0219059716910123,-0.0542054809629917,-0.1139618977904319,-0.991763472557068,0.0,0.0,0.0,0.7183423116940296,7.750561145622436,-1.990524229420281,1.839565485,0.1639697849750518,0.46968828325186146,-0.04144750734322056,0.2922421225215546,-0.510724270984996,13.947902764849761,-2.2975224551650673,0.0561309057839635,0.10270560866661758,0.23169894919988548,0.012367621087350678,0.028406264871239095,-0.0247805378136301,266.3248676477559,2180.3316620948194,1098.3983559607595,0.0254315864580961,0.0038821792139036664
15634,1724557937831659643,0.4358214735984802,-1.1918219327926636,0.1637673825025558,-0.0214294400066137,-0.054002221673727,-0.1144730821251869,-0.9917260408401488,0.0,0.0,0.0,43.89757249020181,274.81817994416633,220.16093574096908,1.875879725,0.1637673825025558,-0.02878537714382699,-0.007382871824077484,0.026979042025425365,2048.161386743277,-4884.10994640834,17416.910657649318,0.05518470790943295,0.10238340716749403,0.23266730089098947,0.09407906379988162,1.4664274860078876,-0.5375438953528828,-57908.39922973448,-779027.7417790153,226434.48707590438,0.004264666783827476,-0.0011464979457506729
15636,1724557937831943826,0.4358484148979187,-1.1914019584655762,0.1636134386062622,-0.021569401025772,-0.0537978485226631,-0.1151712238788604,-0.9916532635688782,0.0,0.0,0.0,27.309561864948762,51.682888062720394,284.99973506894264,1.876163908,0.1636134386062622,0.5578527450472064,-1.4062278463992677,5.015319030545811,-1687.6601828735434,-265.0186032713091,9510.829755740486,0.05548684097605602,0.10190556111671568,0.23407561811910718,0.10664662825740834,1.5450492487261727,-0.47445687762444777,-64735.810730768266,-822090.1448894704,192201.96030125755,0.48784187042357957,-0.30288745828097163
15638,1724557937832216101,0.4358805418014526,-1.1909637451171875,0.1635017991065979,-0.0214950013905763,-0.053732294589281,-0.1159203052520752,-0.9915711879730223,0.0,0.0,0.0,8.02322406157546,-181.77986286927813,327.9516563215519,1.876436183,0.1635017991065979,-0.8804129104308985,-0.26344943842407176,5.506882042244973,-4880.272169724041,3893.1049717219657,1556.936984320962,0.05539969906211408,0.1017508603842251,0.23557651875731384,0.1096700704790532,1.500432614165664,-0.38042261107534303,-66269.39082912459,-796777.9223333008,140776.04258712454,0.5294991299789902,-0.2978665050286499
15640,1724557937835627529,0.435898870229721,-1.1905049085617063,0.1634692996740341,-0.0209322124719619,-0.0536946356296539,-0.1162881702184677,-0.991542100906372,0.0,0.0,0.0,-22.943456890845333,-306.53915525149705,82.59693735345859,1.879847611,0.1634692996740341,-0.34094327472786795,0.021907129038718477,0.19857116891076648,130.16430380938993,64.11479023278652,-1173.4123439698908,0.054306078559890364,0.10178832437871008,0.23626050431321563,0.005343425235155408,0.11461512024298415,-0.005938854634606194,-6257.049823183956,-20125.32126501143,-56017.50244042122,0.03748364326396686,-0.02657898268979596
15642,1724557937845920360,0.4359529614448547,-1.189942717552185,0.1635195910930633,-0.0215522367507219,-0.0541561320424079,-0.116277240216732,-0.9915050864219666,0.0,0.0,0.0,0.23819044877895185,-2.9632236131789087,-0.08362723935386446,1.890140442,0.1635195910930633,0.13015047597477009,0.0752466107583696,0.0033224341372931664,24.39945975375354,-2.505818096893546,-4.589545553916126,0.05565356980045056,0.10255979306109136,0.23633765266671936,0.006391334640291291,0.05530958414586706,0.0002513196200384371,1125.3458680118526,14889.553748533395,-4017.9688994106937,0.01730371301062323,-0.006835128510551347
15644,1724557937856200283,0.4360303282737732,-1.1893670558929443,0.1634745895862579,-0.0224221311509609,-0.054091103374958,-0.116757832467556,-0.991432785987854,0.0,0.0,0.0,0.23707977614260384,0.15676108990374926,-0.16733106428361177,1.900420365,0.1634745895862579,0.16157214157730707,-0.02944610088086355,0.10378057994613829,-21.819261519532542,-12.965765461287473,7.891213010414183,0.057422184353347554,0.10219727108075335,0.2373911784851787,0.010240140143721987,0.05358124629826477,-0.007641623518622964,-13.060901857556784,185.8249235437891,45.761219012816625,0.020823742478734704,-0.006044360110974603
15646,1724557937865722241,0.436151772737503,-1.1888781785964966,0.1633730381727218,-0.0213088933378458,-0.0530885159969329,-0.1175733506679534,-0.9914152026176452,0.0,0.0,0.0,-0.001528240572553241,0.8882741040969626,0.7438292736406809,1.909942323,0.1633730381727218,-0.26559210160141705,-0.1774387165686882,0.1623297144740808,-16.981600454458853,-2.147555949628777,-0.17651507725912108,0.0550404623485981,0.1004235158442988,0.23884696315213685,0.011286453959435505,0.05793939717037233,-0.003938863444137297,-12.407390551812238,50.461178521155006,52.004720128495414,0.025484300313268857,-0.0006995698472802703
15648,1724557937876605482,0.4362563490867615,-1.188165545463562,0.1634138375520706,-0.0207953974604606,-0.0528282672166824,-0.1180401891469955,-0.991384506225586,0.0,0.0,0.0,0.020810669071297916,1.1095270033397568,0.7663965629798799,1.920825564,0.1634138375520706,-0.10361170837636408,-0.03419270584707256,0.08172652289070811,-7.764983745860983,6.036635932601978,-3.296513355896261,0.05400009041522822,0.10000346659177985,0.239719175246738,0.009883945791600013,0.07296273275395038,0.008571853767607607,2.1452583885323304,-42.54072251319688,-31.562677565116747,0.024382456302166268,-0.005482849097416696
15650,1724557937885667358,0.4363479912281036,-1.1874479055404663,0.1635279059410095,-0.0192838814109563,-0.0524865761399269,-0.1184916645288467,-0.9913793802261353,0.0,0.0,0.0,0.040949893660998216,0.24965053105254986,0.22658296545269468,1.92988744,0.1635279059410095,-0.3448669870649697,-0.03325320084953282,0.08286266561992452,14.878997658062797,2.037810118005711,6.3617834028718,0.05094847746075797,0.09966316647929001,0.24045691513838827,0.011201908405716665,0.08097322786827732,0.012625904943238453,9.159758965382714,-64.87202995186635,-66.02372127410548,0.027286796421248115,-0.007304651554414901
15652,1724557937895326887,0.4364674091339111,-1.1866474151611328,0.1636502593755722,-0.0204161051660776,-0.0526269264519214,-0.1194332465529441,-0.9912362694740297,0.0,0.0,0.0,0.20085992567624966,-0.06790534727866238,-0.47762913964486475,1.939546969,0.1636502593755722,0.2261876207188327,0.006346081146282855,0.208528280057718,21.25418478741013,1.7370117242971679,6.9091008292063485,0.05333476320855937,0.09961940222740112,0.24248169945701606,0.01052156857192088,0.07685332347139706,0.012541189059316338,22.75323438267506,8.015069245443009,-55.38235592177175,0.030481376713778537,-0.006118607398334847
15654,1724557937907551099,0.4365675449371338,-1.1858010292053225,0.1638016253709793,-0.0198821928352117,-0.0524749495089054,-0.1206674203276634,-0.9911057353019714,0.0,0.0,0.0,0.5748915329796473,0.6626335269441368,-0.8835877102948665,1.951771181,0.1638016253709793,-0.09974796573649528,-0.008967701335845336,0.19861444493495867,-29.633359304571513,-2.6256782409949664,20.819583894316988,0.052356887894051955,0.09938169444098738,0.24491246590936036,0.01717376513351354,0.08157082029509866,-0.0005506233268910421,-6.858567513065346,14.990686835991532,43.00356894702153,0.023384881153775045,-0.007161235342771681
15656,1724557937915542870,0.4367517232894897,-1.1850847005844116,0.163729652762413,-0.0186058711260557,-0.0521200262010097,-0.122631050646305,-0.990908145904541,0.0,0.0,0.0,0.3243804427967185,0.5485188365773657,-0.141719699352281,1.959762952,0.163729652762413,-0.35208975265578574,-0.03712476435817931,0.47801409977708015,-9.665959384329458,-6.755436315236245,16.47433603155234,0.0499210127771378,0.09889010175526139,0.24873120706407623,0.021928615944442953,0.08831222399085448,-0.006633008541012231,-24.994539665335026,-21.38898262457988,79.6632441945744,0.04507439511047297,-0.0003536203339405361
15658,1724557937925659992,0.4369592666625976,-1.1842081546783447,0.1636929363012313,-0.0179559737443923,-0.0512402988970279,-0.1247062236070633,-0.990706980228424,0.0,0.0,0.0,0.15285685712163954,0.24106171615361127,0.4956202483240979,1.969880074,0.1636929363012313,-0.16927456237126526,-0.14686710152994653,0.40791647535260395,10.449087933247263,-0.5281921403965208,-12.607994809450547,0.048606679106295354,0.0972027961398762,0.2527994985287365,0.021744805331685768,0.09008307482832123,-0.00013421376920863537,1.8503662013310187,13.041154491399077,17.31933348058389,0.04168817497821237,-0.0018652316549045839
15660,1724557937935935067,0.4371955394744873,-1.183246612548828,0.1637280285358429,-0.0173223372548818,-0.0509023703634738,-0.125854417681694,-0.9905905723571776,0.0,0.0,0.0,0.3681001930745291,0.8282838232255525,0.19691733329550273,1.980155149,0.1637280285358429,-0.1414361404175103,-0.044610482451903306,0.21910122956303738,14.604911118019508,7.103589765132372,-9.35073916663237,0.047369909976201566,0.09663697151574079,0.2550367461142978,0.025100152705245904,0.09324902304341265,0.003427060616845168,-2.0963455601223506,28.813740156092074,0.32115449250422046,0.0453159372820164,-0.0006618015131441264
