seq,stamp,px,py,pz,ox,oy,oz,ow,lx,ly,lz,ax,ay,az
26,1724915512023252394,-0.5023839473724365,0.11861235648393631,0.15541332960128784,-0.005081600975245237,0.01073735672980547,-0.34682992100715637,0.9378528594970703,0.0,0.0,0.0,0.0,0.0,0.0
28,1724915512023780749,-0.5023349523544312,0.11853037029504776,0.1554149091243744,-0.003858885494992137,0.010312368161976337,-0.34735196828842163,0.9376702308654785,0.0,0.0,0.0,0.0,0.0,0.0
30,1724915512024134047,-0.5024016499519348,0.11860668659210205,0.1554301530122757,-0.005314982961863279,0.010644929483532906,-0.3469204604625702,0.9378191828727722,0.0,0.0,0.0,0.0,0.0,0.0
32,1724915512024390424,-0.5023465156555176,0.11852604150772095,0.15541166067123413,-0.004100578837096691,0.010417626239359379,-0.3471914827823639,0.9377274513244629,0.0,0.0,0.0,0.0,0.0,0.0
34,1724915512024693020,-0.5024049878120422,0.11860055476427078,0.15544649958610535,-0.005222562234848738,0.010786755941808224,-0.346926212310791,0.9378158450126648,0.0,0.0,0.0,0.0,0.0,0.0
36,1724915512025149363,-0.5023258924484253,0.11853747814893723,0.15544156730175018,-0.0037197619676589966,0.010397503152489662,-0.3471977114677429,0.9377269744873047,0.0,0.0,0.0,0.0,0.0,0.0
38,1724915512025615273,-0.5023844838142395,0.11861301958560944,0.1554352194070816,-0.004904664121568203,0.010886971838772297,-0.34681516885757446,0.937857449054718,0.0,0.0,0.0,0.0,0.0,0.0
40,1724915512026010080,-0.5023956298828125,0.11863648891448975,0.15543462336063385,-0.005304370075464249,0.011102543212473392,-0.34678739309310913,0.9378630518913269,0.0,0.0,0.0,0.0,0.0,0.0
42,1724915512026432274,-0.5023981928825378,0.11862311512231827,0.15544502437114716,-0.005260095465928316,0.011108608916401863,-0.3468230366706848,0.9378501176834106,0.0,0.0,0.0,0.0,0.0,0.0
44,1724915512030839226,-0.5024087429046631,0.11857980489730835,0.15538553893566132,-0.005323536228388548,0.010807286016643047,-0.34668081998825073,0.9379057884216309,0.0,0.0,0.0,0.0,0.0,0.0
46,1724915512040463078,-0.5024040937423706,0.1185908392071724,0.15541614592075348,-0.005279934965074062,0.010779942385852337,-0.3468779921531677,0.9378334879875183,0.0,0.0,0.0,0.0,0.0,0.0
48,1724915512051676393,-0.5024035573005676,0.11860373616218567,0.1554253101348877,-0.005489300470799208,0.010924173519015312,-0.34694531559944153,0.9378057718276978,0.0,0.0,0.0,0.0,0.0,0.0
50,1724915512060141575,-0.5023955702781677,0.11858482658863068,0.1554259955883026,-0.004598693922162056,0.01104083564132452,-0.3474000096321106,0.9376407861709595,0.0,0.0,0.0,0.0,0.0,0.0
52,1724915512070369066,-0.5024059414863586,0.11859488487243652,0.15540431439876556,-0.005179735366255045,0.011007559485733509,-0.3470098376274109,0.9377825856208801,0.0,0.0,0.0,0.0,0.0,0.0
54,1724915512083507989,-0.5024060010910034,0.1185920387506485,0.155425563454628,-0.005603466648608446,0.010942453518509865,-0.3468989431858063,0.9378219246864319,0.0,0.0,0.0,0.0,0.0,0.0
56,1724915512090157752,-0.5024142265319824,0.11858131736516953,0.15539439022541046,-0.005334133747965097,0.010789806954562664,-0.3467003405094147,0.9378986954689026,0.0,0.0,0.0,0.0,0.0,0.0
58,1724915512100655984,-0.5024154782295227,0.1186005026102066,0.15538425743579865,-0.005612505134195089,0.011067265644669533,-0.34676221013069153,0.937870979309082,0.0,0.0,0.0,0.0,0.0,0.0
60,1724915512110235067,-0.5023921132087708,0.11859661340713501,0.1554044932126999,-0.0052132378332316875,0.010928303003311157,-0.34683936834335327,0.9378463625907898,0.0,0.0,0.0,0.0,0.0,0.0
62,1724915512120370775,-0.5023855566978455,0.11860617250204086,0.15541163086891174,-0.005064205266535282,0.010788711719214916,-0.3467691242694855,0.9378747940063477,0.0,0.0,0.0,0.0,0.0,0.0
64,1724915512130771623,-0.502387285232544,0.11861136555671692,0.1554366648197174,-0.0050268699415028095,0.010901403613388538,-0.34684762358665466,0.9378446936607361,0.0,0.0,0.0,0.0,0.0,0.0
66,1724915512142702026,-0.5023942589759827,0.11860525608062744,0.15540897846221924,-0.005180676002055407,0.010982287116348743,-0.34685438871383667,0.9378404021263123,0.0,0.0,0.0,0.0,0.0,0.0
68,1724915512150888926,-0.5023372173309326,0.11854692548513412,0.15543487668037415,-0.0038848828990012407,0.010480414144694805,-0.3472445011138916,0.9377080798149109,0.0,0.0,0.0,0.0,0.0,0.0
70,1724915512160640481,-0.5024151802062988,0.11858564615249634,0.15539033710956573,-0.005300075747072697,0.010598580352962017,-0.346839964389801,0.9378495216369629,0.0,0.0,0.0,0.0,0.0,0.0
72,1724915512175635695,-0.5024042129516602,0.11859169602394104,0.15539933741092682,-0.005341988056898117,0.010699715465307236,-0.34678515791893005,0.9378683567047119,0.0,0.0,0.0,0.0,0.0,0.0
74,1724915512180600973,-0.502342939376831,0.11854954063892365,0.155458465218544,-0.004160025622695684,0.010640970431268215,-0.34737303853034973,0.9376574754714966,0.0,0.0,0.0,0.0,0.0,0.0
76,1724915512191636840,-0.5023922324180603,0.11861511319875717,0.1554347723722458,-0.005225129425525665,0.010871377773582935,-0.3469199538230896,0.9378172159194946,0.0,0.0,0.0,0.0,0.0,0.0
78,1724915512200671387,-0.5023341178894043,0.11853136867284775,0.1554080992937088,-0.004186064004898071,0.010409092530608177,-0.3472500443458557,0.9377054572105408,0.0,0.0,0.0,0.0,0.0,0.0
80,1724915512210364758,-0.502413272857666,0.11857450008392334,0.15539363026618958,-0.005358975846320391,0.010671314783394337,-0.3468530476093292,0.9378434419631958,0.0,0.0,0.0,0.0,0.0,0.0
82,1724915512222098882,-0.5024006366729736,0.11858665198087692,0.15539968013763428,-0.005273021757602692,0.01087788213044405,-0.34681668877601624,0.937855064868927,0.0,0.0,0.0,0.0,0.0,0.0
84,1724915512231008703,-0.5023760199546814,0.11860091984272003,0.15542072057724,-0.005064800847321749,0.010846204124391079,-0.3467966914176941,0.9378639459609985,0.0,0.0,0.0,0.0,0.0,0.0
86,1724915512240504028,-0.502330482006073,0.11852681636810303,0.15540562570095062,-0.0039926678873598576,0.010277635417878628,-0.3471732437610626,0.9377362728118896,0.0,0.0,0.0,0.0,0.0,0.0
88,1724915512251260251,-0.502409040927887,0.11858752369880676,0.1554083377122879,-0.00539591396227479,0.010737248696386814,-0.34692853689193726,0.9378146529197693,0.0,0.0,0.0,0.0,0.0,0.0
90,1724915512260290988,-0.5024118423461914,0.11859718710184097,0.15542516112327576,-0.005525596905499697,0.01083962433040142,-0.34684354066848755,0.9378441572189331,0.0,0.0,0.0,0.0,0.0,0.0
92,1724915512271558071,-0.5023900270462036,0.11860479414463043,0.1554143726825714,-0.004944381769746542,0.010956238955259323,-0.3467886447906494,0.9378662705421448,0.0,0.0,0.0,0.0,0.0,0.0
94,1724915512280750801,-0.5023294687271118,0.11853325366973877,0.1554414927959442,-0.004149968735873699,0.01054646261036396,-0.3473268747329712,0.9376757144927979,0.0,0.0,0.0,0.0,0.0,0.0
96,1724915512290616951,-0.5024017691612244,0.11858690530061722,0.15543760359287262,-0.0052908859215676785,0.010714452713727951,-0.34696492552757263,0.9378020167350769,0.0,0.0,0.0,0.0,0.0,0.0
98,1724915512301202285,-0.5024033188819885,0.11859279125928879,0.15540316700935364,-0.0052343406714499,0.010711513459682465,-0.34682172536849976,0.9378553628921509,0.0,0.0,0.0,0.0,0.0,0.0
100,1724915512310089205,-0.5023951530456543,0.11861437559127808,0.15545910596847534,-0.005357506684958935,0.01085191685706377,-0.34690791368484497,0.937821090221405,0.0,0.0,0.0,0.0,0.0,0.0
102,1724915512320662561,-0.5023910999298096,0.11859574168920517,0.15542009472846985,-0.0053110248409211636,0.01086308341473341,-0.3468710482120514,0.9378349184989929,0.0,0.0,0.0,0.0,0.0,0.0
104,1724915512332191033,-0.5023245215415955,0.11853968352079391,0.15544316172599792,-0.0038817536551505327,0.010488697327673435,-0.3473035395145416,0.9376861453056335,0.0,0.0,0.0,0.0,0.0,0.0
106,1724915512340250817,-0.5024000406265259,0.11857791244983673,0.15542368590831757,-0.005264300853013992,0.01056969165802002,-0.3469165563583374,0.937821626663208,0.0,0.0,0.0,0.0,0.0,0.0
108,1724915512350924439,-0.502332329750061,0.118528813123703,0.15542252361774445,-0.0038617034442722797,0.01050214096903801,-0.3471006453037262,0.937761127948761,0.0,0.0,0.0,0.0,0.0,0.0
110,1724915512360123424,-0.502415120601654,0.11858664453029633,0.15540561079978943,-0.005349420011043549,0.010733959265053272,-0.3468383252620697,0.9378483295440674,0.0,0.0,0.0,0.0,0.0,0.0
112,1724915512370453862,-0.5024169683456421,0.11857443302869797,0.15540629625320435,-0.004732103552669287,0.010923179797828197,-0.3473401963710785,0.9376636147499084,0.0,0.0,0.0,0.0,0.0,0.0
114,1724915512381455362,-0.5023435354232788,0.11852625757455826,0.15538863837718964,-0.003791515715420246,0.010357444174587727,-0.3471737205982208,0.9377359747886658,0.0,0.0,0.0,0.0,0.0,0.0
116,1724915512390729428,-0.5023972988128662,0.11858737468719482,0.15539398789405823,-0.005286684725433588,0.010762141086161137,-0.34683331847190857,0.9378501772880554,0.0,0.0,0.0,0.0,0.0,0.0
118,1724915512400405862,-0.5024120807647705,0.11858946084976196,0.15538182854652405,-0.005328895524144173,0.01072110328823328,-0.3467414677143097,0.9378843307495117,0.0,0.0,0.0,0.0,0.0,0.0
120,1724915512411125008,-0.5024124383926392,0.11858142912387848,0.15536488592624664,-0.005281171295791864,0.010758570395410061,-0.34669479727745056,0.937901496887207,0.0,0.0,0.0,0.0,0.0,0.0
122,1724915512420456200,-0.502402126789093,0.11859987676143646,0.1554124504327774,-0.005364591721445322,0.011041877791285515,-0.34684842824935913,0.9378408193588257,0.0,0.0,0.0,0.0,0.0,0.0
124,1724915512433692083,-0.5024107098579407,0.11859802901744843,0.15539173781871796,-0.005317519418895245,0.010861114598810673,-0.3467990458011627,0.9378615617752075,0.0,0.0,0.0,0.0,0.0,0.0
126,1724915512441587404,-0.5023887753486633,0.11860015243291855,0.15542125701904297,-0.005139768589287996,0.011014001443982124,-0.34703218936920166,0.9377744197845459,0.0,0.0,0.0,0.0,0.0,0.0
128,1724915512450387459,-0.5023249983787537,0.11852648854255676,0.15540777146816254,-0.004023235756903887,0.010253018699586391,-0.3473527133464813,0.9376699328422546,0.0,0.0,0.0,0.0,0.0,0.0
130,1724915512460175034,-0.5024065375328064,0.11858352273702621,0.15540918707847595,-0.005375420209020376,0.010642681270837784,-0.3469071388244629,0.9378237724304199,0.0,0.0,0.0,0.0,0.0,0.0
132,1724915512471349987,-0.5023924708366394,0.1185993105173111,0.15540780127048492,-0.00501505471765995,0.010932586155831814,-0.3466933071613312,0.9379013776779175,0.0,0.0,0.0,0.0,0.0,0.0
134,1724915512480711499,-0.502321720123291,0.11855608224868774,0.15543663501739502,-0.003971200902014971,0.010618481785058975,-0.34728074073791504,0.9376927614212036,0.0,0.0,0.0,0.0,0.0,0.0
136,1724915512490468636,-0.5024024248123169,0.11860062181949615,0.15539903938770294,-0.005139521323144436,0.010691818781197071,-0.3469213843345642,0.9378191828727722,0.0,0.0,0.0,0.0,0.0,0.0
138,1724915512505700103,-0.5024171471595764,0.1186039000749588,0.15537062287330627,-0.005529194138944149,0.010916274972259998,-0.34669142961502075,0.9378994107246399,0.0,0.0,0.0,0.0,0.0,0.0
140,1724915512510421392,-0.5023316144943237,0.11855918914079666,0.15541356801986694,-0.0042100208811461926,0.010605829767882824,-0.34720340371131897,0.9377204775810242,0.0,0.0,0.0,0.0,0.0,0.0
142,1724915512524173418,-0.502406656742096,0.1185845211148262,0.15539659559726715,-0.005166068207472563,0.010578331537544727,-0.3468582332134247,0.9378437399864197,0.0,0.0,0.0,0.0,0.0,0.0
144,1724915512534540411,-0.502410352230072,0.1185855120420456,0.15538349747657776,-0.005286694969981909,0.010790268890559673,-0.3467533588409424,0.9378793835639954,0.0,0.0,0.0,0.0,0.0,0.0
146,1724915512540605589,-0.5024037957191467,0.11859824508428574,0.1554025113582611,-0.005355940666049719,0.010898442938923836,-0.3468402624130249,0.9378456473350525,0.0,0.0,0.0,0.0,0.0,0.0
148,1724915512552137168,-0.502397894859314,0.1186065748333931,0.1554054319858551,-0.005118298344314098,0.010996988974511623,-0.34685468673706055,0.9378405213356018,0.0,0.0,0.0,0.0,0.0,0.0
150,1724915512560180614,-0.5024111866950989,0.11857304722070694,0.1553720384836197,-0.004593612626194954,0.010999786667525768,-0.3470868468284607,0.9377572536468506,0.0,0.0,0.0,0.0,0.0,0.0
152,1724915512570691636,-0.5024077296257019,0.11858732998371124,0.15542812645435333,-0.005105331540107727,0.010878919623792171,-0.34706082940101624,0.9377655982971191,0.0,0.0,0.0,0.0,0.0,0.0
154,1724915512581647943,-0.5023268461227417,0.11851536482572556,0.15541347861289978,-0.0039181518368422985,0.010382404550909996,-0.34726789593696594,0.9377003312110901,0.0,0.0,0.0,0.0,0.0,0.0
156,1724915512590301014,-0.5023922920227051,0.11860143393278122,0.15542788803577423,-0.004889668896794319,0.01081759575754404,-0.3468391001224518,0.9378495216369629,0.0,0.0,0.0,0.0,0.0,0.0
158,1724915512600648817,-0.5024006366729736,0.11859523504972458,0.15539921820163727,-0.005235148593783379,0.010750447399914265,-0.34669145941734314,0.9379029870033264,0.0,0.0,0.0,0.0,0.0,0.0
160,1724915512610341802,-0.5023840665817261,0.11860163509845734,0.1554134339094162,-0.004945582710206509,0.010743341408669949,-0.34681370854377747,0.9378594756126404,0.0,0.0,0.0,0.0,0.0,0.0
162,1724915512620343100,-0.5023296475410461,0.11852511018514633,0.15540610253810883,-0.004185582976788282,0.01034027710556984,-0.3473345637321472,0.9376749396324158,0.0,0.0,0.0,0.0,0.0,0.0
164,1724915512634679772,-0.5024089813232422,0.11855752021074295,0.15540023148059845,-0.0045331791043281555,0.010800806805491447,-0.34730613231658936,0.9376786351203918,0.0,0.0,0.0,0.0,0.0,0.0
166,1724915512640685856,-0.5023501515388489,0.11852820962667465,0.15540732443332672,-0.004028265364468098,0.010488978587090969,-0.34731176495552063,0.9376823902130127,0.0,0.0,0.0,0.0,0.0,0.0
168,1724915512651175209,-0.5023300647735596,0.11851408332586288,0.1554267704486847,-0.004190246108919382,0.010222690179944038,-0.34744346141815186,0.9376358389854431,0.0,0.0,0.0,0.0,0.0,0.0
170,1724915512661002533,-0.5024067163467407,0.11858494579792023,0.15541362762451172,-0.005333801731467247,0.010710600763559341,-0.3469589650630951,0.9378039836883545,0.0,0.0,0.0,0.0,0.0,0.0
172,1724915512670923216,-0.5023492574691772,0.11852321773767471,0.15539628267288208,-0.00405939482152462,0.010304690338671207,-0.3472580015659332,0.9377042055130005,0.0,0.0,0.0,0.0,0.0,0.0
174,1724915512683120022,-0.5023968815803528,0.11858979612588882,0.15539789199829102,-0.004940296523272991,0.010706915520131588,-0.34691548347473145,0.9378223419189453,0.0,0.0,0.0,0.0,0.0,0.0
176,1724915512691060373,-0.50235515832901,0.11852891743183136,0.15538619458675385,-0.003982269670814276,0.01048380509018898,-0.34719139337539673,0.9377272725105286,0.0,0.0,0.0,0.0,0.0,0.0
178,1724915512702709730,-0.5024076700210571,0.11859456449747086,0.15540359914302826,-0.005284922197461128,0.010727417655289173,-0.34698137640953064,0.9377958178520203,0.0,0.0,0.0,0.0,0.0,0.0
180,1724915512711920310,-0.5023966431617737,0.11857061088085175,0.15536609292030334,-0.004993847571313381,0.010768155567348003,-0.3466540575027466,0.937917947769165,0.0,0.0,0.0,0.0,0.0,0.0
182,1724915512721744950,-0.5023427605628967,0.11850440502166748,0.1553901731967926,-0.004164983984082937,0.0102695282548666,-0.34720057249069214,0.9377254843711853,0.0,0.0,0.0,0.0,0.0,0.0
184,1724915512760116457,-0.5024150013923645,0.11857214570045471,0.1554073840379715,-0.005321233533322811,0.010766824707388878,-0.34689465165138245,0.9378272891044617,0.0,0.0,0.0,0.0,0.0,0.0
186,1724915512760770553,-0.5024048686027527,0.11860308051109314,0.15540479123592377,-0.005080098286271095,0.01085016317665577,-0.3467981219291687,0.9378633499145508,0.0,0.0,0.0,0.0,0.0,0.0
188,1724915512761162007,-0.5023787021636963,0.11861878633499146,0.1554049551486969,-0.004987730644643307,0.010924194008111954,-0.34673789143562317,0.9378851652145386,0.0,0.0,0.0,0.0,0.0,0.0
190,1724915512761555988,-0.502403199672699,0.11859174072742462,0.1553618162870407,-0.0051559023559093475,0.010819939896464348,-0.34671100974082947,0.9378954172134399,0.0,0.0,0.0,0.0,0.0,0.0
192,1724915512771549790,-0.5024080872535706,0.11859310418367386,0.15540364384651184,-0.005107877776026726,0.01074803527444601,-0.34688600897789,0.9378317594528198,0.0,0.0,0.0,0.0,0.0,0.0
194,1724915512780821975,-0.502410888671875,0.11859738081693649,0.15541473031044006,-0.005428195931017399,0.010947879403829575,-0.34688878059387207,0.9378266334533691,0.0,0.0,0.0,0.0,0.0,0.0
196,1724915512801188875,-0.5024099349975586,0.11858952045440674,0.15537483990192413,-0.005356038920581341,0.010862613096833229,-0.346725732088089,0.9378883838653564,0.0,0.0,0.0,0.0,0.0,0.0
198,1724915512801740319,-0.5023342967033386,0.11852707713842392,0.15542621910572052,-0.003929618280380964,0.010375062935054302,-0.3473638892173767,0.937664806842804,0.0,0.0,0.0,0.0,0.0,0.0
200,1724915512810180019,-0.5024130940437317,0.11858505010604858,0.15541847050189972,-0.005406259559094906,0.010687865316867828,-0.346960186958313,0.9378033876419067,0.0,0.0,0.0,0.0,0.0,0.0
202,1724915512821422780,-0.5024253129959106,0.11858422309160233,0.1553778052330017,-0.005409272853285074,0.010717835277318954,-0.3467833995819092,0.9378684759140015,0.0,0.0,0.0,0.0,0.0,0.0
204,1724915512835818280,-0.5024124383926392,0.11859527975320816,0.1553768515586853,-0.005322699435055256,0.010901215486228466,-0.34675332903862,0.937877893447876,0.0,0.0,0.0,0.0,0.0,0.0
206,1724915512841594549,-0.5023430585861206,0.1185196042060852,0.15538398921489716,-0.0041461363434791565,0.010422955267131329,-0.3472462594509125,0.9377069473266602,0.0,0.0,0.0,0.0,0.0,0.0
208,1724915512851907502,-0.5024117827415466,0.1185864806175232,0.1553926318883896,-0.005319521296769381,0.010691006667912006,-0.34695062041282654,0.9378073811531067,0.0,0.0,0.0,0.0,0.0,0.0
210,1724915512865683040,-0.5024013519287109,0.11858280748128891,0.15542763471603394,-0.0044820113107562065,0.010985812172293663,-0.34740251302719116,0.9376410245895386,0.0,0.0,0.0,0.0,0.0,0.0
212,1724915512870632053,-0.5023544430732727,0.11852231621742249,0.1554064005613327,-0.00402579503133893,0.010425044223666191,-0.3473612368106842,0.937664806842804,0.0,0.0,0.0,0.0,0.0,0.0
214,1724915512880784407,-0.5024138689041138,0.11858203262090683,0.15539126098155975,-0.00538652902469039,0.010636892169713974,-0.34689947962760925,0.9378265738487244,0.0,0.0,0.0,0.0,0.0,0.0
216,1724915512890440157,-0.5024014115333557,0.11859188228845596,0.15538132190704346,-0.005162873771041632,0.010802200064063072,-0.34672102332115173,0.937891960144043,0.0,0.0,0.0,0.0,0.0,0.0
218,1724915512900246364,-0.502400279045105,0.11858554184436798,0.1553887277841568,-0.0052068778313696384,0.01068294420838356,-0.3468107283115387,0.9378598928451538,0.0,0.0,0.0,0.0,0.0,0.0
220,1724915512910388184,-0.5023984909057617,0.11858724802732468,0.15540865063667297,-0.005491405259817839,0.010870502330362797,-0.34694042801856995,0.937808096408844,0.0,0.0,0.0,0.0,0.0,0.0
222,1724915512920569449,-0.5024049878120422,0.11859949678182602,0.15539230406284332,-0.0056890142150223255,0.010912924073636532,-0.3468562364578247,0.937837541103363,0.0,0.0,0.0,0.0,0.0,0.0
224,1724915512930680573,-0.5023968815803528,0.1185876727104187,0.15537959337234497,-0.00534050865098834,0.010831926017999649,-0.34685301780700684,0.9378417134284973,0.0,0.0,0.0,0.0,0.0,0.0
226,1724915512941835439,-0.5024031400680542,0.11858828365802765,0.15537811815738678,-0.0052797324024140835,0.010722596198320389,-0.3467482924461365,0.937882125377655,0.0,0.0,0.0,0.0,0.0,0.0
228,1724915512950369685,-0.5023995637893677,0.11859365552663803,0.15538591146469116,-0.005408958997577429,0.01070497278124094,-0.34675437211990356,0.9378792643547058,0.0,0.0,0.0,0.0,0.0,0.0
230,1724915512960795360,-0.5023881196975708,0.11860434710979462,0.1554071009159088,-0.005099520552903414,0.010777889750897884,-0.34679073095321655,0.9378668069839478,0.0,0.0,0.0,0.0,0.0,0.0
232,1724915512972353730,-0.5023245215415955,0.11854768544435501,0.1554252803325653,-0.003900362877175212,0.010503754951059818,-0.34737902879714966,0.93765789270401,0.0,0.0,0.0,0.0,0.0,0.0
234,1724915512980910530,-0.5024001598358154,0.11861137300729752,0.15540258586406708,-0.005092937499284744,0.010859709233045578,-0.3468143939971924,0.9378571510314941,0.0,0.0,0.0,0.0,0.0,0.0
236,1724915512992562115,-0.502411961555481,0.11861332505941391,0.15541398525238037,-0.005399942863732576,0.010942351073026657,-0.34681424498558044,0.937854528427124,0.0,0.0,0.0,0.0,0.0,0.0
238,1724915513000608026,-0.502382755279541,0.11862465739250183,0.1554362028837204,-0.005088177043944597,0.010893424041569233,-0.34696459770202637,0.93780118227005,0.0,0.0,0.0,0.0,0.0,0.0
240,1724915513025268037,-0.5023291110992432,0.11854466795921326,0.15541167557239532,-0.0038497913628816605,0.010256401263177395,-0.34727898240089417,0.9376978874206543,0.0,0.0,0.0,0.0,0.0,0.0
242,1724915513025670950,-0.5024265050888062,0.1185920238494873,0.1554003655910492,-0.00554030342027545,0.010585092008113861,-0.34688326716423035,0.9378322958946228,0.0,0.0,0.0,0.0,0.0,0.0
244,1724915513031475643,-0.5024227499961853,0.11859475821256638,0.1553862988948822,-0.0055243102833628654,0.01087795291095972,-0.3467978239059448,0.9378606081008911,0.0,0.0,0.0,0.0,0.0,0.0
246,1724915513044538202,-0.502333402633667,0.11852608621120453,0.15538561344146729,-0.004061159677803516,0.010282562114298344,-0.34721168875694275,0.9377216696739197,0.0,0.0,0.0,0.0,0.0,0.0
248,1724915513052149163,-0.5024041533470154,0.11858450621366501,0.15538062155246735,-0.005321811884641647,0.010545878671109676,-0.3468165397644043,0.9378586411476135,0.0,0.0,0.0,0.0,0.0,0.0
250,1724915513061402507,-0.5023998022079468,0.11860284954309464,0.15538538992404938,-0.005145438015460968,0.010787060484290123,-0.34676435589790344,0.9378762245178223,0.0,0.0,0.0,0.0,0.0,0.0
252,1724915513076594507,-0.5024024844169617,0.11859896034002304,0.15540677309036255,-0.005248530302196741,0.010945082642138004,-0.34683266282081604,0.9378484487533569,0.0,0.0,0.0,0.0,0.0,0.0
254,1724915513081533846,-0.5024174451828003,0.11859521269798279,0.15539292991161346,-0.005430674646049738,0.010909857228398323,-0.34685054421424866,0.9378412365913391,0.0,0.0,0.0,0.0,0.0,0.0
256,1724915513097049338,-0.5024076104164124,0.11859457194805145,0.1553874909877777,-0.005401066970080137,0.010767997242510319,-0.34687381982803345,0.9378345012664795,0.0,0.0,0.0,0.0,0.0,0.0
258,1724915513104866231,-0.50239497423172,0.11859402060508728,0.15538163483142853,-0.0052417730912566185,0.010742730461061,-0.3468039631843567,0.937861442565918,0.0,0.0,0.0,0.0,0.0,0.0
260,1724915513115489799,-0.5024115443229675,0.11858610063791275,0.15536999702453613,-0.00543170515447855,0.010675251483917236,-0.34674718976020813,0.937882125377655,0.0,0.0,0.0,0.0,0.0,0.0
262,1724915513122884520,-0.502399742603302,0.11859481781721115,0.15538007020950317,-0.005144341848790646,0.010803635232150555,-0.34679651260375977,0.9378640651702881,0.0,0.0,0.0,0.0,0.0,0.0
264,1724915513132747623,-0.5023420453071594,0.11852578818798065,0.15543173253536224,-0.004228536039590836,0.0103517547249794,-0.3473981022834778,0.9376511573791504,0.0,0.0,0.0,0.0,0.0,0.0
266,1724915513143943819,-0.5024018287658691,0.11857089400291443,0.15539470314979553,-0.00519465422257781,0.010626450181007385,-0.3469002842903137,0.9378274083137512,0.0,0.0,0.0,0.0,0.0,0.0
268,1724915513150445962,-0.5023729205131531,0.11861182749271393,0.15542668104171753,-0.005082032177597284,0.010966084897518158,-0.3467925488948822,0.9378639459609985,0.0,0.0,0.0,0.0,0.0,0.0
270,1724915513160946927,-0.5023980736732483,0.11859989166259766,0.15538367629051208,-0.005295294336974621,0.010835731402039528,-0.3467279374599457,0.9378882050514221,0.0,0.0,0.0,0.0,0.0,0.0
272,1724915513170441834,-0.5023875832557678,0.11858543008565903,0.1553747057914734,-0.0049192397855222225,0.010681702755391598,-0.3467680513858795,0.9378771781921387,0.0,0.0,0.0,0.0,0.0,0.0
274,1724915513180814988,-0.5023910999298096,0.1186152994632721,0.15539655089378357,-0.0050810263492167,0.01081862859427929,-0.34685733914375305,0.9378417134284973,0.0,0.0,0.0,0.0,0.0,0.0
276,1724915513191365024,-0.5024149417877197,0.11859900504350662,0.1553916037082672,-0.005416667088866234,0.010804001241922379,-0.3468802869319916,0.9378315806388855,0.0,0.0,0.0,0.0,0.0,0.0
278,1724915513200994144,-0.5023344159126282,0.11851838231086731,0.15540987253189087,-0.003861553966999054,0.01023866981267929,-0.34734857082366943,0.9376723170280457,0.0,0.0,0.0,0.0,0.0,0.0
280,1724915513210211687,-0.502425491809845,0.11859658360481262,0.1553971916437149,-0.005356119479984045,0.010644587688148022,-0.3468838632106781,0.9378324151039124,0.0,0.0,0.0,0.0,0.0,0.0
282,1724915513222641962,-0.5024083852767944,0.1185925230383873,0.15540309250354767,-0.004337351303547621,0.011139183305203915,-0.34723979234695435,0.9377002120018005,0.0,0.0,0.0,0.0,0.0,0.0
284,1724915513231201828,-0.5024001598358154,0.11862023919820786,0.1554114818572998,-0.004894899670034647,0.011111925356090069,-0.3468712568283081,0.9378342032432556,0.0,0.0,0.0,0.0,0.0,0.0
286,1724915513240327371,-0.5023984313011169,0.11859076470136642,0.15539640188217163,-0.005062050186097622,0.010787762701511383,-0.34681880474090576,0.9378564357757568,0.0,0.0,0.0,0.0,0.0,0.0
288,1724915513253226684,-0.5023297667503357,0.11850768327713013,0.15540742874145508,-0.004124493803828955,0.010052644647657871,-0.3472592830657959,0.9377062916755676,0.0,0.0,0.0,0.0,0.0,0.0
290,1724915513260319999,-0.5023842453956604,0.11858143657445908,0.15543058514595032,-0.00528071029111743,0.010574904270470142,-0.34702321887016296,0.9377821087837219,0.0,0.0,0.0,0.0,0.0,0.0
292,1724915513271287354,-0.5023461580276489,0.11852820217609406,0.155424103140831,-0.004236543085426092,0.010454010218381882,-0.3473580777645111,0.9376646876335144,0.0,0.0,0.0,0.0,0.0,0.0
294,1724915513280713007,-0.5023311376571655,0.1185130849480629,0.15543079376220703,-0.0038257634732872248,0.010154815390706062,-0.34740111231803894,0.9376538991928101,0.0,0.0,0.0,0.0,0.0,0.0
296,1724915513291305251,-0.5024157762527466,0.11856212466955185,0.1553954780101776,-0.004528932739049196,0.010707788169384003,-0.3472585082054138,0.9376974105834961,0.0,0.0,0.0,0.0,0.0,0.0
298,1724915513302319933,-0.5023986101150513,0.1185820996761322,0.15538322925567627,-0.004944386892020702,0.010808833874762058,-0.34682536125183105,0.9378544092178345,0.0,0.0,0.0,0.0,0.0,0.0
300,1724915513336190297,-0.502395510673523,0.11859484016895294,0.15540166199207306,-0.00529065914452076,0.010830950923264027,-0.34684062004089355,0.9378466606140137,0.0,0.0,0.0,0.0,0.0,0.0
302,1724915513336805338,-0.5023934841156006,0.11858563870191574,0.15542088449001312,-0.004504343029111624,0.01098764967173338,-0.3473125994205475,0.9376742243766785,0.0,0.0,0.0,0.0,0.0,0.0
304,1724915513337141002,-0.5024176836013794,0.11858770996332169,0.15538321435451508,-0.005270797293633223,0.010761699639260769,-0.34686437249183655,0.9378387928009033,0.0,0.0,0.0,0.0,0.0,0.0
306,1724915513340525009,-0.5024057626724243,0.11858823895454407,0.1553756594657898,-0.00522204302251339,0.010682911612093449,-0.3468213677406311,0.9378558993339539,0.0,0.0,0.0,0.0,0.0,0.0
308,1724915513355551865,-0.5023449063301086,0.11852483451366425,0.15538659691810608,-0.004161725286394358,0.01023571565747261,-0.34731173515319824,0.9376847147941589,0.0,0.0,0.0,0.0,0.0,0.0
310,1724915513360255674,-0.5023993253707886,0.11859254539012909,0.15537142753601074,-0.005191786214709282,0.010634791105985641,-0.3469316363334656,0.9378158450126648,0.0,0.0,0.0,0.0,0.0,0.0
312,1724915513370681470,-0.5024133920669556,0.11861450970172882,0.15537631511688232,-0.00527337146922946,0.01091483049094677,-0.34686675667762756,0.9378361105918884,0.0,0.0,0.0,0.0,0.0,0.0
314,1724915513381506266,-0.5024076700210571,0.1185985878109932,0.15538452565670013,-0.005077438894659281,0.010821825824677944,-0.3468162715435028,0.9378569722175598,0.0,0.0,0.0,0.0,0.0,0.0
316,1724915513390332676,-0.5024116635322571,0.11858765780925751,0.15538625419139862,-0.005312677007168531,0.010777607560157776,-0.34678563475608826,0.9378674030303955,0.0,0.0,0.0,0.0,0.0,0.0
318,1724915513400390005,-0.5023359656333923,0.11851366609334946,0.1554139256477356,-0.0039632124826312065,0.010151829570531845,-0.34725672006607056,0.9377067685127258,0.0,0.0,0.0,0.0,0.0,0.0
320,1724915513411183590,-0.5024084448814392,0.11858449131250381,0.1553988754749298,-0.00524165527895093,0.010625747963786125,-0.34690338373184204,0.9378260374069214,0.0,0.0,0.0,0.0,0.0,0.0
322,1724915513420245741,-0.5024060010910034,0.11857759952545166,0.15535809099674225,-0.004856417886912823,0.010659750550985336,-0.3466624319553375,0.9379168152809143,0.0,0.0,0.0,0.0,0.0,0.0
324,1724915513430786373,-0.5024095177650452,0.11860807240009308,0.15539056062698364,-0.005232361610978842,0.010846346616744995,-0.3468925654888153,0.9378275871276855,0.0,0.0,0.0,0.0,0.0,0.0
326,1724915513443357511,-0.5023379921913147,0.11852280050516129,0.15540848672389984,-0.004186238162219524,0.010293403640389442,-0.3472992181777954,0.9376885890960693,0.0,0.0,0.0,0.0,0.0,0.0
328,1724915513473503248,-0.5023311972618103,0.11849677562713623,0.15540213882923126,-0.004050958901643753,0.009974208660423756,-0.34732896089553833,0.9376815557479858,0.0,0.0,0.0,0.0,0.0,0.0
330,1724915513473786873,-0.502416729927063,0.1185801774263382,0.1553785651922226,-0.005361182149499655,0.010489804670214653,-0.3468075692653656,0.9378623366355896,0.0,0.0,0.0,0.0,0.0,0.0
332,1724915513474080906,-0.5023449659347534,0.1185401901602745,0.15540553629398346,-0.004056406673043966,0.01055970136076212,-0.34726682305336,0.9376981258392334,0.0,0.0,0.0,0.0,0.0,0.0
334,1724915513481045042,-0.5024056434631348,0.11859269440174103,0.15540087223052979,-0.005178240593522787,0.01077386923134327,-0.34690234065055847,0.937825083732605,0.0,0.0,0.0,0.0,0.0,0.0
336,1724915513491926401,-0.5024005174636841,0.11859248578548431,0.1553758978843689,-0.005243407096713781,0.010668514296412468,-0.3467637300491333,0.9378771781921387,0.0,0.0,0.0,0.0,0.0,0.0
338,1724915513500871057,-0.5023872256278992,0.11858829855918884,0.15536606311798096,-0.004942800384014845,0.010656608268618584,-0.3467358350753784,0.9378893375396729,0.0,0.0,0.0,0.0,0.0,0.0
340,1724915513511206986,-0.5024079084396362,0.11859685182571411,0.15538470447063446,-0.005102714989334345,0.01089351437985897,-0.3467709720134735,0.9378726482391357,0.0,0.0,0.0,0.0,0.0,0.0
342,1724915513523212507,-0.502336323261261,0.11852578818798065,0.15540848672389984,-0.003739196341484785,0.010460367426276207,-0.34727683663368225,0.9376969337463379,0.0,0.0,0.0,0.0,0.0,0.0
344,1724915513530963080,-0.5024126768112183,0.1185753345489502,0.15538831055164337,-0.005101755727082491,0.010622563771903515,-0.34684863686561584,0.9378470778465271,0.0,0.0,0.0,0.0,0.0,0.0
346,1724915513541797861,-0.5023395419120789,0.11851535737514496,0.15539982914924622,-0.0040357415564358234,0.010386737063527107,-0.3472188115119934,0.9377179145812988,0.0,0.0,0.0,0.0,0.0,0.0
348,1724915513551544029,-0.5023279786109924,0.11852093786001205,0.15541258454322815,-0.003967138938605785,0.01019323244690895,-0.3473184406757355,0.9376834630966187,0.0,0.0,0.0,0.0,0.0,0.0
350,1724915513560504672,-0.5024139285087585,0.11859101802110672,0.15539146959781647,-0.005278491880744696,0.01062390673905611,-0.3468970060348511,0.9378283023834229,0.0,0.0,0.0,0.0,0.0,0.0
352,1724915513571067762,-0.5024028420448303,0.11860685795545578,0.15540367364883423,-0.005264250095933676,0.010929809883236885,-0.34684258699417114,0.9378448724746704,0.0,0.0,0.0,0.0,0.0,0.0
354,1724915513581750624,-0.50234055519104,0.1185193583369255,0.15540288388729095,-0.004003418609499931,0.010333788581192493,-0.34727951884269714,0.9376961588859558,0.0,0.0,0.0,0.0,0.0,0.0
356,1724915513590152143,-0.5024080872535706,0.11858286708593369,0.15540951490402222,-0.0052469829097390175,0.01060719694942236,-0.34690430760383606,0.9378259181976318,0.0,0.0,0.0,0.0,0.0,0.0
358,1724915513600538274,-0.5024049878120422,0.11858594417572021,0.15538731217384338,-0.005208380054682493,0.010693345218896866,-0.34678271412849426,0.9378701448440552,0.0,0.0,0.0,0.0,0.0,0.0
360,1724915513610151062,-0.5024175643920898,0.11859283596277237,0.15537536144256592,-0.005333390086889267,0.010800589807331562,-0.34684211015701294,0.9378462433815002,0.0,0.0,0.0,0.0,0.0,0.0
362,1724915513630628110,-0.5024092793464661,0.1185893565416336,0.15537813305854797,-0.005369100254029036,0.010701880790293217,-0.34679025411605835,0.9378662705421448,0.0,0.0,0.0,0.0,0.0,0.0
364,1724915513631140382,-0.502417266368866,0.11857301741838455,0.15535862743854523,-0.005215286742895842,0.010638106614351273,-0.3467048704624176,0.9378995299339294,0.0,0.0,0.0,0.0,0.0,0.0
366,1724915513640040212,-0.5024149417877197,0.1185748279094696,0.15536507964134216,-0.005108637735247612,0.010700752958655357,-0.3466912806034088,0.9379043579101562,0.0,0.0,0.0,0.0,0.0,0.0
368,1724915513651262838,-0.5023959279060364,0.11857827752828598,0.15536728501319885,-0.004834426566958427,0.010729844681918621,-0.3466787040233612,0.9379101395606995,0.0,0.0,0.0,0.0,0.0,0.0
370,1724915513660860961,-0.5023953914642334,0.11861984431743622,0.15540966391563416,-0.005213125608861446,0.010996478609740734,-0.346846342086792,0.9378430247306824,0.0,0.0,0.0,0.0,0.0,0.0
372,1724915513670171853,-0.5023947954177856,0.11859491467475891,0.15538854897022247,-0.005173250567167997,0.010923991911113262,-0.34680190682411194,0.9378604888916016,0.0,0.0,0.0,0.0,0.0,0.0
374,1724915513680232715,-0.5024078488349915,0.11860537528991699,0.15538325905799866,-0.005288207903504372,0.010878819972276688,-0.34676048159599304,0.9378758072853088,0.0,0.0,0.0,0.0,0.0,0.0
376,1724915513692650201,-0.5023824572563171,0.1185981035232544,0.1553734838962555,-0.005076291039586067,0.010785254649817944,-0.3468356132507324,0.9378502368927002,0.0,0.0,0.0,0.0,0.0,0.0
378,1724915513700750378,-0.5024027824401855,0.1185927763581276,0.15536648035049438,-0.005352974869310856,0.010648082010447979,-0.3468641936779022,0.9378396272659302,0.0,0.0,0.0,0.0,0.0,0.0
380,1724915513710618436,-0.5024115443229675,0.11859063804149628,0.15538854897022247,-0.0051894416101276875,0.010749435983598232,-0.3467533588409424,0.9378804564476013,0.0,0.0,0.0,0.0,0.0,0.0
382,1724915513721697284,-0.502409815788269,0.11857947707176208,0.15539690852165222,-0.004579608328640461,0.011017166078090668,-0.34723493456840515,0.9377022981643677,0.0,0.0,0.0,0.0,0.0,0.0
384,1724915513730619391,-0.5023535490036011,0.11853697150945663,0.15541581809520721,-0.004123172722756863,0.010683143511414528,-0.3474385142326355,0.9376327991485596,0.0,0.0,0.0,0.0,0.0,0.0
386,1724915513740444899,-0.5023418664932251,0.11850942671298981,0.1553814858198166,-0.003876134753227234,0.010040391236543655,-0.34727954864501953,0.9376999139785767,0.0,0.0,0.0,0.0,0.0,0.0
388,1724915513750233800,-0.5024111270904541,0.11857616901397705,0.15536783635616302,-0.005225223023444414,0.010435103438794613,-0.34684816002845764,0.9378487467765808,0.0,0.0,0.0,0.0,0.0,0.0
390,1724915513760983682,-0.5024073719978333,0.11860408633947372,0.15537457168102264,-0.0053890361450612545,0.010915026068687439,-0.34685856103897095,0.9378384947776794,0.0,0.0,0.0,0.0,0.0,0.0
392,1724915513771116251,-0.5023930072784424,0.11859779804944992,0.15538042783737183,-0.005188086070120335,0.010750270448625088,-0.3466757833957672,0.9379090666770935,0.0,0.0,0.0,0.0,0.0,0.0
394,1724915513780478519,-0.5024035573005676,0.11858952045440674,0.15537598729133606,-0.005174464080482721,0.010724489577114582,-0.3468131721019745,0.9378586411476135,0.0,0.0,0.0,0.0,0.0,0.0
396,1724915513790419476,-0.5024016499519348,0.11857601255178452,0.1553887575864792,-0.004538389388471842,0.010883115231990814,-0.3472702205181122,0.9376909732818604,0.0,0.0,0.0,0.0,0.0,0.0
398,1724915513802836925,-0.5023342967033386,0.11853916943073273,0.1554384082555771,-0.003917384427040815,0.010469860397279263,-0.34739047288894653,0.9376540184020996,0.0,0.0,0.0,0.0,0.0,0.0
400,1724915513810294293,-0.5024228096008301,0.118582583963871,0.15539787709712982,-0.005541947670280933,0.010675116442143917,-0.34678804874420166,0.9378664493560791,0.0,0.0,0.0,0.0,0.0,0.0
402,1724915513821569095,-0.502397358417511,0.11858619004487991,0.15537481009960175,-0.005147459451109171,0.010843473486602306,-0.3467644155025482,0.937875509262085,0.0,0.0,0.0,0.0,0.0,0.0
404,1724915513831504671,-0.5023958683013916,0.11859653145074844,0.1553901731967926,-0.005231474060565233,0.010824804194271564,-0.3468347191810608,0.9378492832183838,0.0,0.0,0.0,0.0,0.0,0.0
406,1724915513842007957,-0.5023944973945618,0.11858808249235153,0.15537509322166443,-0.0052857110276818275,0.010659105144441128,-0.34679800271987915,0.937864363193512,0.0,0.0,0.0,0.0,0.0,0.0
408,1724915513850980478,-0.5023972392082214,0.1185770183801651,0.15537302196025848,-0.0052471039816737175,0.010528272949159145,-0.34669211506843567,0.9379053115844727,0.0,0.0,0.0,0.0,0.0,0.0
410,1724915513860749263,-0.5023897886276245,0.1185971349477768,0.15536105632781982,-0.005194624420255423,0.010716459713876247,-0.3468230962753296,0.9378549456596375,0.0,0.0,0.0,0.0,0.0,0.0
412,1724915513872631746,-0.5023390054702759,0.11851593852043152,0.15537069737911224,-0.004154114983975887,0.010202566161751747,-0.3471801280975342,0.9377337694168091,0.0,0.0,0.0,0.0,0.0,0.0
414,1724915513880733224,-0.5023912787437439,0.11858854442834854,0.1553867906332016,-0.005172970704734325,0.010651448741555214,-0.3468436300754547,0.9378482699394226,0.0,0.0,0.0,0.0,0.0,0.0
416,1724915513892507331,-0.5023925304412842,0.11860771477222443,0.1553698480129242,-0.005220364313572645,0.010897926986217499,-0.3467371165752411,0.937884509563446,0.0,0.0,0.0,0.0,0.0,0.0
418,1724915513900095929,-0.5023330450057983,0.11853137612342834,0.15539231896400452,-0.004035077057778835,0.010565224103629589,-0.34728947281837463,0.9376898407936096,0.0,0.0,0.0,0.0,0.0,0.0
420,1724915513910900490,-0.502413272857666,0.11859140545129776,0.15537944436073303,-0.005298737436532974,0.010648515075445175,-0.34685713052749634,0.937842607498169,0.0,0.0,0.0,0.0,0.0,0.0
422,1724915513997834681,-0.5024204254150391,0.11860762536525726,0.15538114309310913,-0.005356075707823038,0.010880126617848873,-0.3468165397644043,0.9378546476364136,0.0,0.0,0.0,0.0,0.0,0.0
424,1724915513998409574,-0.5024058818817139,0.11860112100839615,0.15537972748279572,-0.0051117995753884315,0.010873444378376007,-0.34678271412849426,0.937868595123291,0.0,0.0,0.0,0.0,0.0,0.0
426,1724915513998775336,-0.50234055519104,0.11851616948843002,0.15538591146469116,-0.00405656173825264,0.010252505540847778,-0.3471531569957733,0.937743604183197,0.0,0.0,0.0,0.0,0.0,0.0
428,1724915513999017131,-0.5024154186248779,0.11859477311372757,0.1554034948348999,-0.005262922961264849,0.010611525736749172,-0.3469316363334656,0.9378156065940857,0.0,0.0,0.0,0.0,0.0,0.0
430,1724915513999272169,-0.5023915767669678,0.11858780682086945,0.15539051592350006,-0.0050923083908855915,0.010768488980829716,-0.3467649519443512,0.9378764629364014,0.0,0.0,0.0,0.0,0.0,0.0
432,1724915513999520683,-0.5024046897888184,0.11858762055635452,0.15536785125732422,-0.005222730338573456,0.01066559087485075,-0.3468072712421417,0.9378612637519836,0.0,0.0,0.0,0.0,0.0,0.0
434,1724915513999773872,-0.5023435354232788,0.11852947622537613,0.15541435778141022,-0.004092801827937365,0.010354447178542614,-0.34734246134757996,0.9376722574234009,0.0,0.0,0.0,0.0,0.0,0.0
436,1724915514000026827,-0.5024360418319702,0.11857426166534424,0.15537580847740173,-0.005295769777148962,0.010630344972014427,-0.3468601703643799,0.9378416538238525,0.0,0.0,0.0,0.0,0.0,0.0
438,1724915514000908838,-0.5024237036705017,0.11860018968582153,0.15537051856517792,-0.00519692013040185,0.010853576473891735,-0.3468368351459503,0.9378482699394226,0.0,0.0,0.0,0.0,0.0,0.0
440,1724915514010446568,-0.5024161338806152,0.11860736459493637,0.1553763598203659,-0.005358667112886906,0.0108156343922019,-0.34686005115509033,0.9378392100334167,0.0,0.0,0.0,0.0,0.0,0.0
442,1724915514023968054,-0.5024121403694153,0.1185920462012291,0.15536406636238098,-0.005334073211997747,0.0106534818187356,-0.34679558873176575,0.937865138053894,0.0,0.0,0.0,0.0,0.0,0.0
444,1724915514030499016,-0.5024145245552063,0.11859037727117538,0.15538422763347626,-0.005341940559446812,0.010778414085507393,-0.3467777371406555,0.9378702640533447,0.0,0.0,0.0,0.0,0.0,0.0
446,1724915514114602975,-0.50240558385849,0.11860287934541702,0.15539851784706116,-0.005132212303578854,0.010839201509952545,-0.3468761146068573,0.9378343224525452,0.0,0.0,0.0,0.0,0.0,0.0
448,1724915514115054122,-0.5023428797721863,0.11851919442415237,0.1554161161184311,-0.004076785407960415,0.01022656261920929,-0.34729596972465515,0.9376909732818604,0.0,0.0,0.0,0.0,0.0,0.0
450,1724915514115672030,-0.5023999810218811,0.11856727302074432,0.15538597106933594,-0.005155274178832769,0.010493435896933079,-0.3468848764896393,0.9378347992897034,0.0,0.0,0.0,0.0,0.0,0.0
452,1724915514116286543,-0.5024200677871704,0.11856409907341003,0.15537399053573608,-0.004406759049743414,0.010761389508843422,-0.3472192883491516,0.9377119541168213,0.0,0.0,0.0,0.0,0.0,0.0
454,1724915514116678849,-0.5024288296699524,0.11858657002449036,0.1553773134946823,-0.005196604877710342,0.010846130549907684,-0.3469187021255493,0.937818169593811,0.0,0.0,0.0,0.0,0.0,0.0
456,1724915514118015370,-0.5024034976959229,0.1185983270406723,0.15537729859352112,-0.0048749069683253765,0.010882730595767498,-0.3468213379383087,0.9378553628921509,0.0,0.0,0.0,0.0,0.0,0.0
458,1724915514118278124,-0.5023432970046997,0.11852142214775085,0.15536917746067047,-0.0041361115872859955,0.010337624698877335,-0.34718427062034607,0.9377308487892151,0.0,0.0,0.0,0.0,0.0,0.0
460,1724915514118670275,-0.5024057626724243,0.11859328299760818,0.15538394451141357,-0.005344238597899675,0.010662776418030262,-0.3469463586807251,0.9378092288970947,0.0,0.0,0.0,0.0,0.0,0.0
462,1724915514121487864,-0.502350926399231,0.11852023750543594,0.1553797572851181,-0.004118516109883785,0.010295526124536991,-0.347225546836853,0.9377160668373108,0.0,0.0,0.0,0.0,0.0,0.0
464,1724915514178749015,-0.5023335218429565,0.1185184046626091,0.15541668236255646,-0.003816411131992936,0.010154535062611103,-0.3474336862564087,0.9376418590545654,0.0,0.0,0.0,0.0,0.0,0.0
466,1724915514179132803,-0.5024091005325317,0.11857710033655167,0.15538820624351501,-0.005154415499418974,0.010521621443331242,-0.34683990478515625,0.9378512501716614,0.0,0.0,0.0,0.0,0.0,0.0
468,1724915514179478479,-0.5024142861366272,0.11858738958835602,0.15538859367370605,-0.005330427549779415,0.010692058131098747,-0.34674742817878723,0.9378824234008789,0.0,0.0,0.0,0.0,0.0,0.0
470,1724915514179810241,-0.502405047416687,0.11858516186475754,0.15540416538715363,-0.004564530681818724,0.010936295613646507,-0.3472886085510254,0.9376834630966187,0.0,0.0,0.0,0.0,0.0,0.0
472,1724915514180068266,-0.5024031400680542,0.118601493537426,0.1553727239370346,-0.004984874278306961,0.010817067697644234,-0.34705764055252075,0.9377681612968445,0.0,0.0,0.0,0.0,0.0,0.0
474,1724915514180764444,-0.5023969411849976,0.11858875304460526,0.15536051988601685,-0.00515041733160615,0.010797521099448204,-0.34676939249038696,0.9378741383552551,0.0,0.0,0.0,0.0,0.0,0.0
476,1724915514191245106,-0.5023988485336304,0.11859968304634094,0.15537382662296295,-0.005029621999710798,0.010954540222883224,-0.34666091203689575,0.9379130601882935,0.0,0.0,0.0,0.0,0.0,0.0
478,1724915514200482294,-0.5024045705795288,0.1186026856303215,0.15540392696857452,-0.004251990467309952,0.011174587532877922,-0.347145676612854,0.9377350211143494,0.0,0.0,0.0,0.0,0.0,0.0
480,1724915514216644701,-0.502358615398407,0.11853370070457458,0.15540224313735962,-0.004062991123646498,0.010582403279840946,-0.3473203778266907,0.9376779794692993,0.0,0.0,0.0,0.0,0.0,0.0
482,1724915514220945841,-0.5023349523544312,0.11850127577781677,0.1553942710161209,-0.004116268828511238,0.010027395561337471,-0.34731870889663696,0.9376844763755798,0.0,0.0,0.0,0.0,0.0,0.0
484,1724915514230747224,-0.5024012923240662,0.1185779795050621,0.15538379549980164,-0.005224756430834532,0.010534060187637806,-0.34684479236602783,0.9378488659858704,0.0,0.0,0.0,0.0,0.0,0.0
486,1724915514240441653,-0.502406895160675,0.11859512329101562,0.15538612008094788,-0.005336073227226734,0.010751322843134403,-0.3467635214328766,0.9378758072853088,0.0,0.0,0.0,0.0,0.0,0.0
488,1724915514250462892,-0.5023978352546692,0.11858446151018143,0.15540924668312073,-0.005005719605833292,0.01063426025211811,-0.34689751267433167,0.9378293752670288,0.0,0.0,0.0,0.0,0.0,0.0
490,1724915514260109321,-0.5024021863937378,0.11861640959978104,0.1553983837366104,-0.005136172287166119,0.010908488184213638,-0.3467865586280823,0.9378665685653687,0.0,0.0,0.0,0.0,0.0,0.0
492,1724915514270763743,-0.5024035573005676,0.11858512461185455,0.15536093711853027,-0.0050894771702587605,0.010723683051764965,-0.34671929478645325,0.9378938674926758,0.0,0.0,0.0,0.0,0.0,0.0
494,1724915514280915917,-0.5024114847183228,0.11859221011400223,0.15535888075828552,-0.005150319542735815,0.010849451646208763,-0.3466857075691223,0.9379044771194458,0.0,0.0,0.0,0.0,0.0,0.0
496,1724915514290960665,-0.5024051070213318,0.11858826130628586,0.15535995364189148,-0.005193510092794895,0.010839054360985756,-0.346744179725647,0.9378827214241028,0.0,0.0,0.0,0.0,0.0,0.0
498,1724915514301792859,-0.5024096965789795,0.11859911680221558,0.155369833111763,-0.005426152143627405,0.010800652205944061,-0.3468411862850189,0.9378460645675659,0.0,0.0,0.0,0.0,0.0,0.0
500,1724915514310089700,-0.5024065971374512,0.11858630180358887,0.15535834431648254,-0.005206986330449581,0.010701999999582767,-0.34675267338752747,0.9378811717033386,0.0,0.0,0.0,0.0,0.0,0.0
502,1724915514321494970,-0.502385675907135,0.11858750134706497,0.15535441040992737,-0.004968736786395311,0.010704915970563889,-0.34672796726226807,0.9378915429115295,0.0,0.0,0.0,0.0,0.0,0.0
504,1724915514331244823,-0.5023877024650574,0.11860214173793793,0.1554052233695984,-0.0052092778496444225,0.01093151792883873,-0.34691616892814636,0.9378179311752319,0.0,0.0,0.0,0.0,0.0,0.0
506,1724915514340642312,-0.5023400187492371,0.11851401627063751,0.15539491176605225,-0.004120107740163803,0.010288210585713387,-0.3472089171409607,0.9377223253250122,0.0,0.0,0.0,0.0,0.0,0.0
508,1724915514351358088,-0.502397358417511,0.11858851462602615,0.15539491176605225,-0.005282153841108084,0.01040311437100172,-0.3469204902648926,0.9378220438957214,0.0,0.0,0.0,0.0,0.0,0.0
510,1724915514360621238,-0.5023983716964722,0.11858782917261124,0.1553533524274826,-0.005078621208667755,0.010666923597455025,-0.34669896960258484,0.93790203332901,0.0,0.0,0.0,0.0,0.0,0.0
512,1724915514372213482,-0.502414882183075,0.11860760301351547,0.15535204112529755,-0.0052521503530442715,0.010791116394102573,-0.34671762585639954,0.9378927946090698,0.0,0.0,0.0,0.0,0.0,0.0
514,1724915514381071528,-0.5024145841598511,0.11859095841646194,0.1553473025560379,-0.0051446352154016495,0.01078711822628975,-0.34671247005462646,0.9378952980041504,0.0,0.0,0.0,0.0,0.0,0.0
516,1724915514390561186,-0.5024131536483765,0.11859758198261261,0.15538860857486725,-0.005515050608664751,0.010868633165955544,-0.3468512296676636,0.93784099817276,0.0,0.0,0.0,0.0,0.0,0.0
518,1724915514400524524,-0.5024029016494751,0.11858414113521576,0.1553610861301422,-0.005262949503958225,0.010747527703642845,-0.3468233048915863,0.9378541111946106,0.0,0.0,0.0,0.0,0.0,0.0
520,1724915514410474605,-0.5024116039276123,0.11858225613832474,0.15536794066429138,-0.005244317930191755,0.010622278787195683,-0.34672707319259644,0.9378912448883057,0.0,0.0,0.0,0.0,0.0,0.0
522,1724915514420866990,-0.5024065971374512,0.11859307438135147,0.1553601175546646,-0.005184265319257975,0.01084009651094675,-0.34676703810691833,0.9378743767738342,0.0,0.0,0.0,0.0,0.0,0.0
524,1724915514430652922,-0.5023355484008789,0.11852335184812546,0.15540185570716858,-0.00412913179025054,0.010520309209823608,-0.34724900126457214,0.9377049207687378,0.0,0.0,0.0,0.0,0.0,0.0
526,1724915514441302714,-0.5023879408836365,0.11858899146318436,0.15540939569473267,-0.0050232247449457645,0.010819928720593452,-0.3470570147037506,0.9377681612968445,0.0,0.0,0.0,0.0,0.0,0.0
528,1724915514450416221,-0.5023508071899414,0.11852017045021057,0.15535303950309753,-0.004056193865835667,0.010311651974916458,-0.347080796957016,0.9377698302268982,0.0,0.0,0.0,0.0,0.0,0.0
530,1724915514460404988,-0.5023905038833618,0.1185922771692276,0.155386283993721,-0.005110001191496849,0.010793948546051979,-0.3468550741672516,0.9378426671028137,0.0,0.0,0.0,0.0,0.0,0.0
532,1724915514470530859,-0.5024179220199585,0.11860109120607376,0.15537123382091522,-0.005371503997594118,0.010853594169020653,-0.34673306345939636,0.9378857016563416,0.0,0.0,0.0,0.0,0.0,0.0
534,1724915514481112789,-0.5024032592773438,0.11859878897666931,0.1553625911474228,-0.005149906035512686,0.01097802072763443,-0.34672972559928894,0.9378867149353027,0.0,0.0,0.0,0.0,0.0,0.0
536,1724915514490482839,-0.5024030804634094,0.11858253926038742,0.15536074340343475,-0.005087728146463633,0.01076831016689539,-0.3467189371585846,0.9378934502601624,0.0,0.0,0.0,0.0,0.0,0.0
538,1724915514504114197,-0.5024011731147766,0.11858813464641571,0.15534037351608276,-0.005289111286401749,0.010673093609511852,-0.3466961979866028,0.9379018545150757,0.0,0.0,0.0,0.0,0.0,0.0
540,1724915514510165829,-0.5024126768112183,0.11858675628900528,0.1553550809621811,-0.005360820796340704,0.01061891671270132,-0.3467141091823578,0.9378954172134399,0.0,0.0,0.0,0.0,0.0,0.0
542,1724915514524599029,-0.5023989677429199,0.1185847818851471,0.15535704791545868,-0.005082979332655668,0.010708553716540337,-0.3467347025871277,0.9378883242607117,0.0,0.0,0.0,0.0,0.0,0.0
544,1724915514530275130,-0.502409815788269,0.11860394477844238,0.15539295971393585,-0.005147882271558046,0.010807815007865429,-0.3469299376010895,0.9378147125244141,0.0,0.0,0.0,0.0,0.0,0.0
546,1724915514540693502,-0.5024200081825256,0.11860474944114685,0.15539973974227905,-0.005297819618135691,0.010949911549687386,-0.3468608856201172,0.9378377795219421,0.0,0.0,0.0,0.0,0.0,0.0
548,1724915514560355272,-0.5024220943450928,0.11858624219894409,0.15536046028137207,-0.005337968003004789,0.010659606195986271,-0.3466795086860657,0.9379079341888428,0.0,0.0,0.0,0.0,0.0,0.0
550,1724915514560738096,-0.5024120807647705,0.11859819293022156,0.15538710355758667,-0.005302957724779844,0.010816918686032295,-0.3467606008052826,0.9378763437271118,0.0,0.0,0.0,0.0,0.0,0.0
552,1724915514570643674,-0.5023558139801025,0.1185200959444046,0.1553887575864792,-0.004031714983284473,0.010275516659021378,-0.3472951650619507,0.9376909732818604,0.0,0.0,0.0,0.0,0.0,0.0
554,1724915514581294473,-0.5024142861366272,0.11857728660106659,0.15538860857486725,-0.005196952726691961,0.010615441016852856,-0.3468720316886902,0.9378379583358765,0.0,0.0,0.0,0.0,0.0,0.0
556,1724915514590429499,-0.5024216175079346,0.11860556155443192,0.1553972065448761,-0.0053877863101661205,0.010917166247963905,-0.3468264043331146,0.9378503561019897,0.0,0.0,0.0,0.0,0.0,0.0
558,1724915514600935577,-0.5024055242538452,0.11861246824264526,0.15538468956947327,-0.005413475446403027,0.011081712320446968,-0.34678900241851807,0.9378620982170105,0.0,0.0,0.0,0.0,0.0,0.0
560,1724915514611356964,-0.5023451447486877,0.11852622032165527,0.15538205206394196,-0.004144361242651939,0.0103799132630229,-0.3471566140651703,0.9377406239509583,0.0,0.0,0.0,0.0,0.0,0.0
562,1724915514622388401,-0.5024086833000183,0.11857693642377853,0.15535707771778107,-0.005194608587771654,0.01056563202291727,-0.34680822491645813,0.9378622174263,0.0,0.0,0.0,0.0,0.0,0.0
564,1724915514630912564,-0.5024109482765198,0.11859439313411713,0.15539099276065826,-0.00531681627035141,0.010762747377157211,-0.3468487858772278,0.9378442764282227,0.0,0.0,0.0,0.0,0.0,0.0
566,1724915514640141893,-0.5023279190063477,0.11851824820041656,0.15539979934692383,-0.0039861006662249565,0.010422241874039173,-0.34728682041168213,0.9376925230026245,0.0,0.0,0.0,0.0,0.0,0.0
568,1724915514650732315,-0.502418577671051,0.11858086287975311,0.15534330904483795,-0.005262622144073248,0.010532534681260586,-0.3467409014701843,0.9378871321678162,0.0,0.0,0.0,0.0,0.0,0.0
570,1724915514660565072,-0.5024083256721497,0.1185980811715126,0.15536466240882874,-0.005251562688499689,0.01074038166552782,-0.3467745780944824,0.9378723502159119,0.0,0.0,0.0,0.0,0.0,0.0
572,1724915514672427055,-0.5023900270462036,0.11858943849802017,0.1553889662027359,-0.004413418006151915,0.01094179879873991,-0.3473493754863739,0.9376616477966309,0.0,0.0,0.0,0.0,0.0,0.0
574,1724915514680260744,-0.502403199672699,0.11860156804323196,0.1553676426410675,-0.0047770035453140736,0.010801125317811966,-0.34689727425575256,0.9378288388252258,0.0,0.0,0.0,0.0,0.0,0.0
576,1724915514690154703,-0.5024006962776184,0.11857663840055466,0.1553884893655777,-0.0043746852315962315,0.010816261172294617,-0.3472777009010315,0.9376898407936096,0.0,0.0,0.0,0.0,0.0,0.0
578,1724915514700212479,-0.5024279952049255,0.11861104518175125,0.15540362894535065,-0.005353216547518969,0.010936702601611614,-0.3469482958316803,0.9378052353858948,0.0,0.0,0.0,0.0,0.0,0.0
580,1724915514710243263,-0.5023516416549683,0.1185297966003418,0.15538397431373596,-0.004214322194457054,0.010426041670143604,-0.34714680910110474,0.9377434253692627,0.0,0.0,0.0,0.0,0.0,0.0
582,1724915514720603934,-0.5023937821388245,0.11859546601772308,0.15539433062076569,-0.005149126518517733,0.010767194442451,-0.34696272015571594,0.9378029704093933,0.0,0.0,0.0,0.0,0.0,0.0
584,1724915514729990924,-0.5024093985557556,0.11859579384326935,0.1553405076265335,-0.005225122440606356,0.0106510566547513,-0.34669068455696106,0.9379044771194458,0.0,0.0,0.0,0.0,0.0,0.0
586,1724915514770094774,-0.5024054646492004,0.11859921365976334,0.15535935759544373,-0.005289527587592602,0.010844634845852852,-0.34672093391418457,0.9378907084465027,0.0,0.0,0.0,0.0,0.0,0.0
588,1724915514770383001,-0.5024052858352661,0.11858037859201431,0.15537865459918976,-0.004544542171061039,0.01094008143991232,-0.3473171293735504,0.9376729726791382,0.0,0.0,0.0,0.0,0.0,0.0
590,1724915514770625475,-0.5024224519729614,0.11859115958213806,0.1553732305765152,-0.005144121125340462,0.010799248702824116,-0.3469371497631073,0.937812089920044,0.0,0.0,0.0,0.0,0.0,0.0
592,1724915514771022077,-0.5024241805076599,0.11858221143484116,0.15534812211990356,-0.005512169096618891,0.01068977639079094,-0.3466455042362213,0.9379191398620605,0.0,0.0,0.0,0.0,0.0,0.0
594,1724915514780641923,-0.5024154782295227,0.1185951754450798,0.1553463190793991,-0.005318788345903158,0.010664192959666252,-0.34670114517211914,0.9378999471664429,0.0,0.0,0.0,0.0,0.0,0.0
596,1724915514790373875,-0.5023279786109924,0.11851971596479416,0.15540076792240143,-0.003998999949544668,0.010272279381752014,-0.3473329544067383,0.9376770853996277,0.0,0.0,0.0,0.0,0.0,0.0
598,1724915514800534791,-0.5024167895317078,0.11857620626688004,0.15537916123867035,-0.005433696322143078,0.010572763159871101,-0.3468645215034485,0.937839925289154,0.0,0.0,0.0,0.0,0.0,0.0
600,1724915514810120648,-0.5023448467254639,0.11853116005659103,0.1553972214460373,-0.004315318539738655,0.010383222252130508,-0.347257524728775,0.9377024173736572,0.0,0.0,0.0,0.0,0.0,0.0
602,1724915514821196300,-0.5023981928825378,0.11859367787837982,0.15539652109146118,-0.005206481087952852,0.010791190899908543,-0.34697481989860535,0.9377979040145874,0.0,0.0,0.0,0.0,0.0,0.0
604,1724915514831454407,-0.5024009346961975,0.11859564483165741,0.1553782969713211,-0.005217397585511208,0.010807936079800129,-0.34675148129463196,0.9378803372383118,0.0,0.0,0.0,0.0,0.0,0.0
606,1724915514840544887,-0.502326250076294,0.11853308230638504,0.15540798008441925,-0.003955750726163387,0.010446466505527496,-0.3473690152168274,0.9376620054244995,0.0,0.0,0.0,0.0,0.0,0.0
608,1724915514852155417,-0.5023937821388245,0.11859417706727982,0.155414879322052,-0.0043977126479148865,0.010896498337388039,-0.3473946750164032,0.9376453757286072,0.0,0.0,0.0,0.0,0.0,0.0
610,1724915514861108739,-0.5024269223213196,0.118590347468853,0.1553986370563507,-0.0047041280195117,0.011073348112404346,-0.34732162952423096,0.9376689791679382,0.0,0.0,0.0,0.0,0.0,0.0
612,1724915514871223675,-0.5023521780967712,0.11854176968336105,0.15539713203907013,-0.0041143568232655525,0.01047440990805626,-0.34738126397132874,0.9376565217971802,0.0,0.0,0.0,0.0,0.0,0.0
614,1724915514881082770,-0.5023213028907776,0.11877003312110901,0.15570864081382751,-0.004178221803158522,0.01302922423928976,-0.3485332131385803,0.9371965527534485,0.0,0.0,0.0,0.0,0.0,0.0
616,1724915514890678813,-0.5023107528686523,0.11867920309305191,0.15545585751533508,-0.0027596992440521717,0.011273291893303394,-0.3474995791912079,0.9376083612442017,0.0,0.0,0.0,0.0,0.0,0.0
618,1724915514900436090,-0.5022765398025513,0.11867037415504456,0.1554332673549652,-0.0022349294740706682,0.01110605988651514,-0.34753674268722534,0.937597930431366,0.0,0.0,0.0,0.0,0.0,0.0
620,1724915514910692700,-0.5022919774055481,0.1186487153172493,0.1554020345211029,-0.0022479661274701357,0.010800518095493317,-0.3473958671092987,0.937653660774231,0.0,0.0,0.0,0.0,0.0,0.0
622,1724915514921491730,-0.5022863745689392,0.11866054683923721,0.1553860604763031,-0.002222232986241579,0.010889238677918911,-0.3473469614982605,0.937670886516571,0.0,0.0,0.0,0.0,0.0,0.0
624,1724915514930862573,-0.502293586730957,0.11867889016866684,0.15542855858802795,-0.002407413674518466,0.011095326393842697,-0.3475436270236969,0.9375950694084167,0.0,0.0,0.0,0.0,0.0,0.0
626,1724915514941261111,-0.502286434173584,0.11865086853504181,0.15540559589862823,-0.002488519996404648,0.011028915643692017,-0.3475632071495056,0.9375883936882019,0.0,0.0,0.0,0.0,0.0,0.0
628,1724915514950421650,-0.5022860765457153,0.11863095313310623,0.15544573962688446,-0.0016769052017480135,0.011308922432363033,-0.34804749488830566,0.9374072551727295,0.0,0.0,0.0,0.0,0.0,0.0
630,1724915514960489909,-0.5023171901702881,0.11872061342000961,0.1555556356906891,-0.0033378645312041044,0.01208997517824173,-0.3481983244419098,0.9373369812965393,0.0,0.0,0.0,0.0,0.0,0.0
632,1724915514971340051,-0.5023106932640076,0.11877281218767166,0.15567724406719208,-0.0044625382870435715,0.01290752924978733,-0.348302960395813,0.9372825026512146,0.0,0.0,0.0,0.0,0.0,0.0
634,1724915514980503785,-0.5022962689399719,0.11876514554023743,0.155694842338562,-0.0046093035489320755,0.01276443712413311,-0.34832438826560974,0.937275767326355,0.0,0.0,0.0,0.0,0.0,0.0
636,1724915515013603819,-0.5023138523101807,0.11879653483629227,0.15563827753067017,-0.004380573984235525,0.012564600445330143,-0.34774133563041687,0.9374960660934448,0.0,0.0,0.0,0.0,0.0,0.0
638,1724915515013876736,-0.502258837223053,0.11872043460607529,0.15567323565483093,-0.0033414263743907213,0.012024883180856705,-0.34837624430656433,0.9372717142105103,0.0,0.0,0.0,0.0,0.0,0.0
640,1724915515014200170,-0.5022662281990051,0.1187169998884201,0.15569232404232025,-0.003420459572225809,0.011785176582634449,-0.34854698181152344,0.9372109770774841,0.0,0.0,0.0,0.0,0.0,0.0
642,1724915515030900843,-0.5023338198661804,0.11880714446306229,0.1556163728237152,-0.004252756480127573,0.012254751287400723,-0.3477763831615448,0.937487781047821,0.0,0.0,0.0,0.0,0.0,0.0
644,1724915515031381299,-0.5023583173751831,0.11862784624099731,0.15537585318088531,-0.004819533322006464,0.010928480885922909,-0.3469856083393097,0.9377944469451904,0.0,0.0,0.0,0.0,0.0,0.0
646,1724915515040039610,-0.5023207664489746,0.11849837005138397,0.15535488724708557,-0.003705626120790839,0.009963148273527622,-0.3473399579524994,0.93767911195755,0.0,0.0,0.0,0.0,0.0,0.0
648,1724915515053092563,-0.5024020671844482,0.1185644343495369,0.15534405410289764,-0.005161585286259651,0.010346163995563984,-0.3469255864620209,0.9378213882446289,0.0,0.0,0.0,0.0,0.0,0.0
650,1724915515062684610,-0.502405047416687,0.11855871975421906,0.15533868968486786,-0.005249125882983208,0.010418014600872993,-0.34670260548591614,0.937902569770813,0.0,0.0,0.0,0.0,0.0,0.0
652,1724915515070423125,-0.5024155378341675,0.11857818067073822,0.15535621345043182,-0.005305842962116003,0.01065684761852026,-0.3467453420162201,0.9378837943077087,0.0,0.0,0.0,0.0,0.0,0.0
654,1724915515080396789,-0.5024223327636719,0.11864225566387177,0.15534625947475433,-0.004791424609720707,0.010473313741385937,-0.3464372158050537,0.9380025267601013,0.0,0.0,0.0,0.0,0.0,0.0
656,1724915515092074579,-0.5023342967033386,0.11858484148979187,0.1553812474012375,-0.0031211660243570805,0.01000293716788292,-0.34706616401672363,0.9377821683883667,0.0,0.0,0.0,0.0,0.0,0.0
658,1724915515100999008,-0.5024924278259277,0.11867325007915497,0.15533973276615143,-0.006039537489414215,0.01077195629477501,-0.34599360823631287,0.9381556510925293,0.0,0.0,0.0,0.0,0.0,0.0
660,1724915515110074700,-0.5026334524154663,0.11879485100507736,0.15525932610034943,-0.007807263173162937,0.011445262469351292,-0.34543827176094055,0.9383392930030823,0.0,0.0,0.0,0.0,0.0,0.0
662,1724915515120356427,-0.5025600790977478,0.11861655861139297,0.15529856085777283,-0.007499244529753923,0.01079697348177433,-0.34629154205322266,0.9380348324775696,0.0,0.0,0.0,0.0,0.0,0.0
664,1724915515130764958,-0.5024842619895935,0.1185297966003418,0.15522389113903046,-0.005909763742238283,0.010119433514773846,-0.3463129699230194,0.938045859336853,0.0,0.0,0.0,0.0,0.0,0.0
666,1724915515139868499,-0.502585232257843,0.11850123107433319,0.15491296350955963,-0.004782711621373892,0.00931437686085701,-0.34559306502342224,0.9383261203765869,0.0,0.0,0.0,0.0,0.0,0.0
668,1724915515150263319,-0.5025378465652466,0.11861258745193481,0.15511423349380493,-0.003890693187713623,0.01005999743938446,-0.34656551480293274,0.9379637241363525,0.0,0.0,0.0,0.0,0.0,0.0
670,1724915515160478835,-0.5025410652160645,0.11863411962985992,0.15514053404331207,-0.003454105695709586,0.010293509811162949,-0.3467053472995758,0.9379112720489502,0.0,0.0,0.0,0.0,0.0,0.0
672,1724915515170303396,-0.5025045275688171,0.11850383877754211,0.15496638417243958,-0.001114114304073155,0.008509020321071148,-0.34608209133148193,0.938165009021759,0.0,0.0,0.0,0.0,0.0,0.0
674,1724915515180551670,-0.5025838017463684,0.11847975105047226,0.15497249364852905,-0.003496831748634577,0.009349441155791283,-0.3457508683204651,0.9382732510566711,0.0,0.0,0.0,0.0,0.0,0.0
676,1724915515191839470,-0.5025249123573303,0.11863488703966141,0.15522992610931396,-0.003678972367197275,0.011230086907744408,-0.3469323217868805,0.9378157258033752,0.0,0.0,0.0,0.0,0.0,0.0
678,1724915515205456065,-0.5025293827056885,0.11867222189903259,0.15526776015758514,-0.0045929900370538235,0.01167890802025795,-0.3470110595226288,0.9377771615982056,0.0,0.0,0.0,0.0,0.0,0.0
680,1724915515210203759,-0.5025249719619751,0.11867331713438034,0.1552540510892868,-0.004580086097121239,0.01176594477146864,-0.3470601737499237,0.9377578496932983,0.0,0.0,0.0,0.0,0.0,0.0
682,1724915515220605767,-0.5025240778923035,0.11866457760334015,0.1552354097366333,-0.00474299443885684,0.011771026067435741,-0.34707871079444885,0.9377502202987671,0.0,0.0,0.0,0.0,0.0,0.0
684,1724915515230525938,-0.5025346279144287,0.11866077780723572,0.1552436500787735,-0.004898694343864918,0.011787294410169125,-0.34705081582069397,0.9377594590187073,0.0,0.0,0.0,0.0,0.0,0.0
686,1724915515296023472,-0.5025467276573181,0.11865484714508057,0.15524084866046906,-0.005053109955042601,0.011825832538306713,-0.346966415643692,0.9377894401550293,0.0,0.0,0.0,0.0,0.0,0.0
688,1724915515296868971,-0.5025675296783447,0.11864450573921204,0.15520824491977692,-0.004989050328731537,0.011524944566190243,-0.3467662036418915,0.9378675222396851,0.0,0.0,0.0,0.0,0.0,0.0
690,1724915515297402855,-0.5024770498275757,0.11867879331111908,0.15529727935791016,-0.0025751139037311077,0.01106188539415598,-0.347383588552475,0.9376543760299683,0.0,0.0,0.0,0.0,0.0,0.0
692,1724915515297980398,-0.5024804472923279,0.11884721368551254,0.15541061758995056,-0.0038205264136195183,0.011953472159802914,-0.34789466857910156,0.9374496340751648,0.0,0.0,0.0,0.0,0.0,0.0
694,1724915515298363939,-0.5025739669799805,0.11857063323259354,0.1549273431301117,-0.0013771681115031242,0.009283402003347874,-0.34642982482910156,0.9380290508270264,0.0,0.0,0.0,0.0,0.0,0.0
696,1724915515298709779,-0.5024678111076355,0.11861512064933777,0.15509606897830963,-0.00039012893103063107,0.010085903108119965,-0.3470635712146759,0.9377873539924622,0.0,0.0,0.0,0.0,0.0,0.0
698,1724915515300636238,-0.5024258494377136,0.11868175864219666,0.15520405769348145,-0.00022698282555211335,0.010845273733139038,-0.3477569818496704,0.9375219345092773,0.0,0.0,0.0,0.0,0.0,0.0
700,1724915515310658628,-0.5024567246437073,0.11872714012861252,0.1552298218011856,-0.0009734733030200005,0.011104278266429901,-0.3476840853691101,0.9375455379486084,0.0,0.0,0.0,0.0,0.0,0.0
702,1724915515320754692,-0.502598762512207,0.11896871030330658,0.15530866384506226,-0.0025794617831707,0.013202043250203133,-0.3476686179637909,0.9375210404396057,0.0,0.0,0.0,0.0,0.0,0.0
704,1724915515332610439,-0.5024099349975586,0.11878153681755066,0.15521952509880066,-0.0012550741666927934,0.011319544166326523,-0.3470399081707001,0.9377812743186951,0.0,0.0,0.0,0.0,0.0,0.0
706,1724915515340111432,-0.502274751663208,0.11864078789949417,0.15512731671333313,-0.0009203196386806667,0.009563324972987175,-0.3465780019760132,0.9379720091819763,0.0,0.0,0.0,0.0,0.0,0.0
708,1724915515350170235,-0.5022572875022888,0.11859592795372009,0.1550723910331726,-0.001150510972365737,0.008443381637334824,-0.34673798084259033,0.9379233121871948,0.0,0.0,0.0,0.0,0.0,0.0
710,1724915515361678016,-0.5022760033607483,0.1185644119977951,0.15505127608776093,-0.0005256030708551407,0.008437088690698147,-0.3472749888896942,0.9377252459526062,0.0,0.0,0.0,0.0,0.0,0.0
712,1724915515370098879,-0.5023031830787659,0.11859597265720367,0.1550695300102234,8.036110375542194e-05,0.009307526983320713,-0.34756821393966675,0.9376084804534912,0.0,0.0,0.0,0.0,0.0,0.0
714,1724915515380447904,-0.5023435950279236,0.11859314143657684,0.15503868460655212,0.0005426894058473408,0.009740237146615982,-0.34728914499282837,0.9377073645591736,0.0,0.0,0.0,0.0,0.0,0.0
716,1724915515390008798,-0.5023359060287476,0.11865587532520294,0.15512922406196594,0.0005864026607014239,0.009603285230696201,-0.3481491506099701,0.9373898506164551,0.0,0.0,0.0,0.0,0.0,0.0
718,1724915515399918211,-0.5022059082984924,0.11871502548456192,0.1551571637392044,0.0020458765793591738,0.010422103106975555,-0.34801027178764343,0.9374306201934814,0.0,0.0,0.0,0.0,0.0,0.0
720,1724915515410409058,-0.5021575689315796,0.11876605451107025,0.15519313514232635,0.0023913197219371796,0.010540089569985867,-0.34826070070266724,0.9373354911804199,0.0,0.0,0.0,0.0,0.0,0.0
722,1724915515419996749,-0.5023045539855957,0.11874645948410034,0.15517622232437134,-0.0003212419687770307,0.011392156593501568,-0.3477916419506073,0.9375026226043701,0.0,0.0,0.0,0.0,0.0,0.0
724,1724915515430449937,-0.5023399591445923,0.11875107884407043,0.15517239272594452,-0.0002597313723526895,0.011764509603381157,-0.3476015627384186,0.9375684857368469,0.0,0.0,0.0,0.0,0.0,0.0
726,1724915515440488793,-0.502422571182251,0.11883506178855896,0.15521955490112305,-0.0006006823969073594,0.012670962139964104,-0.3480340242385864,0.9373960494995117,0.0,0.0,0.0,0.0,0.0,0.0
728,1724915515450541831,-0.5025269389152527,0.1188422441482544,0.1552894562482834,-0.0018008857732638717,0.012636004015803337,-0.34868907928466797,0.9371516108512878,0.0,0.0,0.0,0.0,0.0,0.0
730,1724915515460073819,-0.5024145841598511,0.119085393846035,0.15564337372779846,-0.0006156009039841592,0.014870085753500462,-0.3503795564174652,0.9364895224571228,0.0,0.0,0.0,0.0,0.0,0.0
732,1724915515471771887,-0.502415657043457,0.1191161721944809,0.15569578111171722,-0.000969744985923171,0.015265640802681446,-0.35054802894592285,0.9364198446273804,0.0,0.0,0.0,0.0,0.0,0.0
734,1724915515480533563,-0.5024329423904419,0.11908550560474396,0.15564556419849396,-0.0010216108057647943,0.014994058758020401,-0.35039475560188293,0.9364815950393677,0.0,0.0,0.0,0.0,0.0,0.0
736,1724915515490211067,-0.5024126768112183,0.11909415572881699,0.15569119155406952,-0.0006707791471853852,0.015158499591052532,-0.35060957074165344,0.9363988041877747,0.0,0.0,0.0,0.0,0.0,0.0
738,1724915515501612480,-0.5025824904441833,0.11901368200778961,0.15560311079025269,-0.004307039547711611,0.014490443281829357,-0.3499676585197449,0.9366399049758911,0.0,0.0,0.0,0.0,0.0,0.0
740,1724915515509971535,-0.5025856494903564,0.11893975734710693,0.1555478423833847,-0.00457077706232667,0.014297840185463428,-0.34971100091934204,0.9367374181747437,0.0,0.0,0.0,0.0,0.0,0.0
742,1724915515581375075,-0.5025716423988342,0.11893707513809204,0.1555575579404831,-0.0044184718281030655,0.014195486903190613,-0.349703848361969,0.9367424249649048,0.0,0.0,0.0,0.0,0.0,0.0
744,1724915515581731765,-0.502568244934082,0.11891720443964005,0.15551632642745972,-0.004177385941147804,0.014041338115930557,-0.34952133893966675,0.9368138909339905,0.0,0.0,0.0,0.0,0.0,0.0
746,1724915515582037733,-0.5025625228881836,0.11892151832580566,0.15553343296051025,-0.004203897900879383,0.014065648429095745,-0.34981080889701843,0.9367054104804993,0.0,0.0,0.0,0.0,0.0,0.0
748,1724915515582302555,-0.5025265216827393,0.11873815953731537,0.15530641376972198,-0.0035692371893674135,0.012670227326452732,-0.34903597831726074,0.9370169043540955,0.0,0.0,0.0,0.0,0.0,0.0
750,1724915515582634990,-0.5025016665458679,0.11889335513114929,0.15534929931163788,-0.001579225528985262,0.01238072756677866,-0.34894558787345886,0.9370598793029785,0.0,0.0,0.0,0.0,0.0,0.0
752,1724915515583030943,-0.5024128556251526,0.1186930313706398,0.15499742329120636,0.0016938901972025633,0.00994042120873928,-0.3477885127067566,0.9375187754631042,0.0,0.0,0.0,0.0,0.0,0.0
754,1724915515583397591,-0.502436101436615,0.1185893788933754,0.15485812723636627,0.002220805501565337,0.009508891962468624,-0.3474304676055908,0.9376549124717712,0.0,0.0,0.0,0.0,0.0,0.0
756,1724915515589895251,-0.502464234828949,0.11864831298589706,0.1548277735710144,0.0016469863476231694,0.008714208379387856,-0.3476189970970154,0.937593936920166,0.0,0.0,0.0,0.0,0.0,0.0
758,1724915515639202994,-0.5025591850280762,0.11878669261932373,0.15493007004261017,-0.0018276090268045664,0.010606558062136173,-0.3479456901550293,0.9374529719352722,0.0,0.0,0.0,0.0,0.0,0.0
760,1724915515639594856,-0.5026591420173645,0.11870061606168747,0.15490934252738953,-0.0030420408584177494,0.010258008725941181,-0.34769144654273987,0.937548041343689,0.0,0.0,0.0,0.0,0.0,0.0
762,1724915515640105687,-0.5026980042457581,0.11870977282524109,0.1550346165895462,-0.0005557268159464002,0.010496309027075768,-0.34806424379348755,0.9374117255210876,0.0,0.0,0.0,0.0,0.0,0.0
764,1724915515640404204,-0.5028485059738159,0.11848331987857819,0.15446993708610535,0.0003829598717857152,0.008649187162518501,-0.34577226638793945,0.9382786154747009,0.0,0.0,0.0,0.0,0.0,0.0
766,1724915515640754782,-0.5027718544006348,0.11839230358600616,0.15434260666370392,0.0011114415246993303,0.008771765977144241,-0.3446851074695587,0.9386767745018005,0.0,0.0,0.0,0.0,0.0,0.0
768,1724915515650248443,-0.5028051733970642,0.11843138933181763,0.1542857587337494,0.0019273424986749887,0.008968659676611423,-0.34487274289131165,0.9386046528816223,0.0,0.0,0.0,0.0,0.0,0.0
770,1724915515661108407,-0.5027923583984375,0.11838923394680023,0.1544247418642044,0.0012127404334023595,0.00888234656304121,-0.3454505503177643,0.9383941292762756,0.0,0.0,0.0,0.0,0.0,0.0
772,1724915515670101370,-0.5029154419898987,0.11829177290201187,0.15467379987239838,-0.004912243690341711,0.010289281606674194,-0.34607231616973877,0.9381386041641235,0.0,0.0,0.0,0.0,0.0,0.0
774,1724915515679761624,-0.5028774738311768,0.11832499504089355,0.15485568344593048,-0.006537525914609432,0.010878720320761204,-0.34718355536460876,0.9377113580703735,0.0,0.0,0.0,0.0,0.0,0.0
776,1724915515689909237,-0.5028892755508423,0.11844301968812943,0.15496523678302765,-0.007808498572558165,0.010733766481280327,-0.34811103343963623,0.9373593926429749,0.0,0.0,0.0,0.0,0.0,0.0
778,1724915515700030817,-0.5029328465461731,0.11850115656852722,0.15497110784053802,-0.008992011658847332,0.011006215587258339,-0.3484616279602051,0.9372153878211975,0.0,0.0,0.0,0.0,0.0,0.0
780,1724915515710092953,-0.502945601940155,0.11854763329029083,0.15506680309772491,-0.009640092961490154,0.011433451436460018,-0.3490219712257385,0.9369952082633972,0.0,0.0,0.0,0.0,0.0,0.0
782,1724915515720644713,-0.5030066967010498,0.11876834183931351,0.15526644885540009,-0.011173604987561703,0.012576392851769924,-0.3508535325527191,0.936279296875,0.0,0.0,0.0,0.0,0.0,0.0
784,1724915515730004478,-0.5030158162117004,0.11912545561790466,0.15551818907260895,-0.011418121866881847,0.015083122067153454,-0.35287633538246155,0.9354788064956665,0.0,0.0,0.0,0.0,0.0,0.0
786,1724915515742050773,-0.5029001832008362,0.11901187896728516,0.15534895658493042,-0.01050183828920126,0.015264781191945076,-0.35164645314216614,0.9359495043754578,0.0,0.0,0.0,0.0,0.0,0.0
788,1724915515750300182,-0.5028795599937439,0.11899896711111069,0.15524443984031677,-0.00969123188406229,0.01513469684869051,-0.3509843349456787,0.9362088441848755,0.0,0.0,0.0,0.0,0.0,0.0
790,1724915515759982696,-0.5028466582298279,0.11905703693628311,0.15529929101467133,-0.009119337424635887,0.015395940281450748,-0.3516371250152588,0.935965359210968,0.0,0.0,0.0,0.0,0.0,0.0
792,1724915515770737152,-0.5028364062309265,0.11902128159999847,0.15534596145153046,-0.01046283170580864,0.016544703394174576,-0.35445547103881836,0.9348679780960083,0.0,0.0,0.0,0.0,0.0,0.0
794,1724915515780433021,-0.5027161836624146,0.11871412396430969,0.15502828359603882,-0.007224890403449535,0.013474371284246445,-0.3502218425273895,0.9365420937538147,0.0,0.0,0.0,0.0,0.0,0.0
796,1724915515790201771,-0.5027481913566589,0.11849511414766312,0.15468467772006989,-0.0049564531072974205,0.011529588140547276,-0.34749141335487366,0.937599241733551,0.0,0.0,0.0,0.0,0.0,0.0
798,1724915515800817289,-0.5027987360954285,0.11838153004646301,0.15452122688293457,-0.003958537243306637,0.010909464210271835,-0.3461441397666931,0.9381095170974731,0.0,0.0,0.0,0.0,0.0,0.0
800,1724915515810162149,-0.5027685165405273,0.11849581450223923,0.15461893379688263,-0.003367402357980609,0.011359501630067825,-0.3462337851524353,0.9380735158920288,0.0,0.0,0.0,0.0,0.0,0.0
802,1724915515820699131,-0.5029487609863281,0.11856351047754288,0.15447324514389038,-0.0038159494288265705,0.011328572407364845,-0.3463518023490906,0.9380285143852234,0.0,0.0,0.0,0.0,0.0,0.0
804,1724915515831270522,-0.502967894077301,0.11853034049272537,0.1543872058391571,-0.003501510713249445,0.011402198113501072,-0.34640559554100037,0.9380090236663818,0.0,0.0,0.0,0.0,0.0,0.0
806,1724915515840006772,-0.5029333233833313,0.11814062297344208,0.15362893044948578,0.0015921377344056964,0.008284117095172405,-0.3430069088935852,0.9392950534820557,0.0,0.0,0.0,0.0,0.0,0.0
808,1724915515850658759,-0.502995491027832,0.1180582344532013,0.15346968173980713,0.001653878833167255,0.008167172782123089,-0.34223198890686035,0.9395785331726074,0.0,0.0,0.0,0.0,0.0,0.0
810,1724915515859890586,-0.502938985824585,0.11787782609462738,0.15358689427375793,0.0007138997898437083,0.007424645125865936,-0.342402845621109,0.9395236372947693,0.0,0.0,0.0,0.0,0.0,0.0
812,1724915515870095873,-0.5028558373451233,0.11787315458059311,0.15360145270824432,0.0006074877455830574,0.008376732468605042,-0.34271615743637085,0.9394014477729797,0.0,0.0,0.0,0.0,0.0,0.0
814,1724915515880410268,-0.5028634071350098,0.11800093948841095,0.15346500277519226,0.0006751987966708839,0.00987672246992588,-0.34312957525253296,0.9392359256744385,0.0,0.0,0.0,0.0,0.0,0.0
816,1724915515923582550,-0.5030927658081055,0.1184304878115654,0.15357325971126556,-0.0025219356175512075,0.013377288356423378,-0.3447512686252594,0.9385954141616821,0.0,0.0,0.0,0.0,0.0,0.0
818,1724915515924026065,-0.5033350586891174,0.11862099170684814,0.153229221701622,-0.002563248621299863,0.015041324310004711,-0.3446527123451233,0.938606321811676,0.0,0.0,0.0,0.0,0.0,0.0
820,1724915515924388540,-0.5035537481307983,0.11875046044588089,0.15294480323791504,-0.00237662042491138,0.016613909974694252,-0.34463000297546387,0.938588559627533,0.0,0.0,0.0,0.0,0.0,0.0
822,1724915515924745994,-0.5036557912826538,0.11882592737674713,0.1527257263660431,-0.0016698333201929927,0.01784295216202736,-0.3448118567466736,0.938500702381134,0.0,0.0,0.0,0.0,0.0,0.0
824,1724915515930326660,-0.5037965178489685,0.11888165771961212,0.15257152915000916,-0.0010721215512603521,0.018277309834957123,-0.3446764349937439,0.9385429620742798,0.0,0.0,0.0,0.0,0.0,0.0
826,1724915515940326730,-0.5041200518608093,0.11871474236249924,0.152618870139122,-0.0015566700603812933,0.01775694079697132,-0.3436451554298401,0.9389303922653198,0.0,0.0,0.0,0.0,0.0,0.0
828,1724915515950401500,-0.5042539238929749,0.11861293762922287,0.1531483232975006,-0.0013967149425297976,0.01718566007912159,-0.3439374566078186,0.9388342499732971,0.0,0.0,0.0,0.0,0.0,0.0
830,1724915515960436271,-0.5043621063232422,0.11840993165969849,0.15396681427955627,-0.0017751973355188966,0.015795761719346046,-0.34437108039855957,0.9386991262435913,0.0,0.0,0.0,0.0,0.0,0.0
832,1724915515983193999,-0.5047307014465332,0.11849379539489746,0.15545126795768738,-0.004710983484983444,0.01702190935611725,-0.34831395745277405,0.9372115731239319,0.0,0.0,0.0,0.0,0.0,0.0
834,1724915515983444227,-0.5051933526992798,0.11849077045917511,0.15692384541034698,-0.006241828668862581,0.01638616994023323,-0.35124480724334717,0.9361194968223572,0.0,0.0,0.0,0.0,0.0,0.0
836,1724915515990486184,-0.5059051513671875,0.11820609867572784,0.15816427767276764,-0.007006370462477207,0.011018882505595684,-0.34929749369621277,0.9369208812713623,0.0,0.0,0.0,0.0,0.0,0.0
838,1724915515999823947,-0.5065749287605286,0.11814363300800323,0.15979041159152985,-0.007955505512654781,0.009029652923345566,-0.34882035851478577,0.9371123909950256,0.0,0.0,0.0,0.0,0.0,0.0
840,1724915516040483718,-0.5073615312576294,0.11815749853849411,0.1615276336669922,-0.007458557840436697,0.006887671537697315,-0.34838196635246277,0.9372977018356323,0.0,0.0,0.0,0.0,0.0,0.0
842,1724915516040736999,-0.5084744095802307,0.11808739602565765,0.16329346597194672,-0.007664468139410019,0.004229862242937088,-0.34858810901641846,0.9372351169586182,0.0,0.0,0.0,0.0,0.0,0.0
844,1724915516040990759,-0.5099450349807739,0.11807071417570114,0.16513071954250336,-0.008107490837574005,0.0004563078982755542,-0.3464335501194,0.9380394220352173,0.0,0.0,0.0,0.0,0.0,0.0
846,1724915516041519449,-0.5114321708679199,0.11824307590723038,0.16731759905815125,-0.008012669160962105,-0.001899725291877985,-0.34736815094947815,0.9376927614212036,0.0,0.0,0.0,0.0,0.0,0.0
848,1724915516050921058,-0.5130152702331543,0.1181660145521164,0.16916485130786896,-0.006943408865481615,-0.005559717770665884,-0.3461165130138397,0.9381494522094727,0.0,0.0,0.0,0.0,0.0,0.0
850,1724915516059911518,-0.5147846937179565,0.11784873902797699,0.17083726823329926,-0.004209406208246946,-0.011349860578775406,-0.3417419493198395,0.9397159218788147,0.0,0.0,0.0,0.0,0.0,0.0
852,1724915516074367958,-0.5163784623146057,0.1176711842417717,0.17305979132652283,-0.0016123201930895448,-0.01503010094165802,-0.341484397649765,0.9397658705711365,0.0,0.0,0.0,0.0,0.0,0.0
854,1724915516080223671,-0.518317461013794,0.11761094629764557,0.17539148032665253,-0.0010474647860974073,-0.019419193267822266,-0.34094685316085815,0.9398813843727112,0.0,0.0,0.0,0.0,0.0,0.0
856,1724915516089902190,-0.5200832486152649,0.117524653673172,0.1777721345424652,-0.0013273924123495817,-0.02292807027697563,-0.3411501944065094,0.9397282004356384,0.0,0.0,0.0,0.0,0.0,0.0
858,1724915516102233793,-0.5221137404441833,0.1173078864812851,0.17982742190361023,-0.0013128867140039802,-0.02733154594898224,-0.3406497538089752,0.9397920966148376,0.0,0.0,0.0,0.0,0.0,0.0
860,1724915516110784756,-0.5238698124885559,0.11716374009847641,0.1820671111345291,-8.265232463600114e-05,-0.03157426044344902,-0.34036150574684143,0.9397644400596619,0.0,0.0,0.0,0.0,0.0,0.0
862,1724915516121653452,-0.5255672931671143,0.1169075146317482,0.1840415745973587,0.0038252563681453466,-0.036603767424821854,-0.33981481194496155,0.9397720098495483,0.0,0.0,0.0,0.0,0.0,0.0
864,1724915516130649983,-0.5274132490158081,0.11679995059967041,0.18619589507579803,0.004029842093586922,-0.040079619735479355,-0.33932557702064514,0.9398061037063599,0.0,0.0,0.0,0.0,0.0,0.0
866,1724915516140062707,-0.5291342735290527,0.11669540405273438,0.18813373148441315,0.005192452576011419,-0.04368724301457405,-0.3390612304210663,0.9397350549697876,0.0,0.0,0.0,0.0,0.0,0.0
868,1724915516149972116,-0.5307363271713257,0.11642738431692123,0.19004805386066437,0.00464163813740015,-0.047652970999479294,-0.33945080637931824,0.9394045472145081,0.0,0.0,0.0,0.0,0.0,0.0
870,1724915516160858555,-0.5324060916900635,0.11624685674905777,0.1918262541294098,0.005370647180825472,-0.05068284273147583,-0.3395674526691437,0.9391998648643494,0.0,0.0,0.0,0.0,0.0,0.0
872,1724915516170068428,-0.5339122414588928,0.11619290709495544,0.19347135722637177,0.005030048545449972,-0.05302276834845543,-0.33971983194351196,0.9390175342559814,0.0,0.0,0.0,0.0,0.0,0.0
874,1724915516180411644,-0.5353331565856934,0.11608310788869858,0.19484630227088928,0.00424670334905386,-0.05585095286369324,-0.33955416083335876,0.9389172792434692,0.0,0.0,0.0,0.0,0.0,0.0
876,1724915516190753571,-0.5366824269294739,0.11591105908155441,0.196055069565773,0.0025177698116749525,-0.05709506943821907,-0.3405192196369171,0.9384990930557251,0.0,0.0,0.0,0.0,0.0,0.0
878,1724915516199715902,-0.5377710461616516,0.11562369763851166,0.19714966416358948,0.004294618032872677,-0.06029658392071724,-0.34093451499938965,0.9381415247917175,0.0,0.0,0.0,0.0,0.0,0.0
880,1724915516209906153,-0.5386388301849365,0.11541662365198135,0.19809788465499878,0.005627678707242012,-0.06273908168077469,-0.34158313274383545,0.9377383589744568,0.0,0.0,0.0,0.0,0.0,0.0
882,1724915516231967889,-0.5393878817558289,0.11527393013238907,0.1987312138080597,0.006543543189764023,-0.06454214453697205,-0.3419763147830963,0.9374666213989258,0.0,0.0,0.0,0.0,0.0,0.0
884,1724915516232371736,-0.540208637714386,0.11523207277059555,0.1990477591753006,0.0076978388242423534,-0.06462322920560837,-0.34174033999443054,0.9375383257865906,0.0,0.0,0.0,0.0,0.0,0.0
886,1724915516241084802,-0.5407537221908569,0.11504523456096649,0.19929558038711548,0.00801968201994896,-0.0645289197564125,-0.3419935703277588,0.9374498724937439,0.0,0.0,0.0,0.0,0.0,0.0
888,1724915516250189874,-0.5411590933799744,0.11480659991502762,0.1993618607521057,0.0074970112182199955,-0.06470926105976105,-0.34200793504714966,0.9374364614486694,0.0,0.0,0.0,0.0,0.0,0.0
890,1724915516259726948,-0.5413691997528076,0.11455175280570984,0.19926120340824127,0.006946648005396128,-0.06413596123456955,-0.3422168493270874,0.9374037981033325,0.0,0.0,0.0,0.0,0.0,0.0
892,1724915516273545281,-0.5413146018981934,0.11433179676532745,0.1991034746170044,0.005922621116042137,-0.0632140263915062,-0.3424980044364929,0.937370777130127,0.0,0.0,0.0,0.0,0.0,0.0
894,1724915516282500544,-0.5410394072532654,0.1139887124300003,0.1988082230091095,0.004719790071249008,-0.0627361461520195,-0.34313198924064636,0.9371778964996338,0.0,0.0,0.0,0.0,0.0,0.0
896,1724915516290074891,-0.5406480431556702,0.11370854079723358,0.19816097617149353,0.005419265478849411,-0.0613478384912014,-0.34367555379867554,0.9370667934417725,0.0,0.0,0.0,0.0,0.0,0.0
898,1724915516301248929,-0.5401301980018616,0.11339140683412552,0.19733446836471558,0.006081693340092897,-0.05942464619874954,-0.34426185488700867,0.9369715452194214,0.0,0.0,0.0,0.0,0.0,0.0
900,1724915516309725683,-0.5395554304122925,0.11307179927825928,0.19638311862945557,0.005520456004887819,-0.05716940388083458,-0.3440970778465271,0.9371758103370667,0.0,0.0,0.0,0.0,0.0,0.0
902,1724915516323735088,-0.5389272570610046,0.1127951592206955,0.19530147314071655,0.004573905374854803,-0.05478823184967041,-0.34366095066070557,0.9374830722808838,0.0,0.0,0.0,0.0,0.0,0.0
904,1724915516331406054,-0.538235068321228,0.1126725822687149,0.19445088505744934,-0.0014962493441998959,-0.04971814528107643,-0.34484195709228516,0.9373419880867004,0.0,0.0,0.0,0.0,0.0,0.0
906,1724915516339939078,-0.5372193455696106,0.11256057024002075,0.19355469942092896,-0.003600174793973565,-0.04482440650463104,-0.34656885266304016,0.9369460940361023,0.0,0.0,0.0,0.0,0.0,0.0
908,1724915516350765787,-0.5358772277832031,0.11241092532873154,0.1920706182718277,-0.002475837478414178,-0.04342867434024811,-0.34530237317085266,0.9374828934669495,0.0,0.0,0.0,0.0,0.0,0.0
910,1724915516360631032,-0.53469318151474,0.11233849078416824,0.19072546064853668,-0.0038674671668559313,-0.03990616649389267,-0.34599393606185913,0.9373797178268433,0.0,0.0,0.0,0.0,0.0,0.0
912,1724915516370365057,-0.5334955453872681,0.11213706433773041,0.18915864825248718,-0.005948278587311506,-0.03663620725274086,-0.3456035852432251,0.9376463890075684,0.0,0.0,0.0,0.0,0.0,0.0
914,1724915516380881973,-0.532051682472229,0.11207593977451324,0.18813954293727875,-0.011263078078627586,-0.030145205557346344,-0.34990060329437256,0.9362339377403259,0.0,0.0,0.0,0.0,0.0,0.0
916,1724915516391781252,-0.5306087732315063,0.1130685806274414,0.18851234018802643,-0.00649787625297904,-0.018792467191815376,-0.3588543236255646,0.9331818222999573,0.0,0.0,0.0,0.0,0.0,0.0
918,1724915516400209989,-0.5292016267776489,0.11261576414108276,0.186707004904747,-0.008552652783691883,-0.01653229631483555,-0.35622233152389526,0.9342159032821655,0.0,0.0,0.0,0.0,0.0,0.0
920,1724915516410870203,-0.5279961824417114,0.11198793351650238,0.18534426391124725,-0.011333192698657513,-0.015593457967042923,-0.35553550720214844,0.9344640374183655,0.0,0.0,0.0,0.0,0.0,0.0
922,1724915516447466768,-0.5264467000961304,0.1109519749879837,0.18344250321388245,-0.012452895753085613,-0.011756742373108864,-0.3547399938106537,0.9348081946372986,0.0,0.0,0.0,0.0,0.0,0.0
924,1724915516447772024,-0.5251107811927795,0.11058127135038376,0.18244828283786774,-0.01130407303571701,-0.006527879741042852,-0.35524889826774597,0.9346806406974792,0.0,0.0,0.0,0.0,0.0,0.0
926,1724915516448043643,-0.5235213041305542,0.1099567860364914,0.18127605319023132,-0.008955751545727253,-0.0007715829415246844,-0.3543638288974762,0.9350644946098328,0.0,0.0,0.0,0.0,0.0,0.0
928,1724915516449899401,-0.5220616459846497,0.10893978923559189,0.17957136034965515,-0.008879751898348331,0.002478580456227064,-0.3525342047214508,0.935753583908081,0.0,0.0,0.0,0.0,0.0,0.0
930,1724915516459730657,-0.5205588936805725,0.10794395953416824,0.17792044579982758,-0.01045968383550644,0.005250125657767057,-0.35053199529647827,0.9364776611328125,0.0,0.0,0.0,0.0,0.0,0.0
932,1724915516469913732,-0.5190380215644836,0.10710804164409637,0.1765693575143814,-0.009741622023284435,0.009153253398835659,-0.34979674220085144,0.9367303252220154,0.0,0.0,0.0,0.0,0.0,0.0
934,1724915516480463114,-0.5174710154533386,0.10655238479375839,0.175253227353096,-0.009473120793700218,0.015358848497271538,-0.3517266809940338,0.9359288811683655,0.0,0.0,0.0,0.0,0.0,0.0
936,1724915516490880580,-0.5158641934394836,0.10648950934410095,0.17474158108234406,-0.005445887800306082,0.02420305646955967,-0.35500243306159973,0.9345361590385437,0.0,0.0,0.0,0.0,0.0,0.0
938,1724915516500486389,-0.5144875049591064,0.10572034120559692,0.17313213646411896,-0.008736412972211838,0.024237722158432007,-0.35360580682754517,0.9350396394729614,0.0,0.0,0.0,0.0,0.0,0.0
940,1724915516510077765,-0.5129342675209045,0.10451947897672653,0.1711856573820114,-0.011254595592617989,0.025183454155921936,-0.35185930132865906,0.9356464147567749,0.0,0.0,0.0,0.0,0.0,0.0
942,1724915516521095391,-0.5115882158279419,0.10425150394439697,0.1700161099433899,-0.010418541729450226,0.029851363971829414,-0.3526846170425415,0.9352080225944519,0.0,0.0,0.0,0.0,0.0,0.0
944,1724915516530302746,-0.5105306506156921,0.10309987515211105,0.16835874319076538,-0.012333719991147518,0.02969568967819214,-0.3508341312408447,0.9358854293823242,0.0,0.0,0.0,0.0,0.0,0.0
946,1724915516540132445,-0.5094761848449707,0.10233192890882492,0.16774894297122955,-0.009446215815842152,0.03326350823044777,-0.35248130559921265,0.9351797699928284,0.0,0.0,0.0,0.0,0.0,0.0
948,1724915516550869109,-0.5086849927902222,0.10183598846197128,0.1672411412000656,-0.009543382562696934,0.03496389836072922,-0.35191911458969116,0.9353285431861877,0.0,0.0,0.0,0.0,0.0,0.0
950,1724915516559758896,-0.5079243183135986,0.10158078372478485,0.16723285615444183,-0.0065458351746201515,0.03876744583249092,-0.352522075176239,0.9349772930145264,0.0,0.0,0.0,0.0,0.0,0.0
952,1724915516573588479,-0.5071113109588623,0.1005839854478836,0.1674768328666687,-0.01475261989980936,0.028047816827893257,-0.3525952398777008,0.9352391958236694,0.0,0.0,0.0,0.0,0.0,0.0
954,1724915516580841161,-0.5069010853767395,0.10014868527650833,0.16728515923023224,-0.01609385572373867,0.02826579473912716,-0.352034330368042,0.9354217648506165,0.0,0.0,0.0,0.0,0.0,0.0
956,1724915516589722091,-0.5066220760345459,0.09974747151136398,0.16688570380210876,-0.014555409550666809,0.02910456992685795,-0.3508886694908142,0.9358516931533813,0.0,0.0,0.0,0.0,0.0,0.0
958,1724915516600298341,-0.5062524676322937,0.09939341247081757,0.16607457399368286,-0.01270336750894785,0.03307581692934036,-0.3507649898529053,0.9357930421829224,0.0,0.0,0.0,0.0,0.0,0.0
960,1724915516610154361,-0.5059574246406555,0.09892615675926208,0.16547827422618866,-0.011925159953534603,0.03506748750805855,-0.3508705496788025,0.935691237449646,0.0,0.0,0.0,0.0,0.0,0.0
962,1724915516619988232,-0.5058075785636902,0.09890033304691315,0.16474799811840057,-0.012237146496772766,0.03680946305394173,-0.3505992889404297,0.9357219338417053,0.0,0.0,0.0,0.0,0.0,0.0
964,1724915516629902929,-0.505491316318512,0.09865696728229523,0.16373911499977112,-0.013261942192912102,0.03808301314711571,-0.3502715826034546,0.9357798099517822,0.0,0.0,0.0,0.0,0.0,0.0
966,1724915516639947005,-0.5052134990692139,0.09862004220485687,0.16311362385749817,-0.013170109130442142,0.04008994624018669,-0.35060325264930725,0.9355729818344116,0.0,0.0,0.0,0.0,0.0,0.0
968,1724915516650262394,-0.505111575126648,0.09852603077888489,0.16214914619922638,-0.014431174844503403,0.039608970284461975,-0.3494586646556854,0.9360029697418213,0.0,0.0,0.0,0.0,0.0,0.0
970,1724915516660435420,-0.5050349831581116,0.09848517924547195,0.16182495653629303,-0.015357316471636295,0.03836847469210625,-0.3497299551963806,0.9359385967254639,0.0,0.0,0.0,0.0,0.0,0.0
972,1724915516669808056,-0.5050883293151855,0.09871511906385422,0.16176825761795044,-0.01247737742960453,0.04159346595406532,-0.34913337230682373,0.9360663890838623,0.0,0.0,0.0,0.0,0.0,0.0
974,1724915516679750981,-0.5052089691162109,0.09905260056257248,0.16284413635730743,-0.008107122965157032,0.046613577753305435,-0.35200631618499756,0.9348011612892151,0.0,0.0,0.0,0.0,0.0,0.0
976,1724915516691604895,-0.5051841139793396,0.09890390187501907,0.16316843032836914,-0.009880302473902702,0.04453530162572861,-0.3510606288909912,0.9352408051490784,0.0,0.0,0.0,0.0,0.0,0.0
978,1724915516700098117,-0.5052723288536072,0.09883709251880646,0.164228618144989,-0.009018130600452423,0.042855557054281235,-0.3513982892036438,0.9352012872695923,0.0,0.0,0.0,0.0,0.0,0.0
980,1724915516710848189,-0.5055937767028809,0.09889249503612518,0.164734348654747,-0.008855811320245266,0.04166273772716522,-0.3512508273124695,0.935312032699585,0.0,0.0,0.0,0.0,0.0,0.0
982,1724915516719973276,-0.505927324295044,0.09900274872779846,0.1650833785533905,-0.008842620998620987,0.04059635102748871,-0.3514727056026459,0.9352757334709167,0.0,0.0,0.0,0.0,0.0,0.0
984,1724915516730462817,-0.5062544941902161,0.09899377077817917,0.16521215438842773,-0.01098515372723341,0.037114184349775314,-0.3500257730484009,0.935940146446228,0.0,0.0,0.0,0.0,0.0,0.0
986,1724915516740756422,-0.5065005421638489,0.09904874861240387,0.16527067124843597,-0.012348216027021408,0.03522991016507149,-0.34957975149154663,0.9361625909805298,0.0,0.0,0.0,0.0,0.0,0.0
988,1724915516774136813,-0.5066731572151184,0.09907549619674683,0.16531503200531006,-0.013165312819182873,0.0335572250187397,-0.34884461760520935,0.9364871382713318,0.0,0.0,0.0,0.0,0.0,0.0
990,1724915516774710046,-0.5068243145942688,0.0991639569401741,0.16538947820663452,-0.013971537351608276,0.03215929493308067,-0.34846556186676025,0.9366655349731445,0.0,0.0,0.0,0.0,0.0,0.0
992,1724915516776207894,-0.5069135427474976,0.09924467653036118,0.16552764177322388,-0.014185196720063686,0.03157470002770424,-0.34836649894714355,0.9367191195487976,0.0,0.0,0.0,0.0,0.0,0.0
994,1724915516780201130,-0.5069617033004761,0.09938044100999832,0.16572318971157074,-0.014067149721086025,0.03142928704619408,-0.348708838224411,0.9365984201431274,0.0,0.0,0.0,0.0,0.0,0.0
996,1724915516789732609,-0.5069707036018372,0.09947007149457932,0.16582337021827698,-0.013863684609532356,0.031233496963977814,-0.3485568165779114,0.9366645216941833,0.0,0.0,0.0,0.0,0.0,0.0
998,1724915516800391444,-0.5069261789321899,0.09943974763154984,0.1657622903585434,-0.013815440237522125,0.0310751311480999,-0.3483933210372925,0.9367313385009766,0.0,0.0,0.0,0.0,0.0,0.0
1000,1724915516809864417,-0.5068085789680481,0.09923184663057327,0.16564422845840454,-0.013912523165345192,0.031048128381371498,-0.3483717739582062,0.9367387890815735,0.0,0.0,0.0,0.0,0.0,0.0
1002,1724915516819767051,-0.5068289637565613,0.09917155653238297,0.16558793187141418,-0.014368927106261253,0.030857831239700317,-0.3481305241584778,0.9368278980255127,0.0,0.0,0.0,0.0,0.0,0.0
1004,1724915516830743836,-0.5067945718765259,0.09904055297374725,0.16547611355781555,-0.014574586413800716,0.03027115948498249,-0.34739869832992554,0.937115490436554,0.0,0.0,0.0,0.0,0.0,0.0
1006,1724915516839819194,-0.5068128705024719,0.09901782125234604,0.1654905080795288,-0.01461179181933403,0.03044373169541359,-0.34734371304512024,0.9371297359466553,0.0,0.0,0.0,0.0,0.0,0.0
1008,1724915516850647421,-0.5068690180778503,0.09908635914325714,0.16557931900024414,-0.01415399182587862,0.030756065621972084,-0.34779343008995056,0.9369597434997559,0.0,0.0,0.0,0.0,0.0,0.0
1010,1724915516861583020,-0.5069973468780518,0.09920239448547363,0.16566906869411469,-0.01362547092139721,0.030559753999114037,-0.34804797172546387,0.9368793964385986,0.0,0.0,0.0,0.0,0.0,0.0
1012,1724915516869797935,-0.5070638060569763,0.09923369437456131,0.16574954986572266,-0.01332471240311861,0.02975517325103283,-0.3475797176361084,0.9370835423469543,0.0,0.0,0.0,0.0,0.0,0.0
1014,1724915516880131562,-0.5071992874145508,0.09946998953819275,0.16630162298679352,-0.01281384751200676,0.029394205659627914,-0.3486018478870392,0.9367222189903259,0.0,0.0,0.0,0.0,0.0,0.0
1016,1724915516889874799,-0.507308304309845,0.09962506592273712,0.1668059229850769,-0.012111461721360683,0.029082030057907104,-0.34930142760276794,0.9364806413650513,0.0,0.0,0.0,0.0,0.0,0.0
1018,1724915516900081814,-0.5076250433921814,0.09995357692241669,0.16738192737102509,-0.014831017702817917,0.029120540246367455,-0.3519674837589264,0.9354416131973267,0.0,0.0,0.0,0.0,0.0,0.0
1020,1724915516910071358,-0.5077456831932068,0.0999111533164978,0.1674542874097824,-0.015612584538757801,0.02834753505885601,-0.3518471121788025,0.9354979395866394,0.0,0.0,0.0,0.0,0.0,0.0
1022,1724915516919860528,-0.5078144073486328,0.09999940544366837,0.16774965822696686,-0.015385809354484081,0.027758149430155754,-0.3523925542831421,0.9353140592575073,0.0,0.0,0.0,0.0,0.0,0.0
1024,1724915516930456797,-0.507775604724884,0.10015483945608139,0.16809296607971191,-0.013352531008422375,0.02881188690662384,-0.3528347313404083,0.935146689414978,0.0,0.0,0.0,0.0,0.0,0.0
1026,1724915516940694602,-0.5078057050704956,0.10014761984348297,0.16827724874019623,-0.012695644050836563,0.0287745613604784,-0.3527238070964813,0.9351987838745117,0.0,0.0,0.0,0.0,0.0,0.0
1028,1724915516954113322,-0.5078471302986145,0.10009022802114487,0.16831035912036896,-0.013088040985167027,0.028318487107753754,-0.3525835871696472,0.9352602362632751,0.0,0.0,0.0,0.0,0.0,0.0
1030,1724915516961288323,-0.5078378915786743,0.09998926520347595,0.1682186722755432,-0.01350245252251625,0.027874115854501724,-0.3521772623062134,0.9354207515716553,0.0,0.0,0.0,0.0,0.0,0.0
1032,1724915516970058519,-0.5075199604034424,0.09975714981555939,0.16796958446502686,-0.011216895654797554,0.02833368442952633,-0.350807249546051,0.935951828956604,0.0,0.0,0.0,0.0,0.0,0.0
1034,1724915516980397935,-0.5075218677520752,0.09974871575832367,0.16808243095874786,-0.010173779912292957,0.02848670445382595,-0.3505614995956421,0.936051070690155,0.0,0.0,0.0,0.0,0.0,0.0
1036,1724915516991134191,-0.507667064666748,0.10003356635570526,0.16849172115325928,-0.009708808735013008,0.02949889563024044,-0.3516077399253845,0.9356322288513184,0.0,0.0,0.0,0.0,0.0,0.0
1038,1724915516999996835,-0.5077548027038574,0.10008946061134338,0.16851606965065002,-0.010111844167113304,0.0297726858407259,-0.3516683578491211,0.9355964064598083,0.0,0.0,0.0,0.0,0.0,0.0
1040,1724915517009873436,-0.5078012943267822,0.10013081133365631,0.1685001254081726,-0.009929467923939228,0.030175499618053436,-0.3516329228878021,0.9355987906455994,0.0,0.0,0.0,0.0,0.0,0.0
1042,1724915517020533724,-0.5078349709510803,0.10017947852611542,0.16848762333393097,-0.009198546409606934,0.03077533282339573,-0.35161206126213074,0.9355946183204651,0.0,0.0,0.0,0.0,0.0,0.0
1044,1724915517030274273,-0.5078983306884766,0.1002533882856369,0.16849152743816376,-0.009469046257436275,0.031076936051249504,-0.351768434047699,0.9355231523513794,0.0,0.0,0.0,0.0,0.0,0.0
1046,1724915517040698082,-0.507938027381897,0.100263312458992,0.1684853881597519,-0.008868717588484287,0.031878262758255005,-0.35176023840904236,0.935505211353302,0.0,0.0,0.0,0.0,0.0,0.0
1048,1724915517051258556,-0.5079163908958435,0.10026732087135315,0.16850513219833374,-0.007103887852281332,0.033672574907541275,-0.3516760766506195,0.9354890584945679,0.0,0.0,0.0,0.0,0.0,0.0
1050,1724915517059877252,-0.507803738117218,0.09994074702262878,0.16860723495483398,-0.015096657909452915,0.02416631579399109,-0.35268494486808777,0.9353082180023193,0.0,0.0,0.0,0.0,0.0,0.0
1052,1724915517074165310,-0.5077968239784241,0.09991662204265594,0.16855190694332123,-0.01610628329217434,0.023496456444263458,-0.35279467701911926,0.9352670907974243,0.0,0.0,0.0,0.0,0.0,0.0
1054,1724915517080596098,-0.5077451467514038,0.09985955059528351,0.16845406591892242,-0.01621718518435955,0.02354377880692482,-0.3527068793773651,0.9352970123291016,0.0,0.0,0.0,0.0,0.0,0.0
1056,1724915517089805983,-0.5077487826347351,0.09988906234502792,0.16852392256259918,-0.015583348460495472,0.02342032641172409,-0.35243654251098633,0.9354128241539001,0.0,0.0,0.0,0.0,0.0,0.0
1058,1724915517101082943,-0.5077810883522034,0.09990067780017853,0.16852404177188873,-0.015409529209136963,0.023667899891734123,-0.352350652217865,0.9354419112205505,0.0,0.0,0.0,0.0,0.0,0.0
1060,1724915517109816475,-0.5078257918357849,0.09995011985301971,0.1684812307357788,-0.016551444306969643,0.0236213319003582,-0.3528156876564026,0.9352482557296753,0.0,0.0,0.0,0.0,0.0,0.0
1062,1724915517121792645,-0.5078285932540894,0.09996403753757477,0.16855989396572113,-0.015968769788742065,0.02355116792023182,-0.35267093777656555,0.9353146553039551,0.0,0.0,0.0,0.0,0.0,0.0
1064,1724915517133892136,-0.5078257918357849,0.09995909780263901,0.16853994131088257,-0.016255736351013184,0.0235458854585886,-0.3527139127254486,0.9352936744689941,0.0,0.0,0.0,0.0,0.0,0.0
1066,1724915517161374165,-0.5077825784683228,0.09991860389709473,0.1685725599527359,-0.015603183768689632,0.023486467078328133,-0.35253581404685974,0.9353734850883484,0.0,0.0,0.0,0.0,0.0,0.0
1068,1724915517161641771,-0.5077970027923584,0.09995143860578537,0.1685824990272522,-0.01584262028336525,0.023564767092466354,-0.3525920808315277,0.935346245765686,0.0,0.0,0.0,0.0,0.0,0.0
1070,1724915517162114184,-0.5077919960021973,0.09992340207099915,0.16851013898849487,-0.01622072607278824,0.02342817932367325,-0.3525572121143341,0.9353563785552979,0.0,0.0,0.0,0.0,0.0,0.0
1072,1724915517169966341,-0.5078017711639404,0.09993192553520203,0.16847725212574005,-0.016268035396933556,0.02325664646923542,-0.35259705781936646,0.9353448152542114,0.0,0.0,0.0,0.0,0.0,0.0
1074,1724915517180302027,-0.5078365206718445,0.09996692091226578,0.1684783697128296,-0.016885997727513313,0.023226242512464523,-0.3528890311717987,0.9352244734764099,0.0,0.0,0.0,0.0,0.0,0.0
1076,1724915517194644096,-0.5078368186950684,0.09997440874576569,0.16852805018424988,-0.016422774642705917,0.023385532200336456,-0.35267823934555054,0.9353082180023193,0.0,0.0,0.0,0.0,0.0,0.0
1078,1724915517199889719,-0.5078118443489075,0.09994938224554062,0.16851602494716644,-0.016394833102822304,0.02344343438744545,-0.35274794697761536,0.935280978679657,0.0,0.0,0.0,0.0,0.0,0.0
1080,1724915517210062934,-0.5077900290489197,0.09989160299301147,0.16840560734272003,-0.017197338864207268,0.02308323048055172,-0.3527509868144989,0.9352744221687317,0.0,0.0,0.0,0.0,0.0,0.0
1082,1724915517220710503,-0.5077706575393677,0.09988606721162796,0.16839595139026642,-0.017419220879673958,0.023000426590442657,-0.35291576385498047,0.9352101683616638,0.0,0.0,0.0,0.0,0.0,0.0
1084,1724915517230291678,-0.5077983736991882,0.09990981221199036,0.168405681848526,-0.017280956730246544,0.02302742563188076,-0.3527548909187317,0.935272753238678,0.0,0.0,0.0,0.0,0.0,0.0
1086,1724915517242180922,-0.5077832341194153,0.09988722205162048,0.16835004091262817,-0.017147043719887733,0.023158732801675797,-0.3525334596633911,0.9353554248809814,0.0,0.0,0.0,0.0,0.0,0.0
1088,1724915517302783612,-0.5078269243240356,0.09994669258594513,0.16843295097351074,-0.017079170793294907,0.023272458463907242,-0.35280725359916687,0.9352506399154663,0.0,0.0,0.0,0.0,0.0,0.0
1090,1724915517303024181,-0.5078299641609192,0.0999097228050232,0.16842316091060638,-0.016781475394964218,0.023245736956596375,-0.3525157570838928,0.9353665709495544,0.0,0.0,0.0,0.0,0.0,0.0
1092,1724915517303259528,-0.5078437924385071,0.09988055378198624,0.1683216094970703,-0.01770756021142006,0.023041673004627228,-0.3527553975582123,0.9352642893791199,0.0,0.0,0.0,0.0,0.0,0.0
1094,1724915517303492414,-0.507843554019928,0.09991703927516937,0.16842983663082123,-0.016828779131174088,0.023205187171697617,-0.35271671414375305,0.9352909922599792,0.0,0.0,0.0,0.0,0.0,0.0
1096,1724915517303725689,-0.5078577995300293,0.09986686706542969,0.16836950182914734,-0.017232021316885948,0.022965583950281143,-0.35264819860458374,0.9353153705596924,0.0,0.0,0.0,0.0,0.0,0.0
1098,1724915517303965023,-0.50785231590271,0.09986788034439087,0.16851003468036652,-0.01594376564025879,0.023297907784581184,-0.35248905420303345,0.935390055179596,0.0,0.0,0.0,0.0,0.0,0.0
1100,1724915517309856516,-0.5078898668289185,0.0998876541852951,0.16855528950691223,-0.015936583280563354,0.023188825696706772,-0.3524535298347473,0.9354062080383301,0.0,0.0,0.0,0.0,0.0,0.0
1102,1724915517319872093,-0.5078955888748169,0.09985559433698654,0.16870500147342682,-0.01570158638060093,0.02283455803990364,-0.35244473814964294,0.9354223012924194,0.0,0.0,0.0,0.0,0.0,0.0
1104,1724915517331020110,-0.5079551339149475,0.09986351430416107,0.16901473701000214,-0.014834188856184483,0.02321605570614338,-0.3529285788536072,0.9352445602416992,0.0,0.0,0.0,0.0,0.0,0.0
1106,1724915517339838617,-0.5079841613769531,0.09975934028625488,0.16923141479492188,-0.013615340925753117,0.022511281073093414,-0.3524589240550995,0.9354574680328369,0.0,0.0,0.0,0.0,0.0,0.0
1108,1724915517350095868,-0.5080681443214417,0.09971535950899124,0.16961173713207245,-0.013560343533754349,0.021160123869776726,-0.3522992432117462,0.9355499744415283,0.0,0.0,0.0,0.0,0.0,0.0
1110,1724915517359777813,-0.5081783533096313,0.09938403218984604,0.16978180408477783,-0.015525229275226593,0.018488695845007896,-0.35132691264152527,0.9359415769577026,0.0,0.0,0.0,0.0,0.0,0.0
1112,1724915517370055280,-0.5082926750183105,0.09950527548789978,0.17107100784778595,-0.014747283421456814,0.015825757756829262,-0.35125425457954407,0.9360302686691284,0.0,0.0,0.0,0.0,0.0,0.0
1114,1724915517380970225,-0.5087934136390686,0.09914875030517578,0.1718035191297531,-0.017027847468852997,0.012278424575924873,-0.3494280278682709,0.9367280602455139,0.0,0.0,0.0,0.0,0.0,0.0
1116,1724915517390246131,-0.5093691349029541,0.09901328384876251,0.17293426394462585,-0.016520991921424866,0.009010729379951954,-0.34706225991249084,0.9376533031463623,0.0,0.0,0.0,0.0,0.0,0.0
1118,1724915517399999003,-0.5099999308586121,0.09914439916610718,0.17459851503372192,-0.016919957473874092,0.005176500417292118,-0.34695935249328613,0.9377133250236511,0.0,0.0,0.0,0.0,0.0,0.0
1120,1724915517410842490,-0.5104882717132568,0.09918978065252304,0.17605535686016083,-0.016377875581383705,0.00287093804217875,-0.3469560742378235,0.9377339482307434,0.0,0.0,0.0,0.0,0.0,0.0
1122,1724915517420019132,-0.5111218690872192,0.09969500452280045,0.17774757742881775,-0.01580110937356949,0.0010197818046435714,-0.3493672311306,0.9368520379066467,0.0,0.0,0.0,0.0,0.0,0.0
1124,1724915517430217051,-0.5119504928588867,0.10046818852424622,0.17992663383483887,-0.01359900739043951,-0.0006427682819776237,-0.35088562965393066,0.9363193511962891,0.0,0.0,0.0,0.0,0.0,0.0
1126,1724915517441333692,-0.5127589106559753,0.10094234347343445,0.1814069151878357,-0.0113133005797863,-0.0020756199955940247,-0.3505590260028839,0.9364699721336365,0.0,0.0,0.0,0.0,0.0,0.0
1128,1724915517450197205,-0.5135821104049683,0.10132278501987457,0.18257641792297363,-0.00898361299186945,-0.002476522931829095,-0.3506537675857544,0.9364588856697083,0.0,0.0,0.0,0.0,0.0,0.0
1130,1724915517460537173,-0.5143826007843018,0.10155996680259705,0.18356357514858246,-0.009629067964851856,-0.005649765487760305,-0.3505539894104004,0.9364759922027588,0.0,0.0,0.0,0.0,0.0,0.0
1132,1724915517469789395,-0.5151283144950867,0.10185930877923965,0.1841418296098709,-0.007160107139497995,-0.004533750005066395,-0.3486156165599823,0.9372274875640869,0.0,0.0,0.0,0.0,0.0,0.0
1134,1724915517480331989,-0.5158705115318298,0.10217424482107162,0.18498577177524567,-0.005875794216990471,-0.003709637327119708,-0.34992894530296326,0.9367505311965942,0.0,0.0,0.0,0.0,0.0,0.0
1136,1724915517490835945,-0.5165956616401672,0.10242359340190887,0.185703843832016,-0.00611877953633666,-0.004816054366528988,-0.35041898488998413,0.9365607500076294,0.0,0.0,0.0,0.0,0.0,0.0
1138,1724915517500012766,-0.5173397660255432,0.10275417566299438,0.1863514930009842,-0.005890517495572567,-0.006142270285636187,-0.3503584563732147,0.9365770816802979,0.0,0.0,0.0,0.0,0.0,0.0
1140,1724915517510640064,-0.5178501009941101,0.1028175950050354,0.18664899468421936,-0.0049159228801727295,-0.00597768509760499,-0.3507075011730194,0.9364530444145203,0.0,0.0,0.0,0.0,0.0,0.0
1142,1724915517522290362,-0.5183449387550354,0.10316095501184464,0.18726159632205963,-0.002879080595448613,-0.005614852998405695,-0.35097670555114746,0.9363629817962646,0.0,0.0,0.0,0.0,0.0,0.0
1144,1724915517530782459,-0.5186545252799988,0.10328920930624008,0.18732726573944092,-0.0030892526265233755,-0.006133397575467825,-0.3508140742778778,0.9364200234413147,0.0,0.0,0.0,0.0,0.0,0.0
1146,1724915517539783156,-0.5187383890151978,0.10288693755865097,0.18702849745750427,-0.012777847237884998,-0.017314843833446503,-0.3490685522556305,0.9368501305580139,0.0,0.0,0.0,0.0,0.0,0.0
1148,1724915517550924069,-0.518764078617096,0.10283452272415161,0.18675018846988678,-0.0131166260689497,-0.017398465424776077,-0.3486355245113373,0.9370051622390747,0.0,0.0,0.0,0.0,0.0,0.0
1150,1724915517567064085,-0.5187414288520813,0.10291171073913574,0.18670539557933807,-0.013461563736200333,-0.01741953194141388,-0.3488548994064331,0.9369181990623474,0.0,0.0,0.0,0.0,0.0,0.0
1152,1724915517570704607,-0.5185953974723816,0.10289393365383148,0.18655116856098175,-0.013390297070145607,-0.017272453755140305,-0.3486444056034088,0.9370002150535583,0.0,0.0,0.0,0.0,0.0,0.0
1154,1724915517581243943,-0.5184852480888367,0.10292407870292664,0.18654772639274597,-0.01340048760175705,-0.017223604023456573,-0.3487253487110138,0.9369709491729736,0.0,0.0,0.0,0.0,0.0,0.0
1156,1724915517589947899,-0.5184568166732788,0.10312236100435257,0.18676374852657318,-0.01257646456360817,-0.0168240237981081,-0.3491450548171997,0.9368332028388977,0.0,0.0,0.0,0.0,0.0,0.0
1158,1724915517600376216,-0.5184791684150696,0.10320235788822174,0.18686383962631226,-0.012288943864405155,-0.016573017463088036,-0.34938374161720276,0.9367525577545166,0.0,0.0,0.0,0.0,0.0,0.0
1160,1724915517609856294,-0.5185008645057678,0.10316797345876694,0.18692156672477722,-0.012331713922321796,-0.016803333535790443,-0.3495651185512543,0.9366801977157593,0.0,0.0,0.0,0.0,0.0,0.0
1162,1724915517630362520,-0.5185545682907104,0.10304313153028488,0.1868477612733841,-0.012604376301169395,-0.01744736172258854,-0.34884539246559143,0.936933159828186,0.0,0.0,0.0,0.0,0.0,0.0
1164,1724915517630985157,-0.518648087978363,0.10305017977952957,0.18697583675384521,-0.013008343055844307,-0.01741774193942547,-0.3493131399154663,0.9367538094520569,0.0,0.0,0.0,0.0,0.0,0.0
1166,1724915517639960956,-0.5187029242515564,0.10294731706380844,0.18697383999824524,-0.01320687960833311,-0.018008248880505562,-0.348690390586853,0.93697190284729,0.0,0.0,0.0,0.0,0.0,0.0
1168,1724915517651949999,-0.5187999606132507,0.10304223746061325,0.18717575073242188,-0.012838761322200298,-0.018023258075118065,-0.34860172867774963,0.9370097517967224,0.0,0.0,0.0,0.0,0.0,0.0
1170,1724915517661867122,-0.5188838839530945,0.10306709259748459,0.18725861608982086,-0.012900340370833874,-0.01856295019388199,-0.34816551208496094,0.9371604919433594,0.0,0.0,0.0,0.0,0.0,0.0
1172,1724915517670100334,-0.5189963579177856,0.10311847925186157,0.18734566867351532,-0.013263862580060959,-0.01889750547707081,-0.34832319617271423,0.9370901584625244,0.0,0.0,0.0,0.0,0.0,0.0
1174,1724915517680433955,-0.5190507173538208,0.10317257046699524,0.18743963539600372,-0.013244446367025375,-0.018931489437818527,-0.34851309657096863,0.9370191693305969,0.0,0.0,0.0,0.0,0.0,0.0
1176,1724915517714297342,-0.5191181302070618,0.10318314284086227,0.18745534121990204,-0.013197403401136398,-0.019072333350777626,-0.34833502769470215,0.9370831251144409,0.0,0.0,0.0,0.0,0.0,0.0
1178,1724915517714645961,-0.5191826224327087,0.10323473811149597,0.18757134675979614,-0.013211213983595371,-0.019125154241919518,-0.3484841287136078,0.9370265007019043,0.0,0.0,0.0,0.0,0.0,0.0
1180,1724915517715030224,-0.519288957118988,0.10330092906951904,0.18771620094776154,-0.013029182329773903,-0.019080450758337975,-0.34874388575553894,0.9369332790374756,0.0,0.0,0.0,0.0,0.0,0.0
1182,1724915517720992038,-0.5193230509757996,0.10324253141880035,0.18769991397857666,-0.013659458607435226,-0.019405536353588104,-0.348768949508667,0.9369082450866699,0.0,0.0,0.0,0.0,0.0,0.0
1184,1724915517730003632,-0.5193755030632019,0.10328619927167892,0.18770892918109894,-0.01359264925122261,-0.019187120720744133,-0.34906667470932007,0.9368029236793518,0.0,0.0,0.0,0.0,0.0,0.0
1186,1724915517741107124,-0.5194534063339233,0.10343646258115768,0.1878105252981186,-0.01363910548388958,-0.01873020827770233,-0.3497278690338135,0.9365648627281189,0.0,0.0,0.0,0.0,0.0,0.0
1188,1724915517749955800,-0.5193607211112976,0.10330313444137573,0.1876107007265091,-0.0130826560780406,-0.019104579463601112,-0.3489307761192322,0.9368624091148376,0.0,0.0,0.0,0.0,0.0,0.0
1190,1724915517760004288,-0.5193201899528503,0.10334133356809616,0.18750561773777008,-0.013210458680987358,-0.018696671351790428,-0.349290132522583,0.9367349147796631,0.0,0.0,0.0,0.0,0.0,0.0
1192,1724915517773770399,-0.5192662477493286,0.10337120294570923,0.18728750944137573,-0.014206049963831902,-0.018064726144075394,-0.34989944100379944,0.9365053176879883,0.0,0.0,0.0,0.0,0.0,0.0
1194,1724915517780152662,-0.5190869569778442,0.10330172628164291,0.18705414235591888,-0.013012271374464035,-0.017956523224711418,-0.3490459620952606,0.9368432760238647,0.0,0.0,0.0,0.0,0.0,0.0
1196,1724915517789743098,-0.5189958214759827,0.10335536301136017,0.1868881732225418,-0.013594245538115501,-0.01728293113410473,-0.34997865557670593,0.9364995956420898,0.0,0.0,0.0,0.0,0.0,0.0
1198,1724915517800419867,-0.518858015537262,0.10337119549512863,0.18656836450099945,-0.014300663955509663,-0.016440097242593765,-0.3503691256046295,0.9363582730293274,0.0,0.0,0.0,0.0,0.0,0.0
1200,1724915517809792391,-0.5185684561729431,0.10318102687597275,0.1861484944820404,-0.013721018098294735,-0.01617700792849064,-0.34945935010910034,0.9367113709449768,0.0,0.0,0.0,0.0,0.0,0.0
1202,1724915517820077509,-0.5182808041572571,0.10304616391658783,0.18568925559520721,-0.0136337885633111,-0.015482921153306961,-0.3491516411304474,0.9368391036987305,0.0,0.0,0.0,0.0,0.0,0.0
1204,1724915517830133951,-0.517917811870575,0.10261190682649612,0.18469932675361633,-0.014724943786859512,-0.01486122701317072,-0.34741973876953125,0.9374763369560242,0.0,0.0,0.0,0.0,0.0,0.0
1206,1724915517842938694,-0.5175012350082397,0.10221768170595169,0.18396495282649994,-0.015298529528081417,-0.014219212345778942,-0.34622621536254883,0.9379185438156128,0.0,0.0,0.0,0.0,0.0,0.0
1208,1724915517850806579,-0.5171863436698914,0.10214455425739288,0.18359637260437012,-0.01598970592021942,-0.014091853983700275,-0.346069872379303,0.9379666447639465,0.0,0.0,0.0,0.0,0.0,0.0
1210,1724915517859803132,-0.516940712928772,0.10210809111595154,0.1832137107849121,-0.016065066680312157,-0.01423365343362093,-0.34478557109832764,0.9384360909461975,0.0,0.0,0.0,0.0,0.0,0.0
1212,1724915517870151257,-0.5167443156242371,0.10240764915943146,0.1829950213432312,-0.015666620805859566,-0.013399056158959866,-0.34649893641471863,0.9378238320350647,0.0,0.0,0.0,0.0,0.0,0.0
1214,1724915517880340370,-0.5167837738990784,0.10297049582004547,0.1829986572265625,-0.011301051825284958,-0.006285190582275391,-0.3484343886375427,0.9372440576553345,0.0,0.0,0.0,0.0,0.0,0.0
1216,1724915517889883350,-0.5167410373687744,0.10314558446407318,0.182981938123703,-0.01090150699019432,-0.005760342814028263,-0.34898456931114197,0.9370473623275757,0.0,0.0,0.0,0.0,0.0,0.0
1218,1724915517899804390,-0.5169908404350281,0.10357625782489777,0.18357345461845398,-0.012285993434488773,-0.005834568757563829,-0.3514457643032074,0.9361094832420349,0.0,0.0,0.0,0.0,0.0,0.0
1220,1724915517909650056,-0.5166409015655518,0.10287655144929886,0.18276001513004303,-0.010736308060586452,-0.010684672743082047,-0.34586378931999207,0.9381625056266785,0.0,0.0,0.0,0.0,0.0,0.0
1222,1724915517920078551,-0.5165343880653381,0.10256397724151611,0.1822475790977478,-0.008905846625566483,-0.013010310009121895,-0.3423420190811157,0.9394431114196777,0.0,0.0,0.0,0.0,0.0,0.0
1224,1724915517930232667,-0.5166126489639282,0.10260415077209473,0.18220876157283783,-0.007725486997514963,-0.013395813293755054,-0.3415260314941406,0.9397451281547546,0.0,0.0,0.0,0.0,0.0,0.0
1226,1724915517940667068,-0.5166917443275452,0.1026381328701973,0.18216516077518463,-0.007247196510434151,-0.013563437387347221,-0.3411386013031006,0.9398872256278992,0.0,0.0,0.0,0.0,0.0,0.0
1228,1724915517949988491,-0.5167432427406311,0.10267341136932373,0.182184100151062,-0.007213311269879341,-0.013484923169016838,-0.3413725197315216,0.9398037195205688,0.0,0.0,0.0,0.0,0.0,0.0
1230,1724915517960282095,-0.5167654752731323,0.10265597701072693,0.18215695023536682,-0.0073480140417814255,-0.01363434363156557,-0.34134232997894287,0.9398114085197449,0.0,0.0,0.0,0.0,0.0,0.0
1232,1724915517970078701,-0.5167606472969055,0.10265002399682999,0.1822042167186737,-0.007307060062885284,-0.013565472327172756,-0.3415217995643616,0.9397475123405457,0.0,0.0,0.0,0.0,0.0,0.0
1234,1724915517980344815,-0.5167661309242249,0.10264129936695099,0.18226248025894165,-0.007282721344381571,-0.01348416693508625,-0.34172239899635315,0.9396759867668152,0.0,0.0,0.0,0.0,0.0,0.0
1236,1724915517990530493,-0.5167588591575623,0.10261666029691696,0.18229150772094727,-0.007359484676271677,-0.013501887209713459,-0.34176838397979736,0.9396584033966064,0.0,0.0,0.0,0.0,0.0,0.0
1238,1724915517999846662,-0.5167307257652283,0.10262817144393921,0.18228493630886078,-0.007184198126196861,-0.013372617773711681,-0.3418811559677124,0.9396205544471741,0.0,0.0,0.0,0.0,0.0,0.0
1240,1724915518010125225,-0.5167477130889893,0.10262104123830795,0.18226663768291473,-0.007278590928763151,-0.013536413200199604,-0.3417638838291168,0.9396601319313049,0.0,0.0,0.0,0.0,0.0,0.0
1242,1724915518022471472,-0.5167676210403442,0.10263645648956299,0.18228386342525482,-0.007411845028400421,-0.013641522265970707,-0.3416973054409027,0.939681887626648,0.0,0.0,0.0,0.0,0.0,0.0
1244,1724915518030032707,-0.5168035626411438,0.1026516929268837,0.18234078586101532,-0.007811241317540407,-0.013910328038036823,-0.3419061601161957,0.9395987391471863,0.0,0.0,0.0,0.0,0.0,0.0
1246,1724915518041389579,-0.5168120861053467,0.10264235734939575,0.18233421444892883,-0.007966025732457638,-0.014107919298112392,-0.34164687991142273,0.9396887421607971,0.0,0.0,0.0,0.0,0.0,0.0
1248,1724915518052057465,-0.5168138742446899,0.10261733829975128,0.1823660135269165,-0.008194963447749615,-0.014147416688501835,-0.3419482111930847,0.9395765662193298,0.0,0.0,0.0,0.0,0.0,0.0
1250,1724915518061376599,-0.5167897343635559,0.10264921188354492,0.18241144716739655,-0.00802026316523552,-0.013991433195769787,-0.3423058092594147,0.9394501447677612,0.0,0.0,0.0,0.0,0.0,0.0
1252,1724915518070005605,-0.5167772769927979,0.10264556109905243,0.18238697946071625,-0.007904126308858395,-0.013875316828489304,-0.34222304821014404,0.939483106136322,0.0,0.0,0.0,0.0,0.0,0.0
1254,1724915518083136940,-0.5167628526687622,0.10271976888179779,0.18234413862228394,-0.007551893126219511,-0.013496754691004753,-0.34167513251304626,0.9396908283233643,0.0,0.0,0.0,0.0,0.0,0.0
1256,1724915518089708060,-0.5167317390441895,0.10269360989332199,0.18235796689987183,-0.007894820533692837,-0.013925942592322826,-0.3415224850177765,0.9397372603416443,0.0,0.0,0.0,0.0,0.0,0.0
1258,1724915518100339660,-0.516853928565979,0.10278317332267761,0.18245667219161987,-0.010789143852889538,-0.01316634938120842,-0.3420221507549286,0.9395377039909363,0.0,0.0,0.0,0.0,0.0,0.0
1260,1724915518110072472,-0.5168249011039734,0.10264723002910614,0.18235622346401215,-0.01057249866425991,-0.013605501502752304,-0.3408063054084778,0.9399756789207458,0.0,0.0,0.0,0.0,0.0,0.0
1262,1724915518120006807,-0.5168302059173584,0.10260127484798431,0.18229225277900696,-0.010184289887547493,-0.013645905070006847,-0.3403770923614502,0.9401348233222961,0.0,0.0,0.0,0.0,0.0,0.0
1264,1724915518130203411,-0.5166764259338379,0.10262458771467209,0.1823541522026062,-0.006098886951804161,-0.014439734630286694,-0.34052541851997375,0.9401046633720398,0.0,0.0,0.0,0.0,0.0,0.0
1266,1724915518144542957,-0.5166870355606079,0.10264292359352112,0.18238802254199982,-0.006491887383162975,-0.014125601388514042,-0.34089234471321106,0.939973771572113,0.0,0.0,0.0,0.0,0.0,0.0
1268,1724915518149899772,-0.516746461391449,0.10261695832014084,0.1823730319738388,-0.006863025017082691,-0.014100740663707256,-0.34110376238822937,0.9398949146270752,0.0,0.0,0.0,0.0,0.0,0.0
1270,1724915518181938905,-0.5167775750160217,0.10257072746753693,0.18241830170154572,-0.007413399871438742,-0.013869445770978928,-0.34161627292633057,0.9397079944610596,0.0,0.0,0.0,0.0,0.0,0.0
1272,1724915518182187004,-0.5167925953865051,0.10254186391830444,0.1824176013469696,-0.00728497514501214,-0.013705267570912838,-0.34204134345054626,0.9395567774772644,0.0,0.0,0.0,0.0,0.0,0.0
1274,1724915518182458526,-0.5169168710708618,0.10255327820777893,0.18232271075248718,-0.007841764017939568,-0.014140540733933449,-0.3419486880302429,0.9395796060562134,0.0,0.0,0.0,0.0,0.0,0.0
1276,1724915518190548292,-0.5171353816986084,0.10257694125175476,0.1820528656244278,-0.005150879267603159,-0.012613424099981785,-0.3423043191432953,0.9394904375076294,0.0,0.0,0.0,0.0,0.0,0.0
1278,1724915518205393394,-0.5170435309410095,0.10261053591966629,0.1821516454219818,-0.0010299080749973655,-0.012444106861948967,-0.34340786933898926,0.939103364944458,0.0,0.0,0.0,0.0,0.0,0.0
1280,1724915518210146751,-0.5169848203659058,0.10252774506807327,0.18233244121074677,-0.004428841173648834,-0.014216088689863682,-0.3428984582424164,0.9392544627189636,0.0,0.0,0.0,0.0,0.0,0.0
