seq,stamp,px,py,pz,ox,oy,oz,ow,lx,ly,lz,ax,ay,az
18,1724914230060734958,-0.23179443180561066,0.10817036777734756,0.17159119248390198,0.06767561286687851,-0.08731701970100403,-0.2696012556552887,0.9566143751144409,0.0,0.0,0.0,0.0,0.0,0.0
20,1724914230070864195,-0.23200206458568573,0.1080951988697052,0.171440988779068,0.06816121190786362,-0.08758945018053055,-0.26975393295288086,0.9565118551254272,0.0,0.0,0.0,0.0,0.0,0.0
22,1724914230081168241,-0.23216675221920013,0.10802551358938217,0.17136792838573456,0.06799554824829102,-0.08813674002885818,-0.2701463997364044,0.9563626646995544,0.0,0.0,0.0,0.0,0.0,0.0
24,1724914230090391827,-0.23231443762779236,0.10796847939491272,0.17134690284729004,0.06772037595510483,-0.08915673941373825,-0.27112460136413574,0.9560106992721558,0.0,0.0,0.0,0.0,0.0,0.0
26,1724914230099896600,-0.23239710927009583,0.10793996602296829,0.17119938135147095,0.06807291507720947,-0.09001710265874863,-0.2714686095714569,0.9558074474334717,0.0,0.0,0.0,0.0,0.0,0.0
28,1724914230110311348,-0.23252780735492706,0.1079626977443695,0.17109689116477966,0.06772634387016296,-0.09032326191663742,-0.2721092402935028,0.9556209444999695,0.0,0.0,0.0,0.0,0.0,0.0
30,1724914230121037165,-0.23263026773929596,0.1079830601811409,0.17098279297351837,0.0673634484410286,-0.09034942835569382,-0.27294427156448364,0.9554060101509094,0.0,0.0,0.0,0.0,0.0,0.0
32,1724914230130181869,-0.2326672077178955,0.10797485709190369,0.1708488166332245,0.06754358112812042,-0.09102123230695724,-0.27330052852630615,0.9552276730537415,0.0,0.0,0.0,0.0,0.0,0.0
34,1724914230140325217,-0.2326192408800125,0.10799314081668854,0.17084749042987823,0.06898114085197449,-0.09158515930175781,-0.27359795570373535,0.9549857974052429,0.0,0.0,0.0,0.0,0.0,0.0
36,1724914230150613965,-0.23261092603206635,0.10803990811109543,0.1709059476852417,0.06899572163820267,-0.09175145626068115,-0.2742486000061035,0.954782247543335,0.0,0.0,0.0,0.0,0.0,0.0
38,1724914230174122863,-0.23257675766944885,0.10807296633720398,0.1709873080253601,0.06833790987730026,-0.0916181355714798,-0.2750503420829773,0.9546116590499878,0.0,0.0,0.0,0.0,0.0,0.0
40,1724914230174506239,-0.23248857259750366,0.10810577124357224,0.1710379719734192,0.06835699826478958,-0.09182547777891159,-0.2758743166923523,0.9543525576591492,0.0,0.0,0.0,0.0,0.0,0.0
42,1724914230186650408,-0.2324252873659134,0.10810606181621552,0.17106597125530243,0.06793013960123062,-0.09200989454984665,-0.2769365608692169,0.9540576338768005,0.0,0.0,0.0,0.0,0.0,0.0
44,1724914230189993139,-0.2323133796453476,0.10809597373008728,0.17119523882865906,0.06867127120494843,-0.09228654205799103,-0.27821972966194153,0.9536043405532837,0.0,0.0,0.0,0.0,0.0,0.0
46,1724914230200037360,-0.2322310209274292,0.10815256088972092,0.171286940574646,0.06828705221414566,-0.09241671860218048,-0.279436856508255,0.9532633423805237,0.0,0.0,0.0,0.0,0.0,0.0
48,1724914230210159230,-0.23214010894298553,0.10820111632347107,0.17142128944396973,0.06826181709766388,-0.0924450159072876,-0.280564546585083,0.9529312252998352,0.0,0.0,0.0,0.0,0.0,0.0
50,1724914230220575151,-0.231987863779068,0.10820680111646652,0.1714267134666443,0.06909491121768951,-0.09289658814668655,-0.28127625584602356,0.9526174068450928,0.0,0.0,0.0,0.0,0.0,0.0
52,1724914230230386483,-0.2318173348903656,0.10820623487234116,0.17144767940044403,0.06958219408988953,-0.09365740418434143,-0.2822713851928711,0.9522129893302917,0.0,0.0,0.0,0.0,0.0,0.0
54,1724914230239940655,-0.23165875673294067,0.10826440900564194,0.17155060172080994,0.06990641355514526,-0.09389598667621613,-0.28372830152511597,0.9517325758934021,0.0,0.0,0.0,0.0,0.0,0.0
56,1724914230250174945,-0.2315368354320526,0.1083078533411026,0.17166024446487427,0.07017391175031662,-0.0943027213215828,-0.2852018177509308,0.9512321352958679,0.0,0.0,0.0,0.0,0.0,0.0
58,1724914230261768281,-0.23137257993221283,0.10845629125833511,0.17198996245861053,0.0704716220498085,-0.09397736936807632,-0.2874996066093445,0.950550377368927,0.0,0.0,0.0,0.0,0.0,0.0
60,1724914230270888890,-0.2312188297510147,0.10855326801538467,0.1721491813659668,0.07070627063512802,-0.09384112060070038,-0.2895347476005554,0.9499284625053406,0.0,0.0,0.0,0.0,0.0,0.0
62,1724914230280638341,-0.2310800552368164,0.10863745957612991,0.17224353551864624,0.07062873244285583,-0.09401573240756989,-0.2912811040878296,0.949383020401001,0.0,0.0,0.0,0.0,0.0,0.0
64,1724914230291019373,-0.23092733323574066,0.10875099897384644,0.17237363755702972,0.0710410550236702,-0.09411259740591049,-0.29253312945365906,0.9489575624465942,0.0,0.0,0.0,0.0,0.0,0.0
66,1724914230300003709,-0.23078909516334534,0.10886769741773605,0.17247094213962555,0.07119453698396683,-0.09451435506343842,-0.2934184968471527,0.9486327767372131,0.0,0.0,0.0,0.0,0.0,0.0
68,1724914230310853523,-0.23059800267219543,0.10898114740848541,0.172460675239563,0.07172733545303345,-0.09514317661523819,-0.29370808601379395,0.9484400749206543,0.0,0.0,0.0,0.0,0.0,0.0
70,1724914230320581776,-0.23047806322574615,0.10919609665870667,0.17271003127098083,0.07303747534751892,-0.0939742922782898,-0.2952693998813629,0.9479717016220093,0.0,0.0,0.0,0.0,0.0,0.0
72,1724914230330419185,-0.2302531599998474,0.10923586785793304,0.1725393831729889,0.07429604232311249,-0.0957755371928215,-0.29535558819770813,0.9476667642593384,0.0,0.0,0.0,0.0,0.0,0.0
74,1724914230341825640,-0.230111762881279,0.10950516909360886,0.1727202981710434,0.07392192631959915,-0.09641856700181961,-0.296986848115921,0.9471207857131958,0.0,0.0,0.0,0.0,0.0,0.0
76,1724914230350178100,-0.22992807626724243,0.10983925312757492,0.17296414077281952,0.07471372932195663,-0.09672253578901291,-0.298443078994751,0.9465698003768921,0.0,0.0,0.0,0.0,0.0,0.0
78,1724914230364360350,-0.22977375984191895,0.11028739809989929,0.1732380986213684,0.07517814636230469,-0.09641313552856445,-0.29990383982658386,0.9461027979850769,0.0,0.0,0.0,0.0,0.0,0.0
80,1724914230371154195,-0.2296266257762909,0.11066614836454391,0.17338940501213074,0.07572126388549805,-0.09679635614156723,-0.30111023783683777,0.9456371068954468,0.0,0.0,0.0,0.0,0.0,0.0
82,1724914230380239741,-0.22955197095870972,0.11109429597854614,0.17359182238578796,0.0762108638882637,-0.09696473926305771,-0.3025261461734772,0.9451283812522888,0.0,0.0,0.0,0.0,0.0,0.0
84,1724914230390918890,-0.2294997125864029,0.11163735389709473,0.17393502593040466,0.07606830447912216,-0.09666640311479568,-0.30427467823028564,0.9446090459823608,0.0,0.0,0.0,0.0,0.0,0.0
86,1724914230401334185,-0.22943826019763947,0.11223366111516953,0.17427538335323334,0.0754391998052597,-0.09689014405012131,-0.3051098585128784,0.9443671107292175,0.0,0.0,0.0,0.0,0.0,0.0
88,1724914230410413653,-0.22936590015888214,0.112978994846344,0.17498981952667236,0.07356385886669159,-0.09678370505571365,-0.30629199743270874,0.9441433548927307,0.0,0.0,0.0,0.0,0.0,0.0
90,1724914230420985846,-0.22926440834999084,0.11363095045089722,0.17561595141887665,0.07317187637090683,-0.09614621847867966,-0.30766481161117554,0.9437924027442932,0.0,0.0,0.0,0.0,0.0,0.0
92,1724914230430128207,-0.2291106879711151,0.11421128362417221,0.17609818279743195,0.0734778344631195,-0.09660954028367996,-0.3083980977535248,0.943481981754303,0.0,0.0,0.0,0.0,0.0,0.0
94,1724914230440164394,-0.22889256477355957,0.11500317603349686,0.1771029382944107,0.0719415619969368,-0.09524327516555786,-0.3108837902545929,0.9429233074188232,0.0,0.0,0.0,0.0,0.0,0.0
96,1724914230450301755,-0.2284843921661377,0.11575406789779663,0.17798060178756714,0.07346831262111664,-0.09370633959770203,-0.31226712465286255,0.9425024390220642,0.0,0.0,0.0,0.0,0.0,0.0
98,1724914230460000463,-0.22818727791309357,0.11646470427513123,0.17872880399227142,0.0727001428604126,-0.09078779071569443,-0.31376445293426514,0.9423503279685974,0.0,0.0,0.0,0.0,0.0,0.0
100,1724914230475769195,-0.2281089574098587,0.11716984957456589,0.1797494888305664,0.07061421126127243,-0.08918299525976181,-0.31696465611457825,0.9415909051895142,0.0,0.0,0.0,0.0,0.0,0.0
102,1724914230480658285,-0.2277112752199173,0.11762596666812897,0.18015170097351074,0.06911395490169525,-0.08996017277240753,-0.3170485198497772,0.9416001439094543,0.0,0.0,0.0,0.0,0.0,0.0
104,1724914230490274998,-0.2273585945367813,0.11822165548801422,0.1806122064590454,0.0683194100856781,-0.089483842253685,-0.3179772198200226,0.9413902759552002,0.0,0.0,0.0,0.0,0.0,0.0
106,1724914230500076292,-0.22695660591125488,0.11889944970607758,0.18107031285762787,0.06675747781991959,-0.08931390196084976,-0.31846025586128235,0.9413552284240723,0.0,0.0,0.0,0.0,0.0,0.0
108,1724914230511608008,-0.22650235891342163,0.11967597901821136,0.18160855770111084,0.06398817151784897,-0.08808545023202896,-0.31880930066108704,0.9415450692176819,0.0,0.0,0.0,0.0,0.0,0.0
110,1724914230520620504,-0.22593249380588531,0.12052910774946213,0.18250271677970886,0.061914149671792984,-0.08433514833450317,-0.3219575881958008,0.9409557580947876,0.0,0.0,0.0,0.0,0.0,0.0
112,1724914230530385941,-0.2253858745098114,0.12143852561712265,0.18346868455410004,0.061412010341882706,-0.07946806401014328,-0.32609543204307556,0.9399867653846741,0.0,0.0,0.0,0.0,0.0,0.0
114,1724914230540326977,-0.22457024455070496,0.12202857434749603,0.18346291780471802,0.058274250477552414,-0.07925794273614883,-0.32533371448516846,0.9404681921005249,0.0,0.0,0.0,0.0,0.0,0.0
116,1724914230550005903,-0.22364145517349243,0.12304569780826569,0.18418629467487335,0.05608980357646942,-0.07569986581802368,-0.32644230127334595,0.9405099749565125,0.0,0.0,0.0,0.0,0.0,0.0
118,1724914230563658360,-0.22251960635185242,0.12394776940345764,0.1849914789199829,0.055414993315935135,-0.07281499356031418,-0.3280848264694214,0.9402061104774475,0.0,0.0,0.0,0.0,0.0,0.0
120,1724914230571424892,-0.22142185270786285,0.12484310567378998,0.18560053408145905,0.0511835478246212,-0.06960134208202362,-0.32910290360450745,0.9403336644172668,0.0,0.0,0.0,0.0,0.0,0.0
122,1724914230580155077,-0.22030705213546753,0.12554895877838135,0.18611539900302887,0.04888930544257164,-0.06577272713184357,-0.33036041259765625,0.9402903318405151,0.0,0.0,0.0,0.0,0.0,0.0
124,1724914230592674632,-0.21913273632526398,0.12631292641162872,0.18686045706272125,0.04636916518211365,-0.0611472949385643,-0.33257368206977844,0.9399498701095581,0.0,0.0,0.0,0.0,0.0,0.0
126,1724914230599735898,-0.21733734011650085,0.12732498347759247,0.18729303777217865,0.046151675283908844,-0.057839930057525635,-0.3336130976676941,0.9398015737533569,0.0,0.0,0.0,0.0,0.0,0.0
128,1724914230610207772,-0.21559175848960876,0.1282980740070343,0.1874416023492813,0.040650997310876846,-0.05375499650835991,-0.33408910036087036,0.9401289224624634,0.0,0.0,0.0,0.0,0.0,0.0
130,1724914230619894570,-0.2138463407754898,0.1293075829744339,0.18737296760082245,0.03665456548333168,-0.050312332808971405,-0.3349284529685974,0.9401851296424866,0.0,0.0,0.0,0.0,0.0,0.0
132,1724914230631295342,-0.21192367374897003,0.1302286684513092,0.187470480799675,0.03670100122690201,-0.04542982950806618,-0.336844265460968,0.9397474527359009,0.0,0.0,0.0,0.0,0.0,0.0
134,1724914230640477937,-0.20998160541057587,0.13108305633068085,0.187475323677063,0.029682766646146774,-0.04263196513056755,-0.3362550437450409,0.9403372406959534,0.0,0.0,0.0,0.0,0.0,0.0
136,1724914230651148086,-0.20757870376110077,0.13218408823013306,0.18808814883232117,0.02554980292916298,-0.03482753783464432,-0.3387087285518646,0.9398992657661438,0.0,0.0,0.0,0.0,0.0,0.0
138,1724914230660080862,-0.20500248670578003,0.1331525444984436,0.18874120712280273,0.020156120881438255,-0.02938259020447731,-0.33993294835090637,0.9397744536399841,0.0,0.0,0.0,0.0,0.0,0.0
140,1724914230670148732,-0.20217910408973694,0.1339733749628067,0.18929354846477509,0.018609734252095222,-0.022152891382575035,-0.3409118056297302,0.9396499991416931,0.0,0.0,0.0,0.0,0.0,0.0
142,1724914230680501175,-0.1993190199136734,0.1348007321357727,0.18975238502025604,0.013191970996558666,-0.015556021593511105,-0.34131452441215515,0.9397278428077698,0.0,0.0,0.0,0.0,0.0,0.0
144,1724914230690366619,-0.19646264612674713,0.13540025055408478,0.18968069553375244,0.00885147787630558,-0.011251555755734444,-0.33875545859336853,0.9407655596733093,0.0,0.0,0.0,0.0,0.0,0.0
146,1724914230700548211,-0.19357557594776154,0.13632546365261078,0.18975409865379333,0.002546207047998905,-0.006792997010052204,-0.338408887386322,0.9409711956977844,0.0,0.0,0.0,0.0,0.0,0.0
148,1724914230711306989,-0.19083410501480103,0.13693386316299438,0.18993976712226868,0.0019238103413954377,-0.0046914806589484215,-0.3388478755950928,0.940827488899231,0.0,0.0,0.0,0.0,0.0,0.0
150,1724914230720205253,-0.18812495470046997,0.13772638142108917,0.18987040221691132,0.003352845786139369,-0.003973510582000017,-0.3395487070083618,0.9405741691589355,0.0,0.0,0.0,0.0,0.0,0.0
152,1724914230730094052,-0.18577340245246887,0.13837003707885742,0.1897691935300827,0.005127038341015577,-0.0055512115359306335,-0.3384262025356293,0.9409626722335815,0.0,0.0,0.0,0.0,0.0,0.0
154,1724914230740182625,-0.18409819900989532,0.13909465074539185,0.19051440060138702,0.00568533455953002,-0.00473319785669446,-0.3408803939819336,0.940077543258667,0.0,0.0,0.0,0.0,0.0,0.0
156,1724914230750148384,-0.18294017016887665,0.13976378738880157,0.19158630073070526,0.003558197058737278,-0.005956175271421671,-0.34170496463775635,0.939781665802002,0.0,0.0,0.0,0.0,0.0,0.0
158,1724914230761332448,-0.1820289045572281,0.14025893807411194,0.19276656210422516,0.0030485112220048904,-0.0069404467940330505,-0.34233763813972473,0.9395464658737183,0.0,0.0,0.0,0.0,0.0,0.0
160,1724914230770525024,-0.1817995011806488,0.14076070487499237,0.1936124712228775,0.0015890480717644095,-0.006875916849821806,-0.34317976236343384,0.9392432570457458,0.0,0.0,0.0,0.0,0.0,0.0
162,1724914230783058983,-0.181996688246727,0.14141909778118134,0.19428566098213196,-0.0011762965004891157,-0.006259563844650984,-0.3440122604370117,0.93894362449646,0.0,0.0,0.0,0.0,0.0,0.0
164,1724914230793796220,-0.18242396414279938,0.14211036264896393,0.19465506076812744,3.933436892111786e-05,-0.006835486274212599,-0.34532487392425537,0.9384583830833435,0.0,0.0,0.0,0.0,0.0,0.0
166,1724914230800008097,-0.18323741853237152,0.1431061178445816,0.19467498362064362,-0.00035322748590260744,-0.007938288152217865,-0.34535107016563416,0.9384399652481079,0.0,0.0,0.0,0.0,0.0,0.0
168,1724914230810366636,-0.1841195821762085,0.14386522769927979,0.1946496218442917,0.0005455990904010832,-0.010271456092596054,-0.34725508093833923,0.9377143979072571,0.0,0.0,0.0,0.0,0.0,0.0
170,1724914230920797187,-0.18563279509544373,0.14471323788166046,0.1937912255525589,6.859321729280055e-05,-0.013696100562810898,-0.3462088704109192,0.9380574822425842,0.0,0.0,0.0,0.0,0.0,0.0
172,1724914230921322557,-0.18764977157115936,0.14534200727939606,0.1927247792482376,-0.0029398349579423666,-0.020430421456694603,-0.3470313549041748,0.9376264810562134,0.0,0.0,0.0,0.0,0.0,0.0
174,1724914230921961248,-0.1898239552974701,0.1460699886083603,0.19165121018886566,-0.003500819206237793,-0.025082938373088837,-0.34707000851631165,0.9374972581863403,0.0,0.0,0.0,0.0,0.0,0.0
176,1724914230923806533,-0.1921588033437729,0.14670300483703613,0.1904238909482956,-0.0022977525368332863,-0.029965588822960854,-0.3464753031730652,0.9375775456428528,0.0,0.0,0.0,0.0,0.0,0.0
178,1724914230924373318,-0.1947336345911026,0.1474212110042572,0.1889643520116806,-0.002462120959535241,-0.03489021211862564,-0.3446773290634155,0.9380694627761841,0.0,0.0,0.0,0.0,0.0,0.0
180,1724914230924643763,-0.19723311066627502,0.1477847397327423,0.18790528178215027,-0.0021040102001279593,-0.04081214964389801,-0.34524065256118774,0.9376240968704224,0.0,0.0,0.0,0.0,0.0,0.0
182,1724914230925304327,-0.19983379542827606,0.14817489683628082,0.1867576241493225,-0.0016466655069962144,-0.04427962377667427,-0.3449644446372986,0.937569260597229,0.0,0.0,0.0,0.0,0.0,0.0
184,1724914230925623205,-0.20230990648269653,0.14859464764595032,0.18567420542240143,-0.002674790332093835,-0.05004708468914032,-0.3451427221298218,0.9372111558914185,0.0,0.0,0.0,0.0,0.0,0.0
186,1724914230925900373,-0.2049146592617035,0.14908713102340698,0.1845540851354599,-0.004209999460726976,-0.05419832468032837,-0.3464728593826294,0.9364835023880005,0.0,0.0,0.0,0.0,0.0,0.0
188,1724914230926156319,-0.20730219781398773,0.14962361752986908,0.18308493494987488,-0.0034634917974472046,-0.057737864553928375,-0.34747418761253357,0.9359038472175598,0.0,0.0,0.0,0.0,0.0,0.0
190,1724914230926851950,-0.2098323404788971,0.1502019464969635,0.18173043429851532,-0.007875896990299225,-0.0619986392557621,-0.3485807776451111,0.935192883014679,0.0,0.0,0.0,0.0,0.0,0.0
192,1724914230930068644,-0.21193473041057587,0.1508314609527588,0.1804664134979248,-0.005983314011245966,-0.06357758492231369,-0.35040533542633057,0.9344186782836914,0.0,0.0,0.0,0.0,0.0,0.0
194,1724914230939893920,-0.21415212750434875,0.15118283033370972,0.17871642112731934,-0.005615677684545517,-0.0695204883813858,-0.3499841094017029,0.9341555237770081,0.0,0.0,0.0,0.0,0.0,0.0
196,1724914230950115848,-0.2164425402879715,0.1517333984375,0.1774459183216095,-0.008128130808472633,-0.0733797550201416,-0.35096660256385803,0.9334729909896851,0.0,0.0,0.0,0.0,0.0,0.0
198,1724914230961245569,-0.21849465370178223,0.1521180123090744,0.17630016803741455,-0.007475208956748247,-0.07771410793066025,-0.3515870273113251,0.9328941106796265,0.0,0.0,0.0,0.0,0.0,0.0
200,1724914230970382673,-0.2205047756433487,0.15260270237922668,0.17543096840381622,-0.005986157804727554,-0.07848192751407623,-0.3528340458869934,0.932369589805603,0.0,0.0,0.0,0.0,0.0,0.0
202,1724914230981184186,-0.22253760695457458,0.15282602608203888,0.17454446852207184,-0.007445432245731354,-0.08325030654668808,-0.3527050018310547,0.9319942593574524,0.0,0.0,0.0,0.0,0.0,0.0
204,1724914230990077500,-0.2242508977651596,0.15309512615203857,0.17388033866882324,-0.006392295937985182,-0.08460161834955215,-0.3532182574272156,0.9316859245300293,0.0,0.0,0.0,0.0,0.0,0.0
206,1724914230999792634,-0.22598274052143097,0.1532287746667862,0.1728592962026596,-0.007138681598007679,-0.08679355680942535,-0.3536005914211273,0.9313337206840515,0.0,0.0,0.0,0.0,0.0,0.0
208,1724914231012195903,-0.22748282551765442,0.153549924492836,0.17204609513282776,-0.00808712001889944,-0.08886406570672989,-0.35399413108825684,0.9309812188148499,0.0,0.0,0.0,0.0,0.0,0.0
210,1724914231020625547,-0.22874760627746582,0.1535639762878418,0.1710815131664276,-0.007182188797742128,-0.09353983402252197,-0.3526589870452881,0.9310373067855835,0.0,0.0,0.0,0.0,0.0,0.0
212,1724914231064538927,-0.22991257905960083,0.15366040170192719,0.17036724090576172,-0.006911854725331068,-0.09658849984407425,-0.35274481773376465,0.9306954145431519,0.0,0.0,0.0,0.0,0.0,0.0
214,1724914231065620306,-0.23090893030166626,0.15386082231998444,0.1698533594608307,-0.006991621106863022,-0.09823042154312134,-0.35323500633239746,0.9303370714187622,0.0,0.0,0.0,0.0,0.0,0.0
216,1724914231065875498,-0.23168358206748962,0.1539781391620636,0.1693718433380127,-0.007232323754578829,-0.10015065222978592,-0.35273978114128113,0.9303184151649475,0.0,0.0,0.0,0.0,0.0,0.0
218,1724914231066367201,-0.23233634233474731,0.1541060358285904,0.16896900534629822,-0.0067298635840415955,-0.10175441205501556,-0.3514309823513031,0.9306434392929077,0.0,0.0,0.0,0.0,0.0,0.0
220,1724914231070288264,-0.2328948825597763,0.15421062707901,0.16866570711135864,-0.006374905817210674,-0.10303398966789246,-0.3500763475894928,0.9310155510902405,0.0,0.0,0.0,0.0,0.0,0.0
222,1724914231081662059,-0.23342913389205933,0.154448002576828,0.1684258133172989,-0.004994508344680071,-0.10187109559774399,-0.34988364577293396,0.9312243461608887,0.0,0.0,0.0,0.0,0.0,0.0
224,1724914231093248332,-0.23387157917022705,0.15470349788665771,0.16834868490695953,-0.004954771604388952,-0.10096576809883118,-0.34986448287963867,0.9313303828239441,0.0,0.0,0.0,0.0,0.0,0.0
226,1724914231099652061,-0.23417723178863525,0.15484829246997833,0.16826054453849792,-0.004095247481018305,-0.10115166753530502,-0.34980490803718567,0.9313367605209351,0.0,0.0,0.0,0.0,0.0,0.0
228,1724914231110196717,-0.23437786102294922,0.15494705736637115,0.16813738644123077,-0.003228987567126751,-0.10198190063238144,-0.34969741106033325,0.9312900304794312,0.0,0.0,0.0,0.0,0.0,0.0
230,1724914231121629816,-0.2345305234193802,0.15499526262283325,0.1680372953414917,-0.0031759091652929783,-0.10299091786146164,-0.3496209383010864,0.9312078356742859,0.0,0.0,0.0,0.0,0.0,0.0
232,1724914231130246801,-0.23458921909332275,0.15502934157848358,0.16801130771636963,-0.003730805590748787,-0.1035248339176178,-0.34965142607688904,0.9311351776123047,0.0,0.0,0.0,0.0,0.0,0.0
234,1724914231140626063,-0.2345608025789261,0.15500900149345398,0.16806283593177795,-0.004113516304641962,-0.10376422852277756,-0.34946736693382263,0.9311760067939758,0.0,0.0,0.0,0.0,0.0,0.0
236,1724914231150086051,-0.23448552191257477,0.15495511889457703,0.1681235134601593,-0.00396755151450634,-0.10384122282266617,-0.3489171862602234,0.9313743114471436,0.0,0.0,0.0,0.0,0.0,0.0
238,1724914231159990032,-0.2343774139881134,0.15490183234214783,0.16826528310775757,-0.004296603612601757,-0.10354428738355637,-0.3484492003917694,0.9315810799598694,0.0,0.0,0.0,0.0,0.0,0.0
240,1724914231170464776,-0.234241783618927,0.15485703945159912,0.16837114095687866,-0.004457314498722553,-0.10299622267484665,-0.3478512465953827,0.9318645000457764,0.0,0.0,0.0,0.0,0.0,0.0
242,1724914231232386641,-0.2341640293598175,0.15482987463474274,0.16849152743816376,-0.006587716285139322,-0.10330478847026825,-0.3471180498600006,0.9320910573005676,0.0,0.0,0.0,0.0,0.0,0.0
244,1724914231232748163,-0.23389588296413422,0.1547585427761078,0.16854678094387054,-0.007123427931219339,-0.10371211171150208,-0.34624409675598145,0.9323669672012329,0.0,0.0,0.0,0.0,0.0,0.0
246,1724914231233741886,-0.2336752563714981,0.15460915863513947,0.16846761107444763,-0.006702836602926254,-0.10460124909877777,-0.345453143119812,0.9325640797615051,0.0,0.0,0.0,0.0,0.0,0.0
248,1724914231234222750,-0.23351889848709106,0.15453475713729858,0.1684407740831375,-0.006566362455487251,-0.10513129830360413,-0.3451085090637207,0.9326330423355103,0.0,0.0,0.0,0.0,0.0,0.0
250,1724914231234466583,-0.2333322912454605,0.15446113049983978,0.16846980154514313,-0.0072114476934075356,-0.10533019155263901,-0.34503063559532166,0.932634711265564,0.0,0.0,0.0,0.0,0.0,0.0
252,1724914231234710322,-0.23311495780944824,0.15435007214546204,0.16855570673942566,-0.007650561630725861,-0.10582854598760605,-0.3446217477321625,0.9327259659767151,0.0,0.0,0.0,0.0,0.0,0.0
254,1724914231240204375,-0.23284968733787537,0.15430322289466858,0.16873207688331604,-0.007446763105690479,-0.10611525923013687,-0.34381330013275146,0.9329932928085327,0.0,0.0,0.0,0.0,0.0,0.0
256,1724914231269695064,-0.23260989785194397,0.15425744652748108,0.16889429092407227,-0.0069427937269210815,-0.10602115839719772,-0.3427954912185669,0.9333823919296265,0.0,0.0,0.0,0.0,0.0,0.0
258,1724914231270034253,-0.2322903573513031,0.15421974658966064,0.16901545226573944,-0.005807752255350351,-0.10570839047431946,-0.3412505090236664,0.9339916110038757,0.0,0.0,0.0,0.0,0.0,0.0
260,1724914231270798715,-0.2319081723690033,0.15419533848762512,0.16905827820301056,-0.0034934054128825665,-0.10620415210723877,-0.33972662687301636,0.9345021843910217,0.0,0.0,0.0,0.0,0.0,0.0
262,1724914231280775082,-0.23160725831985474,0.1542232781648636,0.16894838213920593,-0.0035396795719861984,-0.10603854060173035,-0.3377215564250946,0.9352473616600037,0.0,0.0,0.0,0.0,0.0,0.0
264,1724914231290768313,-0.2313910871744156,0.1542593240737915,0.16880086064338684,-0.003998222295194864,-0.10561992228031158,-0.33641815185546875,0.9357624650001526,0.0,0.0,0.0,0.0,0.0,0.0
266,1724914231300675706,-0.23119625449180603,0.1542605757713318,0.16874001920223236,-0.003908868879079819,-0.10619571059942245,-0.33560293912887573,0.9359902739524841,0.0,0.0,0.0,0.0,0.0,0.0
268,1724914231315049561,-0.23099841177463531,0.15423068404197693,0.16880570352077484,-0.0032957049552351236,-0.10715396702289581,-0.3350200057029724,0.9360923171043396,0.0,0.0,0.0,0.0,0.0,0.0
270,1724914231322017885,-0.2306974232196808,0.15415512025356293,0.16897770762443542,-0.003802970750257373,-0.10809915512800217,-0.33402055501937866,0.9363388419151306,0.0,0.0,0.0,0.0,0.0,0.0
272,1724914231330881487,-0.2304631769657135,0.15412290394306183,0.1692625880241394,-0.005580049008131027,-0.10884568840265274,-0.333018034696579,0.9366005063056946,0.0,0.0,0.0,0.0,0.0,0.0
274,1724914231382096992,-0.2301398664712906,0.15420891344547272,0.169722780585289,-0.005399490240961313,-0.1077006384730339,-0.33270931243896484,0.9368435740470886,0.0,0.0,0.0,0.0,0.0,0.0
276,1724914231382435191,-0.22978486120700836,0.1541462391614914,0.16998101770877838,-0.005414371844381094,-0.10799451917409897,-0.33135390281677246,0.9372899532318115,0.0,0.0,0.0,0.0,0.0,0.0
278,1724914231382664902,-0.22944867610931396,0.15405498445034027,0.17016415297985077,-0.006382119841873646,-0.10818825662136078,-0.3296448886394501,0.9378640055656433,0.0,0.0,0.0,0.0,0.0,0.0
280,1724914231382956083,-0.228981614112854,0.1539706438779831,0.1703006625175476,-0.005758877377957106,-0.10713424533605576,-0.3273073732852936,0.9388072490692139,0.0,0.0,0.0,0.0,0.0,0.0
282,1724914231383187686,-0.22848628461360931,0.15379300713539124,0.1702328622341156,-0.005868240725249052,-0.10728882253170013,-0.3242841064929962,0.9398375153541565,0.0,0.0,0.0,0.0,0.0,0.0
284,1724914231390720456,-0.227951318025589,0.1536908596754074,0.17040488123893738,-0.005263914819806814,-0.10745320469141006,-0.32235923409461975,0.940484344959259,0.0,0.0,0.0,0.0,0.0,0.0
286,1724914231400813273,-0.22738420963287354,0.15357579290866852,0.1708444505929947,-0.0046257260255515575,-0.10772347450256348,-0.32108643651008606,0.9408921003341675,0.0,0.0,0.0,0.0,0.0,0.0
288,1724914231410829072,-0.22693486511707306,0.15341946482658386,0.17149290442466736,-0.006500421557575464,-0.10743969678878784,-0.31989777088165283,0.9413182139396667,0.0,0.0,0.0,0.0,0.0,0.0
290,1724914231420416445,-0.22639420628547668,0.1532476395368576,0.1724158078432083,-0.006850983016192913,-0.10575252026319504,-0.31912216544151306,0.9417698979377747,0.0,0.0,0.0,0.0,0.0,0.0
292,1724914231432359061,-0.22586266696453094,0.15300889313220978,0.1731792688369751,-0.007379989605396986,-0.103798508644104,-0.3179314136505127,0.9423858523368835,0.0,0.0,0.0,0.0,0.0,0.0
294,1724914231440187265,-0.22510488331317902,0.1527339369058609,0.17381985485553741,-0.006433424074202776,-0.10221339017152786,-0.31573915481567383,0.943302571773529,0.0,0.0,0.0,0.0,0.0,0.0
296,1724914231450328640,-0.2242443859577179,0.15239086747169495,0.17450371384620667,-0.004285999573767185,-0.1000552549958229,-0.31357866525650024,0.9442664384841919,0.0,0.0,0.0,0.0,0.0,0.0
298,1724914231462653966,-0.22342486679553986,0.1520811915397644,0.1754184067249298,-0.0032147886231541634,-0.09719450026750565,-0.3120580017566681,0.9450728297233582,0.0,0.0,0.0,0.0,0.0,0.0
300,1724914231470346362,-0.2226824313402176,0.15172919631004333,0.17623458802700043,-0.005116880405694246,-0.09428637474775314,-0.31093302369117737,0.9457297325134277,0.0,0.0,0.0,0.0,0.0,0.0
302,1724914231482284260,-0.2216830998659134,0.15138421952724457,0.17703098058700562,-0.006248182617127895,-0.09235083311796188,-0.3085547387599945,0.9466922879219055,0.0,0.0,0.0,0.0,0.0,0.0
304,1724914231490372513,-0.22058527171611786,0.15089388191699982,0.17780134081840515,-0.003584840102121234,-0.0916292816400528,-0.306616872549057,0.9474056363105774,0.0,0.0,0.0,0.0,0.0,0.0
306,1724914231499861032,-0.21952839195728302,0.15057720243930817,0.17870040237903595,-0.002426581457257271,-0.08875580877065659,-0.30649593472480774,0.9477218985557556,0.0,0.0,0.0,0.0,0.0,0.0
308,1724914231510001074,-0.21818847954273224,0.14994262158870697,0.17936579883098602,-0.0005070515326224267,-0.08583076298236847,-0.3044903576374054,0.9486403465270996,0.0,0.0,0.0,0.0,0.0,0.0
310,1724914231520520001,-0.216981440782547,0.14929014444351196,0.18009746074676514,-0.0008639979059807956,-0.08204974979162216,-0.3026159405708313,0.9495739340782166,0.0,0.0,0.0,0.0,0.0,0.0
312,1724914231530209511,-0.21579518914222717,0.14848975837230682,0.18124650418758392,-0.0010888634715229273,-0.07961184531450272,-0.3022030293941498,0.9499127268791199,0.0,0.0,0.0,0.0,0.0,0.0
314,1724914231540765297,-0.21444088220596313,0.1476791501045227,0.18227307498455048,-0.0017299995524808764,-0.07560645043849945,-0.3016594350337982,0.9504116177558899,0.0,0.0,0.0,0.0,0.0,0.0
316,1724914231549984752,-0.21277597546577454,0.14669550955295563,0.18323679268360138,-0.0003262462269049138,-0.07121831178665161,-0.30016565322875977,0.9512247443199158,0.0,0.0,0.0,0.0,0.0,0.0
318,1724914231560454698,-0.2112945318222046,0.14563702046871185,0.1839761734008789,-0.002242481103166938,-0.06603486835956573,-0.2995741069316864,0.9517824053764343,0.0,0.0,0.0,0.0,0.0,0.0
320,1724914231570385520,-0.20929645001888275,0.14443537592887878,0.184775710105896,-0.0004954654141329229,-0.0602414608001709,-0.29843491315841675,0.9525268077850342,0.0,0.0,0.0,0.0,0.0,0.0
322,1724914231580242600,-0.2074737846851349,0.14315228164196014,0.18538162112236023,-0.002526012947782874,-0.05557457357645035,-0.2971625328063965,0.953204870223999,0.0,0.0,0.0,0.0,0.0,0.0
324,1724914231648213147,-0.2053648978471756,0.14180557429790497,0.186033695936203,-0.0020296999718993902,-0.04848959669470787,-0.29647883772850037,0.9538055658340454,0.0,0.0,0.0,0.0,0.0,0.0
326,1724914231648667923,-0.20316722989082336,0.14018666744232178,0.1861291378736496,-0.0038412059657275677,-0.04521910846233368,-0.29383474588394165,0.9547783136367798,0.0,0.0,0.0,0.0,0.0,0.0
328,1724914231649036092,-0.20060907304286957,0.13870880007743835,0.18657660484313965,0.000491021026391536,-0.038913626223802567,-0.29357224702835083,0.955144464969635,0.0,0.0,0.0,0.0,0.0,0.0
330,1724914231649509925,-0.19790449738502502,0.13718698918819427,0.18711194396018982,-0.0008827848359942436,-0.03054451197385788,-0.29256007075309753,0.955758810043335,0.0,0.0,0.0,0.0,0.0,0.0
332,1724914231649764494,-0.1952391415834427,0.13575626909732819,0.18730327486991882,-0.0013285655295476317,-0.023058149963617325,-0.2908797860145569,0.956480860710144,0.0,0.0,0.0,0.0,0.0,0.0
334,1724914231650007504,-0.1923285275697708,0.13421905040740967,0.1877182573080063,-0.0027440660633146763,-0.017710093408823013,-0.2900848984718323,0.9568331241607666,0.0,0.0,0.0,0.0,0.0,0.0
336,1724914231713067544,-0.18963314592838287,0.13287094235420227,0.18799182772636414,-0.0012375047663226724,-0.010884980671107769,-0.2899896800518036,0.9569671154022217,0.0,0.0,0.0,0.0,0.0,0.0
338,1724914231713469236,-0.18708553910255432,0.13121388852596283,0.18769001960754395,-0.0020101212430745363,-0.010355545207858086,-0.28699126839637756,0.95787513256073,0.0,0.0,0.0,0.0,0.0,0.0
340,1724914231713980970,-0.1846727579832077,0.1299411505460739,0.18768905103206635,-0.001868590945377946,-0.008816818706691265,-0.2859923541545868,0.9581895470619202,0.0,0.0,0.0,0.0,0.0,0.0
342,1724914231714317387,-0.18285465240478516,0.12889790534973145,0.18842746317386627,-0.004180463496595621,-0.011541004292666912,-0.2868660092353821,0.957892119884491,0.0,0.0,0.0,0.0,0.0,0.0
344,1724914231717855133,-0.18158969283103943,0.12790453433990479,0.189083531498909,-0.0031209932640194893,-0.012246339581906796,-0.28667888045310974,0.9579434394836426,0.0,0.0,0.0,0.0,0.0,0.0
346,1724914231718155461,-0.18098343908786774,0.1267985850572586,0.1896084100008011,-0.003102916292846203,-0.013075205497443676,-0.2854457199573517,0.9583006501197815,0.0,0.0,0.0,0.0,0.0,0.0
348,1724914231720032685,-0.18074952065944672,0.12582650780677795,0.19025245308876038,-0.0030345723498612642,-0.014378056861460209,-0.2833113968372345,0.9589154124259949,0.0,0.0,0.0,0.0,0.0,0.0
350,1724914231720480659,-0.18110767006874084,0.12477268278598785,0.19130802154541016,-0.0035870203282684088,-0.01436643861234188,-0.2832452952861786,0.9589332342147827,0.0,0.0,0.0,0.0,0.0,0.0
352,1724914231730965722,-0.1818556785583496,0.12385241687297821,0.19175177812576294,0.0003576451272238046,-0.015065052546560764,-0.28205156326293945,0.9592809081077576,0.0,0.0,0.0,0.0,0.0,0.0
354,1724914231740306805,-0.18315720558166504,0.12302684038877487,0.19181683659553528,0.0031898620072752237,-0.01589207537472248,-0.281294047832489,0.9594847559928894,0.0,0.0,0.0,0.0,0.0,0.0
356,1724914231751494465,-0.18487918376922607,0.12165908515453339,0.1919366717338562,0.004719415679574013,-0.019921621307730675,-0.28078240156173706,0.9595531225204468,0.0,0.0,0.0,0.0,0.0,0.0
358,1724914231763544517,-0.18666431307792664,0.12052642554044724,0.1919889748096466,0.009287211112678051,-0.022282660007476807,-0.28086888790130615,0.9594425559043884,0.0,0.0,0.0,0.0,0.0,0.0
360,1724914231770280691,-0.18886390328407288,0.11932459473609924,0.19158083200454712,0.01102642621845007,-0.025573737919330597,-0.2803223431110382,0.9595019221305847,0.0,0.0,0.0,0.0,0.0,0.0
362,1724914231781182316,-0.19127491116523743,0.11792562901973724,0.19112466275691986,0.015422308817505836,-0.0303240567445755,-0.2817521393299103,0.9588838815689087,0.0,0.0,0.0,0.0,0.0,0.0
364,1724914231794901514,-0.19426921010017395,0.11645704507827759,0.18947048485279083,0.01779436320066452,-0.03714766353368759,-0.27929481863975525,0.9593216180801392,0.0,0.0,0.0,0.0,0.0,0.0
366,1724914231800285564,-0.1970842480659485,0.11525756120681763,0.18797388672828674,0.02462143450975418,-0.041382212191820145,-0.27830085158348083,0.9592862129211426,0.0,0.0,0.0,0.0,0.0,0.0
368,1724914231811768276,-0.200125053524971,0.11396116018295288,0.18688854575157166,0.02864222228527069,-0.04613318294286728,-0.27875247597694397,0.9588266015052795,0.0,0.0,0.0,0.0,0.0,0.0
370,1724914231822190944,-0.20298677682876587,0.11316018551588058,0.18575388193130493,0.032412413507699966,-0.049974504858255386,-0.278285413980484,0.958649754524231,0.0,0.0,0.0,0.0,0.0,0.0
372,1724914231830733848,-0.2059575319290161,0.11230743676424026,0.18466216325759888,0.03650367259979248,-0.05351828783750534,-0.2783574163913727,0.9582903981208801,0.0,0.0,0.0,0.0,0.0,0.0
374,1724914231841294341,-0.20883208513259888,0.11155741661787033,0.18394587934017181,0.03708967566490173,-0.05772797763347626,-0.27843189239501953,0.9580019116401672,0.0,0.0,0.0,0.0,0.0,0.0
376,1724914231850106667,-0.21150994300842285,0.11096904426813126,0.18325525522232056,0.03910662606358528,-0.06046811118721962,-0.277957558631897,0.9578903317451477,0.0,0.0,0.0,0.0,0.0,0.0
378,1724914231860968002,-0.213964581489563,0.11036860197782516,0.1819562315940857,0.04206973686814308,-0.06390924006700516,-0.27517592906951904,0.9583443999290466,0.0,0.0,0.0,0.0,0.0,0.0
380,1724914231870339266,-0.21638314425945282,0.10991677641868591,0.18124637007713318,0.04373013228178024,-0.06662571430206299,-0.2745078504085541,0.958276629447937,0.0,0.0,0.0,0.0,0.0,0.0
382,1724914231880354892,-0.21843771636486053,0.1096154972910881,0.18027779459953308,0.04488758370280266,-0.0689888596534729,-0.271890252828598,0.9588021039962769,0.0,0.0,0.0,0.0,0.0,0.0
384,1724914231891554671,-0.22040605545043945,0.10949328541755676,0.17979776859283447,0.0475752055644989,-0.0682184249162674,-0.2721171975135803,0.9586632251739502,0.0,0.0,0.0,0.0,0.0,0.0
386,1724914231900646286,-0.22229035198688507,0.10920242220163345,0.1787627637386322,0.04798974469304085,-0.07055263221263885,-0.27065593004226685,0.9588872194290161,0.0,0.0,0.0,0.0,0.0,0.0
388,1724914231913248902,-0.223999485373497,0.10918079316616058,0.17796280980110168,0.0495796762406826,-0.07123889029026031,-0.2715637683868408,0.9584988355636597,0.0,0.0,0.0,0.0,0.0,0.0
390,1724914231921590149,-0.22551816701889038,0.1089453473687172,0.17654003202915192,0.05164868012070656,-0.07464179396629333,-0.2693400979042053,0.9587580561637878,0.0,0.0,0.0,0.0,0.0,0.0
392,1724914231931315804,-0.22687384486198425,0.10886988043785095,0.1754583865404129,0.05476722493767738,-0.07662247866392136,-0.2682053744792938,0.9587468504905701,0.0,0.0,0.0,0.0,0.0,0.0
394,1724914231940453703,-0.2282193899154663,0.10891047865152359,0.17480891942977905,0.055464763194322586,-0.07858849316835403,-0.26855647563934326,0.9584492444992065,0.0,0.0,0.0,0.0,0.0,0.0
396,1724914231950316188,-0.2293550670146942,0.10884858667850494,0.1739785075187683,0.058276139199733734,-0.08040357381105423,-0.26825448870658875,0.9582164287567139,0.0,0.0,0.0,0.0,0.0,0.0
398,1724914231961571823,-0.23038266599178314,0.10881990939378738,0.17332637310028076,0.05918269231915474,-0.08195699751377106,-0.26889869570732117,0.9578486084938049,0.0,0.0,0.0,0.0,0.0,0.0
400,1724914231971365273,-0.2314431518316269,0.10875557363033295,0.17262163758277893,0.05941905826330185,-0.0836600512266159,-0.2701399028301239,0.9573373198509216,0.0,0.0,0.0,0.0,0.0,0.0
402,1724914231979937626,-0.23220539093017578,0.10865066945552826,0.17174509167671204,0.06164633110165596,-0.08515365421772003,-0.26962384581565857,0.9572104215621948,0.0,0.0,0.0,0.0,0.0,0.0
404,1724914231990367587,-0.2328367531299591,0.1086890920996666,0.1714419424533844,0.06438697129487991,-0.0840727910399437,-0.26946449279785156,0.957170307636261,0.0,0.0,0.0,0.0,0.0,0.0
406,1724914232001804783,-0.23342406749725342,0.10843837261199951,0.17084786295890808,0.06411515921354294,-0.08752189576625824,-0.2689107656478882,0.9570350646972656,0.0,0.0,0.0,0.0,0.0,0.0
408,1724914232015312204,-0.23394522070884705,0.10831104218959808,0.17052847146987915,0.06387225538492203,-0.08918986469507217,-0.2700057327747345,0.9565889835357666,0.0,0.0,0.0,0.0,0.0,0.0
410,1724914232020508914,-0.23424412310123444,0.10821682959794998,0.17023997008800507,0.06530748307704926,-0.09059382975101471,-0.2706174850463867,0.9561872482299805,0.0,0.0,0.0,0.0,0.0,0.0
412,1724914232031043894,-0.23448726534843445,0.10815636813640594,0.16995114088058472,0.06560862064361572,-0.09127501398324966,-0.27096980810165405,0.9560019969940186,0.0,0.0,0.0,0.0,0.0,0.0
414,1724914232040782844,-0.23471637070178986,0.10810104757547379,0.16964924335479736,0.06623565405607224,-0.09128370136022568,-0.271457314491272,0.9558196663856506,0.0,0.0,0.0,0.0,0.0,0.0
416,1724914232050961849,-0.2348998337984085,0.10794440656900406,0.1691722571849823,0.0669083520770073,-0.09241343289613724,-0.2708028554916382,0.955849826335907,0.0,0.0,0.0,0.0,0.0,0.0
418,1724914232091110489,-0.23509922623634338,0.10785091668367386,0.16898179054260254,0.06574661284685135,-0.09271592646837234,-0.2709985077381134,0.9558457136154175,0.0,0.0,0.0,0.0,0.0,0.0
420,1724914232091487191,-0.2351730316877365,0.10779225081205368,0.16889308393001556,0.06586018949747086,-0.09313057363033295,-0.27107781171798706,0.9557750225067139,0.0,0.0,0.0,0.0,0.0,0.0
422,1724914232091845818,-0.23519816994667053,0.10771340876817703,0.16889172792434692,0.06600743532180786,-0.09315705299377441,-0.271425724029541,0.9556636214256287,0.0,0.0,0.0,0.0,0.0,0.0
424,1724914232092320071,-0.23518827557563782,0.1076488196849823,0.16895391047000885,0.0659593790769577,-0.09313522279262543,-0.2719126343727112,0.95553058385849,0.0,0.0,0.0,0.0,0.0,0.0
426,1724914232099996186,-0.23516887426376343,0.10762795805931091,0.16899894177913666,0.06621672958135605,-0.09266038984060287,-0.272549569606781,0.9553775191307068,0.0,0.0,0.0,0.0,0.0,0.0
428,1724914232113994903,-0.23512877523899078,0.10761627554893494,0.168985977768898,0.06586942076683044,-0.09264472872018814,-0.2730454206466675,0.9552614092826843,0.0,0.0,0.0,0.0,0.0,0.0
430,1724914232121112858,-0.23507356643676758,0.10773565620183945,0.16923804581165314,0.06594233214855194,-0.09181268513202667,-0.2746199369430542,0.9548853635787964,0.0,0.0,0.0,0.0,0.0,0.0
432,1724914232131904440,-0.23501192033290863,0.1077766865491867,0.16927869617938995,0.06609118729829788,-0.09154053032398224,-0.2758640646934509,0.9545424580574036,0.0,0.0,0.0,0.0,0.0,0.0
434,1724914232141441421,-0.23476582765579224,0.10774536430835724,0.16921156644821167,0.06818725168704987,-0.09284103661775589,-0.2757621705532074,0.9542989134788513,0.0,0.0,0.0,0.0,0.0,0.0
436,1724914232151654534,-0.2346634715795517,0.10791061073541641,0.16943366825580597,0.06938550621271133,-0.0914369523525238,-0.2768540382385254,0.9540318250656128,0.0,0.0,0.0,0.0,0.0,0.0
438,1724914232161157793,-0.23455457389354706,0.10795283317565918,0.1694326400756836,0.06979260593652725,-0.09164062142372131,-0.2773003578186035,0.9538530111312866,0.0,0.0,0.0,0.0,0.0,0.0
440,1724914232170692937,-0.23442888259887695,0.1079975888133049,0.16946569085121155,0.07006782293319702,-0.09178277850151062,-0.2779790163040161,0.9536216259002686,0.0,0.0,0.0,0.0,0.0,0.0
442,1724914232183295468,-0.2342812567949295,0.10794837027788162,0.16953405737876892,0.07053504884243011,-0.09220268577337265,-0.27883806824684143,0.9532957673072815,0.0,0.0,0.0,0.0,0.0,0.0
444,1724914232190189912,-0.23418191075325012,0.1078946441411972,0.16964256763458252,0.07004458457231522,-0.09245793521404266,-0.2799209952354431,0.9529898166656494,0.0,0.0,0.0,0.0,0.0,0.0
446,1724914232200484335,-0.23409493267536163,0.10784151405096054,0.1695655733346939,0.06841311603784561,-0.09399394690990448,-0.28053709864616394,0.9527769088745117,0.0,0.0,0.0,0.0,0.0,0.0
448,1724914232211720012,-0.23388656973838806,0.10789089649915695,0.16966597735881805,0.06823766231536865,-0.09490226954221725,-0.28091806173324585,0.9525871276855469,0.0,0.0,0.0,0.0,0.0,0.0
450,1724914232222865112,-0.23367801308631897,0.10791833698749542,0.16975612938404083,0.06825964897871017,-0.0955701395869255,-0.28176042437553406,0.952269971370697,0.0,0.0,0.0,0.0,0.0,0.0
452,1724914232230492550,-0.23342829942703247,0.1079695001244545,0.16975530982017517,0.06924467533826828,-0.09635894000530243,-0.28260213136672974,0.951869785785675,0.0,0.0,0.0,0.0,0.0,0.0
454,1724914232240138851,-0.23322902619838715,0.10807430744171143,0.16990172863006592,0.06957690417766571,-0.09648977220058441,-0.2841669023036957,0.9513663649559021,0.0,0.0,0.0,0.0,0.0,0.0
456,1724914232250381706,-0.2330527901649475,0.10817713290452957,0.16998659074306488,0.06989715993404388,-0.0969509482383728,-0.2855110764503479,0.9508935213088989,0.0,0.0,0.0,0.0,0.0,0.0
458,1724914232261405238,-0.23295092582702637,0.10831603407859802,0.1701609492301941,0.06865083426237106,-0.09661556035280228,-0.28744328022003174,0.9504361152648926,0.0,0.0,0.0,0.0,0.0,0.0
460,1724914232270341986,-0.23273348808288574,0.10831405222415924,0.17018237709999084,0.06942044198513031,-0.09715625643730164,-0.2882746160030365,0.9500733613967896,0.0,0.0,0.0,0.0,0.0,0.0
462,1724914232280560627,-0.23254039883613586,0.10844995081424713,0.17052146792411804,0.070741668343544,-0.09609635174274445,-0.2904931902885437,0.9494075775146484,0.0,0.0,0.0,0.0,0.0,0.0
464,1724914232292092334,-0.2323889434337616,0.10849881172180176,0.17068780958652496,0.07091542333364487,-0.09617670625448227,-0.29208454489707947,0.948898196220398,0.0,0.0,0.0,0.0,0.0,0.0
466,1724914232299774754,-0.23221614956855774,0.10856205224990845,0.1708647608757019,0.07091964781284332,-0.09622388333082199,-0.2935026288032532,0.9484554529190063,0.0,0.0,0.0,0.0,0.0,0.0
468,1724914232311781553,-0.23205158114433289,0.10858199000358582,0.17083029448986053,0.07030739635229111,-0.09782987833023071,-0.2942313849925995,0.948110818862915,0.0,0.0,0.0,0.0,0.0,0.0
470,1724914232320712862,-0.23189093172550201,0.10870501399040222,0.17091456055641174,0.07067473232746124,-0.09820827841758728,-0.29543790221214294,0.9476691484451294,0.0,0.0,0.0,0.0,0.0,0.0
472,1724914232330300392,-0.23177191615104675,0.10889516025781631,0.17099253833293915,0.071089006960392,-0.09849780052900314,-0.29664018750190735,0.9472324252128601,0.0,0.0,0.0,0.0,0.0,0.0
474,1724914232341482789,-0.23163174092769623,0.10916286706924438,0.17105740308761597,0.07129822671413422,-0.09871169924736023,-0.2974275052547455,0.946947455406189,0.0,0.0,0.0,0.0,0.0,0.0
476,1724914232349974724,-0.23153071105480194,0.10952764004468918,0.17131009697914124,0.07166240364313126,-0.09843199700117111,-0.29874318838119507,0.9465348720550537,0.0,0.0,0.0,0.0,0.0,0.0
478,1724914232363611747,-0.2314118593931198,0.10990865528583527,0.17158903181552887,0.07218415290117264,-0.09824154525995255,-0.2993367612361908,0.9463274478912354,0.0,0.0,0.0,0.0,0.0,0.0
480,1724914232371450633,-0.23128917813301086,0.11030508577823639,0.17181912064552307,0.07247037440538406,-0.09824232012033463,-0.2997042238712311,0.9461891055107117,0.0,0.0,0.0,0.0,0.0,0.0
482,1724914232380432100,-0.23113670945167542,0.11071781814098358,0.17221376299858093,0.07320898771286011,-0.09811703115701675,-0.30117061734199524,0.9456794857978821,0.0,0.0,0.0,0.0,0.0,0.0
484,1724914232390530860,-0.2310435175895691,0.11113053560256958,0.17242100834846497,0.07307221740484238,-0.09828420728445053,-0.3023650348186493,0.9452915787696838,0.0,0.0,0.0,0.0,0.0,0.0
486,1724914232400867074,-0.2308281660079956,0.11162132024765015,0.1726560741662979,0.0748511478304863,-0.0988413468003273,-0.3029029071331024,0.9449220299720764,0.0,0.0,0.0,0.0,0.0,0.0
488,1724914232410447812,-0.23062889277935028,0.1122138723731041,0.17306824028491974,0.07596112042665482,-0.09890495985746384,-0.3032422661781311,0.9447179436683655,0.0,0.0,0.0,0.0,0.0,0.0
490,1724914232421358368,-0.23053675889968872,0.11282531917095184,0.17359742522239685,0.07434583455324173,-0.0993468388915062,-0.3039305508136749,0.9445788264274597,0.0,0.0,0.0,0.0,0.0,0.0
492,1724914232430167193,-0.23047737777233124,0.11347971856594086,0.17415578663349152,0.07322781533002853,-0.09840548783540726,-0.30578598380088806,0.9441657662391663,0.0,0.0,0.0,0.0,0.0,0.0
494,1724914232440125915,-0.23037652671337128,0.1141449585556984,0.17490403354167938,0.07223016768693924,-0.09741509705781937,-0.3076134920120239,0.9437515735626221,0.0,0.0,0.0,0.0,0.0,0.0
496,1724914232450876377,-0.2302243560552597,0.11493387818336487,0.17576536536216736,0.07120916992425919,-0.09652634710073471,-0.30912211537361145,0.943427562713623,0.0,0.0,0.0,0.0,0.0,0.0
498,1724914232463088047,-0.22999852895736694,0.1156698539853096,0.17661994695663452,0.07076038420200348,-0.0951925739645958,-0.31076517701148987,0.9430569410324097,0.0,0.0,0.0,0.0,0.0,0.0
500,1724914232470385780,-0.22983033955097198,0.11636810749769211,0.1774241179227829,0.06951781362295151,-0.09355570375919342,-0.3126510977745056,0.9426897764205933,0.0,0.0,0.0,0.0,0.0,0.0
502,1724914232480506515,-0.22963880002498627,0.1171615943312645,0.17832647264003754,0.06722444295883179,-0.0918598473072052,-0.3150714933872223,0.9422168731689453,0.0,0.0,0.0,0.0,0.0,0.0
504,1724914232490048431,-0.2294008731842041,0.11789455264806747,0.1793014258146286,0.0658465176820755,-0.09076134860515594,-0.31806185841560364,0.941415548324585,0.0,0.0,0.0,0.0,0.0,0.0
506,1724914232500195417,-0.22889164090156555,0.11859875917434692,0.17981183528900146,0.06459730118513107,-0.09002320468425751,-0.3190688490867615,0.9412322640419006,0.0,0.0,0.0,0.0,0.0,0.0
508,1724914232511235290,-0.22832579910755157,0.11927738785743713,0.1798526793718338,0.06400944292545319,-0.08980356156826019,-0.3183031380176544,0.9415526390075684,0.0,0.0,0.0,0.0,0.0,0.0
510,1724914232520375667,-0.22764427959918976,0.11992359161376953,0.1801563948392868,0.06400246918201447,-0.08881610631942749,-0.31832364201545715,0.9416398406028748,0.0,0.0,0.0,0.0,0.0,0.0
512,1724914232530985756,-0.22695980966091156,0.12079550325870514,0.18076512217521667,0.06181837618350983,-0.08682180941104889,-0.3197075128555298,0.9415029287338257,0.0,0.0,0.0,0.0,0.0,0.0
514,1724914232540582664,-0.22628605365753174,0.12209199368953705,0.18183764815330505,0.060770682990550995,-0.08173996955156326,-0.32458680868148804,0.9403557777404785,0.0,0.0,0.0,0.0,0.0,0.0
516,1724914232549854272,-0.22552911937236786,0.12321525067090988,0.18221217393875122,0.057414937764406204,-0.08090925216674805,-0.3265478312969208,0.9399595260620117,0.0,0.0,0.0,0.0,0.0,0.0
518,1724914232563521720,-0.2245410829782486,0.12425608187913895,0.18236400187015533,0.055019915103912354,-0.07886555045843124,-0.32730433344841003,0.9400132298469543,0.0,0.0,0.0,0.0,0.0,0.0
520,1724914232570356267,-0.22347256541252136,0.12534837424755096,0.18252228200435638,0.05452297255396843,-0.07610867917537689,-0.32831472158432007,0.9399171471595764,0.0,0.0,0.0,0.0,0.0,0.0
522,1724914232581687524,-0.22233742475509644,0.12653164565563202,0.18315091729164124,0.05143037810921669,-0.07177440077066422,-0.3303370475769043,0.939723789691925,0.0,0.0,0.0,0.0,0.0,0.0
524,1724914232590630848,-0.22101841866970062,0.12770387530326843,0.18374040722846985,0.048378922045230865,-0.06689564883708954,-0.3328165113925934,0.9393709301948547,0.0,0.0,0.0,0.0,0.0,0.0
526,1724914232599770773,-0.21955054998397827,0.1288881003856659,0.1839669644832611,0.047648824751377106,-0.06253524124622345,-0.3336970806121826,0.9393962025642395,0.0,0.0,0.0,0.0,0.0,0.0
528,1724914232610653554,-0.2181628793478012,0.13005296885967255,0.18405793607234955,0.04353339225053787,-0.059759579598903656,-0.3346431851387024,0.9394400119781494,0.0,0.0,0.0,0.0,0.0,0.0
530,1724914232626158059,-0.21648091077804565,0.13134008646011353,0.18415969610214233,0.039339955896139145,-0.05567428842186928,-0.3350513279438019,0.9397305250167847,0.0,0.0,0.0,0.0,0.0,0.0
532,1724914232629955793,-0.21456553041934967,0.132344588637352,0.18412436544895172,0.03852387145161629,-0.05264289677143097,-0.33555057644844055,0.9397609233856201,0.0,0.0,0.0,0.0,0.0,0.0
534,1724914232640110131,-0.21272364258766174,0.13341064751148224,0.1842290312051773,0.033181674778461456,-0.04868246614933014,-0.33701232075691223,0.9396551847457886,0.0,0.0,0.0,0.0,0.0,0.0
536,1724914232650008833,-0.21043574810028076,0.13474738597869873,0.18481197953224182,0.03029070608317852,-0.040424227714538574,-0.3406465947628021,0.9388335347175598,0.0,0.0,0.0,0.0,0.0,0.0
538,1724914232660193709,-0.20813971757888794,0.1358526349067688,0.18445058166980743,0.024859094992280006,-0.03688230365514755,-0.33933568000793457,0.9396132230758667,0.0,0.0,0.0,0.0,0.0,0.0
540,1724914232670168629,-0.20538359880447388,0.13700121641159058,0.18485349416732788,0.023434599861502647,-0.030158376321196556,-0.340730756521225,0.9393848776817322,0.0,0.0,0.0,0.0,0.0,0.0
542,1724914232680037800,-0.20271722972393036,0.13804970681667328,0.18533319234848022,0.020041532814502716,-0.024838760495185852,-0.34269818663597107,0.9389033317565918,0.0,0.0,0.0,0.0,0.0,0.0
544,1724914232689937074,-0.19978435337543488,0.13917602598667145,0.1858210414648056,0.013497108593583107,-0.01873711682856083,-0.3428994417190552,0.9390882849693298,0.0,0.0,0.0,0.0,0.0,0.0
546,1724914232699983913,-0.19695846736431122,0.13987916707992554,0.18559782207012177,0.006815462373197079,-0.014297106303274632,-0.341219037771225,0.9398504495620728,0.0,0.0,0.0,0.0,0.0,0.0
548,1724914232710550675,-0.1941782832145691,0.1405079960823059,0.18557576835155487,0.00830772239714861,-0.010905725881457329,-0.34078726172447205,0.9400404691696167,0.0,0.0,0.0,0.0,0.0,0.0
550,1724914232728651083,-0.191753089427948,0.14097754657268524,0.18550905585289001,0.006713210139423609,-0.009429614059627056,-0.3414632976055145,0.9398238658905029,0.0,0.0,0.0,0.0,0.0,0.0
552,1724914232731010437,-0.1895148754119873,0.14155228435993195,0.18586649000644684,0.007428599987179041,-0.009762420319020748,-0.34220510721206665,0.939545214176178,0.0,0.0,0.0,0.0,0.0,0.0
554,1724914232739970422,-0.18781277537345886,0.141951784491539,0.18639184534549713,0.007432387210428715,-0.009865142405033112,-0.3431926369667053,0.9391838312149048,0.0,0.0,0.0,0.0,0.0,0.0
556,1724914232750288352,-0.18651500344276428,0.14254578948020935,0.18698137998580933,0.009043688885867596,-0.00923983845859766,-0.34422987699508667,0.9387964606285095,0.0,0.0,0.0,0.0,0.0,0.0
558,1724914232761149676,-0.1857113093137741,0.14328640699386597,0.18770354986190796,0.0059872274287045,-0.011629507876932621,-0.34490978717803955,0.938544750213623,0.0,0.0,0.0,0.0,0.0,0.0
560,1724914232770627585,-0.18529292941093445,0.14399366080760956,0.18836809694766998,0.00808656495064497,-0.011979872360825539,-0.34529852867126465,0.9383816719055176,0.0,0.0,0.0,0.0,0.0,0.0
562,1724914232780930049,-0.18523363769054413,0.14473743736743927,0.18913646042346954,0.009300021454691887,-0.010675969533622265,-0.3460680842399597,0.9381026029586792,0.0,0.0,0.0,0.0,0.0,0.0
564,1724914232790546767,-0.1857486069202423,0.14535343647003174,0.1893671602010727,0.008599214255809784,-0.013426635414361954,-0.34654390811920166,0.9378982186317444,0.0,0.0,0.0,0.0,0.0,0.0
566,1724914232799802549,-0.18675851821899414,0.14625130593776703,0.1894029974937439,0.006651946809142828,-0.01385785173624754,-0.34830495715141296,0.9372552633285522,0.0,0.0,0.0,0.0,0.0,0.0
568,1724914232811838919,-0.18793386220932007,0.14736445248126984,0.18906007707118988,0.004856308456510305,-0.01637408323585987,-0.34855544567108154,0.9371325373649597,0.0,0.0,0.0,0.0,0.0,0.0
570,1724914232820753651,-0.1892869472503662,0.1480773389339447,0.1884334534406662,0.003710246877744794,-0.02189726196229458,-0.34841597080230713,0.9370768666267395,0.0,0.0,0.0,0.0,0.0,0.0
572,1724914232830873863,-0.1909533590078354,0.1489657163619995,0.18759067356586456,0.004808300174772739,-0.024592723697423935,-0.3478851616382599,0.9372022151947021,0.0,0.0,0.0,0.0,0.0,0.0
574,1724914232841430234,-0.19303272664546967,0.14998884499073029,0.1868267059326172,0.003947945777326822,-0.02735227160155773,-0.3477048873901367,0.9371967315673828,0.0,0.0,0.0,0.0,0.0,0.0
576,1724914232849959627,-0.1950882077217102,0.15042917430400848,0.1858697384595871,0.0026423733215779066,-0.034303467720746994,-0.34735536575317383,0.937102198600769,0.0,0.0,0.0,0.0,0.0,0.0
578,1724914232864150299,-0.1974128931760788,0.15127868950366974,0.1845967024564743,0.0025060533080250025,-0.03586893528699875,-0.3466523289680481,0.9373043775558472,0.0,0.0,0.0,0.0,0.0,0.0
580,1724914232871103143,-0.1998848170042038,0.1518969088792801,0.1833534836769104,0.000911047391127795,-0.04167541116476059,-0.3467043340206146,0.9370477199554443,0.0,0.0,0.0,0.0,0.0,0.0
582,1724914232879994758,-0.20234757661819458,0.15251004695892334,0.1825011521577835,0.00047608630848117173,-0.044382307678461075,-0.34776821732521057,0.9365293979644775,0.0,0.0,0.0,0.0,0.0,0.0
584,1724914232890249056,-0.20471879839897156,0.1528739184141159,0.1813913881778717,-0.0002195501292590052,-0.050448939204216,-0.3477012813091278,0.9362471699714661,0.0,0.0,0.0,0.0,0.0,0.0
586,1724914232900664610,-0.20718863606452942,0.15322186052799225,0.18040916323661804,-0.0015933191170915961,-0.05491289868950844,-0.34883975982666016,0.9355708956718445,0.0,0.0,0.0,0.0,0.0,0.0
588,1724914232910661083,-0.20957818627357483,0.1536741703748703,0.17945502698421478,-0.0014006007695570588,-0.05875434726476669,-0.34893807768821716,0.9353011250495911,0.0,0.0,0.0,0.0,0.0,0.0
590,1724914232924662335,-0.21204811334609985,0.1538705676794052,0.17805695533752441,-0.0016204528510570526,-0.06445017457008362,-0.348680704832077,0.9350215792655945,0.0,0.0,0.0,0.0,0.0,0.0
592,1724914232933265058,-0.21429352462291718,0.15411028265953064,0.177171990275383,-0.0021407632157206535,-0.06750831753015518,-0.34960106015205383,0.9344609379768372,0.0,0.0,0.0,0.0,0.0,0.0
594,1724914232940124261,-0.21656662225723267,0.15416620671749115,0.17591002583503723,-0.0033799700904637575,-0.0716882199048996,-0.34947437047958374,0.9341933727264404,0.0,0.0,0.0,0.0,0.0,0.0
596,1724914232950012507,-0.21858908236026764,0.1541866958141327,0.1749705970287323,-0.002101779682561755,-0.076356440782547,-0.35108816623687744,0.9332215785980225,0.0,0.0,0.0,0.0,0.0,0.0
598,1724914232961842333,-0.22084513306617737,0.154248908162117,0.17386721074581146,-0.004260338377207518,-0.07937832921743393,-0.3514947295188904,0.9328088760375977,0.0,0.0,0.0,0.0,0.0,0.0
600,1724914232972985612,-0.22271722555160522,0.1543639451265335,0.17303045094013214,-0.00379768805578351,-0.08256591111421585,-0.3519657552242279,0.9323564767837524,0.0,0.0,0.0,0.0,0.0,0.0
602,1724914232980700656,-0.22446362674236298,0.15427464246749878,0.1721281111240387,-0.002289847005158663,-0.08565212786197662,-0.35224586725234985,0.9319770932197571,0.0,0.0,0.0,0.0,0.0,0.0
604,1724914232990088771,-0.22611908614635468,0.1544523984193802,0.1714347004890442,-0.0025028111413121223,-0.08582977205514908,-0.35261261463165283,0.9318215250968933,0.0,0.0,0.0,0.0,0.0,0.0
606,1724914233000252674,-0.22757695615291595,0.1545882225036621,0.1705307513475418,-0.003241205122321844,-0.08931136876344681,-0.3519885540008545,0.931727945804596,0.0,0.0,0.0,0.0,0.0,0.0
608,1724914233010279829,-0.2289074808359146,0.15475380420684814,0.169817253947258,-0.0038866535760462284,-0.09177011996507645,-0.352293998003006,0.9313710927963257,0.0,0.0,0.0,0.0,0.0,0.0
610,1724914233021343093,-0.2300085574388504,0.15495821833610535,0.16921380162239075,-0.0035322862677276134,-0.09382599592208862,-0.3523472249507904,0.9311475157737732,0.0,0.0,0.0,0.0,0.0,0.0
612,1724914233030379277,-0.23108938336372375,0.1550711989402771,0.16841499507427216,-0.0034406334161758423,-0.09710054844617844,-0.35178691148757935,0.9310240149497986,0.0,0.0,0.0,0.0,0.0,0.0
614,1724914233041607727,-0.23193322122097015,0.15534497797489166,0.1679782271385193,-0.002052898285910487,-0.09783840924501419,-0.3526393473148346,0.93062824010849,0.0,0.0,0.0,0.0,0.0,0.0
616,1724914233049865512,-0.2327439785003662,0.15560077130794525,0.16750013828277588,-0.002313669305294752,-0.09837180376052856,-0.3533726632595062,0.9302932024002075,0.0,0.0,0.0,0.0,0.0,0.0
618,1724914233060888359,-0.2333432286977768,0.15582573413848877,0.16707547008991241,-0.001739882747642696,-0.09997134655714035,-0.35305333137512207,0.9302452206611633,0.0,0.0,0.0,0.0,0.0,0.0
620,1724914233070701351,-0.2338654100894928,0.1560903787612915,0.16687490046024323,-0.001637103850953281,-0.10084772109985352,-0.3527924418449402,0.9302497506141663,0.0,0.0,0.0,0.0,0.0,0.0
622,1724914233079851565,-0.23439346253871918,0.15611092746257782,0.16636161506175995,-0.0037786606699228287,-0.10345152020454407,-0.3511784076690674,0.9305682182312012,0.0,0.0,0.0,0.0,0.0,0.0
624,1724914233091544524,-0.2346569001674652,0.1562764197587967,0.16628405451774597,-0.0022619934752583504,-0.10382712632417679,-0.35066503286361694,0.9307249188423157,0.0,0.0,0.0,0.0,0.0,0.0
626,1724914233099829401,-0.2349017858505249,0.15646259486675262,0.16624468564987183,-0.0025270339101552963,-0.10374614596366882,-0.3502391576766968,0.93089359998703,0.0,0.0,0.0,0.0,0.0,0.0
628,1724914233112155625,-0.23514848947525024,0.1565922498703003,0.16618669033050537,-0.004352623131126165,-0.10407000035047531,-0.34973523020744324,0.9310401678085327,0.0,0.0,0.0,0.0,0.0,0.0
630,1724914233120717322,-0.2352805882692337,0.15669257938861847,0.1661449819803238,-0.004158062860369682,-0.10416513681411743,-0.349273145198822,0.9312039017677307,0.0,0.0,0.0,0.0,0.0,0.0
632,1724914233131410740,-0.23534706234931946,0.15675771236419678,0.16607053577899933,-0.004306019749492407,-0.10429751127958298,-0.34886297583580017,0.9313421249389648,0.0,0.0,0.0,0.0,0.0,0.0
634,1724914233140083554,-0.23536260426044464,0.1567358821630478,0.1661010980606079,-0.004084431100636721,-0.10447690635919571,-0.3486502468585968,0.9314026236534119,0.0,0.0,0.0,0.0,0.0,0.0
636,1724914233150508474,-0.23533035814762115,0.15668073296546936,0.16606193780899048,-0.004450829699635506,-0.10506299883127213,-0.3477835953235626,0.9316591024398804,0.0,0.0,0.0,0.0,0.0,0.0
638,1724914233160671437,-0.23521938920021057,0.15662316977977753,0.1661241203546524,-0.00497630937024951,-0.10485382378101349,-0.34728607535362244,0.9318654537200928,0.0,0.0,0.0,0.0,0.0,0.0
640,1724914233170418464,-0.23509064316749573,0.15653632581233978,0.16621112823486328,-0.005708892829716206,-0.10466624051332474,-0.3466358184814453,0.9321244359016418,0.0,0.0,0.0,0.0,0.0,0.0
642,1724914233180148575,-0.23492217063903809,0.1564662605524063,0.16633260250091553,-0.00613570399582386,-0.10441502183675766,-0.3458538353443146,0.9324403405189514,0.0,0.0,0.0,0.0,0.0,0.0
644,1724914233190564254,-0.23472343385219574,0.1563212275505066,0.16641107201576233,-0.006050720810890198,-0.10487561672925949,-0.3448770046234131,0.932750940322876,0.0,0.0,0.0,0.0,0.0,0.0
646,1724914233201359347,-0.23449315130710602,0.15624746680259705,0.16643936932086945,-0.006277377717196941,-0.10490702837705612,-0.3441773056983948,0.9330043196678162,0.0,0.0,0.0,0.0,0.0,0.0
648,1724914233211176319,-0.23418770730495453,0.15620973706245422,0.1665138602256775,-0.006591209210455418,-0.10502017289400101,-0.34360429644584656,0.9332006573677063,0.0,0.0,0.0,0.0,0.0,0.0
650,1724914233220959114,-0.23382902145385742,0.15630494058132172,0.16675233840942383,-0.006217935122549534,-0.10465952008962631,-0.34323975443840027,0.9333778023719788,0.0,0.0,0.0,0.0,0.0,0.0
652,1724914233231566005,-0.23326730728149414,0.15626303851604462,0.1668400913476944,-0.0039020017720758915,-0.1060202419757843,-0.3410748541355133,0.934030294418335,0.0,0.0,0.0,0.0,0.0,0.0
654,1724914233240860330,-0.23282037675380707,0.15621013939380646,0.16683799028396606,-0.0024642099160701036,-0.10619036853313446,-0.33950164914131165,0.9345887899398804,0.0,0.0,0.0,0.0,0.0,0.0
656,1724914233250444488,-0.23240157961845398,0.15610693395137787,0.1668701469898224,-0.0017035873606801033,-0.10632538050413132,-0.33833548426628113,0.9349980354309082,0.0,0.0,0.0,0.0,0.0,0.0
658,1724914233261803415,-0.23200015723705292,0.15609553456306458,0.16685615479946136,-0.0017709414241835475,-0.10600599646568298,-0.336643248796463,0.9356446266174316,0.0,0.0,0.0,0.0,0.0,0.0
660,1724914233271581200,-0.23159381747245789,0.15611791610717773,0.16691544651985168,-0.0004758437571581453,-0.106148362159729,-0.33511945605278015,0.9361770153045654,0.0,0.0,0.0,0.0,0.0,0.0
662,1724914233280378964,-0.23127481341362,0.1561410129070282,0.1670430451631546,-0.0021773837506771088,-0.10664122551679611,-0.33394855260849,0.936536967754364,0.0,0.0,0.0,0.0,0.0,0.0
664,1724914233291044862,-0.23092736303806305,0.15619629621505737,0.16730085015296936,-0.0020973929204046726,-0.10609805583953857,-0.3336905539035797,0.9366907477378845,0.0,0.0,0.0,0.0,0.0,0.0
666,1724914233300392404,-0.23057816922664642,0.1561424732208252,0.1673857867717743,-0.002906476380303502,-0.10651877522468567,-0.3329427242279053,0.9369068741798401,0.0,0.0,0.0,0.0,0.0,0.0
668,1724914233310118177,-0.23024789988994598,0.15610092878341675,0.1675356924533844,-0.003790267976000905,-0.10659561306238174,-0.3320843577384949,0.9371995329856873,0.0,0.0,0.0,0.0,0.0,0.0
670,1724914233320129829,-0.22982153296470642,0.15603265166282654,0.16784028708934784,-0.004218618385493755,-0.10659285634756088,-0.3309747278690338,0.937590479850769,0.0,0.0,0.0,0.0,0.0,0.0
672,1724914233330182048,-0.2294165939092636,0.15590661764144897,0.16814091801643372,-0.003949150443077087,-0.10690171271562576,-0.32977956533432007,0.9379775524139404,0.0,0.0,0.0,0.0,0.0,0.0
674,1724914233342666369,-0.2290032058954239,0.15584130585193634,0.16833800077438354,-0.0037543983198702335,-0.10670304298400879,-0.32855263352394104,0.9384315013885498,0.0,0.0,0.0,0.0,0.0,0.0
676,1724914233349830925,-0.22858044505119324,0.1555931568145752,0.1683758944272995,-0.0038699146825820208,-0.10771966725587845,-0.3268619179725647,0.9389051198959351,0.0,0.0,0.0,0.0,0.0,0.0
678,1724914233360107456,-0.2281845211982727,0.1553497016429901,0.16842930018901825,-0.003523522987961769,-0.10826683789491653,-0.325737327337265,0.9392343163490295,0.0,0.0,0.0,0.0,0.0,0.0
680,1724914233370937778,-0.22774633765220642,0.15519417822360992,0.1685924232006073,-0.003624912118539214,-0.10841916501522064,-0.32482051849365234,0.9395338296890259,0.0,0.0,0.0,0.0,0.0,0.0
682,1724914233379847170,-0.22728979587554932,0.15505224466323853,0.1688152253627777,-0.005248147528618574,-0.10887646675109863,-0.32347142696380615,0.9399386048316956,0.0,0.0,0.0,0.0,0.0,0.0
684,1724914233390124542,-0.22685715556144714,0.1549089550971985,0.1690642535686493,-0.005963999778032303,-0.10867907851934433,-0.3220120370388031,0.9404582381248474,0.0,0.0,0.0,0.0,0.0,0.0
686,1724914233399838366,-0.22629018127918243,0.15473811328411102,0.16951410472393036,-0.004039153456687927,-0.10819647461175919,-0.3207015097141266,0.9409717917442322,0.0,0.0,0.0,0.0,0.0,0.0
688,1724914233410250314,-0.22559380531311035,0.1545242965221405,0.17033307254314423,-0.003440581262111664,-0.10669444501399994,-0.3201892375946045,0.9413199424743652,0.0,0.0,0.0,0.0,0.0,0.0
690,1724914233420247672,-0.22499647736549377,0.15430215001106262,0.17125621438026428,-0.00466559873893857,-0.1040528416633606,-0.3197880983352661,0.941746711730957,0.0,0.0,0.0,0.0,0.0,0.0
692,1724914233429884569,-0.2243131399154663,0.1538589745759964,0.17194873094558716,-0.004246912430971861,-0.10211305320262909,-0.31781449913978577,0.9426286816596985,0.0,0.0,0.0,0.0,0.0,0.0
694,1724914233440358890,-0.22354727983474731,0.15354803204536438,0.17269450426101685,-0.00256638927385211,-0.09895343333482742,-0.31623655557632446,0.9435020089149475,0.0,0.0,0.0,0.0,0.0,0.0
696,1724914233451672670,-0.22259826958179474,0.15318521857261658,0.17356130480766296,-0.0010488784173503518,-0.09702301770448685,-0.3151540756225586,0.9440674781799316,0.0,0.0,0.0,0.0,0.0,0.0
698,1724914233460385833,-0.22179841995239258,0.15281394124031067,0.17411553859710693,-0.0025725013110786676,-0.09608849138021469,-0.31372109055519104,0.9446372389793396,0.0,0.0,0.0,0.0,0.0,0.0
700,1724914233470465056,-0.2209867537021637,0.1525239646434784,0.17469877004623413,-0.0045282673090696335,-0.09429136663675308,-0.31246140599250793,0.9452283382415771,0.0,0.0,0.0,0.0,0.0,0.0
702,1724914233480981854,-0.21998628973960876,0.15229417383670807,0.1753866821527481,-0.003917152527719736,-0.0927041620016098,-0.3111782968044281,0.9458110928535461,0.0,0.0,0.0,0.0,0.0,0.0
704,1724914233490467893,-0.21900729835033417,0.15208108723163605,0.17615462839603424,-0.0019201788818463683,-0.09137263894081116,-0.3111721873283386,0.9459488391876221,0.0,0.0,0.0,0.0,0.0,0.0
706,1724914233499956698,-0.2179446816444397,0.15171396732330322,0.17680123448371887,4.528681165538728e-05,-0.08917364478111267,-0.31031638383865356,0.946441650390625,0.0,0.0,0.0,0.0,0.0,0.0
708,1724914233509947467,-0.21674935519695282,0.1513175368309021,0.1776735782623291,0.0029489786829799414,-0.08407314121723175,-0.3099881112575531,0.9470112919807434,0.0,0.0,0.0,0.0,0.0,0.0
710,1724914233520242556,-0.21557560563087463,0.1506062000989914,0.17881016433238983,0.001044667442329228,-0.08085251599550247,-0.30945268273353577,0.9474707841873169,0.0,0.0,0.0,0.0,0.0,0.0
712,1724914233530675793,-0.2145271599292755,0.1496657133102417,0.1797548532485962,-0.0024493744131177664,-0.07891958951950073,-0.3078983426094055,0.9481374025344849,0.0,0.0,0.0,0.0,0.0,0.0
714,1724914233566204281,-0.21325567364692688,0.14858543872833252,0.18061919510364532,-0.003685076953843236,-0.07529754191637039,-0.30660760402679443,0.9488459229469299,0.0,0.0,0.0,0.0,0.0,0.0
716,1724914233566480554,-0.21161337196826935,0.14760956168174744,0.18168115615844727,-0.0025665308348834515,-0.07030248641967773,-0.30602404475212097,0.9494210481643677,0.0,0.0,0.0,0.0,0.0,0.0
718,1724914233567023627,-0.20984619855880737,0.14640575647354126,0.18217062950134277,-0.0028505243826657534,-0.06656743586063385,-0.3039734661579132,0.9503477215766907,0.0,0.0,0.0,0.0,0.0,0.0
720,1724914233574132129,-0.20779620110988617,0.14521846175193787,0.18276259303092957,-0.0025664514396339655,-0.061690378934144974,-0.3019194006919861,0.9513319730758667,0.0,0.0,0.0,0.0,0.0,0.0
722,1724914233579974880,-0.20581358671188354,0.144057497382164,0.18335972726345062,-0.0022227426525205374,-0.05534543842077255,-0.30075958371162415,0.9520902037620544,0.0,0.0,0.0,0.0,0.0,0.0
724,1724914233590191654,-0.2039080709218979,0.14278574287891388,0.18363898992538452,-0.0031223888508975506,-0.05111433193087578,-0.2994389832019806,0.9527401924133301,0.0,0.0,0.0,0.0,0.0,0.0
726,1724914233599998548,-0.20165753364562988,0.14119718968868256,0.18396596610546112,-0.00034458894515410066,-0.04541246220469475,-0.2969992160797119,0.9537971615791321,0.0,0.0,0.0,0.0,0.0,0.0
728,1724914233610628019,-0.19947549700737,0.139559805393219,0.1844610869884491,-0.001586026744917035,-0.04013066738843918,-0.29726171493530273,0.9539510011672974,0.0,0.0,0.0,0.0,0.0,0.0
730,1724914233620700335,-0.19682998955249786,0.13794724643230438,0.18497025966644287,-0.0022290500346571207,-0.033659253269433975,-0.29632872343063354,0.9544901251792908,0.0,0.0,0.0,0.0,0.0,0.0
732,1724914233629945830,-0.19415389001369476,0.13650380074977875,0.18560825288295746,-0.003680060850456357,-0.025150040164589882,-0.2958953380584717,0.9548822045326233,0.0,0.0,0.0,0.0,0.0,0.0
734,1724914233640029024,-0.19146300852298737,0.1349167823791504,0.1856352686882019,-0.0027517154812812805,-0.021917568519711494,-0.29246675968170166,0.9560205936431885,0.0,0.0,0.0,0.0,0.0,0.0
736,1724914233650093689,-0.1887940615415573,0.13341687619686127,0.18574878573417664,0.0012607119278982282,-0.015755582600831985,-0.29184046387672424,0.956336498260498,0.0,0.0,0.0,0.0,0.0,0.0
738,1724914233660263286,-0.1861930787563324,0.1319480836391449,0.18596117198467255,-0.0013288636691868305,-0.012450461275875568,-0.2904621660709381,0.9568045139312744,0.0,0.0,0.0,0.0,0.0,0.0
740,1724914233669925218,-0.18394558131694794,0.13072410225868225,0.18615837395191193,-0.0014443431282415986,-0.011641369201242924,-0.29050591588020325,0.9568012952804565,0.0,0.0,0.0,0.0,0.0,0.0
742,1724914233679891514,-0.18228240311145782,0.12977057695388794,0.18677355349063873,-0.003995521459728479,-0.014908806420862675,-0.2910536527633667,0.9565821886062622,0.0,0.0,0.0,0.0,0.0,0.0
744,1724914233690552076,-0.18107891082763672,0.12905533611774445,0.18730948865413666,-0.0016947344411164522,-0.016081616282463074,-0.28968745470046997,0.9569847583770752,0.0,0.0,0.0,0.0,0.0,0.0
746,1724914233700096364,-0.18035519123077393,0.12834663689136505,0.1882277876138687,-0.0011727281380444765,-0.015928177163004875,-0.28979185223579407,0.9569563865661621,0.0,0.0,0.0,0.0,0.0,0.0
748,1724914233710145048,-0.18026231229305267,0.12745565176010132,0.18899749219417572,-0.0019309164490550756,-0.015890173614025116,-0.2887272834777832,0.9572775959968567,0.0,0.0,0.0,0.0,0.0,0.0
750,1724914233719991029,-0.18069583177566528,0.12651751935482025,0.1896524876356125,-0.001948172808624804,-0.015452886000275612,-0.2872096300125122,0.9577410817146301,0.0,0.0,0.0,0.0,0.0,0.0
752,1724914233731083954,-0.18144740164279938,0.1255303919315338,0.19007453322410583,-1.5159667782427277e-05,-0.015241650864481926,-0.28680703043937683,0.9578671455383301,0.0,0.0,0.0,0.0,0.0,0.0
754,1724914233740164857,-0.18252746760845184,0.1245586946606636,0.19047757983207703,0.003368477104231715,-0.017357205972075462,-0.28547054529190063,0.9582244157791138,0.0,0.0,0.0,0.0,0.0,0.0
756,1724914233750005698,-0.1841166764497757,0.1233057901263237,0.190654456615448,0.004315383266657591,-0.02165534533560276,-0.28380945324897766,0.9586264491081238,0.0,0.0,0.0,0.0,0.0,0.0
758,1724914233762736829,-0.18596585094928741,0.12198325991630554,0.1905224472284317,0.01043104100972414,-0.024279331788420677,-0.2838226854801178,0.9585126638412476,0.0,0.0,0.0,0.0,0.0,0.0
760,1724914233770399098,-0.18834850192070007,0.1208190992474556,0.19053202867507935,0.011458136141300201,-0.026420241221785545,-0.2853779196739197,0.9579824209213257,0.0,0.0,0.0,0.0,0.0,0.0
762,1724914233780475751,-0.19097493588924408,0.1193394884467125,0.18948988616466522,0.014842499978840351,-0.033085234463214874,-0.2839672267436981,0.9581480026245117,0.0,0.0,0.0,0.0,0.0,0.0
764,1724914233790774312,-0.19388160109519958,0.11760915815830231,0.18831031024456024,0.01970943808555603,-0.038466986268758774,-0.28327158093452454,0.9580653309822083,0.0,0.0,0.0,0.0,0.0,0.0
766,1724914233799979125,-0.19680944085121155,0.11629296839237213,0.18690842390060425,0.02535005286335945,-0.04302753880620003,-0.28198665380477905,0.9581177234649658,0.0,0.0,0.0,0.0,0.0,0.0
768,1724914233811311494,-0.19998499751091003,0.11509925872087479,0.18559017777442932,0.02968411147594452,-0.04742666706442833,-0.2814331352710724,0.9579483270645142,0.0,0.0,0.0,0.0,0.0,0.0
770,1724914233820264142,-0.2028486728668213,0.11394884437322617,0.18468908965587616,0.03375711664557457,-0.05153776332736015,-0.2809235453605652,0.957750678062439,0.0,0.0,0.0,0.0,0.0,0.0
772,1724914233830563403,-0.20593684911727905,0.11287135630846024,0.18356330692768097,0.037084437906742096,-0.05634526163339615,-0.2806439995765686,0.9574387073516846,0.0,0.0,0.0,0.0,0.0,0.0
774,1724914233840869181,-0.2090425044298172,0.11194094270467758,0.182542085647583,0.03675059229135513,-0.06067183241248131,-0.27919790148735046,0.957610011100769,0.0,0.0,0.0,0.0,0.0,0.0
776,1724914233850015338,-0.2117518037557602,0.11110398173332214,0.18207557499408722,0.03980926051735878,-0.06227591633796692,-0.27916279435157776,0.9573949575424194,0.0,0.0,0.0,0.0,0.0,0.0
778,1724914233860537332,-0.21430809795856476,0.11024314165115356,0.18059517443180084,0.04330325126647949,-0.06616828590631485,-0.27537283301353455,0.9580795764923096,0.0,0.0,0.0,0.0,0.0,0.0
780,1724914233871528300,-0.216767355799675,0.10964274406433105,0.17988964915275574,0.04399392753839493,-0.06829226762056351,-0.2745160162448883,0.9581449627876282,0.0,0.0,0.0,0.0,0.0,0.0
782,1724914233880016404,-0.21893447637557983,0.10923779755830765,0.17908427119255066,0.04583687707781792,-0.06934495270252228,-0.27342259883880615,0.9582955837249756,0.0,0.0,0.0,0.0,0.0,0.0
784,1724914233890442253,-0.22119140625,0.10873423516750336,0.17827875912189484,0.04544796422123909,-0.07210307568311691,-0.2717593014240265,0.9585835933685303,0.0,0.0,0.0,0.0,0.0,0.0
786,1724914233920830424,-0.22303535044193268,0.10841679573059082,0.1774384081363678,0.04775632917881012,-0.07373046875,-0.27080538868904114,0.958617627620697,0.0,0.0,0.0,0.0,0.0,0.0
788,1724914233921178333,-0.22486627101898193,0.10821252316236496,0.1763470470905304,0.048464275896549225,-0.07450038194656372,-0.27022048830986023,0.9586875438690186,0.0,0.0,0.0,0.0,0.0,0.0
790,1724914233921588560,-0.22649993002414703,0.10787458717823029,0.17526569962501526,0.050410687923431396,-0.07765423506498337,-0.2696550190448761,0.95849609375,0.0,0.0,0.0,0.0,0.0,0.0
792,1724914233940035099,-0.22809576988220215,0.10792802274227142,0.17454394698143005,0.0516190230846405,-0.07832133024930954,-0.2702949345111847,0.9581971764564514,0.0,0.0,0.0,0.0,0.0,0.0
794,1724914233940330475,-0.22949962317943573,0.10778500139713287,0.17349591851234436,0.05139797180891037,-0.08105888962745667,-0.26924675703048706,0.9582765698432922,0.0,0.0,0.0,0.0,0.0,0.0
796,1724914233975620669,-0.23059135675430298,0.1077602282166481,0.17264801263809204,0.05476391687989235,-0.08359714597463608,-0.26855233311653137,0.9580668807029724,0.0,0.0,0.0,0.0,0.0,0.0
798,1724914233975914510,-0.23168694972991943,0.10784444957971573,0.17201218008995056,0.05808287858963013,-0.08303344994783401,-0.2696678340435028,0.9576070308685303,0.0,0.0,0.0,0.0,0.0,0.0
800,1724914233976220464,-0.23259910941123962,0.10798295587301254,0.17127679288387299,0.05917145311832428,-0.08534388244152069,-0.26900243759155273,0.9575244188308716,0.0,0.0,0.0,0.0,0.0,0.0
802,1724914233982091245,-0.233293816447258,0.10814827680587769,0.17081250250339508,0.059616703540086746,-0.08784940838813782,-0.2690446674823761,0.9572582244873047,0.0,0.0,0.0,0.0,0.0,0.0
804,1724914233990076392,-0.2337401658296585,0.10824461281299591,0.1704578399658203,0.061279550194740295,-0.08964516222476959,-0.26890289783477783,0.9570266008377075,0.0,0.0,0.0,0.0,0.0,0.0
806,1724914234001306807,-0.23416385054588318,0.10827002674341202,0.1702239066362381,0.06242058053612709,-0.0904080718755722,-0.26973745226860046,0.9566461443901062,0.0,0.0,0.0,0.0,0.0,0.0
808,1724914234009930080,-0.2344655692577362,0.1082218587398529,0.169888436794281,0.06344309449195862,-0.09121260046958923,-0.2702062726020813,0.9563701152801514,0.0,0.0,0.0,0.0,0.0,0.0
810,1724914234020406728,-0.2348165661096573,0.10817911475896835,0.16947828233242035,0.06444747745990753,-0.09170898050069809,-0.2708829641342163,0.9560640454292297,0.0,0.0,0.0,0.0,0.0,0.0
812,1724914234030549610,-0.23501704633235931,0.10801554471254349,0.16891415417194366,0.0653364509344101,-0.0931394100189209,-0.2705990672111511,0.9559457898139954,0.0,0.0,0.0,0.0,0.0,0.0
814,1724914234041404899,-0.2352549433708191,0.1079450398683548,0.1686232089996338,0.06425050646066666,-0.09356972575187683,-0.271226167678833,0.9557996392250061,0.0,0.0,0.0,0.0,0.0,0.0
816,1724914234050174613,-0.23535606265068054,0.10791042447090149,0.16844579577445984,0.06486388295888901,-0.09398266673088074,-0.27139508724212646,0.9556697010993958,0.0,0.0,0.0,0.0,0.0,0.0
818,1724914234063353484,-0.23538486659526825,0.10786948353052139,0.1683332473039627,0.06607607007026672,-0.09397409856319427,-0.2715635895729065,0.9555396437644958,0.0,0.0,0.0,0.0,0.0,0.0
820,1724914234070348365,-0.2353982925415039,0.10784074664115906,0.16832661628723145,0.06640714406967163,-0.09387698024511337,-0.27174776792526245,0.9554738998413086,0.0,0.0,0.0,0.0,0.0,0.0
822,1724914234079771566,-0.23537936806678772,0.10782045871019363,0.16838696599006653,0.06626372039318085,-0.09380140155553818,-0.27195966243743896,0.9554310441017151,0.0,0.0,0.0,0.0,0.0,0.0
824,1724914234091895187,-0.2353503555059433,0.10776573419570923,0.16841678321361542,0.06540775299072266,-0.0944078266620636,-0.27153730392456055,0.9555504322052002,0.0,0.0,0.0,0.0,0.0,0.0
826,1724914234099780735,-0.23532453179359436,0.10775104910135269,0.16841328144073486,0.0649721696972847,-0.09444084763526917,-0.2711973190307617,0.955673336982727,0.0,0.0,0.0,0.0,0.0,0.0
828,1724914234129615787,-0.23530450463294983,0.10776221007108688,0.1683516800403595,0.06492791324853897,-0.09444258362054825,-0.27091142535209656,0.9557572603225708,0.0,0.0,0.0,0.0,0.0,0.0
830,1724914234129874492,-0.23532237112522125,0.10780130326747894,0.16828475892543793,0.0652528926730156,-0.0945151224732399,-0.2709486484527588,0.9557174444198608,0.0,0.0,0.0,0.0,0.0,0.0
832,1724914234130124142,-0.2353484034538269,0.10783833265304565,0.1682378649711609,0.0658445730805397,-0.09443428367376328,-0.2714005410671234,0.9555566310882568,0.0,0.0,0.0,0.0,0.0,0.0
834,1724914234140260108,-0.23537157475948334,0.10787041485309601,0.1682126522064209,0.06674226373434067,-0.09397876262664795,-0.2723320424556732,0.9552741646766663,0.0,0.0,0.0,0.0,0.0,0.0
836,1724914234150810806,-0.23536941409111023,0.1078655794262886,0.16818027198314667,0.06690435111522675,-0.09448845684528351,-0.2730032503604889,0.9550209641456604,0.0,0.0,0.0,0.0,0.0,0.0
838,1724914234160042858,-0.23530426621437073,0.10781951248645782,0.16820569336414337,0.06765147298574448,-0.09494408965110779,-0.2737983465194702,0.9546954035758972,0.0,0.0,0.0,0.0,0.0,0.0
840,1724914234170287492,-0.23526747524738312,0.10779394209384918,0.16825483739376068,0.06730640679597855,-0.09516418725252151,-0.2748444378376007,0.9543972611427307,0.0,0.0,0.0,0.0,0.0,0.0
842,1724914234179885604,-0.23516668379306793,0.10777706652879715,0.16833403706550598,0.06695046275854111,-0.09508320689201355,-0.2761293649673462,0.9540594816207886,0.0,0.0,0.0,0.0,0.0,0.0
844,1724914234190176985,-0.2350509911775589,0.10775905847549438,0.16845755279064178,0.06738786399364471,-0.09429486095905304,-0.27744123339653015,0.9537262320518494,0.0,0.0,0.0,0.0,0.0,0.0
846,1724914234200218614,-0.2348167896270752,0.10771021246910095,0.16841870546340942,0.06892799586057663,-0.09527472406625748,-0.2772918939590454,0.9535622596740723,0.0,0.0,0.0,0.0,0.0,0.0
848,1724914234210340000,-0.2346528023481369,0.10778655111789703,0.16848336160182953,0.06984306126832962,-0.09556476771831512,-0.2777867913246155,0.9533225297927856,0.0,0.0,0.0,0.0,0.0,0.0
850,1724914234221081704,-0.23449328541755676,0.10799046605825424,0.16876016557216644,0.07032367587089539,-0.09466783702373505,-0.2793809771537781,0.9529107809066772,0.0,0.0,0.0,0.0,0.0,0.0
852,1724914234231180031,-0.23438674211502075,0.10791506618261337,0.16860948503017426,0.06966952979564667,-0.09623559564352036,-0.2802731990814209,0.9525396823883057,0.0,0.0,0.0,0.0,0.0,0.0
854,1724914234240198812,-0.23433056473731995,0.10792702436447144,0.1686956286430359,0.06928274035453796,-0.09661436825990677,-0.2823672890663147,0.9519109725952148,0.0,0.0,0.0,0.0,0.0,0.0
856,1724914234250191355,-0.2343040257692337,0.10790924727916718,0.16903263330459595,0.06847276538610458,-0.09566263109445572,-0.28569039702415466,0.9510736465454102,0.0,0.0,0.0,0.0,0.0,0.0
858,1724914234261761456,-0.23412200808525085,0.10785303264856339,0.1690804660320282,0.06867438554763794,-0.0963018387556076,-0.28731462359428406,0.950505256652832,0.0,0.0,0.0,0.0,0.0,0.0
860,1724914234270627434,-0.23399385809898376,0.10781712085008621,0.16916657984256744,0.06813941895961761,-0.09701181948184967,-0.2891547977924347,0.9499133229255676,0.0,0.0,0.0,0.0,0.0,0.0
862,1724914234280093117,-0.2338636964559555,0.10782762616872787,0.16924971342086792,0.06851103901863098,-0.09753566980361938,-0.2907503545284271,0.9493457674980164,0.0,0.0,0.0,0.0,0.0,0.0
864,1724914234293618465,-0.2337314635515213,0.10786172747612,0.169341042637825,0.06859640777111053,-0.09804694354534149,-0.2920479476451874,0.9488885402679443,0.0,0.0,0.0,0.0,0.0,0.0
866,1724914234299914967,-0.23358044028282166,0.10791050642728806,0.169416606426239,0.06906429678201675,-0.09867095202207565,-0.2926947772502899,0.9485905170440674,0.0,0.0,0.0,0.0,0.0,0.0
868,1724914234314189324,-0.2334725558757782,0.10821162909269333,0.1697206348180771,0.06997770071029663,-0.097386434674263,-0.2944547235965729,0.9481115937232971,0.0,0.0,0.0,0.0,0.0,0.0
870,1724914234320270371,-0.23336650431156158,0.10846894979476929,0.1698402762413025,0.07026773691177368,-0.09762732684612274,-0.29560360312461853,0.9477076530456543,0.0,0.0,0.0,0.0,0.0,0.0
872,1724914234330354829,-0.23318266868591309,0.10869904607534409,0.1698543280363083,0.07066760957241058,-0.09851905703544617,-0.29677286744117737,0.9472202062606812,0.0,0.0,0.0,0.0,0.0,0.0
874,1724914234340902179,-0.23301956057548523,0.10891187191009521,0.16979938745498657,0.07014366239309311,-0.10076126456260681,-0.2974354028701782,0.9468153715133667,0.0,0.0,0.0,0.0,0.0,0.0
876,1724914234349966601,-0.23287419974803925,0.10928933322429657,0.17010989785194397,0.07062884420156479,-0.10116474330425262,-0.2992084324359894,0.9461774230003357,0.0,0.0,0.0,0.0,0.0,0.0
878,1724914234362650897,-0.23273177444934845,0.10977648943662643,0.17044956982135773,0.0714104101061821,-0.10101287811994553,-0.30066120624542236,0.9456743001937866,0.0,0.0,0.0,0.0,0.0,0.0
880,1724914234371197109,-0.2325427085161209,0.11020813137292862,0.17057447135448456,0.07229442149400711,-0.10169687867164612,-0.3006651699542999,0.9455325603485107,0.0,0.0,0.0,0.0,0.0,0.0
882,1724914234379821872,-0.2323392927646637,0.11069562286138535,0.17087778449058533,0.07313912361860275,-0.10193286091089249,-0.3014446794986725,0.945193886756897,0.0,0.0,0.0,0.0,0.0,0.0
884,1724914234390405382,-0.232182577252388,0.11114183813333511,0.17111092805862427,0.07373074442148209,-0.10235391557216644,-0.3023649752140045,0.9448084235191345,0.0,0.0,0.0,0.0,0.0,0.0
886,1724914234399948815,-0.2320387214422226,0.11165088415145874,0.17144621908664703,0.07443059980869293,-0.10207831859588623,-0.3041067123413086,0.9442241191864014,0.0,0.0,0.0,0.0,0.0,0.0
888,1724914234410145085,-0.23193900287151337,0.1122155413031578,0.17182816565036774,0.07469463348388672,-0.10166165232658386,-0.30609768629074097,0.9436046481132507,0.0,0.0,0.0,0.0,0.0,0.0
890,1724914234420591377,-0.23161956667900085,0.11269303411245346,0.17183817923069,0.07750193774700165,-0.10324442386627197,-0.3058489263057709,0.9432871341705322,0.0,0.0,0.0,0.0,0.0,0.0
892,1724914234430137330,-0.23141206800937653,0.11344268172979355,0.17222237586975098,0.07912380248308182,-0.10295529663562775,-0.306947261095047,0.9428271651268005,0.0,0.0,0.0,0.0,0.0,0.0
894,1724914234440275645,-0.23132504522800446,0.11409225314855576,0.1726152002811432,0.07837861776351929,-0.10343118757009506,-0.30805736780166626,0.9424752593040466,0.0,0.0,0.0,0.0,0.0,0.0
896,1724914234450353450,-0.2312139868736267,0.11505205929279327,0.17354707419872284,0.07630235701799393,-0.10235398262739182,-0.3104444742202759,0.9419797658920288,0.0,0.0,0.0,0.0,0.0,0.0
898,1724914234460130259,-0.23097948729991913,0.11593563854694366,0.17424288392066956,0.0766097903251648,-0.10176331549882889,-0.31195107102394104,0.9415209889411926,0.0,0.0,0.0,0.0,0.0,0.0
900,1724914234470506408,-0.23082414269447327,0.11668888479471207,0.17489676177501678,0.07499569654464722,-0.10091769695281982,-0.31376731395721436,0.9411383271217346,0.0,0.0,0.0,0.0,0.0,0.0
902,1724914234482486655,-0.23059144616127014,0.11734584718942642,0.17558622360229492,0.07287294417619705,-0.10019604116678238,-0.31501755118370056,0.9409645199775696,0.0,0.0,0.0,0.0,0.0,0.0
904,1724914234490207470,-0.23035579919815063,0.1181086003780365,0.17633523046970367,0.0711003839969635,-0.0984978973865509,-0.3166607618331909,0.9407278895378113,0.0,0.0,0.0,0.0,0.0,0.0
906,1724914234500327969,-0.23006536066532135,0.11902043968439102,0.1771422177553177,0.06928931176662445,-0.09694065153598785,-0.3190334737300873,0.9402229189872742,0.0,0.0,0.0,0.0,0.0,0.0
908,1724914234512562129,-0.2295847237110138,0.11999304592609406,0.17774377763271332,0.06867504119873047,-0.09465204179286957,-0.3203565180301666,0.940051257610321,0.0,0.0,0.0,0.0,0.0,0.0
910,1724914234520389026,-0.229121133685112,0.12064379453659058,0.17797979712486267,0.06703489273786545,-0.09398472309112549,-0.320600688457489,0.9401534199714661,0.0,0.0,0.0,0.0,0.0,0.0
912,1724914234530660370,-0.2284419685602188,0.12155795097351074,0.17862650752067566,0.06665996462106705,-0.09110692888498306,-0.3226528465747833,0.9397611618041992,0.0,0.0,0.0,0.0,0.0,0.0
914,1724914234541164597,-0.22779148817062378,0.12265819311141968,0.17919878661632538,0.06454961746931076,-0.0881168395280838,-0.3248918652534485,0.9394222497940063,0.0,0.0,0.0,0.0,0.0,0.0
916,1724914234550075702,-0.22697997093200684,0.12394928932189941,0.17978698015213013,0.06356380879878998,-0.08409428596496582,-0.3261243402957916,0.9394310712814331,0.0,0.0,0.0,0.0,0.0,0.0
918,1724914234561137259,-0.22619850933551788,0.1251644641160965,0.18002483248710632,0.06007165461778641,-0.0819922536611557,-0.32721978425979614,0.9394657611846924,0.0,0.0,0.0,0.0,0.0,0.0
920,1724914234573380514,-0.22507968544960022,0.12646925449371338,0.18043221533298492,0.059157319366931915,-0.07894780486822128,-0.3282315731048584,0.9394315481185913,0.0,0.0,0.0,0.0,0.0,0.0
922,1724914234581717044,-0.22398710250854492,0.12784290313720703,0.18105588853359222,0.058771345764398575,-0.0749526172876358,-0.33081939816474915,0.938875138759613,0.0,0.0,0.0,0.0,0.0,0.0
924,1724914234591628226,-0.22304770350456238,0.1292295902967453,0.181465744972229,0.055616844445466995,-0.07210800051689148,-0.3322223126888275,0.9387947916984558,0.0,0.0,0.0,0.0,0.0,0.0
926,1724914234600438184,-0.2217012494802475,0.13064974546432495,0.1815871000289917,0.05486331507563591,-0.06853232532739639,-0.3326038122177124,0.938971757888794,0.0,0.0,0.0,0.0,0.0,0.0
928,1724914234670775788,-0.2200513482093811,0.1321442872285843,0.18185344338417053,0.049641888588666916,-0.06591081619262695,-0.3332853615283966,0.9392083883285522,0.0,0.0,0.0,0.0,0.0,0.0
930,1724914234671608128,-0.21856680512428284,0.1334540694952011,0.1818867027759552,0.0459701269865036,-0.06228802725672722,-0.33459287881851196,0.9391775727272034,0.0,0.0,0.0,0.0,0.0,0.0
932,1724914234672505511,-0.2169225811958313,0.134558767080307,0.18169482052326202,0.04312978312373161,-0.05881236121058464,-0.33581605553627014,0.939099907875061,0.0,0.0,0.0,0.0,0.0,0.0
934,1724914234673122575,-0.21509507298469543,0.13588064908981323,0.18172025680541992,0.040213774889707565,-0.054394081234931946,-0.336899071931839,0.9391076564788818,0.0,0.0,0.0,0.0,0.0,0.0
936,1724914234673464217,-0.2130548357963562,0.13724690675735474,0.18178290128707886,0.037809401750564575,-0.048918597400188446,-0.33774635195732117,0.9392043352127075,0.0,0.0,0.0,0.0,0.0,0.0
938,1724914234673705498,-0.21069294214248657,0.13844463229179382,0.1819532811641693,0.03759631887078285,-0.044191233813762665,-0.3375644385814667,0.9395126104354858,0.0,0.0,0.0,0.0,0.0,0.0
940,1724914234673960993,-0.20852690935134888,0.13964499533176422,0.18231236934661865,0.03175118938088417,-0.040004879236221313,-0.33887407183647156,0.9394444823265076,0.0,0.0,0.0,0.0,0.0,0.0
942,1724914234680316715,-0.20597830414772034,0.14083987474441528,0.1827591061592102,0.028305213898420334,-0.033862821757793427,-0.33881157636642456,0.9398185610771179,0.0,0.0,0.0,0.0,0.0,0.0
944,1724914234690612664,-0.2032044231891632,0.14221590757369995,0.18348073959350586,0.023740462958812714,-0.027386164292693138,-0.34011828899383545,0.9396839737892151,0.0,0.0,0.0,0.0,0.0,0.0
946,1724914234700941100,-0.2004716545343399,0.14342190325260162,0.18355944752693176,0.021022142842411995,-0.020927485078573227,-0.3396960198879242,0.9400674104690552,0.0,0.0,0.0,0.0,0.0,0.0
948,1724914234712848175,-0.19741444289684296,0.14459189772605896,0.1840968281030655,0.016255302354693413,-0.013916336931288242,-0.34172436594963074,0.9395566582679749,0.0,0.0,0.0,0.0,0.0,0.0
950,1724914234720530110,-0.19479292631149292,0.14550736546516418,0.1836221069097519,0.012506908737123013,-0.011570915579795837,-0.34108859300613403,0.9398767948150635,0.0,0.0,0.0,0.0,0.0,0.0
952,1724914234731292482,-0.1922929584980011,0.14627721905708313,0.18348434567451477,0.013866798020899296,-0.010050103068351746,-0.340961217880249,0.9399214386940002,0.0,0.0,0.0,0.0,0.0,0.0
954,1724914234740118470,-0.19015589356422424,0.1468169391155243,0.18359802663326263,0.013228297233581543,-0.01120058074593544,-0.34113022685050964,0.939856231212616,0.0,0.0,0.0,0.0,0.0,0.0
956,1724914234750160665,-0.18837550282478333,0.14766401052474976,0.18408049643039703,0.012708733789622784,-0.010921464301645756,-0.34246236085891724,0.9393821954727173,0.0,0.0,0.0,0.0,0.0,0.0
958,1724914234763211510,-0.1870899200439453,0.1483672857284546,0.18500711023807526,0.01347766350954771,-0.011451655067503452,-0.3436965048313141,0.9389142990112305,0.0,0.0,0.0,0.0,0.0,0.0
960,1724914234770187330,-0.18635216355323792,0.14889560639858246,0.18551874160766602,0.013273963704705238,-0.012812689878046513,-0.3443356454372406,0.9386653900146484,0.0,0.0,0.0,0.0,0.0,0.0
962,1724914234781664391,-0.1860702484846115,0.14940012991428375,0.18611323833465576,0.013861379586160183,-0.012637128122150898,-0.34544214606285095,0.9382526278495789,0.0,0.0,0.0,0.0,0.0,0.0
964,1724914234790937647,-0.18609872460365295,0.14989717304706573,0.1867547482252121,0.015582201071083546,-0.011390485800802708,-0.3465721607208252,0.9378247857093811,0.0,0.0,0.0,0.0,0.0,0.0
966,1724914234800035383,-0.18666709959506989,0.15046429634094238,0.18680255115032196,0.01501293946057558,-0.012225999496877193,-0.3465883135795593,0.9378175139427185,0.0,0.0,0.0,0.0,0.0,0.0
968,1724914234812585353,-0.18757086992263794,0.1509844809770584,0.18641285598278046,0.01235019601881504,-0.016130905598402023,-0.34752437472343445,0.9374508857727051,0.0,0.0,0.0,0.0,0.0,0.0
970,1724914234820418066,-0.18880555033683777,0.15145692229270935,0.18582887947559357,0.008914395235478878,-0.020160634070634842,-0.34711581468582153,0.9375632405281067,0.0,0.0,0.0,0.0,0.0,0.0
972,1724914234830063422,-0.19020964205265045,0.15226684510707855,0.18512721359729767,0.009820760227739811,-0.021729404106736183,-0.34672874212265015,0.9376623630523682,0.0,0.0,0.0,0.0,0.0,0.0
974,1724914234840890139,-0.191924050450325,0.15275976061820984,0.18420782685279846,0.0100459735840559,-0.026932258158922195,-0.34717288613319397,0.9373605251312256,0.0,0.0,0.0,0.0,0.0,0.0
976,1724914234849948231,-0.19386568665504456,0.153299018740654,0.18313275277614594,0.011033952236175537,-0.029820352792739868,-0.34753820300102234,0.937126636505127,0.0,0.0,0.0,0.0,0.0,0.0
978,1724914234860234750,-0.19611281156539917,0.15392838418483734,0.18207478523254395,0.01023444626480341,-0.03294553607702255,-0.347145140171051,0.9371767044067383,0.0,0.0,0.0,0.0,0.0,0.0
980,1724914234870994762,-0.19835063815116882,0.1543375551700592,0.18059653043746948,0.009407996200025082,-0.03874265402555466,-0.34633684158325195,0.9372626543045044,0.0,0.0,0.0,0.0,0.0,0.0
982,1724914234886727696,-0.20075882971286774,0.15485961735248566,0.17946894466876984,0.006953371223062277,-0.04344199597835541,-0.34757354855537415,0.9366200566291809,0.0,0.0,0.0,0.0,0.0,0.0
984,1724914234890190170,-0.20318517088890076,0.155210942029953,0.17800192534923553,0.0072181737050414085,-0.04740676283836365,-0.3470613956451416,0.9366157054901123,0.0,0.0,0.0,0.0,0.0,0.0
986,1724914234900897435,-0.2055683583021164,0.15571564435958862,0.17691442370414734,0.005876337643712759,-0.051703259348869324,-0.3479093015193939,0.9360830783843994,0.0,0.0,0.0,0.0,0.0,0.0
988,1724914234910120319,-0.2078440636396408,0.15632885694503784,0.17560800909996033,0.007631037849932909,-0.05417436733841896,-0.3484322726726532,0.9357360601425171,0.0,0.0,0.0,0.0,0.0,0.0
990,1724914234920453057,-0.21031984686851501,0.1567278504371643,0.1743939220905304,0.006078945938497782,-0.05809706076979637,-0.34887591004371643,0.9353467226028442,0.0,0.0,0.0,0.0,0.0,0.0
992,1724914234930037550,-0.21263068914413452,0.1569541096687317,0.17303182184696198,0.00715812249109149,-0.06312018632888794,-0.3488466143608093,0.9350243806838989,0.0,0.0,0.0,0.0,0.0,0.0
994,1724914234940408188,-0.2148808240890503,0.15735910832881927,0.17178286612033844,0.005233854986727238,-0.0661436915397644,-0.34946224093437195,0.9345982074737549,0.0,0.0,0.0,0.0,0.0,0.0
996,1724914234950405075,-0.21697209775447845,0.1577085703611374,0.1707896739244461,0.00749480864033103,-0.06728998571634293,-0.3508088290691376,0.9339962601661682,0.0,0.0,0.0,0.0,0.0,0.0
998,1724914234960095078,-0.21920126676559448,0.15789087116718292,0.16952824592590332,0.0042447480373084545,-0.07228883355855942,-0.35112088918685913,0.933525800704956,0.0,0.0,0.0,0.0,0.0,0.0
1000,1724914234970386062,-0.22118674218654633,0.1582098752260208,0.16864626109600067,0.004718787036836147,-0.07284951210021973,-0.35291701555252075,0.9328024387359619,0.0,0.0,0.0,0.0,0.0,0.0
1002,1724914234981306753,-0.22300879657268524,0.15818211436271667,0.16757924854755402,0.0065592434257268906,-0.07724912464618683,-0.3528602123260498,0.9324586987495422,0.0,0.0,0.0,0.0,0.0,0.0
1004,1724914234990366176,-0.22482363879680634,0.15827685594558716,0.16660699248313904,0.004954530391842127,-0.07967424392700195,-0.3533426821231842,0.9320817589759827,0.0,0.0,0.0,0.0,0.0,0.0
1006,1724914235000279916,-0.2263917475938797,0.15837937593460083,0.16565921902656555,0.004628420807421207,-0.08351287245750427,-0.35294026136398315,0.9318998456001282,0.0,0.0,0.0,0.0,0.0,0.0
1008,1724914235012720079,-0.22775927186012268,0.15847744047641754,0.1650000512599945,0.005164436995983124,-0.08505918830633163,-0.3534483015537262,0.9315646290779114,0.0,0.0,0.0,0.0,0.0,0.0
1010,1724914235020305488,-0.22906944155693054,0.15849842131137848,0.1642698496580124,0.0049501140601933,-0.08626287430524826,-0.3542402386665344,0.9311541318893433,0.0,0.0,0.0,0.0,0.0,0.0
1012,1724914235031071929,-0.23026451468467712,0.15854871273040771,0.16333447396755219,0.0044053890742361546,-0.08904451876878738,-0.352999746799469,0.9313661456108093,0.0,0.0,0.0,0.0,0.0,0.0
1014,1724914235040669666,-0.23105181753635406,0.1586655229330063,0.16271528601646423,0.006279403809458017,-0.09090349078178406,-0.3518681824207306,0.9316039085388184,0.0,0.0,0.0,0.0,0.0,0.0
1016,1724914235050143984,-0.23192930221557617,0.15871131420135498,0.16214299201965332,0.005983395501971245,-0.09425457566976547,-0.3515584170818329,0.9313898086547852,0.0,0.0,0.0,0.0,0.0,0.0
1018,1724914235063990782,-0.2326027899980545,0.1587810516357422,0.16169342398643494,0.006287222728133202,-0.0967269092798233,-0.3512492775917053,0.9312509298324585,0.0,0.0,0.0,0.0,0.0,0.0
1020,1724914235096446289,-0.2332373559474945,0.1589328944683075,0.16131477057933807,0.0062587568536400795,-0.09806979447603226,-0.3510468006134033,0.931187093257904,0.0,0.0,0.0,0.0,0.0,0.0
1022,1724914235096909770,-0.23381787538528442,0.1591891050338745,0.1612042486667633,0.004411713685840368,-0.09822876751422882,-0.3511841893196106,0.9311290383338928,0.0,0.0,0.0,0.0,0.0,0.0
1024,1724914235097821169,-0.23421116173267365,0.15948991477489471,0.16134150326251984,0.005553016904741526,-0.09704003483057022,-0.35201218724250793,0.9309349656105042,0.0,0.0,0.0,0.0,0.0,0.0
1026,1724914235099921260,-0.23450851440429688,0.15969491004943848,0.16125667095184326,0.005909680854529142,-0.09688909351825714,-0.3519020974636078,0.9309900999069214,0.0,0.0,0.0,0.0,0.0,0.0
1028,1724914235110385541,-0.23465844988822937,0.159779891371727,0.16112801432609558,0.006214040797203779,-0.09731500595808029,-0.3512197434902191,0.9312013387680054,0.0,0.0,0.0,0.0,0.0,0.0
1030,1724914235121267839,-0.2346060872077942,0.15974049270153046,0.16098757088184357,0.008560960181057453,-0.09885620325803757,-0.34967079758644104,0.931603193283081,0.0,0.0,0.0,0.0,0.0,0.0
1032,1724914235130677846,-0.23460976779460907,0.15976762771606445,0.16099867224693298,0.00882062315940857,-0.09893082082271576,-0.3491694927215576,0.9317808747291565,0.0,0.0,0.0,0.0,0.0,0.0
1034,1724914235140848006,-0.2346138060092926,0.1597205251455307,0.16101112961769104,0.008573846891522408,-0.09903784096240997,-0.3489166796207428,0.931866466999054,0.0,0.0,0.0,0.0,0.0,0.0
1036,1724914235150526629,-0.23459437489509583,0.15962953865528107,0.16105744242668152,0.00843494851142168,-0.09893389046192169,-0.34887969493865967,0.9318926930427551,0.0,0.0,0.0,0.0,0.0,0.0
1038,1724914235160873848,-0.23449712991714478,0.15952818095684052,0.16109877824783325,0.008470597676932812,-0.09903756529092789,-0.3485584557056427,0.9320015907287598,0.0,0.0,0.0,0.0,0.0,0.0
1040,1724914235171256240,-0.234343484044075,0.15946590900421143,0.16121888160705566,0.007917187176644802,-0.09918930381536484,-0.348133385181427,0.9321491718292236,0.0,0.0,0.0,0.0,0.0,0.0
1042,1724914235180434743,-0.23419658839702606,0.15939833223819733,0.16138993203639984,0.007417292334139347,-0.09885983169078827,-0.3475194275379181,0.9324173331260681,0.0,0.0,0.0,0.0,0.0,0.0
1044,1724914235191289719,-0.23405307531356812,0.1593654751777649,0.16159452497959137,0.006956921424716711,-0.09827838838100433,-0.3472139239311218,0.9325961470603943,0.0,0.0,0.0,0.0,0.0,0.0
1046,1724914235201293496,-0.23380334675312042,0.1592465341091156,0.16175100207328796,0.0064543006010353565,-0.099101722240448,-0.3462526202201843,0.9328699111938477,0.0,0.0,0.0,0.0,0.0,0.0
1048,1724914235211292900,-0.23356835544109344,0.15916645526885986,0.16180585324764252,0.006388184614479542,-0.09954892098903656,-0.345509797334671,0.9330981969833374,0.0,0.0,0.0,0.0,0.0,0.0
1050,1724914235220461196,-0.2332667112350464,0.15908610820770264,0.1617959588766098,0.006466210819780827,-0.09994175285100937,-0.3447708189487457,0.9333289265632629,0.0,0.0,0.0,0.0,0.0,0.0
1052,1724914235231094406,-0.23297716677188873,0.15902134776115417,0.16184519231319427,0.006498758681118488,-0.10009033977985382,-0.3440459370613098,0.9335802793502808,0.0,0.0,0.0,0.0,0.0,0.0
1054,1724914235239975831,-0.2327164113521576,0.15891896188259125,0.161762535572052,0.004919990431517363,-0.10128342360258102,-0.3429352641105652,0.9338698387145996,0.0,0.0,0.0,0.0,0.0,0.0
1056,1724914235250165070,-0.23233644664287567,0.15892891585826874,0.16205507516860962,0.005963131319731474,-0.10062950849533081,-0.34239956736564636,0.9341309666633606,0.0,0.0,0.0,0.0,0.0,0.0
1058,1724914235279687586,-0.2319888323545456,0.15889455378055573,0.16218726336956024,0.006498060654848814,-0.10079267621040344,-0.3410372734069824,0.9346081018447876,0.0,0.0,0.0,0.0,0.0,0.0
1060,1724914235279999957,-0.23160319030284882,0.15886764228343964,0.16236141324043274,0.006740589626133442,-0.10017137229442596,-0.33918628096580505,0.9353464841842651,0.0,0.0,0.0,0.0,0.0,0.0
1062,1724914235280238305,-0.23129823803901672,0.15873414278030396,0.16247154772281647,0.0051647936925292015,-0.1012025848031044,-0.33712658286094666,0.9359899759292603,0.0,0.0,0.0,0.0,0.0,0.0
1064,1724914235290915784,-0.230915829539299,0.15872018039226532,0.16293197870254517,0.0043199374340474606,-0.10137329250574112,-0.3365640640258789,0.9361780881881714,0.0,0.0,0.0,0.0,0.0,0.0
1066,1724914235300081491,-0.23058336973190308,0.15859024226665497,0.1631852686405182,0.0036511807702481747,-0.10244691371917725,-0.33560827374458313,0.9364072680473328,0.0,0.0,0.0,0.0,0.0,0.0
1068,1724914235314455721,-0.23025831580162048,0.15846477448940277,0.16347818076610565,0.002235208638012409,-0.10338043421506882,-0.3346511423587799,0.9366516470909119,0.0,0.0,0.0,0.0,0.0,0.0
1070,1724914235320153012,-0.22984519600868225,0.15821024775505066,0.16378909349441528,0.0014763433719053864,-0.10364402830600739,-0.3336627185344696,0.9369764924049377,0.0,0.0,0.0,0.0,0.0,0.0
1072,1724914235330680325,-0.22945600748062134,0.15802472829818726,0.1640951931476593,0.0005962725845165551,-0.10309775918722153,-0.33281803131103516,0.93733811378479,0.0,0.0,0.0,0.0,0.0,0.0
1074,1724914235340957051,-0.22897812724113464,0.15771184861660004,0.16452571749687195,0.0012181894853711128,-0.10302916914224625,-0.33170273900032043,0.9377402663230896,0.0,0.0,0.0,0.0,0.0,0.0
1076,1724914235350086479,-0.2283380925655365,0.1574179232120514,0.16503220796585083,0.0021766379941254854,-0.10292062163352966,-0.3302849233150482,0.9382508397102356,0.0,0.0,0.0,0.0,0.0,0.0
1078,1724914235360386625,-0.22756636142730713,0.15704220533370972,0.1655646562576294,0.004280575551092625,-0.10361364483833313,-0.3287021815776825,0.9387230277061462,0.0,0.0,0.0,0.0,0.0,0.0
1080,1724914235457700180,-0.22685328125953674,0.15662342309951782,0.16618843376636505,0.002341791521757841,-0.10358799993991852,-0.3266685903072357,0.9394422173500061,0.0,0.0,0.0,0.0,0.0,0.0
1082,1724914235458098474,-0.22620156407356262,0.1561562716960907,0.16662612557411194,0.0015580934705212712,-0.10289978235960007,-0.32490426301956177,0.9401310682296753,0.0,0.0,0.0,0.0,0.0,0.0
1084,1724914235458378679,-0.22549620270729065,0.15582969784736633,0.16703148186206818,0.0009082934120669961,-0.10191486030817032,-0.3236899971961975,0.9406579732894897,0.0,0.0,0.0,0.0,0.0,0.0
1086,1724914235458632448,-0.2247212827205658,0.15523703396320343,0.16757012903690338,0.0009182062349282205,-0.1017305850982666,-0.3223237991333008,0.9411469101905823,0.0,0.0,0.0,0.0,0.0,0.0
1088,1724914235458936975,-0.2237798422574997,0.15469613671302795,0.16867467761039734,0.001922989496961236,-0.10055913031101227,-0.32210198044776917,0.9413471817970276,0.0,0.0,0.0,0.0,0.0,0.0
1090,1724914235459240988,-0.22303009033203125,0.1541290581226349,0.16973242163658142,-0.00020416107145138085,-0.09939870983362198,-0.32146167755126953,0.9416912198066711,0.0,0.0,0.0,0.0,0.0,0.0
1092,1724914235459506581,-0.2220955789089203,0.15331703424453735,0.1704891175031662,-0.001578369876369834,-0.09918162971735,-0.31820547580718994,0.9428179860115051,0.0,0.0,0.0,0.0,0.0,0.0
1094,1724914235459866767,-0.22115673124790192,0.15252171456813812,0.1715802550315857,-0.002444080077111721,-0.0973299890756607,-0.31674522161483765,0.9435005784034729,0.0,0.0,0.0,0.0,0.0,0.0
1096,1724914235460116417,-0.2202683687210083,0.15181797742843628,0.1728157103061676,-0.0050264750607311726,-0.09493090957403183,-0.31738126277923584,0.9435211420059204,0.0,0.0,0.0,0.0,0.0,0.0
1098,1724914235461684307,-0.21898721158504486,0.1510395109653473,0.17377780377864838,-0.0045743766240775585,-0.09339863061904907,-0.31610187888145447,0.9441056847572327,0.0,0.0,0.0,0.0,0.0,0.0
1100,1724914235474057418,-0.21769648790359497,0.15026506781578064,0.174730584025383,-0.004767569247633219,-0.09138678014278412,-0.31444868445396423,0.9448533058166504,0.0,0.0,0.0,0.0,0.0,0.0
1102,1724914235482170293,-0.21648214757442474,0.14955788850784302,0.17581439018249512,-0.005018242634832859,-0.08768806606531143,-0.3137810230255127,0.9454243183135986,0.0,0.0,0.0,0.0,0.0,0.0
1104,1724914235490190356,-0.21509850025177002,0.14866164326667786,0.17669899761676788,-0.003028416307643056,-0.08604228496551514,-0.31214845180511475,0.9461241364479065,0.0,0.0,0.0,0.0,0.0,0.0
1106,1724914235500056984,-0.21366803348064423,0.1478399783372879,0.17738904058933258,-0.0018035905668511987,-0.08314472436904907,-0.31077444553375244,0.94683837890625,0.0,0.0,0.0,0.0,0.0,0.0
1108,1724914235511915910,-0.21215729415416718,0.146908238530159,0.17832066118717194,7.72186103858985e-05,-0.07976900041103363,-0.3101595640182495,0.9473320245742798,0.0,0.0,0.0,0.0,0.0,0.0
1110,1724914235520442302,-0.2106957733631134,0.1460231989622116,0.1796073019504547,-0.0033728680573403835,-0.07667168974876404,-0.3098434805870056,0.947685182094574,0.0,0.0,0.0,0.0,0.0,0.0
1112,1724914235535932348,-0.20910415053367615,0.14502930641174316,0.18049302697181702,-0.0029851726721972227,-0.07274119555950165,-0.30885040760040283,0.9483202695846558,0.0,0.0,0.0,0.0,0.0,0.0
1114,1724914235541432281,-0.20722898840904236,0.14379063248634338,0.18138264119625092,-0.0014574250672012568,-0.06892632693052292,-0.30731943249702454,0.9491057991981506,0.0,0.0,0.0,0.0,0.0,0.0
1116,1724914235550068524,-0.20549143850803375,0.142720028758049,0.18227043747901917,-0.0029692070093005896,-0.06352019309997559,-0.30616989731788635,0.9498507380485535,0.0,0.0,0.0,0.0,0.0,0.0
1118,1724914235560518018,-0.2034054845571518,0.1414490044116974,0.18333017826080322,-0.0011311753187328577,-0.05863580480217934,-0.30563950538635254,0.9503394961357117,0.0,0.0,0.0,0.0,0.0,0.0
1120,1724914235570344834,-0.2012859284877777,0.14004112780094147,0.18414105474948883,-0.0030201980844140053,-0.053832970559597015,-0.3039632737636566,0.9511568546295166,0.0,0.0,0.0,0.0,0.0,0.0
1122,1724914235584474431,-0.1991291642189026,0.1388828009366989,0.18506471812725067,-0.004072269424796104,-0.04502425715327263,-0.3043258786201477,0.951494574546814,0.0,0.0,0.0,0.0,0.0,0.0
1124,1724914235590417433,-0.19664211571216583,0.1374635100364685,0.18561536073684692,-0.00398801825940609,-0.03937458619475365,-0.30255192518234253,0.9523109793663025,0.0,0.0,0.0,0.0,0.0,0.0
1126,1724914235600050159,-0.19411788880825043,0.13571137189865112,0.18580450117588043,-0.0027903399895876646,-0.034325309097766876,-0.301970899105072,0.9526949524879456,0.0,0.0,0.0,0.0,0.0,0.0
1128,1724914235612744626,-0.19150425493717194,0.1339813619852066,0.18628370761871338,-0.004132593050599098,-0.028502430766820908,-0.30120110511779785,0.9531256556510925,0.0,0.0,0.0,0.0,0.0,0.0
1130,1724914235620736048,-0.18883337080478668,0.13251039385795593,0.18666042387485504,-0.005250727757811546,-0.021313903853297234,-0.30148881673812866,0.953217089176178,0.0,0.0,0.0,0.0,0.0,0.0
1132,1724914235630166404,-0.18595410883426666,0.13107062876224518,0.18680523335933685,-0.00692726531997323,-0.015382811427116394,-0.2992227077484131,0.954034149646759,0.0,0.0,0.0,0.0,0.0,0.0
1134,1724914235640874938,-0.1831776350736618,0.12961405515670776,0.18689291179180145,-0.005066178273409605,-0.011409464292228222,-0.2981390953063965,0.9544408917427063,0.0,0.0,0.0,0.0,0.0,0.0
1136,1724914235650008250,-0.18029022216796875,0.12814374268054962,0.18720978498458862,-0.003284066217020154,-0.007448836695402861,-0.2971590757369995,0.9547933340072632,0.0,0.0,0.0,0.0,0.0,0.0
1138,1724914235675758489,-0.17791883647441864,0.12670297920703888,0.18755844235420227,-0.005677655804902315,-0.0061419932171702385,-0.2957864999771118,0.9552174806594849,0.0,0.0,0.0,0.0,0.0,0.0
1140,1724914235676049753,-0.17597459256649017,0.12553836405277252,0.18826085329055786,-0.006986913271248341,-0.007852238602936268,-0.2952916920185089,0.9553494453430176,0.0,0.0,0.0,0.0,0.0,0.0
1142,1724914235680232132,-0.17447611689567566,0.12454072386026382,0.18900014460086823,-0.006954220123589039,-0.008081786334514618,-0.29451391100883484,0.9555877447128296,0.0,0.0,0.0,0.0,0.0,0.0
1144,1724914235690177678,-0.17322975397109985,0.12355422973632812,0.1899271458387375,-0.0051941159181296825,-0.0083773797377944,-0.294163316488266,0.955704391002655,0.0,0.0,0.0,0.0,0.0,0.0
1146,1724914235700638626,-0.1727854162454605,0.12271415442228317,0.19095513224601746,-0.007970533333718777,-0.007966211065649986,-0.29385343194007874,0.9557841420173645,0.0,0.0,0.0,0.0,0.0,0.0
1148,1724914235711109122,-0.1728517711162567,0.12197690457105637,0.19153277575969696,-0.007946194149553776,-0.007785026915371418,-0.2916090488433838,0.9564728736877441,0.0,0.0,0.0,0.0,0.0,0.0
1150,1724914235720876540,-0.17330943048000336,0.12115675210952759,0.19194085896015167,-0.0052085937932133675,-0.008047942072153091,-0.28999704122543335,0.9569796323776245,0.0,0.0,0.0,0.0,0.0,0.0
1152,1724914235731376590,-0.17416054010391235,0.12044215202331543,0.19238948822021484,-0.005058811046183109,-0.008498395793139935,-0.28946954011917114,0.9571362137794495,0.0,0.0,0.0,0.0,0.0,0.0
1154,1724914235740341147,-0.17546363174915314,0.11980056017637253,0.19234031438827515,-0.0036228056997060776,-0.01069216150790453,-0.2887687683105469,0.95733243227005,0.0,0.0,0.0,0.0,0.0,0.0
1156,1724914235750335994,-0.1771724373102188,0.11906202137470245,0.19216910004615784,-0.00027750281151384115,-0.012650205753743649,-0.28795957565307617,0.9575589895248413,0.0,0.0,0.0,0.0,0.0,0.0
1158,1724914235763093368,-0.1792716532945633,0.11814872920513153,0.1923428624868393,0.0021353671327233315,-0.015312218107283115,-0.2886872887611389,0.9572986364364624,0.0,0.0,0.0,0.0,0.0,0.0
1160,1724914235770424315,-0.18164706230163574,0.11705440282821655,0.1917504519224167,0.004886169917881489,-0.020847084000706673,-0.2878482937812805,0.9574366211891174,0.0,0.0,0.0,0.0,0.0,0.0
1162,1724914235780092994,-0.18440845608711243,0.11612311750650406,0.19055987894535065,0.007539929356426001,-0.024432342499494553,-0.2858392000198364,0.9579364657402039,0.0,0.0,0.0,0.0,0.0,0.0
1164,1724914235924683657,-0.18731175363063812,0.11504305154085159,0.18987686932086945,0.012181155383586884,-0.02803264930844307,-0.2874794602394104,0.957298994064331,0.0,0.0,0.0,0.0,0.0,0.0
1166,1724914235925073743,-0.19049343466758728,0.11369910091161728,0.18843495845794678,0.013379793614149094,-0.03504035249352455,-0.28712865710258484,0.9571574926376343,0.0,0.0,0.0,0.0,0.0,0.0
1168,1724914235925423776,-0.1937645673751831,0.11260604858398438,0.18675294518470764,0.019833697006106377,-0.03913553059101105,-0.284906804561615,0.9575506448745728,0.0,0.0,0.0,0.0,0.0,0.0
1170,1724914235925775606,-0.19706451892852783,0.11154481023550034,0.18542714416980743,0.024400608614087105,-0.04527255520224571,-0.28411945700645447,0.9574086666107178,0.0,0.0,0.0,0.0,0.0,0.0
1172,1724914235926122820,-0.20021875202655792,0.11100141704082489,0.18461526930332184,0.026823095977306366,-0.04755644127726555,-0.28465792536735535,0.9570730924606323,0.0,0.0,0.0,0.0,0.0,0.0
1174,1724914235926468194,-0.20333534479141235,0.11020397394895554,0.18358124792575836,0.026991834864020348,-0.05118000879883766,-0.28382188081741333,0.9571297764778137,0.0,0.0,0.0,0.0,0.0,0.0
1176,1724914235926861019,-0.2062414288520813,0.10937626659870148,0.18210765719413757,0.029636530205607414,-0.05591586232185364,-0.2804316282272339,0.9577856063842773,0.0,0.0,0.0,0.0,0.0,0.0
1178,1724914235927246282,-0.20916301012039185,0.10876481980085373,0.18077872693538666,0.03258146718144417,-0.05763358622789383,-0.2788870930671692,0.9580390453338623,0.0,0.0,0.0,0.0,0.0,0.0
1180,1724914235927476742,-0.21202926337718964,0.1080562025308609,0.1797609031200409,0.03375561535358429,-0.06163478270173073,-0.27756184339523315,0.9581342339515686,0.0,0.0,0.0,0.0,0.0,0.0
1182,1724914235927758818,-0.2144342064857483,0.10748894512653351,0.17872531712055206,0.03591713309288025,-0.06460601836442947,-0.27546143531799316,0.9584659337997437,0.0,0.0,0.0,0.0,0.0,0.0
1184,1724914235928020594,-0.2167961746454239,0.1068977490067482,0.1776307374238968,0.037885479629039764,-0.06625228375196457,-0.2750575542449951,0.9583937525749207,0.0,0.0,0.0,0.0,0.0,0.0
1186,1724914235928268738,-0.21908971667289734,0.10636015981435776,0.17677275836467743,0.03848541900515556,-0.06826380640268326,-0.27429381012916565,0.9584476351737976,0.0,0.0,0.0,0.0,0.0,0.0
1188,1724914235928517158,-0.22138001024723053,0.10594092309474945,0.17556117475032806,0.04005350545048714,-0.06924249231815338,-0.27393394708633423,0.9584161043167114,0.0,0.0,0.0,0.0,0.0,0.0
1190,1724914235928763593,-0.223324716091156,0.10542990267276764,0.1742694228887558,0.044453781098127365,-0.07087411731481552,-0.2724364101886749,0.9585297703742981,0.0,0.0,0.0,0.0,0.0,0.0
1192,1724914235930102366,-0.22532129287719727,0.10497784614562988,0.1729477345943451,0.04423749819397926,-0.07583823055028915,-0.270999014377594,0.958567202091217,0.0,0.0,0.0,0.0,0.0,0.0
1194,1724914236091252429,-0.22702816128730774,0.10487129539251328,0.17195461690425873,0.045871082693338394,-0.0769217237830162,-0.2719486653804779,0.9581350684165955,0.0,0.0,0.0,0.0,0.0,0.0
1196,1724914236091929555,-0.22850434482097626,0.1046561673283577,0.1705896407365799,0.04939337447285652,-0.07963591068983078,-0.27060502767562866,0.9581186771392822,0.0,0.0,0.0,0.0,0.0,0.0
1198,1724914236092170703,-0.23016497492790222,0.10459811985492706,0.16963064670562744,0.05003996565937996,-0.08103583008050919,-0.2721897065639496,0.9575187563896179,0.0,0.0,0.0,0.0,0.0,0.0
1200,1724914236092406155,-0.23139743506908417,0.10428394377231598,0.1684403121471405,0.052949316799640656,-0.08514665067195892,-0.271377831697464,0.9572358131408691,0.0,0.0,0.0,0.0,0.0,0.0
1202,1724914236092644812,-0.232365682721138,0.10422313213348389,0.16754260659217834,0.05576102063059807,-0.08817962557077408,-0.27082952857017517,0.9569568634033203,0.0,0.0,0.0,0.0,0.0,0.0
1204,1724914236092875529,-0.23334991931915283,0.1043350026011467,0.16712310910224915,0.05593172088265419,-0.08885850012302399,-0.27163663506507874,0.9566553235054016,0.0,0.0,0.0,0.0,0.0,0.0
1206,1724914236093107108,-0.23438063263893127,0.10427601635456085,0.16655492782592773,0.0564006045460701,-0.09079227596521378,-0.2722625434398651,0.9562681913375854,0.0,0.0,0.0,0.0,0.0,0.0
1208,1724914236093342405,-0.23513659834861755,0.10421458631753922,0.16608604788780212,0.05720814689993858,-0.09330404549837112,-0.272335022687912,0.95595782995224,0.0,0.0,0.0,0.0,0.0,0.0
1210,1724914236093572853,-0.2357778400182724,0.10414998978376389,0.16563661396503448,0.058103542774915695,-0.09534771740436554,-0.2724444568157196,0.955670952796936,0.0,0.0,0.0,0.0,0.0,0.0
1212,1724914236093803311,-0.23630598187446594,0.10421691834926605,0.16538351774215698,0.05938883498311043,-0.09537842124700546,-0.27319207787513733,0.9553753733634949,0.0,0.0,0.0,0.0,0.0,0.0
1214,1724914236094034735,-0.23667514324188232,0.10419892519712448,0.1651582419872284,0.061026837676763535,-0.09583346545696259,-0.27354055643081665,0.9551268815994263,0.0,0.0,0.0,0.0,0.0,0.0
1216,1724914236094276464,-0.23702795803546906,0.1042027696967125,0.16488906741142273,0.06209122762084007,-0.09594890475273132,-0.2741772532463074,0.9548640847206116,0.0,0.0,0.0,0.0,0.0,0.0
1218,1724914236094509858,-0.23737718164920807,0.10402057319879532,0.1643892079591751,0.06346148252487183,-0.09730667620897293,-0.27421122789382935,0.9546268582344055,0.0,0.0,0.0,0.0,0.0,0.0
1220,1724914236094739104,-0.2378271073102951,0.10380769520998001,0.16401033103466034,0.06306211650371552,-0.09781504422426224,-0.2745116949081421,0.9545149803161621,0.0,0.0,0.0,0.0,0.0,0.0
1222,1724914236094970075,-0.23809781670570374,0.10356859117746353,0.16368719935417175,0.06285049021244049,-0.09962227195501328,-0.27425417304039,0.954416036605835,0.0,0.0,0.0,0.0,0.0,0.0
1224,1724914236095204662,-0.23841148614883423,0.10348325222730637,0.1637168675661087,0.06135137751698494,-0.09950900822877884,-0.27502262592315674,0.9543042778968811,0.0,0.0,0.0,0.0,0.0,0.0
1226,1724914236102034787,-0.23857706785202026,0.1033993661403656,0.16375651955604553,0.06053706258535385,-0.09939465671777725,-0.27558642625808716,0.9542054533958435,0.0,0.0,0.0,0.0,0.0,0.0
1228,1724914236110716048,-0.23864346742630005,0.10336005687713623,0.16379335522651672,0.060565005987882614,-0.09932228922843933,-0.2760712802410126,0.9540711045265198,0.0,0.0,0.0,0.0,0.0,0.0
1230,1724914236121743856,-0.23864120244979858,0.10336574167013168,0.1638285517692566,0.060775622725486755,-0.09923678636550903,-0.2766017019748688,0.9539129137992859,0.0,0.0,0.0,0.0,0.0,0.0
1232,1724914236129880474,-0.23860374093055725,0.10331414639949799,0.16376200318336487,0.06074775382876396,-0.09962796419858932,-0.27680402994155884,0.9538152813911438,0.0,0.0,0.0,0.0,0.0,0.0
1234,1724914236140438637,-0.23846730589866638,0.10347820073366165,0.16388051211833954,0.061946578323841095,-0.09857361763715744,-0.27740010619163513,0.9536744952201843,0.0,0.0,0.0,0.0,0.0,0.0
1236,1724914236150367632,-0.23838822543621063,0.10357394814491272,0.16393370926380157,0.06259315460920334,-0.09864038228988647,-0.27772757411003113,0.9535300135612488,0.0,0.0,0.0,0.0,0.0,0.0
1238,1724914236160201467,-0.23830783367156982,0.10368208587169647,0.16403000056743622,0.06307685375213623,-0.0987345352768898,-0.278461217880249,0.9532744288444519,0.0,0.0,0.0,0.0,0.0,0.0
1240,1724914236170283660,-0.23821233212947845,0.10371187329292297,0.16396062076091766,0.06307601928710938,-0.09926692396402359,-0.27899736166000366,0.9530624747276306,0.0,0.0,0.0,0.0,0.0,0.0
1242,1724914236180050777,-0.23813623189926147,0.10375291854143143,0.16411817073822021,0.06302901357412338,-0.09944992512464523,-0.2805447280406952,0.952592134475708,0.0,0.0,0.0,0.0,0.0,0.0
1244,1724914236190375051,-0.23803789913654327,0.10368269681930542,0.16402225196361542,0.06293711811304092,-0.10060889273881912,-0.2813047468662262,0.9522523283958435,0.0,0.0,0.0,0.0,0.0,0.0
1246,1724914236200241998,-0.23793788254261017,0.1036868467926979,0.16405224800109863,0.06290680915117264,-0.10115324705839157,-0.2820930778980255,0.9519633650779724,0.0,0.0,0.0,0.0,0.0,0.0
1248,1724914236210201876,-0.2377387285232544,0.10367262363433838,0.1640797108411789,0.0642002522945404,-0.10186329483985901,-0.2825801968574524,0.9516567587852478,0.0,0.0,0.0,0.0,0.0,0.0
1250,1724914236221087086,-0.23752272129058838,0.1037803664803505,0.16439175605773926,0.06552679091691971,-0.1006796807050705,-0.28452128171920776,0.9511138796806335,0.0,0.0,0.0,0.0,0.0,0.0
1252,1724914236231025939,-0.23733477294445038,0.10370590537786484,0.16433320939540863,0.06627320498228073,-0.10087462514638901,-0.28545060753822327,0.950762927532196,0.0,0.0,0.0,0.0,0.0,0.0
1254,1724914236241781342,-0.237226665019989,0.1036776453256607,0.16435423493385315,0.06597063690423965,-0.10109846293926239,-0.28652530908584595,0.9504369497299194,0.0,0.0,0.0,0.0,0.0,0.0
1256,1724914236251237380,-0.2370958775281906,0.10370533168315887,0.16444480419158936,0.06606470048427582,-0.10146194696426392,-0.2875198721885681,0.9500911831855774,0.0,0.0,0.0,0.0,0.0,0.0
1258,1724914236262738232,-0.23698075115680695,0.10375247150659561,0.1645258665084839,0.06589239835739136,-0.10176112502813339,-0.28866639733314514,0.9497234225273132,0.0,0.0,0.0,0.0,0.0,0.0
1260,1724914236270935221,-0.23684048652648926,0.10384015738964081,0.16461984813213348,0.06699545681476593,-0.1020970568060875,-0.2900843620300293,0.9491780400276184,0.0,0.0,0.0,0.0,0.0,0.0
1262,1724914236282221270,-0.23671893775463104,0.10389413684606552,0.16470317542552948,0.06707020848989487,-0.1025364026427269,-0.29140394926071167,0.9487211108207703,0.0,0.0,0.0,0.0,0.0,0.0
1264,1724914236292286766,-0.23657222092151642,0.10396034270524979,0.1649072915315628,0.06738996505737305,-0.10297619551420212,-0.2927301526069641,0.9482423067092896,0.0,0.0,0.0,0.0,0.0,0.0
1266,1724914236300601053,-0.23635324835777283,0.10417402535676956,0.16533417999744415,0.06832808256149292,-0.10222021490335464,-0.2941932678222656,0.9478041529655457,0.0,0.0,0.0,0.0,0.0,0.0
1268,1724914236310808999,-0.2361934930086136,0.10425536334514618,0.16531264781951904,0.0678461492061615,-0.1036815345287323,-0.2947193682193756,0.9475165605545044,0.0,0.0,0.0,0.0,0.0,0.0
1270,1724914236320432755,-0.23602452874183655,0.10442029684782028,0.16531839966773987,0.06806142628192902,-0.10423995554447174,-0.29577580094337463,0.9471105337142944,0.0,0.0,0.0,0.0,0.0,0.0
1272,1724914236330330909,-0.23584048449993134,0.10460036247968674,0.16542869806289673,0.0693763792514801,-0.10473327338695526,-0.29710379242897034,0.946544885635376,0.0,0.0,0.0,0.0,0.0,0.0
1274,1724914236512633260,-0.2357204407453537,0.10504642874002457,0.16591377556324005,0.07026279717683792,-0.10334282368421555,-0.29944154620170593,0.9458954334259033,0.0,0.0,0.0,0.0,0.0,0.0
