seq,stamp,px,py,pz,ox,oy,oz,ow,lx,ly,lz,ax,ay,az,timestamp,lyap_z,wx,wy,wz,aa_x,aa_y,aa_z,roll,pitch,yaw,vx,vy,vz,jx,jy,jz,forward_velocity,forward_velocity_1,deviation
5468,1724557162301030358,-1.541375756263733,-0.2243864834308624,0.1647896021604538,-0.0139848757535219,0.0672419369220733,0.5020939111709595,-0.8620815873146057,0.0,0.0,0.0,7.6421511313700785,-9.235205806318808,5.503878285555087,0.0,0.1647896021604538,0.0,0.0,0.0,6.4049874863150755,2.526626271793606,-1.8307885313937475,0.0922459336211636,-0.1020697683876541,-1.0595012643721111,0.026313251728796207,-0.0293375269470378,0.02109620553315333,-501.1877598252089,591.5953937072685,-406.2430552016515,0.0,0.0,0.15767492517796464
5470,1724557162318413464,-1.5409183502197266,-0.2248964607715606,0.1651563197374344,-0.0150293773040175,0.0673948228359222,0.5022616982460022,-0.861954391002655,0.0,0.0,0.0,-1.0700488235740693,1.0485596316063734,-1.557887804779071,0.017383106,0.1651563197374344,0.1113385764032885,0.043920612304973065,-0.03182479110480184,30.53508115548709,38.99983243115386,-179.68388886333383,0.09423029514889666,-0.10125811383481403,-1.0599835850294403,0.1591575749134222,-0.18987408841009312,0.11677070518205568,-943.5803394755524,1160.7639527388142,-761.9446544773209,0.04039223743498898,-0.015313771901252158,0.15767492517796464
5472,1724557162321093739,-1.540436863899231,-0.2254717200994491,0.1655088365077972,-0.0154271190986037,0.0673308223485946,0.5029178261756897,-0.8615696430206299,0.0,0.0,0.0,-3.7819301268837875,4.394945145617481,-3.7471089511813234,0.020063381,0.1655088365077972,0.20315317636059055,0.1635240816636923,-0.5869279459417741,23.751649965752936,32.30152549250066,-157.74487758089347,0.09492925999996396,-0.10067320801030503,-1.0615160037966778,0.1526890800479883,-0.18281371343137653,0.10967673849343562,-816.7072285106663,1018.519007699762,-668.7645950179485,0.28679967759910474,-0.11570931800330977,0.15767492517796464
5474,1724557162332131393,-1.5399765968322754,-0.2260435074567794,0.1657264232635498,-0.0152896465733647,0.0674802958965301,0.5033267736434937,-0.8613215684890747,0.0,0.0,0.0,-3.929027592862709,5.182344803199257,-4.400333415174431,0.031101035,0.1657264232635498,-0.012136081935129196,-0.04003227468303322,-0.08435411068123654,-2.639792847575027,-7.549150367139122,23.41907107179175,0.09489333902782494,-0.101024847576496,-1.0624897278081262,0.04873860567172983,-0.05427044275099391,0.018300622316550275,205.30245426292927,-234.72020011992828,156.8434662597497,0.06720295547551206,-0.027212551859757083,0.15767492517796464
5476,1724557162342146036,-1.5394245386123655,-0.2266094237565994,0.165896862745285,-0.0157593823969364,0.0678372457623481,0.5035080909729004,-0.8611790537834167,0.0,0.0,0.0,0.11356735567339715,0.050727434020750195,-0.8667027428233492,0.041115678,0.165896862745285,0.11467202037864374,-0.01665705190826596,-0.05075453386195866,-4.157240994958265,-1.7404103863054083,1.6062535649812504,0.0960946685480851,-0.10114243329996037,-1.063014249829474,0.059264291232082655,-0.061101752365607,0.00947235382838052,238.21604326940428,-300.64651769353236,194.3792282993797,0.07751200801948117,-0.024476407994801223,0.15767492517796464
5478,1724557162351308250,-1.5388468503952026,-0.227207750082016,0.1659203916788101,-0.0153670664876699,0.0679483860731124,0.5037328600883484,-0.8610458970069885,0.0,0.0,0.0,0.9092754112071417,-0.9287744662395032,-0.41408468032355983,0.050277892,0.1659203916788101,-0.06440439985121296,-0.06675704226142634,-0.05069666241157396,-9.719157979567077,-4.078681329643242,2.014250964392276,0.09555758925613267,-0.10170682196457087,-1.0635377814392697,0.05244669080443032,-0.054493897177100514,0.0016557753939547837,54.25533500744328,-59.96912898615054,48.50651617652888,0.08751726533507243,-0.026382251816673395,0.15767492517796464
5480,1724557162366521214,-1.53831684589386,-0.2277637124061584,0.165922537446022,-0.0152275310829281,0.0687034055590629,0.5035242438316345,-0.861110508441925,0.0,0.0,0.0,0.911413543912424,-0.6554567323727092,0.3012611872673421,0.065490856,0.165922537446022,0.03593829408600895,-0.09370940947984062,0.030665781500533364,19.34461357016096,4.3924303137271,-22.567816704716336,0.0960706045439136,-0.10317051662393892,-1.063208099624474,0.10804313265265364,-0.1103012622856312,0.006446500845580516,-385.3323821156737,404.541639920649,-24.709647815371422,0.04862652894230556,-0.01478955728519042,0.15767492517796464
5482,1724557162370881262,-1.5377542972564695,-0.2283367961645126,0.1659585237503051,-0.0154252154752612,0.0689750164747238,0.5036986470222473,-0.8609832525253296,0.0,0.0,0.0,-1.2503385444103237,1.5914264491305188,0.10389039307769006,0.069850904,0.1659585237503051,0.13621248610452688,-0.06685558249356803,-0.10261468985560603,12.33795488825436,5.239312428551376,-21.013298934057254,0.09671356695217073,-0.10341759445902955,-1.0636839929057849,0.10858914225769922,-0.10939412073501842,0.0077429577169318975,-369.95039715993653,385.7152063757964,-34.825503568349845,0.17746245069292357,-0.05250733537631339,0.15767492517796464
5484,1724557162381504548,-1.5371296405792236,-0.2289282977581024,0.1660275608301162,-0.0153207713738083,0.0691055133938789,0.5040637254714966,-0.8607609868049622,0.0,0.0,0.0,-1.9227339751134966,2.3339614173644074,0.004220466748530383,0.08047419,0.1660275608301162,-0.008650109952629409,-0.03500352150156223,-0.07851890584040593,-6.618674404207943,-1.4105831865606153,2.1112167701108193,0.09671169914398582,-0.10370716782259061,-1.064554827360001,0.059701620270303124,-0.056681230835469165,0.0038391834640769673,74.03855356695551,-73.5918491092582,5.235286398439471,0.07746600108000447,-0.020713154596528005,0.15767492517796464
5486,1724557162391597198,-1.5365184545516968,-0.2295099645853042,0.1660408079624176,-0.0150730116292834,0.0694777145981788,0.5043286085128784,-0.8605802059173584,0.0,0.0,0.0,0.1413317515824155,0.21537979665777218,0.19721855161471588,0.09056684,0.1660408079624176,-0.00816118114463602,-0.09151494291741467,-0.05871641281277239,-5.2842045511115,4.4587933700809135,-11.325158456672016,0.09670029667795,-0.1045692585079467,-1.065237516973521,0.06598557515796699,-0.058324504766073204,0.007445772316707178,87.28936567808279,-105.97965071325638,-31.669250444957456,0.07945226343766507,-0.020915555878345884,0.15767492517796464
5488,1724557162401139928,-1.5358397960662842,-0.2300727814435959,0.1661671996116638,-0.0148304458707571,0.0690286830067634,0.5055375695228577,-0.8599109649658203,0.0,0.0,0.0,-0.08336062353527574,0.1418145272893132,-0.5632762574848013,0.10010957,0.1661671996116638,-0.10670219936312778,0.04178570131232116,-0.28667700262298285,-4.2313971288153285,7.162154667586265,-7.2648446755940785,0.09596293080670333,-0.10390923368569537,-1.0679368307171873,0.06299164919276024,-0.05285679252288311,0.007882963447184643,-2.473532367113295,-17.27090011728161,-50.17976712960956,0.08686175247994266,-0.018839088103734216,0.15767492517796464
5490,1724557162413460506,-1.5351929664611816,-0.2306266278028488,0.1661790311336517,-0.0146178919821977,0.0687104910612106,0.5061537027359009,-0.8595775365829468,0.0,0.0,0.0,0.22136349110738873,-0.223073920495795,-0.71204160134966,0.112430148,0.1661790311336517,-0.06188368352263653,0.02175370576245064,-0.11175236965232194,10.06971642006808,-5.248534996729315,17.660257777667017,0.09534046898952606,-0.10351093486794732,-1.0692889916962494,0.06562923648814944,-0.057967989116836094,-0.008745753013137403,5.258137539580968,-13.561465994059994,57.148553612061846,0.06440977963929752,-0.014049320027059095,0.15767492517796464
5492,1724557162421805851,-1.5345710515975952,-0.2311839610338211,0.1660511791706085,-0.0147221116349101,0.0689899548888206,0.5059415102005005,-0.859678328037262,0.0,0.0,0.0,0.1551588497041494,-0.24549622645872837,0.156181606073735,0.120775493,0.1660511791706085,0.058509988067020006,-0.04252488722758109,0.05520109550782943,8.847837552297868,-0.0014083941339007033,8.538075896678546,0.09578455661254026,-0.1039081635579129,-1.0688620485409845,0.0675177636682136,-0.05874555917103663,-0.01108364984950061,-12.945147952461276,-20.603067004726476,72.04166466031018,0.09230236747038972,-0.020252642240354262,0.15767492517796464
5494,1724557162433263331,-1.5339076519012451,-0.2317305952310562,0.1659908294677734,-0.015315962024033,0.0688096210360527,0.5060409903526306,-0.8596237897872925,0.0,0.0,0.0,-0.07200003324513116,-0.7633816452833555,0.47830762348588945,0.132232973,0.1659908294677734,0.07213134385788424,0.07859590737785166,-0.027360065577712256,-34.4721524361473,-11.367445801864056,-5.5436913251742,0.09663440264009754,-0.10298169281346191,-1.0690886895730043,0.06817647537761218,-0.06395438291709254,-0.002430721109805134,-31.467244132057818,12.995044730700766,-2.9442988261416154,0.06876551697875519,-0.013004242381509502,0.15767492517796464
5496,1724557162441161047,-1.533313274383545,-0.2323241233825683,0.1659870743751526,-0.0137334922328591,0.0684613138437271,0.5063661336898804,-0.8594869375228882,0.0,0.0,0.0,-0.383892340444437,-0.34393623298007103,0.28596969036242803,0.140130689,0.1659870743751526,-0.3942566082138794,-0.13061448831761327,-0.062093728440113724,-28.530007030237805,-17.349887144301718,-1.247172885841069,0.09358155342131454,-0.10396203011102764,-1.0696781005331117,0.06690289257267779,-0.07166422500237069,-0.00016068482162889808,3.1761953844450153,53.309361929087906,1.0041317492233475,0.10146634366576998,-0.0292506598021851,0.15767492517796464
5498,1724557162451668357,-1.5327271223068235,-0.2330283671617508,0.1659897863864898,-0.0120449988171458,0.0685837864875793,0.5066155791282654,-0.8593555092811584,0.0,0.0,0.0,0.2459395510682838,0.21899271779437735,0.6510008203918921,0.150637999,0.1659897863864898,-0.26733663125118745,-0.18514406206079376,-0.031153064253295625,20.76753360963952,1.7520730279576293,1.5307228504186077,0.09082574963173638,-0.10586899823434692,-1.0701859856397784,0.05975699494031517,-0.06643938066921962,0.0028236809124351225,46.87568857195645,26.560617086440104,14.067016093751976,0.08512248715068094,-0.031657711673374736,0.15767492517796464
5500,1724557162461958528,-1.5320721864700315,-0.2337061464786529,0.1660446971654892,-0.011952188797295,0.0690999403595924,0.5067406296730042,-0.8592416644096375,0.0,0.0,0.0,0.5966197923351211,0.22006821957664524,0.5874135404495573,0.16092817,0.1660446971654892,0.033921615568140995,-0.09715928365649906,-0.029650843453047256,15.15938358657161,9.409879008576175,-10.433475182964525,0.09121693953926466,-0.10683690181663609,-1.070582871139452,0.07161981758481772,-0.06699013226622164,0.01322077067786509,-25.148607395437285,23.462143942985897,-16.34708646501718,0.0883879355665783,-0.02759612364385756,0.15767492517796464
5502,1724557162471311834,-1.5313345193862915,-0.2343422770500183,0.1662353873252868,-0.0122418068349361,0.0692271366715431,0.5075951814651489,-0.8587228059768677,0.0,0.0,0.0,-0.1421416439751897,0.6380972419340014,0.3480713997540934,0.170281476,0.1662353873252868,0.055693556907454145,-0.0018384932866771567,-0.21718213173671544,2.939525374967214,3.6093122361114918,-5.254006966354867,0.09195479883145252,-0.10666824330798759,-1.0726189129777213,0.07247142788857275,-0.06260577374638565,0.015118991210773203,-25.011844098739736,-15.294938215366562,-63.71203078277436,0.0990463233152828,-0.0243816079117504,0.15767492517796464
5504,1724557162482226333,-1.5306249856948853,-0.2349567413330078,0.1663333028554916,-0.0125940088182687,0.0697029456496238,0.5079654455184937,-0.8584602475166321,0.0,0.0,0.0,0.27227077679860434,-0.29286463298416177,-0.8328584096456029,0.181195975,0.1663333028554916,0.09556903888987307,-0.046272552236124746,-0.08608453202391174,-9.829247005093334,4.822144783581427,-2.8634260608663613,0.09310326569159486,-0.10708431290403043,-1.0736067783867853,0.06795004105289593,-0.05348440379942865,0.0207663672088092,16.14793580450091,-74.26164625345828,-139.16979286239717,0.08098579263855088,-0.01936046794364518,0.15767492517796464
5506,1724557162492354433,-1.5299091339111328,-0.2354719936847686,0.1666544824838638,-0.0123373894020915,0.0689759030938148,0.509113609790802,-0.8578424453735352,0.0,0.0,0.0,0.230736596084836,-0.9412902252097766,-2.5334656500410246,0.191324075,0.1666544824838638,-0.13069773985899039,0.08614857992614476,-0.25488389281242646,-3.6138006782302967,-9.135305653072884,17.46864291367799,0.09204581029668987,-0.10597691066734402,-1.0761109419538621,0.07715984519505525,-0.06705733076378628,-0.000359307459838476,-37.31254020749793,44.064295713555744,21.757385650590642,0.0812452553226824,-0.015134223819935974,0.15767492517796464
5508,1724557162501094343,-1.5291858911514282,-0.2361801266670227,0.1664094626903534,-0.0118530578911304,0.0695417076349258,0.5085464119911194,-0.8581398725509644,0.0,0.0,0.0,-0.3458536062667692,0.2590167495828193,-0.9128400833569532,0.200063985,0.1664094626903534,-0.021045486695869697,-0.16120025646498307,0.15523691336767195,-16.542201796966403,-15.90286846614335,26.933816287982236,0.09173094966998588,-0.10750431893895694,-1.074882036420861,0.07405850362800948,-0.07227610963923503,-0.02587749880840562,8.408018399506119,94.05192570130475,212.84409186049965,0.10699190975134637,-0.02775094240130695,0.15767492517796464
5510,1724557162511638780,-1.5285155773162842,-0.2368309646844864,0.1661640405654907,-0.0087676858529448,0.0688110217452049,0.5079250931739807,-0.8586036562919617,0.0,0.0,0.0,0.6890341596176746,0.7000971663388773,1.6802538247589507,0.210608422,0.1661640405654907,-0.565522490984105,-0.17116273579451893,0.18491934392518858,-2.893375358085731,5.733677986241938,-3.696437270563453,0.08557367658774236,-0.1094746736853396,-1.073089011249902,0.07052609753014849,-0.058653536758210834,-0.009972124447770625,54.84052630661009,-2.7236882988668683,81.92999184887273,0.08153502535276334,-0.020636275091231854,0.15767492517796464
5512,1724557162521768908,-1.5277334451675415,-0.2373952567577362,0.1661924868822097,-0.0080907959491014,0.068713940680027,0.5076032876968384,-0.8588083386421204,0.0,0.0,0.0,0.8231286441097505,0.23889889116379948,0.9142428116994623,0.22073855,0.1661924868822097,-0.12046064616033318,-0.04808415431330024,0.08410416347657274,31.119337228070744,23.63691192275985,-17.6519742705877,0.08426439637309732,-0.11003227551630636,-1.072276484654784,0.0874721206536293,-0.05732114415046219,0.008721425744742106,-25.488177851302535,-3.74988262544138,-42.872436013563295,0.08562927872673971,-0.012167215533758111,0.15767492517796464
5514,1724557162531225488,-1.52681565284729,-0.2379515916109085,0.1663271635770797,-0.0090506924316287,0.067729577422142,0.5081847906112671,-0.8585331439971924,0.0,0.0,0.0,0.24023718381986425,0.5722419597428114,0.7978801537829734,0.23019513,0.1663271635770797,0.060692187744063285,0.27684669395755007,-0.15079697112419038,4.322418071487405,10.271424432792447,-7.20586187665957,0.08496923632601526,-0.1073031210736603,-1.0734834584096178,0.08775505954726981,-0.05411412471204535,0.009147464200003341,-25.120382458048987,3.98199750629613,-31.5287410821628,0.09896653947013362,-0.007015303738246689,0.15767492517796464
5516,1724557162542255168,-1.525967359542847,-0.2384877800941467,0.1663625240325927,-0.0088864313438534,0.067118339240551,0.5082276463508606,-0.858557403087616,0.0,0.0,0.0,0.432956237065496,0.21391787179218547,0.2028243272026684,0.24122481,0.1663625240325927,-0.08246253710868184,0.0802468312953464,-0.0034219971542841653,0.6136000417367096,-0.71414604211013,-2.503756460772313,0.08405570742742735,-0.1064179803508469,-1.0734460034153324,0.0931104195185668,-0.044803631277186895,0.027632557454303708,-24.013738906561162,-61.3689898528969,-136.01656608159203,0.07930866986305843,-0.0062784101864144706,0.15767492517796464
5518,1724557162551319319,-1.5250027179718018,-0.2388655096292495,0.166794940829277,-0.0094885556027293,0.0663855820894241,0.5087732672691345,-0.8582847118377686,0.0,0.0,0.0,-0.09373620465854815,-0.5574766395661126,-1.6413517940153595,0.250288961,0.166794940829277,0.024349303084856437,0.20122768586256665,-0.1442962031725652,16.11140063372818,-9.032998426935219,8.318544736333502,0.084398117723934,-0.10449045196767574,-1.0746022389508736,0.09664310357566563,-0.04755903245820825,0.018497908812829422,-23.683101846926228,-30.547030267915314,-56.2215425422339,0.09181322431332739,0.008150821660853057,0.15767492517796464
5520,1724557162562596061,-1.5240501165390017,-0.2394843995571136,0.1665937602519989,-0.0100573310628533,0.0682043805718422,0.5073077082633972,-0.8590028882026672,0.0,0.0,0.0,0.12214619679842009,-0.13654574173641354,-0.20970020037944015,0.261565703,0.1665937602519989,0.2667445720773386,-0.21461634717575243,0.2842585394074906,-27.02148269273189,-22.389062816389842,14.535032894188756,0.08708888848757644,-0.10717626335614364,-1.0715990465996663,0.08880313316009847,-0.05740184243085622,-0.00889987890699473,39.21529720915329,67.43702656010973,140.65867413240318,0.08620755166837248,-0.005277160603091655,0.15767492517796464
5522,1724557162572089288,-1.5231724977493286,-0.2400494664907455,0.1665807217359542,-0.0076922657899558,0.0685759261250495,0.506486177444458,-0.8594823479652405,0.0,0.0,0.0,0.6548311954045634,0.7442794831355615,1.2351123340085888,0.27105893,0.1665807217359542,-0.3775112639844846,-0.3113821850570038,0.2346884885730193,-34.65876614837345,4.756978275030779,-9.26205196736255,0.08329017952833187,-0.11031112831822182,-1.0696189284795912,0.09649502311596336,-0.05281377964068312,0.006850232621893326,23.851317071680683,42.157638653990205,36.82018477807018,0.09588125744034436,-0.007440469444686458,0.15767492517796464
5524,1724557162581774125,-1.522197961807251,-0.2404946684837341,0.1667283177375793,-0.0057661994360387,0.0681246668100357,0.5061801075935364,-0.8597135543823242,0.0,0.0,0.0,0.5670805346171237,0.6523590919323237,0.45177989210712405,0.280743767,0.1667283177375793,-0.38508982968442323,-0.11759970863102101,0.10506631467473133,28.978115571441506,20.540204809638052,-6.5785453910278395,0.07945799269942976,-0.11152899717257819,-1.0686915653476825,0.10130136695578074,-0.04302698042848441,0.014623068319836285,-44.63380737959435,-14.553974627923907,-71.080532367035,0.08986794711224695,0.0062804283392106815,0.15767492517796464
5526,1724557162592323701,-1.5211215019226074,-0.2409147769212722,0.1668754965066909,-0.0071970433928072,0.0683521702885627,0.5055655241012573,-0.8600463271141052,0.0,0.0,0.0,-0.31257736820245263,0.4406414294965473,-0.18545166820156944,0.291293343,0.1668754965066909,0.2626120975437775,0.10519679014407317,0.11387088133335378,15.633538799375106,9.015670322725818,1.1697714785996691,0.08208497875339466,-0.11051976742240992,-1.0673967528630461,0.10809748816730291,-0.04026077613369772,0.015357950811857535,247.83581805279346,-100.22201341983151,-45.61897251893792,0.08513172037852532,0.012590678003221292,0.15767492517796464
5528,1724557162602169388,-1.5200015306472778,-0.2413152009248733,0.1670396327972412,-0.0073429676704108,0.0679964870214462,0.5050198435783386,-0.860393762588501,0.0,0.0,0.0,5.171029979934027,-1.282621729663243,-0.4987500607433329,0.30113903,0.1670396327972412,-0.003965516783903922,0.08274762878354573,0.12846799176911372,-21.883990436734045,-4.2570170046635285,0.6841004333265941,0.08189910740664516,-0.10981137896121348,-1.0660612468520505,0.09622827538589007,-0.03428279441652471,0.011187891949121731,168.27577112033742,-61.26715591681402,-14.494240706548538,0.09188770191555329,0.017299426558866782,0.15767492517796464
5530,1724557162619213647,-1.51887845993042,-0.2417110651731491,0.1670685410499572,-0.0054273763671517,0.0673935040831565,0.5042966604232788,-0.8608796000480652,0.0,0.0,0.0,-3.4292087565810476,1.0297283760333187,-0.23455406359803016,0.318183289,0.1670685410499572,-0.22377913089796153,-0.048140938275933694,0.11656776966659944,186.26325564371774,142.7517646833611,237.7127372562892,0.07787288828817603,-0.11078786522376732,-1.0641347515456256,0.37251120474149957,-0.1119042395094283,0.00046796898391221475,-2302.944506295129,678.7796690289421,124.06588907649243,0.05214934332617903,0.011423097655322664,0.15767492517796464
5532,1724557162622008180,-1.517696976661682,-0.2420644164085388,0.1670692861080169,-0.0061060013249516,0.0671687126159668,0.5031856894493103,-0.8615424036979675,0.0,0.0,0.0,-10.688844604622062,3.1754461704996753,0.16189509303041064,0.320977822,0.1670692861080169,0.38799165231748034,0.4197087716349014,0.8901000440045753,154.5374621827582,118.55846675002122,199.8836483843748,0.07867234391110844,-0.1098130544675256,-1.0615474506795244,0.3539299085658598,-0.10646820118742983,-6.7957093197179574e-06,-2041.154238138719,616.5951733487375,144.65608069502758,0.314638362225367,0.09531519600747027,0.15767492517796464
5534,1724557162631380420,-1.5165441036224363,-0.2424343824386596,0.1670606285333633,-0.0052297646179795,0.0667565166950225,0.5018481016159058,-0.8623600006103516,0.0,0.0,0.0,-12.322341313010611,4.200745730098424,1.6053462315421994,0.330350062,0.1670606285333633,-0.1872496569553094,-0.004844362045160877,0.3457296283306477,-29.005865416556958,-20.767759274955743,-46.99385448795611,0.07656111154368786,-0.11010956669723201,-1.0583008558743594,0.12677449436505128,-0.03803883424980192,0.011939342804556219,468.1059759170431,-101.65686889845057,43.67878323110918,0.09404604275029571,0.025924367590938625,0.15767492517796464
5536,1724557162641344501,-1.515241026878357,-0.2427981942892074,0.1673158556222915,-0.0047787749208509,0.0662163496017456,0.5019127130508423,-0.8623665571212769,0.0,0.0,0.0,-0.8529947187011269,0.952067179162748,0.871757271142858,0.340314143,0.1673158556222915,-0.1333479382898142,0.04809072884299809,-0.005047407787386014,14.761765844909597,5.5398967080563875,-19.7075074456784,0.07523393201744055,-0.10962793310818217,-1.0583145973206955,0.13020968043839787,-0.02902716092043356,0.03143851726496116,1296.6492061233319,-378.04235611749976,-31.78369826246331,0.09817370253816576,0.0291080810829531,0.15767492517796464
5538,1724557162651402705,-1.5139371156692505,-0.2430141568183899,0.1676912009716034,-0.0055393576622009,0.0660328641533851,0.5020725727081299,-0.8622831106185913,0.0,0.0,0.0,13.6670729299902,-3.3783617351291078,0.9768773124200094,0.350372347,0.1676912009716034,0.11008344829195985,0.10612002013066284,-0.045928742585943136,18.67745180076819,3.964411495060779,-2.6095321629141006,0.07638277895697237,-0.10852865268884865,-1.0586968059791386,0.10946905411503849,-0.018967261320489204,0.029188667937350865,-2891.8863075363934,717.0391965237148,-383.3697382490582,0.08579812405330689,0.04011673942632233,0.15767492517796464
5540,1724557162689116293,-1.5126605033874512,-0.2433753907680511,0.1676425486803054,-0.0060068499296903,0.0663472563028335,0.5010324120521545,-0.8628606796264648,0.0,0.0,0.0,-708.471221243819,185.9406932135546,-69.17096340742125,0.388085935,0.1676425486803054,0.03322111849438431,0.00039881448643121296,0.06139782832898958,-412.54279538208726,8255.49810241882,13823.715725904627,0.07738380472466695,-0.10869150868821117,-1.056373281452849,2.8491353095141676,-0.7655384506315386,0.2357995525841261,-54390.6809400511,15101.128465473128,-3735.0358489936334,0.02470665557487353,0.008438374805012848,0.15767492517796464
5542,1724557162689573121,-1.5113433599472046,-0.243729293346405,0.1677515804767608,-0.0063148834742605,0.0655856058001518,0.4997569918632507,-0.8636559247970581,0.0,0.0,0.0,-733.5134262708624,192.8950969000626,-70.88760797499586,0.388542763,0.1677515804767608,-0.1575115497027585,3.817439618585968,6.452937368996764,-455.3570183299411,6809.052483568654,11536.67445743322,0.0769787969923471,-0.10718006825919156,-1.0532816186779168,2.5211634410561885,-0.6794570725788773,0.2037872400592775,-34683.48847489512,10160.041343818812,-2287.4613454063247,2.113133955932332,0.7215669883079653,0.15767492517796464
5544,1724557162692135516,-1.5100871324539185,-0.2441014945507049,0.1677723824977874,-0.00356962159276,0.0654598250985145,0.4991040229797363,-0.864058792591095,0.0,0.0,0.0,-533.004259150138,146.1570754404036,-55.61694387671026,0.391105158,0.1677723824977874,-1.8682054699162836,-0.9622145070064252,0.737225771144521,-470.52969381660347,-1425.0940591359076,-1748.7022159225655,0.07200654279304398,-0.10977941853977514,-1.0515714093313036,0.4176780721680373,-0.12104819169990488,0.010468633062695076,75945.60781149815,-18243.652673377634,6031.925070306483,0.36804525954618367,0.11564032521916608,0.15767492517796464
5546,1724557162700979478,-1.50860857963562,-0.2444331347942352,0.1679367125034332,-0.0032393634319305,0.0659201592206955,0.4991793036460876,-0.8639814853668213,0.0,0.0,0.0,68.29459049317666,-15.301345880768622,-0.06094022335781801,0.39994912,0.1679367125034332,-0.013627321580515706,-0.1284307108881786,-0.018174978193186316,-5331.396153761802,-2787.20003785856,1985.4846973791657,0.07191281789717792,-0.11090073556815341,-1.0518146944233857,4.491846382819858,-1.0191035353269626,0.12381944498486064,-86240.75010944097,19171.10183993783,-2299.435649308171,0.11683006636104294,0.04790639519589248,0.15767492517796464
5548,1724557162701289177,-1.507170557975769,-0.2447593957185745,0.1679762005805969,-0.0029232145752757,0.0659239888191223,0.4991145730018616,-0.8640197515487671,0.0,0.0,0.0,39.91327429339994,-8.958171177349982,-0.8661373308424688,0.400258819,0.1679762005805969,-1.7248490062308648,-1.02287362479138,0.619186711182682,-5355.431240449071,-2798.36178622947,1995.3120828372007,0.07135983563852488,-0.1112304381119368,-1.0516451060584582,4.508741781770543,-1.0229070334220431,0.12366091233158627,-90152.65269173466,20153.20763077162,-2551.470371469123,3.212672797342622,1.3663953605979018,0.15767492517796464
5550,1724557162711352564,-1.5057940483093262,-0.2450567483901977,0.1679637283086776,-0.003145172027871,0.0651545152068138,0.4982574880123138,-0.8645718693733215,0.0,0.0,0.0,-380.43653721817844,86.42075128978799,-10.694779766726528,0.410322206,0.1679637283086776,-0.027305194166097137,0.1618790673822381,0.19858657028144872,148.75520248798128,103.58106511815339,-37.1412036063107,0.0708510655969657,-0.10974748749215674,-1.0495230595811524,0.12279430238152145,-0.0264001612447472,-0.0008935728655596331,-31674.03219116067,8232.118561771716,2018.2107135185704,0.09304018412868673,0.04240481360721889,0.15767492517796464
5552,1724557162786496733,-1.5044164657592771,-0.2452743053436279,0.1680906116962433,-0.0021856643725186,0.0643335357308387,0.4977183640003204,-0.8649467825889587,0.0,0.0,0.0,2904.491246244357,6.046200832807244,1821.4151810477538,0.485466375,0.1680906116962433,-0.03206304142097748,0.0068624569591817525,0.0189728335769511,-3915.6458912731114,1132.6220840470817,9672.288905418693,0.06828135542113645,-0.10933216616631629,-1.0480562112027518,2.6181175429942414,-0.603611812916256,0.1393600770340413,-1580149.7988958787,-485927.52199078316,-1997502.5485800526,0.011775798307349494,0.006414441335945063,0.15767492517796464
5554,1724557162787050005,-1.5029573440551758,-0.2456107139587402,0.1681682765483856,-0.0016473871655762,0.0638791322708129,0.4964622855186462,-0.8657031655311584,0.0,0.0,0.0,2023.6235744415371,-264.7790252259631,708.0165346107158,0.486019647,0.1681682765483856,-2.2144309286324098,0.6381328350368499,5.409790571094553,10866.534971174797,12430.48057338822,-10988.40178441497,0.06672597948251882,-0.10918179350007935,-1.0450280200205024,4.23678778678368,-0.6002106980974986,1.1545102741695246,-2647169.4838664825,-771637.7870655151,-4242171.850448142,1.8537775024816283,0.7774200829166773,0.15767492517796464
5556,1724557162787356971,-1.5013843774795532,-0.2457936257123947,0.1686953902244568,-0.0026320628821849,0.0633090957999229,0.496623158454895,-0.8656503558158875,0.0,0.0,0.0,1031.3439778517686,-549.697102268125,-973.9417522900644,0.486326613,0.1686953902244568,3.6436989777139335,6.376590731758197,-1.4941429553180159,-5823.522944026393,-3571.9350013902827,-6720.134621734065,0.06787987984195817,-0.10719798722481788,-1.0453559457477444,4.704349768821885,-0.7276304960405469,1.179941958373206,-1190989.5120027664,374488.6400483013,-3346099.872892806,3.251787668658135,1.8506966862505854,0.15767492517796464
5558,1724557162787716408,-1.4998701810836792,-0.2461106181144714,0.1688933968544006,-0.0008294915314763,0.0631786584854126,0.496301531791687,-0.8658478260040283,0.0,0.0,0.0,1462.4997303066575,133.16913038773055,-1278.839498020289,0.48668605,0.1688933968544006,-8.932483761865186,-4.27856547406631,2.727934781869247,-1089.6491144440674,-7502.393193613803,18001.77356132107,0.06457416039107358,-0.10879736200020375,-1.0444740638235612,4.868053853963374,-0.9818632625879786,0.3850924342405051,185860.83359612292,1680187.9693268295,1753350.6833774718,2.92162352953321,1.2851746646463011,0.15767492517796464
5560,1724557162788003734,-1.4983209371566772,-0.246415689587593,0.1689659655094146,-0.0004670238413382,0.0632434114813804,0.4951530992984772,-0.8665007948875427,0.0,0.0,0.0,1283.080574862286,565.4848783996174,-177.5118642353604,0.486973376,0.1689659655094146,-1.4595968223757714,-1.3486645657248053,9.337067784519855,11912.801866846215,21690.04611065175,7883.911617477519,0.06386433041378678,-0.10935626724157926,-1.041806054166747,5.519570263420974,-0.7505577265894203,0.2318349694633639,-3510976.08695851,-441884.3608590723,2522797.3695717854,3.643576482812317,1.7660176188356855,0.15767492517796464
5562,1724557162788291096,-1.4966981410980225,-0.2465419322252273,0.1690266281366348,-0.0007236748933792,0.0620759949088096,0.4942672550678253,-0.8670904636383057,0.0,0.0,0.0,-555.4239384457596,-120.91666610444554,170.88753443200522,0.487260738,0.1690266281366348,-2.087354428603271,8.187271286888189,7.25763559581657,-9912.368897172433,808.9443894095724,-5641.322554898721,0.06302208940965624,-0.10714049031643547,-1.0395621922861906,5.605353979552092,-0.6569031369907066,0.28310412100057647,-4653044.531400029,-1874643.778065561,556913.8334471597,3.24363678226316,2.445068236026015,0.15767492517796464
5564,1724557162788573101,-1.4951289892196655,-0.2467873990535736,0.1691263914108276,0.000226176896831,0.0616537928581237,0.4935815632343292,-0.8675113916397095,0.0,0.0,0.0,-1384.7292360669662,-507.33094652054973,146.53397609407375,0.487542743,0.1691263914108276,-7.0213484874315695,-0.544440862775961,6.108155781092234,-16189.556004391374,-28827.24175279688,-3898.695300548175,0.060857927844929625,-0.10740036403087203,-1.0378426461095882,5.212394093191499,-0.8146609912716585,0.32921256988059255,-2730322.1541611687,-1264840.4853837446,-84088.89526626212,3.5941180381696993,2.027596398764074,0.15767492517796464
5566,1724557162792408588,-1.4934927225112915,-0.2470025718212127,0.1691083312034607,0.0015844083391129,0.06024631857872,0.4930134415626526,-0.8679318428039551,0.0,0.0,0.0,-879.9167735088105,139.57253066709586,-57.5871264808592,0.49137823,0.1691083312034607,-0.9583464376229657,0.3005594258552856,0.4090418885996173,1146.5134179470213,156.94632606846406,-1030.0482615680367,0.057006901067322376,-0.10634198266008654,-1.0361992651932876,0.35621054330391644,-0.04352121637831985,0.006082090163973319,122348.77098162836,111326.14150238206,-34587.36770020073,0.2636293651909695,0.16859214484582333,0.15767492517796464
5568,1724557162800938248,-1.4917898178100586,-0.2471351772546768,0.1693648993968963,-0.0014264796627685,0.0598528645932674,0.4918645918369293,-0.8686109781265259,0.0,0.0,0.0,-12.117784287831281,1.533847470264647,0.8181721471279755,0.49990789,0.1693648993968963,0.5837413127201272,0.4372963645762025,0.26992273460574,52.858365504309575,-27.67044340259846,-9.970498080049415,0.06172165726269406,-0.10275517095795714,-1.0336659625494908,0.1766670702591142,-0.019251788114802437,0.020603774018006504,56569.57544219101,-8974.538158652902,3749.596376384518,0.11798618400878838,0.08516288731940551,0.15767492517796464
5570,1724557162811410006,-1.4902352094650269,-0.2473844140768051,0.1694588363170623,0.0020257218275219,0.060431595891714,0.4908999502658844,-0.8691151738166809,0.0,0.0,0.0,-0.43502073222147963,0.23180099227725126,0.25857482727979075,0.510379648,0.1694588363170623,-0.5074497219745864,-0.4142865864971945,0.24701563246311137,-2.5959574883491214,-17.683606377380443,-11.146190781012457,0.056162541168580986,-0.10723831035088045,-1.0313262875276599,0.16459670944308868,-0.02004978474494834,0.017802607601852927,556.5087203719967,-58.36988595686722,-22.389530439554914,0.09708516143806908,0.05458215663929419,0.15767492517796464
5572,1724557162821229028,-1.488470435142517,-0.2475467473268509,0.1697149574756622,0.0003292195906396,0.0614096783101558,0.4905444383621216,-0.8692495822906494,0.0,0.0,0.0,-0.11860119669870706,0.2660403828728096,0.32460056394310444,0.52019867,0.1697149574756622,0.40255595169046005,-0.002006525097857072,0.055088631577846596,11.352516642597148,20.2174636849714,-8.625269083509181,0.060057221643177845,-0.10728938458153474,-1.0307842370142362,0.16693250279935512,-0.014937926094081178,0.025185090879204175,44.47978236577801,-6.188093970399659,-24.666211458414125,0.1087679061000301,0.07500012974017896,0.15767492517796464
5574,1724557162831621442,-1.486876368522644,-0.2476844489574432,0.1699668020009994,0.0021256702020764,0.0605977736413478,0.4902762472629547,-0.8694553971290588,0.0,0.0,0.0,0.4784432811488877,0.09531146954468572,-0.2770138999476385,0.530591084,0.1699668020009994,-0.3739847115326407,-0.03135755229864448,0.0855764742070744,-13.116725000631705,2.932978088879211,-1.8139010188583211,0.056076871337305614,-0.10766634551354874,-1.0299103932196223,0.16177886032352262,-0.014973184209040369,0.023858976163344536,50.705281673510385,21.982047046272825,-3.885766490960359,0.09241834891380636,0.06471834499101554,0.15767492517796464
5576,1724557162842198577,-1.4850748777389526,-0.2478613704442978,0.1702151298522949,0.0012788680614903,0.0607042722404003,0.4901582598686218,-0.869516134262085,0.0,0.0,0.0,0.9421517539407045,0.7413104772316894,0.2632464540533541,0.541168219,0.1702151298522949,0.15046594478436684,0.06164257649700163,0.01528240778106201,-10.543263685784115,11.453397358300485,-0.24154949274117588,0.05764698537498251,-0.10702458135045853,-1.0297107874267075,0.17732840665112803,-0.01290249802604393,0.01932054551469875,-36.48737298579402,23.79280204658203,9.394297636459417,0.10398714050925222,0.07051433328733861,0.15767492517796464
5578,1724557162851192839,-1.4834263324737549,-0.2479481697082519,0.1703571081161499,0.0024686651304364,0.0590893030166626,0.4900258481502533,-0.8696993589401245,0.0,0.0,0.0,-0.00039537750039286834,0.6701646285717608,0.028932107189141187,0.550162481,0.1703571081161499,-0.40422793447790245,0.1850082016922615,0.062091656343635455,-8.46764369658198,5.727212022293694,9.702633043366165,0.05394190409018433,-0.10539428820193932,-1.0290566001100832,0.18176440497589397,-0.002062518665129076,0.026983345771181888,-92.77666028746637,-57.02809344689145,-64.87194943816172,0.10386760563087798,0.0841715172740674,0.15767492517796464
5580,1724557162861177233,-1.48162841796875,-0.2478846609592437,0.1707506328821182,0.0017162340227514,0.0586664676666259,0.4890908896923065,-0.8702560067176819,0.0,0.0,0.0,-0.793516622210225,-0.44362639587603336,-1.0490419922273526,0.560146875,0.1707506328821182,0.10091925890717204,0.15364661179040337,0.20882344586838653,9.436980996482896,-0.31005836709662304,7.5808633795673686,0.05472203530000372,-0.10397572545361057,-1.0268796194248828,0.17628964601287578,-0.001301525453794028,0.018150105346689926,-26.909735863143343,-45.556506719835355,13.459269507258313,0.09135994891944335,0.0941403497264006,0.15767492517796464
5582,1724557162870998945,-1.479933500289917,-0.2479714751243591,0.1707234531641006,0.0022226111032068,0.0574139840900898,0.4882335662841797,-0.8708195090293884,0.0,0.0,0.0,-0.5503234133571411,-0.2534303820443249,0.2563223056517905,0.569968587,0.1707234531641006,-0.20403627491043522,0.17795355057129286,0.21453522606709308,-17.530314840889183,-7.520867043973086,-2.998101398197022,0.052490513874157596,-0.10234330792750282,-1.0246699954242606,0.16612705510887338,-0.010681269289070983,0.006258942703782466,60.9500056502536,42.185498595428804,70.22775660353862,0.09639084469188121,0.08191219210005808,0.15767492517796464
5584,1724557162881946591,-1.4781934022903442,-0.2481108903884887,0.1709021180868148,0.0034374722745269,0.0569205656647682,0.4876473844051361,-0.8711764216423035,0.0,0.0,0.0,0.558540321487893,0.4868739586203286,0.2603102039273544,0.580916233,0.1709021180868148,-0.23098663058693766,-0.026356111734445905,0.13803187118006505,-3.126533186944611,-5.050935834094544,-7.670016301925402,0.049808007106165404,-0.10270874349174383,-1.0231678464919969,0.16601307044778935,-0.004894713085890956,0.026966653916808525,5.395520568765528,2.8207698953090414,-118.7718403211496,0.09481034869199657,0.06993305104591822,0.15767492517796464
5586,1724557162891962178,-1.476465940475464,-0.248088076710701,0.1712697595357895,0.0045073707588016,0.0560557059943676,0.4874844253063202,-0.8713187575340271,0.0,0.0,0.0,-0.2660705986480938,-0.07864256256552157,-2.02088955607388,0.59093182,0.1712697595357895,-0.26839203522130034,0.04777629659329999,0.05496392931410653,7.4334835724038895,5.12211623092721,6.193746103474579,0.04706096661400204,-0.1022574397212098,-1.022591724581741,0.17682042046347135,-0.00040040612938874176,0.014627214740402295,23.815045799813664,-51.52352751811307,-74.777013031861,0.09123115589962481,0.08792979051864934,0.15767492517796464
5588,1724557162901554645,-1.4747298955917358,-0.24811652302742,0.1712072193622589,0.0047911293804645,0.0555119290947914,0.4864768087863922,-0.8719149827957153,0.0,0.0,0.0,0.9375779187553741,-0.5274943684110088,-1.3326513359435592,0.600524287,0.1712072193622589,-0.09448182940745002,0.07596695003381077,0.24747815076713087,3.0937783191434303,-5.2357017201438225,11.818331766859139,0.04590858727129923,-0.10163982266058591,-1.0201739050186824,0.16191019690158726,-0.005999882785232558,-0.012005588798941424,113.7726104527423,-18.695734946029873,128.48384745764554,0.09605588531508051,0.09228670983542511,0.15767492517796464
5590,1724557162914227488,-1.4729973077774048,-0.248243361711502,0.1709632277488708,0.0069706947542726,0.055260494351387,0.4851476848125458,-0.872656524181366,0.0,0.0,0.0,2.1834153702396044,-0.29402158323020955,1.2455023911222216,0.61319713,0.1709632277488708,-0.30701521678781285,-0.12724562274180856,0.25910876171017344,22.311338946940296,11.538286777872454,-8.801680795429283,0.04168759734746014,-0.10339461869921292,-1.0169471102481022,0.21551313754119406,-0.01174310147482771,-0.004721762281318931,-278.2301053060005,22.16798149167913,52.8236001740828,0.0780039810446104,0.06476835978182974,0.15767492517796464
5592,1724557162921299978,-1.4711620807647705,-0.2483332604169845,0.1709871888160705,0.0068777003325521,0.0550702176988124,0.4846590757369995,-0.8729407787322998,0.0,0.0,0.0,-1.270570787299576,-0.12245750564673064,1.0246119938135214,0.62026962,0.1709871888160705,0.005039849366418835,0.06319253698576557,0.15849602546781116,8.749570688458927,20.111783427645122,-15.503851907970262,0.04160532793460873,-0.10299475400216343,-1.0158024716601997,0.2228783782851096,-0.013194319333683424,0.006734487706902215,-318.7099020792812,23.87347571207185,-68.69626978246997,0.14710380348189317,0.12494125245133696,0.15767492517796464
5594,1724557162931839839,-1.4693880081176758,-0.2484799176454544,0.1711107343435287,0.0085495617240667,0.0531268306076526,0.4849115312099457,-0.8729062676429749,0.0,0.0,0.0,-1.9648648863189049,0.12312668348461842,-0.2878887844811138,0.630809481,0.1711107343435287,-0.4583469006331042,0.16812647222796978,-0.024984956626588565,-0.27263107793607677,4.38617378536877,4.275090224271354,0.03679425610117815,-0.10121376995137178,-1.0159972151020529,0.1731723758383623,-0.01318548233899719,0.008184535359470502,85.1588263498693,34.810774701718,-23.21651927212803,0.10116403256063383,0.07543056224098502,0.15767492517796464
5596,1724557162941786283,-1.467620015144348,-0.2486042231321334,0.1711589395999908,0.0084445243701338,0.0523022301495075,0.4839715957641601,-0.8734784722328186,0.0,0.0,0.0,0.29981506863665963,0.5774104399937008,0.43213704228837574,0.640755925,0.1711589395999908,-0.050941344774244994,0.15947329770380977,0.22106670814961504,3.256038474458464,-3.1048356431412696,13.778849213492352,0.03606024672818928,-0.09970869632034693,-1.0137305473621896,0.17945233152811113,-0.010812958661222893,0.0013274529957794101,15.488564550154663,31.044793912082934,92.06077672880971,0.1045476880163903,0.08252936667856345,0.15767492517796464
5598,1724557162951345426,-1.4658889770507812,-0.2486921101808548,0.1711392998695373,0.0097836097702384,0.0509886927902698,0.4830138981342315,-0.8740720748901367,0.0,0.0,0.0,-1.5015818672145826,0.7397840283603041,1.4928705464271006,0.650315068,0.1711392998695373,-0.3661990677111278,0.10926225282743889,0.25210302617930896,5.213447131606069,-5.410729244304992,-2.7042955037829293,0.03231636224806584,-0.09874722671228886,-1.0112742854186656,0.1792722729801568,-0.0021801397093312858,0.015761790773309414,2709.5356497341177,-89.10770202779064,432.9880172712262,0.10320092920466338,0.08804072391991476,0.15767492517796464
5600,1724557162961629358,-1.464065432548523,-0.2486369311809539,0.1714985072612762,0.0092020565643906,0.0510207004845142,0.4822752773761749,-0.8744843006134033,0.0,0.0,0.0,58.42544442235561,-1.350382122639942,9.50844437393288,0.660599,0.1714985072612762,0.1099723220644459,0.05186998955403755,0.1584516007132946,31.518844554807295,-3.3294799064927343,-8.765526541485677,0.03328463014319175,-0.0982675290993612,-1.0096201786005963,0.14742549078856904,0.003620923872476478,0.03092481837957184,-8633.410037201022,297.4348836927792,-1397.5770972293772,0.09281733304553363,0.09563517568455401,0.15767492517796464
5602,1724557162987892968,-1.4621986150741575,-0.2486588507890701,0.1720421314239502,0.0090562589466571,0.0493601933121681,0.4828859269618988,-0.8742441534996033,0.0,0.0,0.0,-1138.2430866409377,40.043636198841796,-173.21581176687596,0.68686261,0.1720421314239502,-0.05381510358193249,0.11542730019744248,-0.04888734697712009,-1855.6125663891144,20811.297600500588,5247.564624337276,0.03198617533210161,-0.09519571652028931,-1.0108101643209395,5.808385008091136,-0.16025494248856376,0.8195181281608939,-111290.27372756414,3133.879142092861,-15349.256522995769,0.04025631821200051,0.03527413607658931,0.15767492517796464
5604,1724557162988218490,-1.46028470993042,-0.2487116605043411,0.1723121255636215,0.0086163086816668,0.0483130514621734,0.4826620817184448,-0.8744306564331055,0.0,0.0,0.0,-1174.7357028949425,41.07006791320359,-178.24619101963458,0.687188132,0.1723121255636215,-0.6653194103498068,6.973919133773828,1.6805143426466482,-1765.5383977691579,19178.118978690094,4850.9761752084,0.03171119036605845,-0.0929441177730706,-1.010188313429542,5.432399780520683,-0.14703312089147147,0.7623125600144394,-98998.14719148501,2707.173995167192,-13476.442307435997,3.3264262083579537,2.912385224268458,0.15767492517796464
5606,1724557162991835175,-1.458603024482727,-0.2486327439546585,0.1723726391792297,0.012342544272542,0.0455646067857742,0.4818196296691894,-0.8749980330467224,0.0,0.0,0.0,-1006.1131680850569,32.93898090768812,-147.55162719842912,0.690804817,0.1723726391792297,-2.510207298396423,0.3456007498108683,0.6714570583166721,-297.23300895616404,-1302.8614352927632,-215.10345464635773,0.022404563079999485,-0.09176035845808118,-1.0077165180636052,0.39161675969856446,0.019698281713290022,0.016740353254325768,64054.20816194009,-2641.833341991693,10652.627868409209,0.23031814128291989,0.26444653083686187,0.15767492517796464
5608,1724557163001011232,-1.4567174911499023,-0.2485013902187347,0.1725264489650726,0.011907978914678,0.042017325758934,0.4811726808547973,-0.8755373358726501,0.0,0.0,0.0,-12.544029171493436,-0.4664488100362363,0.6170192257932537,0.699980874,0.1725264489650726,-0.2817705818479159,0.7257657984819346,0.18524455578473667,114.92515348857032,-4.999760422550751,-35.21234898217018,0.019655873733034367,-0.08513787897981089,-1.0058696854272864,0.18421795266502272,0.015532323690791827,0.026978908655649114,58521.84852829619,-1949.9839570234276,8593.844981875647,0.09898667798153549,0.12064260167335694,0.15767492517796464
5610,1724557163011587313,-1.455028414726257,-0.2483222782611847,0.1729363203048706,0.0145394233986735,0.0399280749261379,0.4811791181564331,-0.8755918145179749,0.0,0.0,0.0,-0.130725916103426,-0.48274160270998073,-0.5683535837385909,0.710556955,0.1729363203048706,-0.6257213924229222,0.10692119575691243,0.029504795370003226,8.594365207051446,-27.536147858904968,-3.528269784889357,0.01301016358260503,-0.08401231760070019,-1.0055380146455815,0.1741571299788376,0.010447413276098771,0.02742467835900264,593.2815966147157,27.703887944242556,-86.27348347231614,0.07424412061693696,0.09736551500966122,0.15767492517796464
5612,1724557163021547377,-1.453158259391785,-0.2482790797948837,0.1731031984090805,0.0149373970925807,0.0390134081244468,0.4807850420475006,-0.8758427500724792,0.0,0.0,0.0,0.33397487952751703,0.06750143958446253,-1.185574730087054,0.720517019,0.1731031984090805,-0.1544564201889759,0.12322568764842395,0.09939370178271158,6.9280087379815,-3.4758120855387533,0.6672893726423605,0.011387760866967125,-0.08279714388222999,-1.0045295892628727,0.18055183685768839,0.005621002435766798,0.016037371569502135,39.72190065517468,56.66872903240739,-4.642288209410232,0.09812630036079698,0.10314167899337119,0.15767492517796464
5614,1724557163032162606,-1.4513232707977295,-0.2482048869132995,0.1732653230428695,0.017372028902173,0.0375056229531765,0.480735719203949,-0.8758909106254578,0.0,0.0,0.0,0.6771784861935952,0.685161107502641,-0.5862817413994322,0.731132248,0.1732653230428695,-0.5378370134013444,0.028485547770632457,0.03464072205704595,-5.7331154017276305,0.7953839649135128,8.418905314071418,0.005647819109786009,-0.0824979251380647,-1.0041582316433058,0.18061182471529946,0.012583471649083577,0.002973910513667022,7.651505384169589,11.836951117167967,118.29533456248676,0.08785911507619826,0.09762418633109927,0.15767492517796464
5616,1724557163041926616,-1.4494901895523071,-0.2480317801237106,0.1731839030981063,0.0184996835887432,0.0362030155956745,0.4797466695308685,-0.8764646053314209,0.0,0.0,0.0,0.5302378802612786,0.3844724870929679,1.1241375003314742,0.740896258,0.1731839030981063,-0.3209442042780719,0.12355026994307963,0.24723806715509986,10.018843900797624,19.275006177883206,-2.186052407222362,0.0023155672289099324,-0.08130118234078341,-1.0017310992965358,0.19325482243802128,0.019536237323038108,0.003036408338003227,-57.673259671264965,-44.89530325453671,46.77922304287068,0.08526487602258763,0.11614219858845731,0.15767492517796464
5618,1724557163051182448,-1.44765305519104,-0.247835099697113,0.1733118146657943,0.0190058853477239,0.0338929593563079,0.4797664284706116,-0.8765352964401245,0.0,0.0,0.0,-0.37756393716477454,-0.15478307455914098,0.4305525042793884,0.75015209,0.1733118146657943,-0.335208608416474,0.38565062278406553,0.01678015597468117,-10.10845879852269,23.11008829580863,-19.40265538601384,-0.0007996653229590266,-0.07773177704243214,-1.0015725281133885,0.19145376761116495,0.0202203796483591,0.023248372416230012,-104.57694071870128,-43.536173739453275,-143.96577522636744,0.08988398570492537,0.12398590661108741,0.15767492517796464
5620,1724557163061350191,-1.4457849264144895,-0.2476409971714019,0.1736535131931305,0.0199915058910846,0.0300960578024387,0.4804397523403168,-0.8762832283973694,0.0,0.0,0.0,-1.5134552519104503,-0.4329769312063575,-1.8042945451546126,0.760319833,0.1736535131931305,-0.5336816258586585,0.5624659013314336,-0.11911332725662892,-14.301725660121718,-12.401147607537219,9.846233510543872,-0.0061336950660326964,-0.07201700561234269,-1.0028070684712203,0.18557102221312505,0.01609214543497295,0.008044337534636625,-22.264767217357335,2.492815365978452,-46.86762058782735,0.08494691014410617,0.11354948576712064,0.15767492517796464
5622,1724557163070853663,-1.444005012512207,-0.2475146949291229,0.1735029071569442,0.0222014486789703,0.0279064625501632,0.4797913730144501,-0.8766576647758484,0.0,0.0,0.0,-0.9304956638099595,-0.14411210226538884,-0.7136307207955326,0.769823305,0.1735029071569442,-0.6232469970417848,0.17999068353687464,0.18063754428054996,-2.597828144415722,-25.041896137658952,16.019982396035047,-0.012177952624897256,-0.07029082352306286,-1.00110181344408,0.16288372719145627,0.011737850094332813,-0.011847217292952905,119.07990177268593,25.26525433081401,127.8006290927492,0.08849401405500652,0.1124047800274375,0.15767492517796464
5624,1724557163085032072,-1.4422118663787842,-0.24738110601902,0.1734195500612259,0.0249233730137348,0.0252290088683366,0.4794191122055053,-0.876869261264801,0.0,0.0,0.0,1.9792051029376,0.1055841842154448,1.3741267581614482,0.784001714,0.1734195500612259,-0.5156754581255965,0.14654601354597982,0.07945462589442652,1.9426540383364284,-10.392225758054671,4.543681588796721,-0.019565264253771877,-0.06819541360378703,-1.000005736485597,0.18050584813920523,0.01633804704211883,0.007214235770176103,162.34655392060787,-29.7014621118509,87.09212030621732,0.05986213920732573,0.07622595781372354,0.15767492517796464
5626,1724557163093567300,-1.440393567085266,-0.2472061216831207,0.1735484004020691,0.0268847998231649,0.0240675006061792,0.4788093268871307,-0.8771770596504211,0.0,0.0,0.0,3.1445790202061676,-0.3910209589586518,1.8083853175275646,0.792536942,0.1735484004020691,-0.5280956722163485,0.016569664784628537,0.17824948284253278,10.971857959063906,3.54621959530556,-5.96447914005978,-0.024176229390698432,-0.06802074582241523,-0.9984842138735768,0.20118210698217354,0.016114672756639692,0.0190954600775326,3.3264179781571244,-40.086726022910646,-78.88156544776845,0.09893927751479113,0.13210689755081562,0.15767492517796464
5628,1724557163104265883,-1.438400149345398,-0.2470925450325012,0.1738063246011734,0.0272299256175756,0.0220225490629673,0.4794503450393677,-0.8768699765205383,0.0,0.0,0.0,1.3937784329507288,-0.5772163193994563,-0.7756510252987492,0.803235525,0.1738063246011734,-0.24406257814073096,0.30627944911589594,-0.12077043408942603,8.767877383834715,31.236093490714175,-18.190855225914728,-0.02669592596673347,-0.0647779123953758,-0.9998622845192802,0.24450843842991787,0.0070385657247058475,0.044026164676726154,-423.406396127755,40.822952842182524,-289.3684165938161,0.09312946323917344,0.10911985921611507,0.15767492517796464
5630,1724557163111408671,-1.4363762140274048,-0.2470593303442001,0.1742157787084579,0.0271071046590805,0.019866531714797,0.4801627993583679,-0.8765353560447693,0.0,0.0,0.0,-2.8692604649315667,-0.007955070420077759,-3.0706768160300104,0.810378313,0.1742157787084579,-0.2662285374730133,0.5492153245101786,-0.20416687240386838,-34.99670454330745,0.1692253652275797,5.668335998249251,-0.028499009452898745,-0.06089671275886959,-1.0014313689145617,0.2417982143562014,0.00420859868975576,0.023674280071777964,-383.54208529160115,77.66413656743983,-107.91697010416043,0.15205149116471373,0.15588711886057846,0.15767492517796464
5632,1724557163121556835,-1.4345215559005735,-0.2470229864120483,0.1739708632230758,0.0317724980413913,0.0169375538825988,0.4798131585121155,-0.8766316175460815,0.0,0.0,0.0,-3.686290275587395,0.7508783594161896,-1.089167108180635,0.820526477,0.1739708632230758,-1.081222755774934,0.06299443162152334,0.10342265848904106,-2.6163193379409035,-2.8521708744325487,10.812454805557547,-0.0395337757540393,-0.060222110473281944,-1.000402292866635,0.17678200608627748,0.009725601483440371,-0.010679402371976288,210.4489113697942,2.814925794587314,129.59636313132248,0.09404238019565565,0.10150125298614192,0.15767492517796464
5634,1724557163134273203,-1.4323687553405762,-0.2468014061450958,0.1740494519472122,0.0288042072206735,0.0131772588938474,0.4803336262702942,-0.8765138387680054,0.0,0.0,0.0,3.6261448176592133,-0.3599815040133376,-0.48745725334590606,0.833242845,0.1740494519472122,0.12351026508966965,0.7447346835099694,-0.0697639327199705,-18.265355433266926,-0.27222266469619427,-7.074875813342026,-0.03789353889600374,-0.050793195990545645,-1.0016574060098116,0.17325412340440494,0.02257620239108249,0.01205669043387303,299.59714220230745,-71.21612112838756,-60.13946377025825,0.07677051178544508,0.10582969120221979,0.15767492517796464
5636,1724557163145309542,-1.4304187297821045,-0.2465029060840606,0.1742388010025024,0.0338122136890888,0.0090233832597732,0.4808554649353027,-0.8761012554168701,0.0,0.0,0.0,4.294323801988739,-0.9913480327335337,-2.1804306859605216,0.844279184,0.1742388010025024,-1.1604561367909976,0.2256201085953795,-0.08516149718933858,-17.31210171734395,-47.4591557871337,36.73516333520567,-0.05064876919806504,-0.048347202948718374,-1.0027077204955355,0.25066295743988576,0.00547595000338319,-0.015117409693274908,-450.47972622446713,115.71331912693148,139.42658096192096,0.07300976000425795,0.11804449396820706,0.15767492517796464
5638,1724557163151931301,-1.4284650087356567,-0.2465523481369018,0.1740104705095291,0.0365224741399288,0.0078470343723893,0.4799713790416717,-0.8764885067939758,0.0,0.0,0.0,-0.7189544962326693,0.4618989267510588,-0.09377338992028783,0.850900943,0.1740104705095291,-0.8816524740600981,-0.09032083339203882,0.3095828105572432,31.851588133423355,-2.1850056456454183,22.327190159507147,-0.056587976480752616,-0.04883456335295,-1.000626189957687,0.26829360014710346,0.001128836305268166,-0.028436065178667924,-566.5410792273341,171.98095080164725,276.39043251514374,0.16366319910635616,0.15204735683864498,0.15767492517796464
5640,1724557163161184740,-1.4263283014297483,-0.24643075466156,0.173825517296791,0.0383792631328105,0.0043043093755841,0.479936420917511,-0.8764528632164001,0.0,0.0,0.0,-3.4973938484048865,1.439291603995875,1.962958805486494,0.860154382,0.173825517296791,-0.7194921343562588,0.4781780515037923,0.03403963998532746,13.226832429480801,31.331856642251545,-24.5761286130211,-0.06324808812043183,-0.04439884641292448,-1.0005766755638057,0.21791471598655932,0.019864895877555355,-0.0045075978533173355,-91.33755085630463,-5.006308369320065,56.141919112417874,0.11258849613330511,0.13499963153824945,0.15767492517796464
5642,1724557163171837239,-1.4241663217544556,-0.2461366802453994,0.1739673316478729,0.0401903502643108,0.0006571210105903,0.4808025956153869,-0.8759070038795471,0.0,0.0,0.0,-1.9083303496838582,0.02928286885054643,0.5238066481300299,0.870806881,0.1739673316478729,-0.6312939330462229,0.4427647650591177,-0.1639741415000305,-13.485550254669455,5.711092881253851,-7.647575598181106,-0.06988632614174652,-0.039808916938885434,-1.0026349558787324,0.204534324424003,0.028017209876843197,0.008763637069122865,187.42718659861575,-89.30117480334115,-103.54418265346072,0.08639951371116118,0.13287288963223798,0.15767492517796464
5644,1724557163182564794,-1.421955108642578,-0.2458316832780838,0.1740121990442276,0.0433877930045127,-0.0047494834288954,0.4815267324447632,-0.8753439784049988,0.0,0.0,0.0,0.5155721892426204,-0.4634852964660476,-0.24606782285955173,0.881534436,0.1740121990442276,-1.0110926441620671,0.6016426415663637,-0.1278177920709773,-9.41233000368511,3.4528416919105958,2.9809089686007515,-0.08066508958689478,-0.03347615312080984,-1.0044890590947675,0.1770162545326066,0.02038009157535914,0.006582649915561234,199.16509002269947,-22.277615623310353,-86.26054132678371,0.08668860984148163,0.13469329022315854,0.15767492517796464
5646,1724557163201599574,-1.4195687770843506,-0.2457156777381897,0.1742185652256012,0.0446932278573513,-0.0085103707388043,0.4823274612426758,-0.8748087286949158,0.0,0.0,0.0,3.4019401621860546,-0.08851388681555916,-2.377568560778505,0.900569216,0.1742185652256012,-0.3123852832064033,0.2837702664329824,-0.0842325171724599,-44.15011526988893,18.745965309904673,-1.0798207726060207,-0.08654806610173332,-0.02822739742389655,-1.0065387472462772,0.2908822460709217,0.01994849132042198,0.0004545579344163997,-361.6444916925282,-1.0937897269748351,103.42939418707007,0.06217644787799516,0.07278529302448823,0.15767492517796464
5648,1724557163213611055,-1.4148203134536743,-0.2453710585832595,0.174145296216011,0.0500921048223972,-0.0167787708342075,0.4830828607082367,-0.8739795684814453,0.0,0.0,0.0,-4.8324013639853725,-0.2592546778827216,0.4974792631268281,0.912580697,0.174145296216011,-1.4555557699453754,0.7775993080194799,-0.12274285609191742,-37.92441557521121,-5.681840179588562,51.39418204916091,-0.10397614386753433,-0.01906982460170663,-1.0088955274051077,0.31218883544921994,0.01838627188097064,-0.04368435299206652,-510.6316815477936,2.6113710138169903,365.0795411251191,0.1861989390746172,0.23429470037406966,0.15767492517796464
5650,1724557163221645032,-1.4127589464187622,-0.2452787160873413,0.1735923737287521,0.0542190372943878,-0.0214015766978263,0.481022447347641,-0.8747683763504028,0.0,0.0,0.0,-7.994922876962394,-0.14785802581062346,4.1060943643384045,0.920614674,0.1735923737287521,-1.4526083655113349,0.48049474397007463,0.5835565532164688,31.3208853985764,-13.115856710467718,4.2774491906415975,-0.11571806688555569,-0.014718834478089407,-1.0046580481474017,0.23786613038158322,0.015609189183750871,-0.017267887095207435,275.550129391956,48.289739728250666,218.34010339895661,0.12689668560014347,0.14108874876234176,0.15767492517796464
5652,1724557163231605448,-1.4106208086013794,-0.2450724244117736,0.1740570217370987,0.0560214631259441,-0.0259163174778223,0.4828803241252899,-0.8735081553459167,0.0,0.0,0.0,3.013399960592734,0.7582231704823473,3.430392690230545,0.93057509,0.1740570217370987,-0.7583946804201391,0.6445610673051508,-0.4066489391549363,53.35491623404433,1.0567839450904053,-58.62891612361732,-0.1232157001622113,-0.008827209832680111,-1.0094450104395087,0.1737449940033038,0.016579166051859495,0.03373184353884806,438.05211379753456,9.246750529000003,-92.3112744481839,0.09714722221000432,0.1363152910430265,0.15767492517796464
5654,1724557163250509271,-1.408804416656494,-0.244907259941101,0.1742312312126159,0.0582999587059021,-0.0283432863652706,0.4832810461521148,-0.8730619549751282,0.0,0.0,0.0,-12.641574550215694,-1.9989370214361735,0.8073426513590825,0.949478913,0.1742312312126159,-0.33610466542956285,0.11148531559001063,-0.05169147054704413,-345.6215915630549,-153.20308763543565,431.400694894798,-0.1295596923242133,-0.006859693856540413,-1.010680081840941,0.5697876032801901,0.05462174986588764,0.03795189719828329,-3996.9360592655175,-403.68038625849795,-190.0444600931234,0.04370917876360515,0.05936727001579487,0.15767492517796464
5656,1724557163252950647,-1.407263994216919,-0.2447594404220581,0.1743329465389251,0.0598199144005775,-0.028866458684206,0.4820076525211334,-0.8736458420753479,0.0,0.0,0.0,-23.398710515200897,-3.065765122150762,0.3272020950894664,0.951920289,0.1743329465389251,-1.2959137161901109,-0.3019543126974849,1.1316187974483978,-271.2349421001898,-119.69128916486467,352.8282887653713,-0.13274350397250803,-0.00722925278783473,-1.0078447553399326,0.5283333218957296,0.04847682202537573,0.04010709052272077,-3570.891047712302,-328.9000526174779,-196.50885879854505,0.28582582863375944,0.3920160249625567,0.15767492517796464
5658,1724557163261522633,-1.405824065208435,-0.2447071969509124,0.1746299117803573,0.0592722594738006,-0.0294386465102434,0.4813543856143951,-0.8740240931510925,0.0,0.0,0.0,-28.86843167166254,-2.632225983136725,-1.3524791030856083,0.960492275,0.1746299117803573,0.048163163971828925,0.16655795780791574,0.1873733613219262,92.5908612612693,30.456294888220004,-71.41735223994931,-0.132339635622809,-0.005601780743772771,-1.0064412185191165,0.13457024644343818,0.0056805595429167965,0.026190497020696313,442.69656755472056,139.89173282233438,-107.78612701629298,0.0848912008752467,0.09871323492572455,0.15767492517796464
5660,1724557163274502768,-1.4047340154647827,-0.2446416020393371,0.1748037189245224,0.0590668469667434,-0.0299736838787794,0.4812617599964142,-0.8740708231925964,0.0,0.0,0.0,-1.879067012085831,0.9390987123773078,-1.0186797866128892,0.97347241,0.1748037189245224,-0.012012830573814883,0.0862311467688939,0.02175796663074318,8.651877067143422,9.279138531038466,-7.156391775196376,-0.1324962290817846,-0.0044549991096214415,-1.0063090538293606,0.09532093640960682,0.01790694228591505,0.013962040370937956,791.1596334438007,64.07529082476034,-32.187572847309696,0.04071668853986962,0.05062307068061958,0.15767492517796464
5662,1724557163282414340,-1.4039251804351809,-0.2444379478693008,0.1749169379472732,0.0582051277160644,-0.0305522922426462,0.4813576340675354,-0.874055802822113,0.0,0.0,0.0,-1.8313519467920298,0.428247088061799,-1.552558233814799,0.981383982,0.1749169379472732,0.12051411993316881,0.23423168165298827,-0.00784268565288993,7.4591953911036,-6.539402957116039,1.0799977091450368,-0.13154169077653957,-0.0026261515062195274,-1.0066145018115507,0.08597470013395991,0.025323034739127337,0.005533350125404013,-9.64296949623791,-79.53118552645711,-50.713167554919494,0.03295265288263504,0.07780217976224726,0.15767492517796464
5664,1724557163291743996,-1.4033019542694092,-0.2442062944173813,0.1748719960451126,0.0580736584961414,-0.0299437418580055,0.4811162650585174,-0.8742184638977051,0.0,0.0,0.0,-2.0937618121019566,-0.4783513032329616,-1.8412195511588967,0.990713638,0.1748719960451126,0.08787786818831428,-0.10453587250474872,0.05527836538106305,4.087371860175627,-16.661848236552743,-1.1435925500953341,-0.13072378045246813,-0.003525626630928789,-1.0059756416592578,0.06173740903386715,0.023717072397692718,-0.014311575147029743,33.967109398371264,-63.239483249988666,0.008632831708240474,0.014765533418364228,0.056034857837950126,0.15767492517796464
5666,1724557163301093316,-1.4027721881866455,-0.2439949810504913,0.1746492385864257,0.0574434548616409,-0.0291807986795902,0.4812435507774353,-0.874215841293335,0.0,0.0,0.0,-1.194436537546612,-0.7516657254623555,-1.5511785434129757,1.000062958,0.1746492385864257,0.19716067740236612,-0.07622101215022012,-0.029515205369719334,6.9068434754832895,6.190078371905953,-4.9861546030311175,-0.128879755122247,-0.004267964395686746,-1.006157030684338,0.04688522019920072,0.016375866668852268,-0.028847491511561962,77.29256452854345,-3.9637588742216145,62.722794317912744,0.01112577131200478,0.046730153336725866,0.15767492517796464
5668,1724557163313380605,-1.4023540019989014,-0.2438943088054657,0.1742136925458908,0.0561974123120307,-0.0288398191332817,0.481431245803833,-0.8742048144340515,0.0,0.0,0.0,-0.5499101484692752,-0.3922993654844709,-0.2685763028505401,1.012350247,0.1742136925458908,0.20480482119167276,0.05089224211975863,-0.024841785151312752,24.16863103332599,9.522080070323776,7.375560793868004,-0.12636174070152248,-0.003686571323795841,-1.006539398585094,0.03857373757411153,0.007681667508013135,-0.04784949138240968,49.72046221896955,26.80853884077114,153.92285434382063,0.011147106443392204,0.021365448960705625,0.15767492517796464
5670,1724557163321522483,-1.4020154476165771,-0.2438345253467559,0.1737571954727172,0.0540644638240337,-0.0282616354525089,0.4812608659267425,-0.8744519948959351,0.0,0.0,0.0,-0.1598436253854838,-0.18718306925410813,1.2519053632693944,1.020492125,0.1737571954727172,0.5286167894869982,0.12397963772890863,0.07294845942229565,13.941404607709305,3.1328887114437256,2.8787754505592,-0.12205926684124715,-0.002611337318522624,-1.006075104412867,0.034779009808062256,0.006188541545454562,-0.04314191065145856,39.431405251635084,10.321175657512303,129.12782084879998,0.015904658503844805,0.0227225586026118,0.15767492517796464
5672,1724557163335010772,-1.401698350906372,-0.2437768429517746,0.1734641194343567,0.0531436949968338,-0.0279855113476514,0.4818443655967712,-0.8741959929466248,0.0,0.0,0.0,0.18259031951882365,-0.38028011062283706,1.7060636793839972,1.033980414,0.1734641194343567,0.1394848390961319,0.03565379705805818,-0.09228038323160934,-17.352896197196518,0.3924900110789853,-31.11457969438763,-0.12017469593122161,-0.002284338227765945,-1.0073688568681416,0.03946587655647704,0.0035789685673250915,-0.011201452963927494,-70.88875043332742,-25.980349990972513,-52.148534748649226,0.008890752342914794,0.013969912420113193,0.15767492517796464
5674,1724557163341765426,-1.40137779712677,-0.2437550276517868,0.1734240651130676,0.0528971552848815,-0.0280026327818632,0.4829422235488891,-0.873604416847229,0.0,0.0,0.0,-0.6219017401735771,-0.5952244255356007,1.063527546050372,1.040735068,0.1734240651130676,0.06116071617241093,0.06178289756406815,-0.3662604173944372,-9.52537696374541,-1.2937460812192931,-13.29837727706572,-0.11975600626442948,-0.002166093916081324,-1.009875037521995,0.04014146782697736,0.00037840441778946854,-0.0019166897273210637,-103.49929342951457,-17.714672431469747,-111.13607984817902,0.02249772173286012,0.027367861218157985,0.15767492517796464
5676,1724557163351400241,-1.4010915756225586,-0.2437905669212341,0.1734607517719268,0.0529727078974247,-0.0278861485421657,0.483440101146698,-0.8733280897140503,0.0,0.0,0.0,-1.4046707564365861,-0.5720287226611386,-0.22729002871825568,1.050369883,0.1734607517719268,-0.0021636064679171306,-0.021624597285395317,-0.11970659853866415,-0.008572900031367237,-6.174321253851142,16.210507837704153,-0.1197742212307002,-0.002510751494176283,-1.0109951549866592,0.024228159789053905,-0.007024791373700268,0.0040554866368403,-13.74404083216723,39.17633020368106,-78.35554722342653,0.01891004765390925,0.01305159117754259,0.15767492517796464
5678,1724557163362085080,-1.4008976221084597,-0.2439051568508148,0.1735070198774337,0.0527791865170002,-0.0274033304303884,0.4837037324905395,-0.8732091188430786,0.0,0.0,0.0,-0.7516988852287019,0.2822489880237108,-0.4054633404430683,1.061054722,0.1735070198774337,0.07552210153030475,-0.05817957911416683,-0.0576389713769372,-4.797134532342902,-10.502875611434382,13.684366167206644,-0.11896574731688245,-0.0032013084632369552,-1.0115326277022547,0.012145967310360106,-0.010810205707649345,-0.008411129152049668,52.50806883181354,64.95090809087729,51.5309506130495,0.018735256082121607,0.0010306478145542899,0.15767492517796464
5680,1724557163371555940,-1.400833010673523,-0.244008257985115,0.173320397734642,0.0535529926419258,-0.0267032328993082,0.4830689132213592,-0.8735350966453552,0.0,0.0,0.0,-0.32663067285541125,0.7714559141182527,0.6551578935231821,1.070525582,0.173320397734642,-0.07121762851122743,-0.21710015375810043,0.13807641781895322,-9.159769004830018,-1.3861609429894775,6.669148957999153,-0.11964664404935406,-0.0050871715897492726,-1.0099895440571305,0.008209038519517264,-0.0027935335821824836,-0.005860296353261241,3.620120093107886,112.48145968696272,140.63353193626114,0.012746747153589246,-0.007466648053429762,0.15767492517796464
5682,1724557163386420158,-1.400678634643555,-0.2438609898090362,0.1735562682151794,0.0535217262804508,-0.0276699215173721,0.4836848080158233,-0.873166024684906,0.0,0.0,0.0,-1.2354084869430244,3.8624462177571024,3.413838355189358,1.0853898,0.1735562682151794,-0.05960400767844004,0.12141623145962163,-0.08930021454982519,3.486653100916503,9.127382368268883,-7.438157635794646,-0.12052605695702548,-0.0034544279222552105,-1.011523560954225,0.005431555272664923,0.006923869552595718,0.012878949658721162,18.253614703463803,-120.65651433583308,-137.9974827418018,-0.0028328596614483107,0.015438010899019809,0.15767492517796464
5684,1724557163401027075,-1.4006704092025757,-0.2438026815652847,0.1737014800310135,0.053138680756092,-0.0279054269194602,0.4842567145824432,-0.872864842414856,0.0,0.0,0.0,0.17082227165109032,-2.6167913388226225,-3.2467059739526007,1.099996717,0.1737014800310135,0.030157872106419334,0.05885591506205218,-0.08514365851040348,-1355.911499402438,710.5961301345485,-1028.4047390846956,-0.12008138450516737,-0.0027501972461234153,-1.0128613824998371,-0.027664935237226018,0.10940022734197896,0.0936509727223438,309.3655171109273,-1347.1456761023892,-1113.3470206233765,-0.0030609772745891894,0.004656837673955741,0.15767492517796464
5686,1724557163401927097,-1.400696873664856,-0.2436983734369278,0.1737904101610183,0.0534884110093116,-0.0284456182271242,0.4846777319908142,-0.8725923299789429,0.0,0.0,0.0,0.46107535812727757,-3.8793604990478796,-4.285197347632748,1.100896739,0.1737904101610183,-1.2657263735165587,0.7380523203766828,-1.0677774305237937,-1307.8015611354642,684.2903871034774,-990.0256011437715,-0.12121800506591936,-0.0022064286888448604,-1.0138953806944173,-0.027376065851148823,0.10651088445206014,0.0902421619179401,298.89453832855673,-1303.3719534973575,-1062.8733227922173,-0.1137065698891305,0.09216394831304746,0.15767492517796464
5688,1724557163411677432,-1.4007495641708374,-0.2436511069536209,0.1737654060125351,0.0538346208631992,-0.0285286996513605,0.4845418334007263,-0.8726438283920288,0.0,0.0,0.0,0.8824304130256997,-6.082973708580931,-5.038615263962435,1.110647074,0.1737654060125351,-0.07045479575022706,-0.021340373856476698,0.028335424671642902,72.68980815102904,-43.74140454627273,58.238724364650025,-0.12190565582593185,-0.002379466666723797,-1.0135959504204517,-0.00807989012282917,-0.0019865583744902438,-0.004114200632406195,-27.802806208557076,156.9736193698339,193.72309348294243,-0.006978179307496494,0.0009654712545263015,0.15767492517796464
5690,1724557163422034961,-1.400862693786621,-0.2437468767166137,0.1737057417631149,0.0534741468727588,-0.0277575217187404,0.4843736886978149,-0.8727841973304749,0.0,0.0,0.0,-0.1869074920085279,-0.24339173512986972,-0.050500818727794466,1.121004603,0.1737057417631149,0.13342818181025098,-0.09874082609635747,0.03543564157906696,4.098533030438703,-3.594335843424912,-0.9958126022951204,-0.12052506696459611,-0.0033502931826432606,-1.013107948507863,-0.011005433848694679,-0.009487889459133925,-0.005265136399444259,-48.30446708139519,299.215525364632,243.13642187773291,0.002045625528991279,-0.014148378103064543,0.15767492517796464
5692,1724557163432558726,-1.4009793996810913,-0.2438493072986602,0.17365562915802,0.0536700040102005,-0.0272975154221057,0.4843162596225738,-0.8728185296058655,0.0,0.0,0.0,-0.10781740729379863,0.07636056131332408,-0.041528537956272704,1.131528368,0.17365562915802,0.00990438926849811,-0.09509490570717512,0.006978089532617863,-1.3675495833066522,1.8440064422357065,0.36505078532573654,-0.12042157284817062,-0.004334970224156251,-1.0129147356423784,-0.011950738362912716,-0.006907741426291025,-0.005148406928867644,7.58866358449164,1.0009005012019454,4.301229480236431,0.0023660235230242325,-0.014545584613539133,0.15767492517796464
5694,1724557163441737555,-1.401095986366272,-0.2438900917768478,0.173605278134346,0.0534907728433609,-0.0268623623996973,0.484170138835907,-0.8729240298271179,0.0,0.0,0.0,-0.03757566366815246,-0.14968549368043987,0.025560879895477506,1.140707197,0.173605278134346,0.08037221971276308,-0.06617995606270688,0.03489994285608607,6.066074834421898,-0.4552543811838454,3.15050219011526,-0.11968564065937938,-0.004899686159155304,-1.0125238477233667,-0.01308441351335432,-0.00755831920736405,-0.005950858400481707,2.6508163536701073,-14.428653198521577,1.7720328457837629,-0.0029865083389366024,-0.01101279425597552,0.15767492517796464
5696,1724557163451106179,-1.4012222290039062,-0.2439906895160675,0.1735450774431228,0.0532224513590335,-0.0261734910309314,0.4838913977146148,-0.8731159567832947,0.0,0.0,0.0,-0.06056976520470292,-0.18734303245157358,-0.010785405806257087,1.150075821,0.1735450774431228,0.12179673212272257,-0.10492145066093743,0.06545349902867473,0.74830185290348,-2.4121979999267116,-0.37724831982178886,-0.11854846843816055,-0.005802819994247548,-1.0117982508227883,-0.012614714240697822,-0.009714249869279712,-0.0046309863090456815,2.4617266247152862,-0.6281410104231782,-6.867820957319088,0.0019196689746729203,-0.016814183903219843,0.15767492517796464
5698,1724557163461159676,-1.401339769363403,-0.2440773099660873,0.1735178828239441,0.0530948303639888,-0.0254759732633829,0.4837751686573028,-0.8732088208198547,0.0,0.0,0.0,0.017216227299237663,-0.15707017791835115,-0.11206951674381374,1.160129318,0.1735178828239441,0.0896904044719253,-0.1105835636483184,0.02240697630749122,-3.4839943751529807,-9.235600633383479,-0.8045038268169415,-0.11764902775057565,-0.006880286166648901,-1.0114436419562074,-0.01441798729527477,-0.011136179521907152,-0.006375673327339015,19.20918066248088,13.204262725356228,2.6879068105123793,0.0010802889006869838,-0.013719188599589174,0.15767492517796464
5700,1724557163471417311,-1.4015161991119385,-0.2442179173231125,0.1734140664339065,0.0535947829484939,-0.0240373611450195,0.4834741950035095,-0.8733856678009033,0.0,0.0,0.0,0.33432172214126965,0.08505433410036478,0.049072515914038495,1.170386953,0.1734140664339065,0.05091307637955388,-0.29608363554288636,0.050547203590324115,2.1558106897387077,-4.180990166929127,0.018156581331316035,-0.11713404146693786,-0.009835774241917079,-1.010572863820296,-0.012183957807039292,-0.012910970717070924,-0.006881893205919809,6.593336722467496,38.29729262514879,14.572545548085063,0.0023729480879888256,-0.021629579525766596,0.15767492517796464
5702,1724557163481686451,-1.4015897512435913,-0.2443423122167587,0.1733766943216323,0.0534774363040924,-0.0228314138948917,0.4833345413208008,-0.8735024929046631,0.0,0.0,0.0,0.1519962322343381,0.6293880057769307,0.18703167154399383,1.180656093,0.1733766943216323,0.1340789128260916,-0.19608571817498882,0.02271693062565812,3.411691544286822,7.181021793404883,-2.1605169681841927,-0.1157622024004101,-0.01180866482709109,-1.0101071588536858,-0.0075527576716183376,-0.009384346688334766,-0.00536610684979788,-7.473546952284398,30.065648490302806,13.196986147570822,0.006406564595821238,-0.014340680804965845,0.15767492517796464
5704,1724557163497872047,-1.4017219543457031,-0.2444245815277099,0.1732457876205444,0.053551610559225,-0.0215338226407766,0.4832717776298523,-0.8735657334327698,0.0,0.0,0.0,0.2933123754047249,0.5307737798795671,0.3945775888767258,1.196841689,0.1732457876205444,0.06973215374583412,-0.14507967291166826,0.0017676476532284015,124.61165096538014,-68.6486541811911,-29.429924139583864,-0.11463743739762455,-0.014138015910156352,-1.0098089583052103,-0.012719967883469963,0.008097943136363028,-0.0013331083132399613,36.03547279397121,-50.557280382867106,1.6237829717304066,-0.00015604885132151602,-0.009347954456796818,0.15767492517796464
5706,1724557163501009515,-1.4017646312713623,-0.2443911582231521,0.1732457131147384,0.0531230866909027,-0.0205623917281627,0.4834032654762268,-0.8735424280166626,0.0,0.0,0.0,0.4229784786331312,0.3451096094748048,0.39286112540329543,1.199979157,0.1732457131147384,0.5389009893990134,-0.4041297156921064,-0.1076792239894552,121.8093724487235,-65.6235133870297,-28.695280281596244,-0.11294379286503144,-0.015436116961184972,-1.0100004815393056,-0.011427164963013325,0.009429132821832553,-6.7014811417909215e-06,32.77833289253568,-52.48528817765932,-0.6537044780647538,-0.016254242020254144,0.001737883859347611,0.15767492517796464
5708,1724557163517523225,-1.4017642736434937,-0.2443418204784393,0.1732470840215683,0.0521785914897918,-0.0198736749589443,0.4837349057197571,-0.8734316825866699,0.0,0.0,0.0,0.22112704632851454,0.05996423144967533,0.3727989311701003,1.216492867,0.1732470840215683,0.14035861644404488,-0.015157867012843277,-0.043648847700796696,33.41969410456756,-10.035340405626874,-19.03671420436227,-0.11061520681713387,-0.01576527040445686,-1.0106889214712504,-0.0034925946477812886,0.008246150428234955,0.003881840301588113,-7.801108737204167,-8.204577034599554,-5.224519320579432,-0.002518032546863624,0.0025370296603824576,0.15767492517796464
5710,1724557163522772848,-1.4017884731292725,-0.244289755821228,0.1732738018035888,0.0514011532068252,-0.0190417896956205,0.484155923128128,-0.8732630610466003,0.0,0.0,0.0,0.1875539825324394,0.032017238414453475,0.33868077785237816,1.22174249,0.1732738018035888,0.41184667763484517,-0.12389525332020303,-0.18182414766339716,30.94034814854886,-12.831071865497254,-17.64436219264498,-0.1084390059031526,-0.01651611331942227,-1.0115667881461456,-0.002764582850556252,0.008780558820987494,0.006068066599933086,-13.740270710890751,6.114624675848606,-4.595682942019954,-0.010767049318114511,0.0063442581638719145,0.15767492517796464
5712,1724557163535813692,-1.401764750480652,-0.2442120909690857,0.1733846366405487,0.0507202930748462,-0.0183444060385227,0.4849061667919159,-0.872901439666748,0.0,0.0,0.0,-0.22957304936804127,0.48230353207221277,0.34041316857425064,1.234783334,0.1733846366405487,0.14230837473263194,-0.0358730790173183,-0.13083857764307563,12.291057935408631,-2.085994910409563,2.565332615514304,-0.10655545632839045,-0.017164291696494333,-1.0132132087965038,0.0012646078958340468,0.006937470410118607,0.007965256739826287,-22.977663624419293,5.444852408131492,-2.677220787185931,-0.003944435025467234,0.00668321937798431,0.15767492517796464
5714,1724557163543219426,-1.4017577171325684,-0.2441565841436386,0.1734413802623748,0.0496848635375499,-0.0173684768378734,0.4852940738201141,-0.8727654218673706,0.0,0.0,0.0,-0.3618529947294306,0.4003099755363692,0.30876830790050197,1.242189068,0.1734413802623748,0.3719493794698017,-0.0884811451369628,-0.11749424116594387,-1.8964652926939305,-8.328797479017314,-9.557340572137026,-0.10378693703291232,-0.017907284679473123,-1.0140099426611593,-0.002700446489413366,0.013132059045144473,0.011306079241734324,11.34608561345296,-60.37568517747565,-43.89292019193568,-0.005723007736797909,0.007439739964386751,0.15767492517796464
5716,1724557163551062450,-1.4018092155456543,-0.2440067678689956,0.1735603213310241,0.0497297383844852,-0.0165919419378042,0.4862489700317383,-0.872246265411377,0.0,0.0,0.0,-0.030260504768319846,-0.4827440935947484,-0.3645731408524835,1.250032092,0.1735603213310241,0.08376193811591927,-0.16397998070302613,-0.2868040145583206,-16.19401907693473,0.42210550784571055,-8.893167061056996,-0.10309069437189557,-0.019418769766299266,-1.0161147985126955,-0.0040969360098941365,0.012648991901263784,0.01254542270572312,32.39742866801361,-74.36330350753931,-68.67908360585633,-0.019397898993674185,0.013886584956469418,0.15767492517796464
5718,1724557163561251295,-1.4018182754516602,-0.2439633011817932,0.1736534684896469,0.0489657446742057,-0.0159477591514587,0.487188309431076,-0.8717772960662842,0.0,0.0,0.0,0.16904109577585713,-0.7344270214470612,-0.837024295762359,1.260220937,0.1736534684896469,0.19077483638109474,-0.02667636227076476,-0.20939175072519947,3.82783204572956,-4.712828135918626,12.3701168629333,-0.1011057392371189,-0.019906602747898006,-1.0182099624653593,-0.002449004582089742,0.002155894056212304,0.0019136665149339649,14.282482341772706,14.121082276304396,13.573543174548858,-0.003915124469576469,0.0038408765411462945,0.15767492517796464
5720,1724557163571660712,-1.4018603563308716,-0.2439633011817932,0.173596516251564,0.048926368355751,-0.0143140461295843,0.4872678220272064,-0.8717633485794067,0.0,0.0,0.0,0.26158012194502217,-0.17456247416884563,-0.058252020393649,1.270630354,0.173596516251564,0.15963206475546352,-0.26916673894347626,-0.02987301580241986,7.09641273590826,-7.784900509028725,6.690055339676878,-0.09944343122361139,-0.022725524372469084,-1.0182387711812142,-0.0006117269917638168,-0.0023471885103241164,-0.00460376487940195,0.6963003775340812,36.02538935662532,68.94887353103113,-0.0022455891005287586,-0.002518678856553212,0.15767492517796464
5722,1724557163581332524,-1.4018354415893557,-0.2440070956945419,0.1735597848892212,0.0480691716074943,-0.012683754786849,0.487493634223938,-0.8717101216316223,0.0,0.0,0.0,0.19468274236777633,0.014277186285303611,0.5558998621534901,1.280302166,0.1735597848892212,0.31892458299291865,-0.2050771424896696,-0.06002698494512681,5.640137538723074,9.171080370127441,-7.40350263924772,-0.09634974842970252,-0.02475624412192762,-1.018622936360214,0.0026827836377378844,-0.0017167035796443741,-6.413442526653768e-05,-8.886743877147849,-1.479680031376791,20.688076541530165,0.00511074243070481,-0.002754065936889332,0.15767492517796464
5724,1724557163592383125,-1.4018044471740725,-0.2439905703067779,0.1736062169075012,0.047097984701395,-0.0116282003000378,0.488434761762619,-0.8712508678436279,0.0,0.0,0.0,0.07160567938852094,-0.2672749142063311,0.2439851570445348,1.291352767,0.1736062169075012,0.24451713182244456,-0.07160258743007697,-0.19595224414553156,15.077904251400561,-9.08104177637502,-7.554177889570192,-0.09359512530900828,-0.02574927197606191,-1.020704133029362,0.0029914209470973674,-0.0022017278079893288,0.007171451051329214,1.852697130788071,-12.64374323219189,-35.797713991619545,0.00029953813920290747,0.003015326027214299,0.15767492517796464
5726,1724557163601407671,-1.4017760753631592,-0.2440376877784729,0.1736928224563598,0.0456637516617774,-0.0091696288436651,0.4892960488796234,-0.870873212814331,0.0,0.0,0.0,0.1840632594533887,-0.286787803536831,-0.1348758555675633,1.300377313,0.1736928224563598,0.541336256105681,-0.3094996482299318,-0.22914686327569836,11.47923210511208,-9.56301422643082,3.426895793054091,-0.08866062508106395,-0.02871896590467019,-1.022510000929471,0.00395952146595846,-0.006260090395400653,0.006345851607223452,-0.1659188732035619,21.06451298674554,-11.834005085522119,0.006367440199822705,-0.0022250615540656106,0.15767492517796464
5728,1724557163611428993,-1.401727318763733,-0.2441119849681854,0.1737202405929565,0.0443799123167991,-0.0071650203317403,0.4897688925266266,-0.8706926107406616,0.0,0.0,0.0,0.041882391166186,0.18277784131499883,0.08201527100258538,1.310398635,0.1737202405929565,0.41810794065621576,-0.21840121841514878,-0.11573729734852556,-8.818708093508015,5.026016492700402,8.682229877600788,-0.08444176860134861,-0.030999705280845214,-1.0234767937033653,0.0066586027084980515,-0.0073211349614794585,0.004511341644279909,-19.812618741945432,34.469141243492984,19.40557184578732,0.008943344153301008,-0.003634679423815767,0.15767492517796464
5730,1724557163621128409,-1.4016458988189695,-0.2441821247339248,0.1737806648015976,0.043333176523447,-0.0054079168476164,0.4899733364582062,-0.870642900466919,0.0,0.0,0.0,-0.20309306286264225,0.40081624050361836,0.24923366812218678,1.320098051,0.1737806648015976,0.3652216701459171,-0.20780818366302845,-0.05625793997719136,-11.060560532987388,10.736200568133508,-2.24259778386356,-0.08088722414153254,-0.03305349168635583,-1.0238542224277265,0.004929557191715617,-0.002838432225944487,0.007795335168868434,1.5257444752743416,-5.342464785763104,14.080263746741625,0.010742236697110974,-0.0014797573080954,0.15767492517796464
5732,1724557163631174852,-1.4016324281692505,-0.2441649287939071,0.1738752722740173,0.0424805656075477,-0.0048917969688773,0.4907040596008301,-0.8702763915061951,0.0,0.0,0.0,0.090930534995397,0.057630874608878,0.3578098809369691,1.330144494,0.1738752722740173,0.19574576042246933,0.00040752968237946674,-0.16593590378926829,-15.49073423953304,9.408033471257387,-4.260395222288038,-0.07886561451511709,-0.03318243021557817,-1.02551726240876,0.0026308139237372075,0.0005499869808520685,0.009369556542605295,25.003053599157273,-32.42255724026049,3.599190623984031,-0.00045514709427734123,0.002629032611907568,0.15767492517796464
5734,1724557163642605584,-1.401585578918457,-0.2441737502813339,0.1739817559719085,0.0424121208488941,-0.0045628598891198,0.4913323521614074,-0.869926929473877,0.0,0.0,0.0,0.3212851866629396,-0.29038738206184206,0.30520264917993933,1.341575226,0.1739817559719085,0.03660391177415048,-0.039241639682122305,-0.1280599065219566,4.7151010219521154,-3.1733108582555714,-2.336504090266466,-0.07839952914885892,-0.03374458858823829,-1.0269420782972127,0.00782870694861515,-0.0024282411860063746,0.016075245206573996,9.028395892837873,-28.813467668209974,-24.260535107778814,0.003093833378312466,0.0019223118026492662,0.15767492517796464
5736,1724557163651203456,-1.4014941453933716,-0.2442053407430648,0.1741636842489242,0.0418129451572895,-0.0038700106088072,0.4920147955417633,-0.8695735335350037,0.0,0.0,0.0,0.3269715578877976,-0.5275652035824991,-0.03051785128446044,1.350173098,0.1741636842489242,0.19767308898344302,-0.06461540200222869,-0.18468802163619355,7.240496452502388,-2.606437157776401,-0.40034500439232534,-0.07664745075732238,-0.034421454622138546,-1.028483135330872,0.009728080336579126,-0.005117943073511988,0.016879282361748515,-2.1946566737892548,-12.77321491911959,-26.516950866752033,0.009358750219966317,0.0033556258868566173,0.15767492517796464
5738,1724557163664625509,-1.401382565498352,-0.244304284453392,0.1743005514144897,0.0418041571974754,-0.0031355305109173,0.492342859506607,-0.8693912029266357,0.0,0.0,0.0,0.23767234313682595,-0.38864267258422625,-0.12388870274773311,1.363595151,0.1743005514144897,0.05403982293275551,-0.09237598835637253,-0.06044706643405647,40.75540655784637,-2.4174674956432014,-6.371951995345235,-0.07589705631527992,-0.035719546496020084,-1.0291980510792396,0.016338978764423473,-0.016698233168053633,0.013870788122805067,180.65522175427256,-82.07030739496383,201.24950364744498,0.010959621006253991,-0.001550722279746759,0.15767492517796464
5740,1724557163671047118,-1.4012529850006104,-0.2444401681423187,0.1744009107351303,0.0406551547348499,-0.0020622182637453,0.4927493631839752,-0.869218647480011,0.0,0.0,0.0,1.9732439365103733,-1.1996133530168573,1.8081358849913913,1.37001676,0.1744009107351303,0.47384738738561577,-0.10897283567336985,-0.1493810491108912,49.55455686357806,-1.5655770942141887,-10.408400895543103,-0.07282152529378155,-0.03648866250342564,-1.0301033658879712,0.017082178338414522,-0.01773723251168513,0.01338324625673204,-255.52550555977876,130.06858783954968,-249.2760228669432,0.029079689996517267,-0.007060802482773586,0.15767492517796464
5742,1724557163697900271,-1.4011420011520386,-0.2445320785045623,0.1745081841945648,0.0405700951814651,-0.0014258187729865,0.4932261109352112,-0.8689534664154053,0.0,0.0,0.0,-63.930822777263074,31.079767076203865,-66.66162399580685,1.396869913,0.1745081841945648,0.028132485928628135,-0.036593702722405703,-0.04250996854163445,7118.165171343746,1534.141941356357,-4503.441404891536,-0.07202654501749069,-0.03755134479427629,-1.031171528374088,0.2786524765806462,-0.16648850328164144,0.2735010075516584,-6377.523717184697,4012.7542421128455,-6085.033007885708,0.005206339792704768,-0.0006416142801538121,0.15767492517796464
5744,1724557163698580614,-1.4009476900100708,-0.2446481585502624,0.1746989041566848,0.0389219783246517,-0.0008494969806633,0.4941829442977905,-0.8684858083724976,0.0,0.0,0.0,-68.33735187155806,33.85826396722625,-70.86247052373207,1.397550256,0.1746989041566848,4.993907930906515,1.0335465041969487,-3.1840890226294323,5376.990253838894,1123.7489671669841,-3405.2820630145125,-0.06854653515242899,-0.03700204653841199,-1.0333833158273777,0.2338877149261407,-0.14471239777671485,0.22683222608415932,-4722.938264664793,3212.0323787553657,-4349.658414955176,0.3029455182075081,0.010858808712518427,0.15767492517796464
5746,1724557163701136337,-1.4008464813232422,-0.244769275188446,0.1747650206089019,0.038863867521286,-0.0002060282422462,0.4944377243518829,-0.8683437705039978,0.0,0.0,0.0,-63.56852070604164,33.69622979790982,-64.45839827130679,1.400105979,0.1747650206089019,0.28418394622456805,-0.4069994244763442,-0.2476491111359203,-1498.381830216852,-450.91823365997476,933.1845033091294,-0.06779918255118612,-0.03808292241862579,-1.033944294323531,0.03485069166012167,-0.04041193751341243,0.02396745951562984,2591.3654029825975,-600.0481064293136,3150.012160619174,0.06191755166140568,-0.01945061072580019,0.15767492517796464
5748,1724557163712142235,-1.4006880521774292,-0.2448832988739013,0.1749386340379715,0.0383737832307815,0.0002847876457963,0.4954076111316681,-0.8678126931190491,0.0,0.0,0.0,-0.6664116292152462,1.6574764196120952,0.7441608842359149,1.411111877,0.1749386340379715,0.11771863311419875,-0.026545364903091305,-0.20420939198868543,-9.761999257991679,15.896327164742607,-1.6446376164337444,-0.06641840901574833,-0.038525142271355284,-1.0361689472147524,0.013472099230142476,-0.006741473103843987,0.021603704168676074,2719.095359458066,-1448.733150743361,2736.0797562620064,0.016844575083185244,-0.000987347689725468,0.15767492517796464
5750,1724557163721831796,-1.4005653858184814,-0.2449177503585815,0.1751976907253265,0.038160104304552,0.0006336048245429,0.496527224779129,-0.8671817183494568,0.0,0.0,0.0,0.12074290097437568,0.09444485694813964,0.05769811028401928,1.420801438,0.1751976907253265,0.06887994791740515,-0.0318003449921086,-0.2678451430083759,9.078221353449342,9.848748966831202,-8.704187624488155,-0.06565133150366409,-0.03900385109307895,-1.0387400308108188,0.01790045879525337,-0.0026398304577099907,0.03699462584538615,9.132067146570602,-108.95738968312254,-148.98083138832538,0.010521661638189428,0.004339158221019882,0.15767492517796464
5752,1724557163731374074,-1.4003453254699707,-0.2449343353509903,0.1756471097469329,0.0365879088640213,0.0007225770386867,0.4980889856815338,-0.8663533926010132,0.0,0.0,0.0,-0.4697068352090909,-0.45327890820885475,-2.098173420332651,1.430343716,0.1756471097469329,0.2881822839516006,0.15982659257979318,-0.37098230164210333,4.070320806567095,-1.8616972868148896,5.475566956211284,-0.06276208697092436,-0.03770901918076855,-1.04237330195543,0.01589251132746483,-0.004828989940508066,0.023160811538838644,-25.557118508781368,-18.947769595619654,-70.32081756047832,0.014894264955324877,0.011776303717508227,0.15767492517796464
5754,1724557163741892872,-1.4002612829208374,-0.2450209707021713,0.1756131798028946,0.0363775677978992,0.0015595279401168,0.4986338913440704,-0.8660476207733154,0.0,0.0,0.0,-0.3173961754853064,-0.20672703039672347,-1.0335549585936783,1.440862514,0.1756131798028946,0.11170942415887794,-0.11419758599868828,-0.12456874251676285,0.4505329350056204,-19.578816014230863,17.726530087663974,-0.061539720837187784,-0.03898930491934445,-1.043607351905869,0.007945338522276302,-0.012192675886115723,-0.0064282087769047536,26.827583898958988,46.87140783303445,153.44291192932218,0.011003454527883132,-0.003206094382724852,0.15767492517796464
5756,1724557163751377991,-1.40018630027771,-0.245170459151268,0.175524815917015,0.0358742177486419,0.0031875728163868,0.4986102879047394,-0.866077721118927,0.0,0.0,0.0,0.04267702222877923,0.43827024691482624,0.8686095491507477,1.450347633,0.175524815917015,0.26332937986313915,-0.24454910712684905,-0.005178331740954857,10.573648003250852,2.0166168557338002,2.2422349100738037,-0.05904565064741452,-0.04130762601709888,-1.0435165029023805,0.008682088130683496,-0.00993410434034736,-0.0010122642152321504,9.295682449420388,33.347384765870046,89.08347937278015,0.017197826865644597,-0.009922735341341684,0.15767492517796464
5758,1724557163761550955,-1.4000895023345947,-0.2452079504728317,0.1756051182746887,0.0346309281885623,0.0042253248393535,0.4990145862102508,-0.8658910393714905,0.0,0.0,0.0,-0.1755266262501886,0.39941747042863185,0.5587634308156986,1.460520597,0.1756051182746887,0.3118527563617184,-0.05208867697820135,-0.09523808655394171,-4.43657645743982,8.552986518865552,-6.215231618137144,-0.05583418978160893,-0.04189227058485765,-1.044454188853668,0.008734395905833026,-0.0032917907778813316,0.011071262263387283,-10.499206968520802,-20.321410130055973,-55.181125447390386,0.008290367585711568,0.0018051348903279285,0.15767492517796464
5760,1724557163771002632,-1.40001380443573,-0.2452356070280075,0.175737664103508,0.0340014584362506,0.004947455599904,0.4995356202125549,-0.8656116724014282,0.0,0.0,0.0,-0.1786025613891672,0.062431562932222115,-0.17989937744559012,1.469972274,0.175737664103508,0.18907326717942483,-0.06227645991580264,-0.1308200945632828,-11.182764634335747,-1.6267659579572507,-1.730588812923354,-0.05399633706999383,-0.04254786627491177,-1.0456575379471016,0.005488829184514543,-0.0017429231926158195,0.010828540717326085,14.728799116799676,-26.22844684914473,-34.536620231101814,0.007137532890407729,0.001836277278637189,0.15767492517796464
5762,1724557163783059854,-1.3999863862991333,-0.2452384233474731,0.1758190840482711,0.0338417626917362,0.0056905974633991,0.5001426935195923,-0.8652627468109131,0.0,0.0,0.0,0.23053563178062797,-0.10884266219248431,0.07452716407253435,1.482029496,0.1758190840482711,0.08204093529599846,-0.09033315875911634,-0.12040061908626556,13.619984111658248,-0.1724788845228984,-0.2861130273039496,-0.05294710157287293,-0.043713064733891346,-1.0470502460506321,0.005869907644068917,-0.0025504350477412174,0.0062874039300364615,11.912737845387394,-0.09689842341679333,25.032803307177783,0.0016333709200017981,0.0010960410218243562,0.15767492517796464
5764,1724557163791545711,-1.399915099143982,-0.2452739030122757,0.1758696585893631,0.0327873118221759,0.0067034638486802,0.5005989074707031,-0.8650322556495667,0.0,0.0,0.0,0.20011280182408797,-0.025405932609118317,0.31043048286511626,1.490515353,0.1758696585893631,0.3319778829044764,-0.07892949427329365,-0.12969840194871476,3.092498540826598,1.2396363554639493,-0.7793049425116214,-0.0500830288948286,-0.04443863459592262,-1.048115961271488,0.00901427549204925,-0.0037241162172012565,0.009614305025912984,52.95039476066553,-0.8638813706047506,95.41585418907277,0.008073512776100508,0.0006931501551679855,0.15767492517796464
5766,1724557163801055992,-1.3998228311538696,-0.245304450392723,0.1760000437498092,0.0326146893203258,0.0071964962407946,0.5011356472969055,-0.8647239804267883,0.0,0.0,0.0,1.3062626608181342,-0.14762715224103426,1.9385415901195229,1.500025634,0.1760000437498092,0.08042453784783408,-0.06825088389927833,-0.13373776816041988,-18.398420037793677,1.5358488717115386,1.2627042531368544,-0.049262671972778733,-0.04515007102752763,-1.0493552848530898,0.009100904404249377,-0.002762357031274476,0.011696628542204213,17.894790841984786,-4.630642251740303,25.728388430321488,0.00822901452231892,0.0023200791454669944,0.15767492517796464
5768,1724557163820374438,-1.3996706008911133,-0.2453401684761047,0.176146999001503,0.0323776826262474,0.0075953365303575,0.5014858841896057,-0.8645264506340027,0.0,0.0,0.0,-2.2100839327325446,0.08551821010415672,-3.2728193273090014,1.51934408,0.176146999001503,0.040982137721071954,-0.022373736962281267,-0.043125739040458244,-206.81803137877674,116.5220162178446,-426.7161379047353,-0.04843412957500314,-0.04562246512064495,-1.0501672071891142,0.08523876158460553,-0.01537594589652258,0.11662624030637403,-626.3965334785125,76.58969270805716,-885.5373927795547,0.005864864028252376,0.0024586979872988153,0.15767492517796464
5770,1724557163822045900,-1.3995169401168823,-0.2453678250312805,0.176357701420784,0.0325348563492298,0.0073408926837146,0.502084493637085,-0.8641751408576965,0.0,0.0,0.0,-3.3213465324715123,0.22286585893679148,-4.842013484638789,1.521015542,0.176357701420784,-0.33432058272078086,0.1888960717177564,-0.8187544859625288,-187.64400648943692,106.255579738879,-388.9796338361982,-0.048929992400622305,-0.045373695103753726,-1.0515507595253768,0.08065510703331569,-0.01512621296017258,0.10989703931208927,-570.4482134411912,70.4663556940975,-807.8384724490966,0.06564043248129603,0.033724585191119386,0.15767492517796464
5772,1724557163832330767,-1.399401068687439,-0.2454335242509842,0.1764651834964752,0.0322010219097137,0.0075033111497759,0.5023897290229797,-0.864008903503418,0.0,0.0,0.0,-3.2144499291260393,0.20680078920676603,-4.861652694123329,1.531300409,0.1764651834964752,0.07047052887105403,0.0069938782079827936,-0.06902897912112367,19.291953565650235,-17.006032024824602,33.0318970249826,-0.0481728752427196,-0.0453363095899533,-1.052264198944149,0.00985069728521637,-0.00818540486964281,0.008452176973248626,207.628510342239,-16.93115485439737,265.21995536467625,0.011594022452376593,0.00023177314666324728,0.15767492517796464
5774,1724557163841134466,-1.3993250131607056,-0.2455191314220428,0.1765245348215103,0.0321638397872448,0.0082347942516207,0.502666175365448,-0.863842785358429,0.0,0.0,0.0,0.09977992167497896,-0.0580754209244328,-0.513690913271919,1.540104108,0.1765245348215103,0.08909705914180692,-0.13759502175695693,-0.07863550162346414,-2.207208360784886,-5.633570098864407,-0.9111743132413981,-0.047359346353862665,-0.04657932538563181,-1.0528984670187234,0.00920727173678415,-0.009891985175531914,0.003344829121340709,204.13645864524744,-4.911583426786944,277.151258542605,0.013025715862202542,-0.004055711185291045,0.15767492517796464
5776,1724557163851094648,-1.3992269039154053,-0.2456195503473281,0.1765195727348327,0.0322617031633853,0.0086048273369669,0.5030224323272705,-0.8636282086372375,0.0,0.0,0.0,0.19118749115982425,0.1766947488977958,-0.19542843419476036,1.55006429,0.1765195727348327,0.018399107621942683,-0.07211744191425055,-0.08568242348856869,4.455894638054662,5.869667617771136,3.6440979258432695,-0.04713762950972651,-0.04733714093219106,-1.053718030174174,0.012149050106259551,-0.008940461063625449,-0.0010228772320424184,-11.57887192333463,18.164799884542404,33.74281645440595,0.01359448399993774,-0.003910236299437257,0.15767492517796464
5778,1724557163861681828,-1.3990724086761477,-0.2457013577222824,0.176502838730812,0.0314152166247367,0.0092071741819381,0.5030016303062439,-0.8636652827262878,0.0,0.0,0.0,-0.1649827488759214,0.30817072918742366,0.18194939648652175,1.56065147,0.176502838730812,0.19559858227136434,-0.01789978097851627,0.0018697528489481352,0.07457557546266091,1.79340097184168,0.1724398869706194,-0.045068142059188326,-0.04752553252140082,-1.053689435833595,0.013000934668852437,-0.0061563940052469235,-0.0003562832730530374,-23.792691956928874,5.2866696105871736,19.903368372099077,0.013840058482801369,0.0004630858461063228,0.15767492517796464
5780,1724557163871473995,-1.3989595174789429,-0.2457474172115326,0.1765104383230209,0.0312950685620307,0.0094586312770843,0.5032898783683777,-0.8634989261627197,0.0,0.0,0.0,-0.3087641644127318,0.29534752269270803,0.23427873977733385,1.570443637,0.1765104383230209,0.04541813099378195,-0.030476684128693306,-0.0697768471517685,-11.37929363286754,-2.1665724837233276,-3.6271240352063905,-0.04459145683285387,-0.04785428095123211,-1.0543593125691249,0.009162422836560324,-0.0027293210394336853,0.0025030436163309133,5.710486086557324,-3.955737628678113,-10.774226891267979,0.0098089053360574,0.0016068082022868116,0.15767492517796464
5782,1724557163882345559,-1.3988884687423706,-0.2457532584667205,0.1765584945678711,0.03161196783185,0.0096897091716527,0.5035839676856995,-0.8633133769035339,0.0,0.0,0.0,-0.0005302900549071232,0.22040297729283484,-0.07740005108436364,1.581315201,0.1765584945678711,-0.03052577769724618,-0.06467868017142034,-0.06467607402186902,-2.3905340779038817,1.2166789588027829,0.7333082240613722,-0.04489094216455665,-0.04858818713868955,-1.0550311242688981,0.006810303573573151,-0.00017785523508351275,0.004353310160807311,14.974244261794363,-12.42484097005908,-35.16870845612985,0.0039009454155069065,0.0028186750141334822,0.15767492517796464
5784,1724557163897932144,-1.3987761735916138,-0.2457479983568191,0.1766248494386673,0.0311704035848379,0.009489974938333,0.5039125680923462,-0.8631399869918823,0.0,0.0,0.0,-0.06608602339834135,-0.0968611724125154,-0.7708020337311695,1.596901786,0.1766248494386673,0.03489669158786156,0.051776000787371365,-0.04734406457293827,-46.8601368862286,-24.81623727428493,-11.555822177183622,-0.04430973167579511,-0.04781488741649613,-1.0558053429637029,0.011624973730931742,0.002938171331109629,-0.0023859406424620033,-33.834329786997905,-22.785387563029026,12.169133716963131,0.0034545152907593632,0.003902168154315794,0.15767492517796464
5786,1724557163901939576,-1.3987250328063965,-0.2457335442304611,0.1766084432601928,0.0316055007278919,0.0094291316345334,0.5040958523750305,-0.8630176782608032,0.0,0.0,0.0,-0.23220220359050447,-0.19067624583518245,-0.6636597665773348,1.600909218,0.1766084432601928,-0.20549879505063473,-0.08094075807475284,-0.10670540577206504,-39.403726547225354,-24.36007243502928,-7.285412536010914,-0.045113426088281595,-0.0481580307338339,-1.0562183252501989,0.01097377639841568,0.002244223575185167,-0.005823572849406489,-27.369854289436518,-14.264626137072305,42.10715114077338,0.002940320120421801,0.009350091930038683,0.15767492517796464
5788,1724557163912765903,-1.3986585140228271,-0.2457491010427475,0.1764948070049286,0.03198928758502,0.0097547518089413,0.5039206147193909,-0.8631022572517395,0.0,0.0,0.0,-0.11664185541758493,-0.07761793451023283,0.24178456576018115,1.611735545,0.1764948070049286,-0.030064778707514048,-0.08852906386450868,0.034581719428799264,10.246076679384657,2.4719003837337716,5.315194837837284,-0.04545923086872664,-0.04909854386807988,-1.0558004364357327,0.006421153953020564,-0.0003322628743998024,-0.007329941386615246,23.206742292044133,9.592267272059706,54.33089578086316,0.003756459793890844,0.0016100404728435155,0.15767492517796464
5790,1724557163923979461,-1.3985832929611206,-0.245739996433258,0.1764493882656097,0.031981598585844,0.0099140675738453,0.5038944482803345,-0.8631160259246826,0.0,0.0,0.0,0.2891514328774667,0.020065653041662003,0.5106872732017227,1.622949103,0.1764493882656097,0.015626545631080947,-0.0239591906279583,0.004343176117383037,1.933426784539225,4.318161016425624,-7.278701664878872,-0.04528700103725298,-0.049364728006380344,-1.0557395577190447,0.008642549494382479,0.0006599513179477157,-0.00019438178644293203,9.79071092717422,-0.6355433769704786,-12.45798161053032,0.0023946575678477186,0.003945786578333777,0.15767492517796464
5792,1724557163932768652,-1.398494005203247,-0.2457352429628372,0.176474243402481,0.0319008268415927,0.009951002895832,0.5042401552200317,-0.8629167675971985,0.0,0.0,0.0,0.1933555077585415,-0.049909730545150584,0.15017051168419795,1.631738294,0.176474243402481,0.017868977655472712,0.0040735865740429995,-0.09119665099800657,2.6464799064620395,1.2374164873590545,-3.1031342253748333,-0.04509031482611477,-0.04936517765784794,-1.0565430253697814,0.011811213694073786,0.00036498400557150035,0.0034285748063922483,-12.434366806067043,-3.9943211750276797,-30.06831176504172,0.0046601169073849985,0.005504285034962239,0.15767492517796464
5794,1724557163941164285,-1.398381590843201,-0.2457335889339447,0.1765078455209732,0.0316863693296909,0.0100881289690732,0.5044365525245667,-0.8628082275390625,0.0,0.0,0.0,0.0766502607621713,-0.05162879246085235,-0.014457236937530427,1.640133927,0.1765078455209732,0.05926571294075582,-0.001192321011132817,-0.0549603074350896,2.555890903410324,-0.9333012271915333,3.784977384606479,-0.044569978309592036,-0.04939585194930129,-1.0570040165077241,0.0120939605396444,-0.0001851577872500343,0.002587906561632103,-5.355532390714899,0.6732768447679838,-8.542891254759576,0.006599004819384796,0.006802638973679835,0.15767492517796464
5796,1724557163953164304,-1.3982586860656738,-0.2457423657178878,0.1765146404504776,0.0314839147031307,0.0103319231420755,0.5045267343521118,-0.8627600073814392,0.0,0.0,0.0,0.15894916403871862,-0.028489577288794678,0.0728273702092366,1.652133946,0.1765146404504776,0.04920334243200983,-0.017641808884199407,-0.01865013271120493,-3.453145086788015,1.9445176962479724,-4.3968619812387715,-0.043968922357382964,-0.04961724955474441,-1.0572184688067534,0.013750820585300971,-0.0005663222600009732,0.0038838915741905566,-8.95899350008586,0.8853586088999061,-7.424256892358509,0.005690033220117654,0.004396376465996414,0.15767492517796464
5798,1724557163962058619,-1.398113250732422,-0.2457463145256042,0.1765710562467575,0.0314259380102157,0.0102671450003981,0.5049389600753784,-0.8625216484069824,0.0,0.0,0.0,-0.02500830428860379,-0.027490166752536717,-0.09010105286903454,1.661028261,0.1765710562467575,0.0012534095360700514,0.021509144760926868,-0.1066905960228678,-5.174793649393878,1.1836913739885766,-3.5922121775242464,-0.043910347533519564,-0.04946780325165767,-1.0581759922312577,0.015302198599513872,-0.0007981335230908826,0.004299778713580338,-3.8516383742870683,-1.275248272809561,-7.757576923006992,0.008710054415753746,0.00771194019155754,0.15767492517796464
5800,1724557163972310849,-1.3979687690734863,-0.2457586824893951,0.1765909940004348,0.0316513814032077,0.0101701859384775,0.5052458643913269,-0.8623348474502563,0.0,0.0,0.0,0.13440292354505673,-0.056962372088306984,-0.044832991827172125,1.671280491,0.1765909940004348,-0.04924385060448568,-0.004385196000939044,-0.06899435690591636,-4.288152205776623,-2.2377531644148245,3.3468634575158793,-0.044380295709450075,-0.049543936542729206,-1.058881585365446,0.012689029543939245,-0.0010968362084443628,0.0017587065068614405,228.53067004422067,-250.87999505142477,-169.16354880322746,0.008041545917838006,0.00587090865983982,0.15767492517796464
5802,1724557164051893590,-1.397826075553894,-0.2457783073186874,0.1766160428524017,0.0316303595900535,0.0103999311104416,0.5054622888565063,-0.8622060418128967,0.0,0.0,0.0,149.89299588051745,-173.23030440150674,-120.73740163718534,1.750863232,0.1766160428524017,0.0032149605561016615,-0.004572748446787487,-0.006513834992519091,958.4138952852999,861.2692521344603,-1876.9181065763019,-0.04409946253764148,-0.04993041867892835,-1.0593840002241972,0.26387327493489465,-0.02282044301307451,0.12360989795308797,307618.9960937726,83347.0952675484,126180.50121217847,0.001106914329104338,0.0006657453732844514,0.15767492517796464
5804,1724557164052622881,-1.3976318836212158,-0.2457951009273529,0.1767070144414901,0.0312863253057003,0.0103486869484186,0.5059031248092651,-0.8619606494903564,0.0,0.0,0.0,376.28005627776326,-111.87445204962319,-27.861675908911792,1.751592523,0.1767070144414901,0.7085784308077694,0.629299194353589,-1.387882336464262,10071.860859666087,-2644.3658255961154,1444.6211639179533,-0.043531382309088346,-0.049516253319695405,-1.0604166125814076,0.374169555001572,-0.15031164903291483,0.034740055643965206,-93444.34555327753,383197.1662524387,-1772.929728054849,0.15616035803938097,0.11154362129470922,0.15767492517796464
5806,1724557164052992575,-1.3974733352661133,-0.2458745241165161,0.1767029911279678,0.0304019842296838,0.0110844336450099,0.5059215426445007,-0.8619722723960876,0.0,0.0,0.0,266.0474199695418,85.83812742560531,-52.71568756516078,1.751962217,0.1767029911279678,6.138356579909195,-1.0067638560693282,-0.22811278698891896,-997.1150582442442,-216.32726581669,-2773.688929651776,-0.04125865683768447,-0.04989168208942087,-1.0604850815943592,0.5554523699784113,-0.17987546255295683,0.042055229174195574,-732212.1566498164,152363.56084348814,27365.44157544763,0.3959047104119343,0.021570845882847738,0.15767492517796464
5808,1724557164053267963,-1.3972944021224976,-0.2459168881177902,0.1767254322767257,0.0300986655056476,0.0113020883873105,0.5061782598495483,-0.861829400062561,0.0,0.0,0.0,-24.633328113542234,49.34457896724558,-25.774672711927828,1.752237605,0.1767254322767257,2.6462982087153355,-0.20288336835752405,-2.2044864430542463,-9428.46256275072,384.70220262721546,-2637.6968316629,-0.04049970158891392,-0.04997232052379068,-1.0610901879580563,0.5827036292007506,-0.12222334844238958,0.012664832270445459,-476905.5813255554,-341453.2292148071,363575.2323922245,0.45481298828672756,0.18320449730106764,0.15767492517796464
5810,1724557164053564525,-1.397143006324768,-0.2459430396556854,0.1767072081565857,0.0300499256700277,0.0114904372021555,0.5063691735267639,-0.8617164492607117,0.0,0.0,0.0,18.72694630841829,-118.64423854494322,166.91761617141503,1.752534167,0.1767072081565857,0.8887592272552899,-0.898185431416076,-1.5371367210472053,-5186.132315390659,-3602.1655111265172,505.4520826721887,-0.04021382258735285,-0.050256862937440194,-1.0615354806343664,0.5359283764050815,-0.15868917477308742,0.030873216790723745,381338.71795953036,-182868.74480073078,83455.23826106876,0.32238053450391135,0.170902061723833,0.15767492517796464
5812,1724557164053845101,-1.39698588848114,-0.2460062801837921,0.1767403781414032,0.0302509535104036,0.011743115261197,0.5065849423408508,-0.861579179763794,0.0,0.0,0.0,188.136809848128,-68.1293779885986,40.00822597563647,1.752814743,0.1767403781414032,-0.3698451262664551,-2.2427049422563,-1.8584885176052888,-1855.306166844511,-95.98328847316361,-146.72887482233864,-0.040292497400144525,-0.05090658669845509,-1.0620318185475297,0.5880221901725236,-0.19083177059326317,0.10571659362881292,158644.87616557602,79820.46597749594,-591929.5662857504,0.47502264921863513,0.0767312144222266,0.15767492517796464
5814,1724557164054121605,-1.3968156576156616,-0.246049627661705,0.1767662018537521,0.0303374007344245,0.011856167577207,0.5067748427391052,-0.8614628911018372,0.0,0.0,0.0,110.70381446702231,-73.36758936543032,-161.70575530591645,1.753091247,0.1767662018537521,-0.1660619198916616,-0.9896226219962597,-1.6269500268883585,215.31972807054245,4855.268810668855,-462.35468341591286,-0.0403160088379656,-0.05119812400070228,-1.0624708340029836,0.6407156654195205,-0.1970180702445532,0.05499417676549001,-288589.28702837176,-95101.2894201361,-318528.3573399229,0.4408036007517838,0.16322549467743633,0.15767492517796464
5816,1724557164054397374,-1.3966320753097534,-0.2461150288581848,0.176770806312561,0.030333038419485,0.0117954639717936,0.5070279240608215,-0.8613149523735046,0.0,0.0,0.0,28.769284953491926,-120.53945061383016,-136.5097337890104,1.753367016,0.176770806312561,-0.25016400461179383,0.4382541765624888,-2.1119264573530576,-296.5614269453389,5045.27993571368,-1709.1646971496073,-0.04035495575457213,-0.0511008509914279,-1.0630584136170305,0.6492781657255162,-0.23127584726185724,0.016378961375456247,-289694.2329402812,-166407.9139137644,89373.39501640339,0.5310703061976974,0.11611164052077738,0.15767492517796464
5818,1724557164064989372,-1.396440029144287,-0.2461711317300796,0.1768149882555008,0.0302815269678831,0.0120523581281304,0.5074325799942017,-0.8610749244689941,0.0,0.0,0.0,-21.550205519128475,7.7184253441871595,-0.6773252462180042,1.763959014,0.1768149882555008,0.030696043209517056,-0.03506530688264387,-0.09037710126323671,3.0682407763037274,-13.668852104557546,66.42796650830374,-0.03998147574534528,-0.051510409371607495,-1.0640013198654463,0.026332270052705553,-0.00809625079752152,0.0015505926189760544,498.0880397541856,3644.3823147192898,4760.586564551128,0.01362840465902811,0.004197902355168787,0.15767492517796464
5820,1724557164071138914,-1.3962488174438477,-0.2462309151887893,0.1768151670694351,0.0303803477436304,0.0120329996570944,0.5077669620513916,-0.860874593257904,0.0,0.0,0.0,0.2527116170174627,-0.09151030674452698,-0.1911094391682813,1.770108556,0.1768151670694351,-0.03415266964307968,-0.00837937245643609,-0.12612495710831137,-7.5853206593993905,2.8188136249622295,-2.6187912367037134,-0.04015161946705576,-0.051592966738582255,-1.0647753008525014,0.026848200713633474,-0.008303009511649861,-3.4608685177239806e-05,2515.398901017782,-900.463888186769,55.58759149499993,0.023544545912274378,0.006545155648092411,0.15767492517796464
5822,1724557164086172859,-1.396001219749451,-0.2463036030530929,0.1768123060464859,0.0307145155966281,0.0120352683588862,0.5080766677856445,-0.8606799244880676,0.0,0.0,0.0,0.2105701274813665,-0.047047095014717266,-0.21830795985727006,1.785142501,0.1768123060464859,-0.03939956367130051,-0.021892583031267884,-0.048092772743222656,-45.90519053792062,7.882156261216547,-27.259599277630787,-0.04070720244606026,-0.05195105059467803,-1.065485338957438,0.0368520295590713,-0.011806397154892068,-0.000457501128526161,3.5405102373997615,-1.0960164015996972,47.89091984877051,0.012176746061278571,0.0037275625329059856,0.15767492517796464
5824,1724557164091375097,-1.3957728147506714,-0.2463775724172592,0.1768094450235366,0.0314670018851757,0.0115008726716041,0.5086463093757629,-0.8603234887123108,0.0,0.0,0.0,0.24040810296659132,-0.06004578852177406,0.12029931624243367,1.790344739,0.1768094450235366,-0.360217031084654,0.034919347798886315,-0.24831839792935897,-37.5337215237966,7.201874068111405,-23.37407125377245,-0.04251371287280646,-0.05182328399512535,-1.0667852979187056,0.03712867682073906,-0.011716347867080756,-0.0019355404758134576,21.430516956077476,-1.6008669112318767,69.2810758059968,0.033580644814300675,0.008713876037461016,0.15767492517796464
5826,1724557164104992128,-1.3955087661743164,-0.2464479207992553,0.1767337024211883,0.0315280593931674,0.0114659909158945,0.5088105797767639,-0.8602245450019836,0.0,0.0,0.0,1.0916424055826432,-0.049844299256132096,1.2131283378719495,1.80396177,0.1767337024211883,-0.011055919528824171,0.00043828580087402206,-0.027884668644359033,66.79596440890545,21.21991913335994,-28.600972516902445,-0.042644566831555895,-0.05183348113095873,-1.0671653771518428,0.04707575173023315,-0.015291178094866353,0.014117168951734982,-64.21323696766684,36.315815219640584,-70.05033444526603,0.013576210316597444,0.004750848955675885,0.15767492517796464
5828,1724557164111817738,-1.3950927257537842,-0.2465869337320327,0.1768973916769027,0.0294004492461681,0.0118583757430315,0.5099153518676758,-0.8596403002738953,0.0,0.0,0.0,0.21977187573803558,0.3197200726130898,0.22074281244105393,1.81078738,0.1768973916769027,0.5856720828729943,0.22654205804236602,-0.37634387514630513,32.51253901302457,19.461633463703777,-28.153575697322733,-0.03851248329938338,-0.050392681556313663,-1.0697983457521794,0.055762521950192934,-0.014903730868939036,0.02251472041928082,-126.19167768607522,36.85756464758355,-143.3196770797731,0.048287293150160435,0.01159953075757176,0.15767492517796464
5830,1724557164121744901,-1.3946141004562378,-0.2466560155153274,0.1770997196435928,0.0283249430358409,0.0112492004409432,0.5113276243209839,-0.8588452935218811,0.0,0.0,0.0,-1.0106682825344842,0.4360316173993064,-1.1721021990190823,1.820714543,0.1770997196435928,0.11560197611600538,0.2224568536011971,-0.3252240731265945,-23.147604134323622,-9.718561299497864,13.609580294534926,-0.037201403809379106,-0.04830808437605431,-1.0731121194354554,0.042742382401385726,-0.007933238501101059,0.010130015901363976,-36.10618219295762,-3.3074295487428547,-51.33834477985316,0.03008173335711993,0.017070115852738973,0.15767492517796464
5832,1724557164131985852,-1.3942341804504397,-0.2467475533485412,0.1770951598882675,0.0276645291596651,0.0115065099671483,0.5117475390434265,-0.8586133122444153,0.0,0.0,0.0,-0.4524238044915636,0.24343778733802715,-0.7579380960318606,1.830955494,0.1770951598882675,0.13425867514243364,0.024603816485076063,-0.09647104537135018,-4.314905073537373,-10.423740643570664,10.614174784091173,-0.03577840113881494,-0.04809233112948463,-1.0741098251970869,0.03557107010959726,-0.0062794531768748385,-0.0010762681454075107,41.29862723439954,-15.666290584994357,42.961261422687315,0.025485231451276177,0.009792917192268817,0.15767492517796464
5834,1724557164141909670,-1.3938958644866943,-0.2467842996120453,0.1770784109830856,0.0275034140795469,0.0115745160728693,0.5121890306472778,-0.8583542108535767,0.0,0.0,0.0,-0.16964060041888973,0.11816375711128585,-0.30737145409677646,1.840879312,0.1770784109830856,0.032424932483277484,0.0067094343486803045,-0.10387137220881937,-13.530341530234992,-4.115132984564379,-1.0963217329745243,-0.035406938381376776,-0.04806246512968146,-1.0751434240799194,0.03346460172602406,-0.0030755452403301575,-0.005363646633398389,23.05863911513145,-18.84404204181373,54.478492172987025,0.01936769379292369,0.01292311273758922,0.15767492517796464
5836,1724557164151228534,-1.3935894966125488,-0.2468074709177017,0.1769962608814239,0.0281098745763301,0.0115051865577697,0.5126573443412781,-0.858055830001831,0.0,0.0,0.0,-0.002336255554963973,-0.11187532243466865,0.27972785101291986,1.850198176,0.1769962608814239,-0.1222669919341336,-0.051870382757003786,-0.11715594204090204,-4.095492988242833,-1.1849660604326249,0.7663191354802832,-0.03649440111583025,-0.04858476373458733,-1.0762183008603854,0.032256731558597096,-0.0037655620567278447,-0.007137146505019842,14.861605573993518,-16.91471968481612,52.21775991878815,0.01734438795014275,0.013317373126432521,0.15767492517796464
5838,1724557164162232336,-1.393242597579956,-0.2468655258417129,0.1769395321607589,0.0281238611787557,0.011497413739562,0.5130366683006287,-0.8578287959098816,0.0,0.0,0.0,0.12102633270458374,-0.19703517228756412,0.7142087031618284,1.861201978,0.1769395321607589,-0.004858715353297347,0.0013722269559347888,-0.08024361361986912,-4.49548679279935,-1.0769022155503158,-1.5598015145739677,-0.036504930435324885,-0.04860190110787589,-1.0771023923856586,0.033884814382304285,-0.005488158049315572,0.0020483471687668953,15.355192219813324,-10.801777464166015,-16.062643650848067,0.01931161232512855,0.01022735963876246,0.15767492517796464
5840,1724557164171503814,-1.3929100036621094,-0.2469180673360824,0.1770147979259491,0.0289033204317092,0.0113403350114822,0.513567328453064,-0.8574873805046082,0.0,0.0,0.0,0.29576629853282865,-0.3211086306645294,0.13135614669003215,1.870473456,0.1770147979259491,-0.16500775356997455,-0.054823126097243075,-0.13309523158269507,-2.5099676615402036,0.9067684580043192,-6.608132533505827,-0.03797540041208309,-0.049155783830037325,-1.0783180586762708,0.03479653317204878,-0.007631265276540233,0.007728414476924073,-2.1573564464281083,-3.3532958831613273,-68.16386216400099,0.022326984575272064,0.012028738342667655,0.15767492517796464
5842,1724557164182833218,-1.3925306797027588,-0.2470317184925079,0.1770969629287719,0.0286849550902843,0.0111560942605137,0.5146458745002747,-0.8568502068519592,0.0,0.0,0.0,-0.019462588777494183,-0.22025716266714157,-0.7142562053298791,1.88180286,0.1770969629287719,0.010941085089828268,0.05191397945979542,-0.22052746322625674,21.37531030825293,6.504735773815506,-2.708551405920657,-0.037728145076279855,-0.04866259456472657,-1.0808399209667077,0.04088063844321255,-0.012514624589922363,0.0025536693607612904,-48.25687106056826,15.988823781666891,-33.43773908969767,0.024930907814691188,0.006959025612571665,0.15767492517796464
5844,1724557164191255747,-1.3921400308609009,-0.2471526712179184,0.177089050412178,0.0276621133089065,0.0113557903096079,0.515410304069519,-0.8564216494560242,0.0,0.0,0.0,-0.5538480320121114,-0.041215131110039105,-0.7379067623722853,1.890225389,0.177089050412178,0.22757386570820082,0.08843859207539266,-0.21197816519527465,11.480793878182178,4.096857157886262,3.9198977933674954,-0.035723790001908964,-0.047983776996912086,-1.0826536047068027,0.03723230808025946,-0.013049968488388686,-0.00507452577412737,792.149843843569,-611.2318094310303,-216.3563152561992,0.034350931397005874,0.009031878094098278,0.15767492517796464
5846,1724557164206938452,-1.3918232917785645,-0.2473190575838089,0.1768887192010879,0.0271224752068519,0.0103585282340645,0.5158833265304565,-0.8561667799949646,0.0,0.0,0.0,36.853590251479076,-28.096376631304505,-10.3668075640819,1.905908094,0.1768887192010879,-0.008195418827409562,0.14568946195191174,-0.06567880518650591,-0.34705673855286534,-3.2264605733621923,8.283261441807738,-0.03580021795156038,-0.0457372656047062,-1.0837659862630447,0.025022343744439013,-0.013043810568825975,-0.011747460137723209,-368.82909570428086,272.0870574863154,168.26750583499117,0.01822433584243209,-6.669856981403786e-05,0.15767492517796464
5848,1724557164220744777,-1.3914191722869873,-0.2475287318229675,0.1767390072345733,0.02608422935009,0.0108374748378992,0.5156617760658264,-0.8563265204429626,0.0,0.0,0.0,-1.7130993866444442,0.7105912655260909,1.4641603516541863,1.919714419,0.1767390072345733,0.1655211900816702,0.01755734907078109,0.035975781418213726,11301.26602831957,-460.32002209904357,1150.4472171605153,-0.03353724701628576,-0.04547778909955929,-1.0832774194354846,0.9912330008264689,-0.7424522166977567,-0.2757061164259085,-10142.082523808182,7615.058070739423,2874.169981500866,0.026607882903699157,0.00018594037565966386,0.15767492517796464
5850,1724557164221086190,-1.3910726308822632,-0.2477883547544479,0.1766426414251327,0.0254955068230628,0.011219086125493,0.5155892968177795,-0.8563829660415649,0.0,0.0,0.0,-5.237780961234577,3.3571470712445537,2.4624703780194004,1.920055832,0.1766426414251327,4.119227442244106,-0.14340988623604922,0.438404149750044,11280.028268604652,-459.21165711749927,1147.8512374068803,-0.032137772977790524,-0.04552180972823211,-1.083126042731419,0.9900428152519059,-0.7417575713807234,-0.27503245807104554,-10112.930646612653,7593.788147372545,2865.5908778810385,1.1333645802099572,-0.1988463629307592,0.15767492517796464
