seq,stamp,px,py,pz,ox,oy,oz,ow,lx,ly,lz,ax,ay,az
562,1724814821285280146,-1.9043477773666382,-0.32196447253227234,0.18878668546676636,-0.013871364295482635,0.1049891784787178,-0.3585275411605835,0.9274927377700806,0.0,0.0,0.0,0.0,0.0,0.0
564,1724814821287310451,-1.904543399810791,-0.32204577326774597,0.1880580633878708,-0.01527814194560051,0.10458860546350479,-0.3579954206943512,0.9277215003967285,0.0,0.0,0.0,0.0,0.0,0.0
566,1724814821298288569,-1.9047733545303345,-0.3221972584724426,0.18721073865890503,-0.016583247110247612,0.10375995188951492,-0.3571968972682953,0.9280998706817627,0.0,0.0,0.0,0.0,0.0,0.0
568,1724814821307180642,-1.9051889181137085,-0.32253411412239075,0.1859763264656067,-0.018668293952941895,0.1022634357213974,-0.3558908998966217,0.9287278056144714,0.0,0.0,0.0,0.0,0.0,0.0
570,1724814821321936901,-1.9054358005523682,-0.3226957619190216,0.1854703426361084,-0.01981993019580841,0.1018388569355011,-0.35580307245254517,0.9287843108177185,0.0,0.0,0.0,0.0,0.0,0.0
572,1724814821329527633,-1.9056938886642456,-0.3229468762874603,0.1849311888217926,-0.020233839750289917,0.10060057789087296,-0.35530325770378113,0.9291016459465027,0.0,0.0,0.0,0.0,0.0,0.0
574,1724814821337993217,-1.9059475660324097,-0.32324492931365967,0.18444062769412994,-0.0205315463244915,0.09917996823787689,-0.3546908497810364,0.9294817447662354,0.0,0.0,0.0,0.0,0.0,0.0
576,1724814821347579638,-1.9061516523361206,-0.3235189914703369,0.1840415894985199,-0.020981676876544952,0.09797102957963943,-0.3544468581676483,0.9296929240226746,0.0,0.0,0.0,0.0,0.0,0.0
578,1724814821358913434,-1.90626060962677,-0.3237902820110321,0.1837199330329895,-0.02125384286046028,0.09667307138442993,-0.35408782958984375,0.9299593567848206,0.0,0.0,0.0,0.0,0.0,0.0
580,1724814821369658073,-1.9063234329223633,-0.3240680396556854,0.18339668214321136,-0.021817781031131744,0.09528689831495285,-0.3536416292190552,0.930259108543396,0.0,0.0,0.0,0.0,0.0,0.0
582,1724814821377501650,-1.9063282012939453,-0.3243439793586731,0.1831696778535843,-0.022202081978321075,0.09425772726535797,-0.35316187143325806,0.9305370450019836,0.0,0.0,0.0,0.0,0.0,0.0
584,1724814821387535898,-1.906301736831665,-0.3246045410633087,0.18301650881767273,-0.022509094327688217,0.09332703799009323,-0.35294151306152344,0.9307070970535278,0.0,0.0,0.0,0.0,0.0,0.0
586,1724814821397193447,-1.9062608480453491,-0.3247683346271515,0.18294455111026764,-0.022668780758976936,0.09315430372953415,-0.35296642780303955,0.9307110905647278,0.0,0.0,0.0,0.0,0.0,0.0
588,1724814821408032708,-1.9062529802322388,-0.3249880075454712,0.1827652007341385,-0.022846577689051628,0.09257619827985764,-0.35254162549972534,0.9309254288673401,0.0,0.0,0.0,0.0,0.0,0.0
590,1724814821417014700,-1.9062021970748901,-0.3250625431537628,0.1827564835548401,-0.022883839905261993,0.09296537190675735,-0.35280781984329224,0.9307848215103149,0.0,0.0,0.0,0.0,0.0,0.0
592,1724814821427648156,-1.9062236547470093,-0.3251824975013733,0.18261601030826569,-0.022739864885807037,0.0928160548210144,-0.35258781909942627,0.9308866858482361,0.0,0.0,0.0,0.0,0.0,0.0
594,1724814821437772353,-1.9061942100524902,-0.3252035975456238,0.1825561672449112,-0.022355129942297935,0.09325145930051804,-0.3527570068836212,0.9307883381843567,0.0,0.0,0.0,0.0,0.0,0.0
596,1724814821448126903,-1.9061694145202637,-0.3251606822013855,0.18252886831760406,-0.02179073728621006,0.0934632197022438,-0.35302889347076416,0.9306773543357849,0.0,0.0,0.0,0.0,0.0,0.0
598,1724814821457207017,-1.9062025547027588,-0.3251282274723053,0.18241460621356964,-0.02172253653407097,0.09395696222782135,-0.35330238938331604,0.9305254817008972,0.0,0.0,0.0,0.0,0.0,0.0
600,1724814821468609169,-1.906222939491272,-0.32505035400390625,0.18230988085269928,-0.020748170092701912,0.09404633939266205,-0.3536930978298187,0.9303902983665466,0.0,0.0,0.0,0.0,0.0,0.0
602,1724814821477782352,-1.9063142538070679,-0.3249775469303131,0.18216881155967712,-0.020844964310526848,0.09429275244474411,-0.35376718640327454,0.9303349852561951,0.0,0.0,0.0,0.0,0.0,0.0
604,1724814821487758796,-1.9064040184020996,-0.3249068856239319,0.18198102712631226,-0.020559566095471382,0.09426742792129517,-0.35387927293777466,0.9303012490272522,0.0,0.0,0.0,0.0,0.0,0.0
606,1724814821498383122,-1.906544804573059,-0.32482457160949707,0.181791752576828,-0.020286379382014275,0.09421178698539734,-0.3540709316730499,0.9302399158477783,0.0,0.0,0.0,0.0,0.0,0.0
608,1724814821507263345,-1.906699776649475,-0.32474997639656067,0.18159376084804535,-0.02012629806995392,0.09408631920814514,-0.3542080819606781,0.930203914642334,0.0,0.0,0.0,0.0,0.0,0.0
610,1724814821518403938,-1.9068244695663452,-0.3246903121471405,0.18142741918563843,-0.019307436421513557,0.09394913166761398,-0.3544721007347107,0.9301345348358154,0.0,0.0,0.0,0.0,0.0,0.0
612,1724814821528482868,-1.906990647315979,-0.3246622681617737,0.18120348453521729,-0.0195299182087183,0.09385382384061813,-0.35444867610931396,0.9301484823226929,0.0,0.0,0.0,0.0,0.0,0.0
614,1724814821537502914,-1.9071478843688965,-0.32465776801109314,0.18088991940021515,-0.01942066289484501,0.09314250200986862,-0.35422614216804504,0.9303070306777954,0.0,0.0,0.0,0.0,0.0,0.0
616,1724814821548822603,-1.9073132276535034,-0.3246620297431946,0.18060417473316193,-0.0199058149009943,0.09277044236660004,-0.3541158437728882,0.9303759336471558,0.0,0.0,0.0,0.0,0.0,0.0
618,1724814821557799854,-1.9074318408966064,-0.3246292769908905,0.18031634390354156,-0.020091470330953598,0.09219486266374588,-0.35403335094451904,0.9304605722427368,0.0,0.0,0.0,0.0,0.0,0.0
620,1724814821568489963,-1.9075652360916138,-0.324598491191864,0.1800430417060852,-0.020158004015684128,0.09188727289438248,-0.3540831506252289,0.9304705858230591,0.0,0.0,0.0,0.0,0.0,0.0
622,1724814821578944416,-1.907668948173523,-0.3245660960674286,0.17975907027721405,-0.01973249763250351,0.09140843898057938,-0.35387247800827026,0.93060702085495,0.0,0.0,0.0,0.0,0.0,0.0
624,1724814821589438711,-1.9077939987182617,-0.32453811168670654,0.17944222688674927,-0.020182469859719276,0.09085176140069962,-0.35398441553115845,0.9306092858314514,0.0,0.0,0.0,0.0,0.0,0.0
626,1724814821598156946,-1.9078322649002075,-0.3243717849254608,0.17912866175174713,-0.02008502185344696,0.09020621329545975,-0.35500240325927734,0.9302863478660583,0.0,0.0,0.0,0.0,0.0,0.0
628,1724814821608116749,-1.9073914289474487,-0.323825865983963,0.1800963133573532,-0.015208154916763306,0.0966222956776619,-0.3581855893135071,0.9285128116607666,0.0,0.0,0.0,0.0,0.0,0.0
630,1724814821617467496,-1.9073472023010254,-0.3236607611179352,0.1802884191274643,-0.014103601686656475,0.09802518039941788,-0.35942667722702026,0.9279033541679382,0.0,0.0,0.0,0.0,0.0,0.0
632,1724814821627444153,-1.9074511528015137,-0.3236037790775299,0.18011774122714996,-0.014084653928875923,0.09769661724567413,-0.3596574664115906,0.9278489351272583,0.0,0.0,0.0,0.0,0.0,0.0
634,1724814821637330392,-1.9075844287872314,-0.32348841428756714,0.17983298003673553,-0.01412240695208311,0.09701738506555557,-0.3596251308917999,0.92793208360672,0.0,0.0,0.0,0.0,0.0,0.0
636,1724814821647317878,-1.9079467058181763,-0.32336950302124023,0.17919161915779114,-0.015989577397704124,0.0940152257680893,-0.3585056960582733,0.9286437630653381,0.0,0.0,0.0,0.0,0.0,0.0
638,1724814821657825917,-1.9088060855865479,-0.32379719614982605,0.17736369371414185,-0.021480629220604897,0.0850662961602211,-0.35371294617652893,0.9312301278114319,0.0,0.0,0.0,0.0,0.0,0.0
640,1724814821667244649,-1.9089901447296143,-0.32330888509750366,0.17701444029808044,-0.02052769809961319,0.08655698597431183,-0.35430362820625305,0.9308896064758301,0.0,0.0,0.0,0.0,0.0,0.0
642,1724814821677414660,-1.9091030359268188,-0.32255345582962036,0.17712390422821045,-0.01671278104186058,0.09141737222671509,-0.3569622337818146,0.9294846057891846,0.0,0.0,0.0,0.0,0.0,0.0
644,1724814821687751629,-1.9097591638565063,-0.32197505235671997,0.17564894258975983,-0.018466273322701454,0.08836866915225983,-0.3577194809913635,0.9294551014900208,0.0,0.0,0.0,0.0,0.0,0.0
646,1724814821697303892,-1.9101513624191284,-0.3212149441242218,0.17548447847366333,-0.014279451221227646,0.08943837881088257,-0.3583255708217621,0.9291930198669434,0.0,0.0,0.0,0.0,0.0,0.0
648,1724814821707006537,-1.9109137058258057,-0.32073402404785156,0.17417649924755096,-0.015899233520030975,0.0851747989654541,-0.3571314513683319,0.9300267100334167,0.0,0.0,0.0,0.0,0.0,0.0
650,1724814821718170417,-1.9115279912948608,-0.3200397789478302,0.1731148362159729,-0.015165595337748528,0.0845806673169136,-0.3568919599056244,0.930185079574585,0.0,0.0,0.0,0.0,0.0,0.0
652,1724814821727838649,-1.9119869470596313,-0.3191879987716675,0.17259134352207184,-0.014055666513741016,0.08484485745429993,-0.35763490200042725,0.9298930764198303,0.0,0.0,0.0,0.0,0.0,0.0
654,1724814821739678585,-1.9127944707870483,-0.31860271096229553,0.17133086919784546,-0.01711202785372734,0.08016471564769745,-0.356332927942276,0.9307565689086914,0.0,0.0,0.0,0.0,0.0,0.0
656,1724814821747791797,-1.9129201173782349,-0.31748834252357483,0.17174074053764343,-0.011714276857674122,0.08691815286874771,-0.35860341787338257,0.9293608665466309,0.0,0.0,0.0,0.0,0.0,0.0
658,1724814821757203512,-1.913693904876709,-0.3169477880001068,0.17028971016407013,-0.01352415420114994,0.08179337531328201,-0.35758715867996216,0.9301926493644714,0.0,0.0,0.0,0.0,0.0,0.0
660,1724814821768507868,-1.9144484996795654,-0.31638723611831665,0.16895946860313416,-0.014500387944281101,0.08121971786022186,-0.35746437311172485,0.9302754402160645,0.0,0.0,0.0,0.0,0.0,0.0
662,1724814821778499518,-1.9145640134811401,-0.31515341997146606,0.16976070404052734,-0.0078234001994133,0.08744137734174728,-0.35953015089035034,0.9289945363998413,0.0,0.0,0.0,0.0,0.0,0.0
664,1724814821789225136,-1.914935827255249,-0.31426680088043213,0.16943611204624176,-0.004909403622150421,0.08784588426351547,-0.3610822856426239,0.9283742904663086,0.0,0.0,0.0,0.0,0.0,0.0
666,1724814821801097633,-1.915420413017273,-0.31348028779029846,0.16851770877838135,-0.004683509934693575,0.08683343976736069,-0.36130404472351074,0.9283843636512756,0.0,0.0,0.0,0.0,0.0,0.0
668,1724814821807013197,-1.9157185554504395,-0.312764048576355,0.16812297701835632,-0.0028771348297595978,0.08689913898706436,-0.3617457449436188,0.9282135963439941,0.0,0.0,0.0,0.0,0.0,0.0
670,1724814821820154929,-1.9161118268966675,-0.3121103346347809,0.16735787689685822,-0.0033830981701612473,0.08482546359300613,-0.3616960048675537,0.9284230470657349,0.0,0.0,0.0,0.0,0.0,0.0
672,1724814821827513094,-1.9164115190505981,-0.3115474581718445,0.16677191853523254,-0.0029927054420113564,0.08384564518928528,-0.3619845509529114,0.9284008741378784,0.0,0.0,0.0,0.0,0.0,0.0
674,1724814821837248186,-1.9165011644363403,-0.3110169470310211,0.16688063740730286,6.669248978141695e-05,0.08721720427274704,-0.362891286611557,0.9277408123016357,0.0,0.0,0.0,0.0,0.0,0.0
676,1724814821847181955,-1.9167461395263672,-0.3107520341873169,0.16638866066932678,-0.0011484575225040317,0.08494539558887482,-0.3622490465641022,0.9282018542289734,0.0,0.0,0.0,0.0,0.0,0.0
678,1724814821857983068,-1.9169114828109741,-0.31052443385124207,0.16602878272533417,-0.0017092322232201695,0.08366592228412628,-0.3621099591255188,0.9283713698387146,0.0,0.0,0.0,0.0,0.0,0.0
680,1724814821871167027,-1.9171369075775146,-0.3105061650276184,0.16528864204883575,-0.004710034932941198,0.07992947846651077,-0.3612480163574219,0.9290258884429932,0.0,0.0,0.0,0.0,0.0,0.0
682,1724814821877755737,-1.9172147512435913,-0.31048402190208435,0.16505402326583862,-0.005627624690532684,0.07753808796405792,-0.3609049618244171,0.9293566346168518,0.0,0.0,0.0,0.0,0.0,0.0
684,1724814821888126544,-1.917366862297058,-0.3107241094112396,0.1645514965057373,-0.007025387603789568,0.07442714273929596,-0.35976967215538025,0.9300414323806763,0.0,0.0,0.0,0.0,0.0,0.0
686,1724814821897463785,-1.9174220561981201,-0.31089305877685547,0.1642840951681137,-0.0077097672037780285,0.07293100655078888,-0.35932549834251404,0.9303262829780579,0.0,0.0,0.0,0.0,0.0,0.0
688,1724814821907354823,-1.9170029163360596,-0.31046146154403687,0.16510768234729767,-0.003851433517411351,0.07911583036184311,-0.36297422647476196,0.9284265041351318,0.0,0.0,0.0,0.0,0.0,0.0
690,1724814821917504903,-1.9172745943069458,-0.3107721209526062,0.164545938372612,-0.006825142074376345,0.07458628714084625,-0.36122646927833557,0.9294653534889221,0.0,0.0,0.0,0.0,0.0,0.0
692,1724814821927516847,-1.9172511100769043,-0.31075039505958557,0.16468866169452667,-0.006586744450032711,0.07501745223999023,-0.36134999990463257,0.9293842911720276,0.0,0.0,0.0,0.0,0.0,0.0
694,1724814821938155024,-1.9170138835906982,-0.31051361560821533,0.16515560448169708,-0.004326261579990387,0.07850529253482819,-0.3630412518978119,0.9284499287605286,0.0,0.0,0.0,0.0,0.0,0.0
696,1724814821947759149,-1.9170533418655396,-0.3105383813381195,0.1649346649646759,-0.004821223672479391,0.0774197205901146,-0.36259740591049194,0.9287121295928955,0.0,0.0,0.0,0.0,0.0,0.0
698,1724814821957183678,-1.9171839952468872,-0.3106105327606201,0.16477486491203308,-0.0064340196549892426,0.07560379058122635,-0.3617381751537323,0.9291868805885315,0.0,0.0,0.0,0.0,0.0,0.0
700,1724814821968497002,-1.9172444343566895,-0.31065887212753296,0.16452327370643616,-0.006628968752920628,0.07494711130857468,-0.3609481453895569,0.9295458197593689,0.0,0.0,0.0,0.0,0.0,0.0
702,1724814821978014990,-1.9172240495681763,-0.310653418302536,0.16467323899269104,-0.006285130977630615,0.07543468475341797,-0.36139369010925293,0.9293355941772461,0.0,0.0,0.0,0.0,0.0,0.0
704,1724814821989072549,-1.9172277450561523,-0.3106612265110016,0.16468589007854462,-0.006077218800783157,0.07550959289073944,-0.3613823652267456,0.9293352961540222,0.0,0.0,0.0,0.0,0.0,0.0
706,1724814821997351963,-1.9172382354736328,-0.3107060492038727,0.1647031605243683,-0.006473837420344353,0.0753234401345253,-0.3614315688610077,0.9293286204338074,0.0,0.0,0.0,0.0,0.0,0.0
708,1724814822007322689,-1.9172648191452026,-0.3107532262802124,0.1645452231168747,-0.006558150053024292,0.07474759221076965,-0.36090534925460815,0.9295790791511536,0.0,0.0,0.0,0.0,0.0,0.0
710,1724814822018367308,-1.9172687530517578,-0.31074607372283936,0.1645982414484024,-0.006751307286322117,0.07481824606657028,-0.36116304993629456,0.9294718503952026,0.0,0.0,0.0,0.0,0.0,0.0
712,1724814822027566969,-1.9172130823135376,-0.3106760084629059,0.16464893519878387,-0.006390886846929789,0.07509702444076538,-0.36127278208732605,0.9294092655181885,0.0,0.0,0.0,0.0,0.0,0.0
714,1724814822038385030,-1.9172205924987793,-0.31064802408218384,0.1646023392677307,-0.006328696385025978,0.07510265707969666,-0.36122819781303406,0.9294265508651733,0.0,0.0,0.0,0.0,0.0,0.0
716,1724814822050091473,-1.917242169380188,-0.3106558918952942,0.16452932357788086,-0.006272670812904835,0.07504815608263016,-0.3610366880893707,0.9295058250427246,0.0,0.0,0.0,0.0,0.0,0.0
718,1724814822077686801,-1.9172698259353638,-0.31067216396331787,0.16453540325164795,-0.006331989541649818,0.07508320361375809,-0.36116477847099304,0.9294527769088745,0.0,0.0,0.0,0.0,0.0,0.0
720,1724814822078176556,-1.9172611236572266,-0.3106866478919983,0.1645604521036148,-0.006589191500097513,0.07478238642215729,-0.36110949516296387,0.9294967651367188,0.0,0.0,0.0,0.0,0.0,0.0
722,1724814822079471161,-1.917254090309143,-0.3106915056705475,0.1646205633878708,-0.006365419365465641,0.07499834150075912,-0.36134207248687744,0.9293904900550842,0.0,0.0,0.0,0.0,0.0,0.0
724,1724814822088149091,-1.9172086715698242,-0.3106617331504822,0.16470584273338318,-0.006261476781219244,0.07521945238113403,-0.36159268021583557,0.9292758107185364,0.0,0.0,0.0,0.0,0.0,0.0
726,1724814822097960547,-1.9172165393829346,-0.31066787242889404,0.16465294361114502,-0.006144240964204073,0.07518283277750015,-0.3613622784614563,0.9293692111968994,0.0,0.0,0.0,0.0,0.0,0.0
728,1724814822107494047,-1.9172369241714478,-0.31069812178611755,0.16456496715545654,-0.006260446738451719,0.07494235783815384,-0.36116161942481995,0.9294658899307251,0.0,0.0,0.0,0.0,0.0,0.0
730,1724814822117790109,-1.917209506034851,-0.310637503862381,0.1647041141986847,-0.006040757521986961,0.07563212513923645,-0.3613711893558502,0.9293299317359924,0.0,0.0,0.0,0.0,0.0,0.0
732,1724814822128203030,-1.9172013998031616,-0.31063830852508545,0.1647702008485794,-0.0060125431045889854,0.07580914348363876,-0.3616161644458771,0.92922043800354,0.0,0.0,0.0,0.0,0.0,0.0
734,1724814822137415163,-1.91721510887146,-0.3106701374053955,0.16469642519950867,-0.00599446939304471,0.07561549544334412,-0.36137136816978455,0.9293316006660461,0.0,0.0,0.0,0.0,0.0,0.0
736,1724814822147330834,-1.9172435998916626,-0.3107050657272339,0.1645989567041397,-0.006273219361901283,0.07526510208845139,-0.36111852526664734,0.9294564127922058,0.0,0.0,0.0,0.0,0.0,0.0
738,1724814822159593810,-1.917215347290039,-0.3107001781463623,0.16470098495483398,-0.0062663741409778595,0.07548091560602188,-0.3613387942314148,0.9293533563613892,0.0,0.0,0.0,0.0,0.0,0.0
740,1724814822167492334,-1.9170316457748413,-0.3105100989341736,0.16499486565589905,-0.004645769018679857,0.07802219688892365,-0.362839937210083,0.9285678267478943,0.0,0.0,0.0,0.0,0.0,0.0
742,1724814822177619586,-1.9172273874282837,-0.31067952513694763,0.16458994150161743,-0.006546549964696169,0.07512646913528442,-0.36136868596076965,0.9293686151504517,0.0,0.0,0.0,0.0,0.0,0.0
744,1724814822187593245,-1.9172154664993286,-0.31066393852233887,0.16460536420345306,-0.006496866699308157,0.07517843693494797,-0.36130720376968384,0.9293885231018066,0.0,0.0,0.0,0.0,0.0,0.0
746,1724814822197279284,-1.9172219038009644,-0.3106400966644287,0.16464386880397797,-0.006335729733109474,0.07528821378946304,-0.36136922240257263,0.9293567538261414,0.0,0.0,0.0,0.0,0.0,0.0
748,1724814822207223675,-1.9172122478485107,-0.31063342094421387,0.1646433025598526,-0.0061127482913434505,0.07556886225938797,-0.3613801896572113,0.9293311834335327,0.0,0.0,0.0,0.0,0.0,0.0
750,1724814822218917990,-1.9172449111938477,-0.31069061160087585,0.16457708179950714,-0.006123137194663286,0.07510513812303543,-0.36117351055145264,0.9294489622116089,0.0,0.0,0.0,0.0,0.0,0.0
752,1724814822227654818,-1.917190670967102,-0.31063079833984375,0.1647527515888214,-0.00589714152738452,0.0758385956287384,-0.3617716133594513,0.9291582703590393,0.0,0.0,0.0,0.0,0.0,0.0
754,1724814822237845594,-1.9172276258468628,-0.310668408870697,0.16463027894496918,-0.006254684645682573,0.07522575557231903,-0.3613017201423645,0.9293885231018066,0.0,0.0,0.0,0.0,0.0,0.0
756,1724814822248615512,-1.9172247648239136,-0.31067585945129395,0.16462351381778717,-0.0061808619648218155,0.07536239176988602,-0.3612598776817322,0.9293941855430603,0.0,0.0,0.0,0.0,0.0,0.0
758,1724814822257966488,-1.917227864265442,-0.31067004799842834,0.16463813185691833,-0.006205838173627853,0.07520812004804611,-0.3612741529941559,0.9294009804725647,0.0,0.0,0.0,0.0,0.0,0.0
760,1724814822268075759,-1.917229413986206,-0.31066417694091797,0.16464419662952423,-0.006233192980289459,0.07545281946659088,-0.36129388213157654,0.9293733239173889,0.0,0.0,0.0,0.0,0.0,0.0
762,1724814822280084743,-1.9172399044036865,-0.3106851577758789,0.16459514200687408,-0.006297093816101551,0.07524600625038147,-0.3610585927963257,0.9294811487197876,0.0,0.0,0.0,0.0,0.0,0.0
764,1724814822287525751,-1.9172266721725464,-0.310680627822876,0.1646789163351059,-0.006233853753656149,0.07567620277404785,-0.36131536960601807,0.9293468594551086,0.0,0.0,0.0,0.0,0.0,0.0
766,1724814822298914067,-1.9170371294021606,-0.3105120062828064,0.16494382917881012,-0.0046551767736673355,0.07789455354213715,-0.3626638948917389,0.9286472797393799,0.0,0.0,0.0,0.0,0.0,0.0
768,1724814822307333834,-1.917208194732666,-0.3106837272644043,0.16463951766490936,-0.0063759214244782925,0.07526379078626633,-0.36144787073135376,0.9293277859687805,0.0,0.0,0.0,0.0,0.0,0.0
770,1724814822318354441,-1.9172173738479614,-0.31067654490470886,0.16466312110424042,-0.006284418981522322,0.07543300092220306,-0.3614371716976166,0.9293188452720642,0.0,0.0,0.0,0.0,0.0,0.0
772,1724814822328496220,-1.9170506000518799,-0.31052595376968384,0.16492828726768494,-0.004737513605505228,0.07768603414297104,-0.3626958131790161,0.9286518096923828,0.0,0.0,0.0,0.0,0.0,0.0
774,1724814822338078687,-1.9170728921890259,-0.3105277717113495,0.1648402214050293,-0.004835307598114014,0.07734543085098267,-0.36261674761772156,0.9287106990814209,0.0,0.0,0.0,0.0,0.0,0.0
776,1724814822347744905,-1.9172422885894775,-0.3106776475906372,0.16452927887439728,-0.00656081223860383,0.07489440590143204,-0.36129066348075867,0.9294175505638123,0.0,0.0,0.0,0.0,0.0,0.0
778,1724814822357088746,-1.9172295331954956,-0.31064262986183167,0.16462166607379913,-0.00611583236604929,0.0753808319568634,-0.361436128616333,0.9293246269226074,0.0,0.0,0.0,0.0,0.0,0.0
780,1724814822383328347,-1.9172297716140747,-0.31067124009132385,0.16462676227092743,-0.006564220413565636,0.07500449568033218,-0.3613290786743164,0.9293937087059021,0.0,0.0,0.0,0.0,0.0,0.0
782,1724814822383609802,-1.9172325134277344,-0.3106807470321655,0.16464750468730927,-0.006230505183339119,0.07532524317502975,-0.36137861013412476,0.929350733757019,0.0,0.0,0.0,0.0,0.0,0.0
784,1724814822387386054,-1.9172329902648926,-0.31067484617233276,0.1646389365196228,-0.006286329124122858,0.07537072151899338,-0.36127734184265137,0.9293860793113708,0.0,0.0,0.0,0.0,0.0,0.0
786,1724814822397284546,-1.9172316789627075,-0.310675710439682,0.16460078954696655,-0.006228490266948938,0.07551915943622589,-0.3611173927783966,0.9294365048408508,0.0,0.0,0.0,0.0,0.0,0.0
788,1724814822407513746,-1.9172166585922241,-0.3106766939163208,0.1646520495414734,-0.006133781746029854,0.0756208673119545,-0.3613183796405792,0.9293508529663086,0.0,0.0,0.0,0.0,0.0,0.0
790,1724814822418411902,-1.9171979427337646,-0.3106568157672882,0.16467677056789398,-0.00600857799872756,0.0757424533367157,-0.3613981604576111,0.92931067943573,0.0,0.0,0.0,0.0,0.0,0.0
792,1724814822427800879,-1.9172216653823853,-0.31065213680267334,0.1646329164505005,-0.006108223460614681,0.07553165405988693,-0.36130252480506897,0.9293644428253174,0.0,0.0,0.0,0.0,0.0,0.0
794,1724814822463625733,-1.917201280593872,-0.31064751744270325,0.16467398405075073,-0.006085544358938932,0.07566238194704056,-0.36150479316711426,0.9292752146720886,0.0,0.0,0.0,0.0,0.0,0.0
796,1724814822464293253,-1.9170730113983154,-0.3105189800262451,0.16485823690891266,-0.005047488491982222,0.07731084525585175,-0.3625675439834595,0.9287315607070923,0.0,0.0,0.0,0.0,0.0,0.0
798,1724814822464642735,-1.91721510887146,-0.31064534187316895,0.16462570428848267,-0.006341962609440088,0.07546006888151169,-0.36163970828056335,0.9292374849319458,0.0,0.0,0.0,0.0,0.0,0.0
800,1724814822471140616,-1.9172155857086182,-0.3106693625450134,0.16464123129844666,-0.006378382910043001,0.0752343013882637,-0.36149078607559204,0.9293134808540344,0.0,0.0,0.0,0.0,0.0,0.0
802,1724814822477356947,-1.91719651222229,-0.3106319308280945,0.16475027799606323,-0.006078090984374285,0.07583891600370407,-0.3617418110370636,0.9291686415672302,0.0,0.0,0.0,0.0,0.0,0.0
804,1724814822488972423,-1.9172369241714478,-0.31066420674324036,0.16458982229232788,-0.006267234683036804,0.07527408748865128,-0.36122873425483704,0.9294129610061646,0.0,0.0,0.0,0.0,0.0,0.0
806,1724814822499304007,-1.9172215461730957,-0.3106858730316162,0.1646227091550827,-0.006228457670658827,0.07548519968986511,-0.36135047674179077,0.9293487071990967,0.0,0.0,0.0,0.0,0.0,0.0
808,1724814822507115720,-1.9172126054763794,-0.3106618821620941,0.1646488904953003,-0.005967715289443731,0.07575074583292007,-0.361343115568161,0.9293317198753357,0.0,0.0,0.0,0.0,0.0,0.0
810,1724814822519558803,-1.9172083139419556,-0.3106572926044464,0.16470059752464294,-0.006182217970490456,0.07571425288915634,-0.3614971935749054,0.9292733073234558,0.0,0.0,0.0,0.0,0.0,0.0
812,1724814822527491512,-1.917192816734314,-0.31065505743026733,0.16472379863262177,-0.006044580601155758,0.07586242258548737,-0.36157098412513733,0.9292334914207458,0.0,0.0,0.0,0.0,0.0,0.0
814,1724814822537626940,-1.9171984195709229,-0.31067535281181335,0.16463881731033325,-0.005944767966866493,0.07583458721637726,-0.3612346947193146,0.9293671250343323,0.0,0.0,0.0,0.0,0.0,0.0
816,1724814822547674060,-1.9170397520065308,-0.31053364276885986,0.16485854983329773,-0.004711315501481295,0.07769544422626495,-0.36258894205093384,0.9286929368972778,0.0,0.0,0.0,0.0,0.0,0.0
818,1724814822557629881,-1.9171801805496216,-0.3106604814529419,0.16463743150234222,-0.0065097385086119175,0.07525845617055893,-0.3615569770336151,0.9292848110198975,0.0,0.0,0.0,0.0,0.0,0.0
820,1724814822567603704,-1.9171701669692993,-0.3106936812400818,0.1645827740430832,-0.00634285993874073,0.07525873184204102,-0.36137861013412476,0.9293553829193115,0.0,0.0,0.0,0.0,0.0,0.0
822,1724814822577662854,-1.9171805381774902,-0.31077954173088074,0.16442960500717163,-0.006588945630937815,0.07455899566411972,-0.36097589135169983,0.9295666217803955,0.0,0.0,0.0,0.0,0.0,0.0
824,1724814822587377192,-1.9171303510665894,-0.3108137845993042,0.16448770463466644,-0.006453140638768673,0.07472603768110275,-0.3611125648021698,0.9295009970664978,0.0,0.0,0.0,0.0,0.0,0.0
826,1724814822597403013,-1.916843295097351,-0.31060677766799927,0.1649847775697708,-0.00425645662471652,0.0780816599726677,-0.3630604147911072,0.928478479385376,0.0,0.0,0.0,0.0,0.0,0.0
828,1724814822609023946,-1.9168516397476196,-0.31068798899650574,0.1647786647081375,-0.004681432619690895,0.07688212394714355,-0.3626105785369873,0.9287523031234741,0.0,0.0,0.0,0.0,0.0,0.0
830,1724814822617304109,-1.9167886972427368,-0.3107605278491974,0.16476231813430786,-0.004738539922982454,0.07653789222240448,-0.36260777711868286,0.9287815093994141,0.0,0.0,0.0,0.0,0.0,0.0
832,1724814822627380909,-1.9166902303695679,-0.3108285367488861,0.16480469703674316,-0.004408043809235096,0.07663605362176895,-0.36275601387023926,0.9287171363830566,0.0,0.0,0.0,0.0,0.0,0.0
834,1724814822637360016,-1.9166103601455688,-0.3109372556209564,0.16476453840732574,-0.0042082443833351135,0.0761403739452362,-0.3628670871257782,0.9287155270576477,0.0,0.0,0.0,0.0,0.0,0.0
836,1724814822647303067,-1.9165037870407104,-0.31100133061408997,0.16471748054027557,-0.003893723711371422,0.07592744380235672,-0.36277762055397034,0.9287692904472351,0.0,0.0,0.0,0.0,0.0,0.0
838,1724814822657916271,-1.9163998365402222,-0.311119019985199,0.16474628448486328,-0.0033815468195825815,0.07575169950723648,-0.3629780113697052,0.9287073016166687,0.0,0.0,0.0,0.0,0.0,0.0
840,1724814822669477931,-1.9163219928741455,-0.31128835678100586,0.16456598043441772,-0.0029781467746943235,0.07543657720088959,-0.36290934681892395,0.9287611842155457,0.0,0.0,0.0,0.0,0.0,0.0
842,1724814822677330745,-1.9162240028381348,-0.3113275170326233,0.16479246318340302,-0.0030357951764017344,0.07492177188396454,-0.3637213408946991,0.9284850358963013,0.0,0.0,0.0,0.0,0.0,0.0
844,1724814822689584138,-1.9161674976348877,-0.31146591901779175,0.16468031704425812,-0.0030104198958724737,0.07388685643672943,-0.3638704717159271,0.928509533405304,0.0,0.0,0.0,0.0,0.0,0.0
846,1724814822697653014,-1.9161025285720825,-0.3116188049316406,0.16470319032669067,-0.0025400440208613873,0.07332688570022583,-0.36445167660713196,0.9283273220062256,0.0,0.0,0.0,0.0,0.0,0.0
848,1724814822707902653,-1.9160338640213013,-0.31175267696380615,0.16477301716804504,-0.0022488252725452185,0.07290104776620865,-0.3651244044303894,0.9280973672866821,0.0,0.0,0.0,0.0,0.0,0.0
850,1724814822719441668,-1.916005253791809,-0.31189385056495667,0.1647963672876358,-0.0018421849235892296,0.07218750566244125,-0.36573582887649536,0.9279131889343262,0.0,0.0,0.0,0.0,0.0,0.0
852,1724814822727645948,-1.915959358215332,-0.3120589554309845,0.16484065353870392,-0.0008742427453398705,0.07145398110151291,-0.36632394790649414,0.9277394413948059,0.0,0.0,0.0,0.0,0.0,0.0
854,1724814822737509967,-1.9158967733383179,-0.3121972680091858,0.1650109589099884,0.00022965877724345773,0.07111620903015137,-0.3671305775642395,0.9274469017982483,0.0,0.0,0.0,0.0,0.0,0.0
856,1724814822747706983,-1.9160436391830444,-0.31251055002212524,0.16475525498390198,-0.0011201768647879362,0.06730581074953079,-0.36656123399734497,0.9279556274414062,0.0,0.0,0.0,0.0,0.0,0.0
858,1724814822757190757,-1.9160631895065308,-0.3127727210521698,0.16481825709342957,-0.00042999695870094,0.06543169915676117,-0.36685460805892944,0.9279743432998657,0.0,0.0,0.0,0.0,0.0,0.0
860,1724814822778055382,-1.916143774986267,-0.31304123997688293,0.16470450162887573,-0.001549555454403162,0.06210150569677353,-0.3667849600315094,0.9282294511795044,0.0,0.0,0.0,0.0,0.0,0.0
862,1724814822778539171,-1.916162133216858,-0.3132633566856384,0.16476160287857056,-0.0013912322465330362,0.06121942773461342,-0.36743396520614624,0.9280315637588501,0.0,0.0,0.0,0.0,0.0,0.0
864,1724814822789418781,-1.9161925315856934,-0.313506156206131,0.16496872901916504,0.001236362848430872,0.05966963991522789,-0.36784300208091736,0.9279707074165344,0.0,0.0,0.0,0.0,0.0,0.0
866,1724814822797494095,-1.916197657585144,-0.31374865770339966,0.16487810015678406,0.0012754574418067932,0.0582275427877903,-0.36810895800590515,0.9279568195343018,0.0,0.0,0.0,0.0,0.0,0.0
868,1724814822809143878,-1.9162414073944092,-0.3140110373497009,0.1648348569869995,0.0015694661997258663,0.05665317177772522,-0.3682277202606201,0.9280067086219788,0.0,0.0,0.0,0.0,0.0,0.0
870,1724814822817710839,-1.9162195920944214,-0.3142247796058655,0.16503390669822693,0.0032386125531047583,0.05504131317138672,-0.368784636259079,0.927878201007843,0.0,0.0,0.0,0.0,0.0,0.0
872,1724814822827940694,-1.916164755821228,-0.31445056200027466,0.16528815031051636,0.005971256643533707,0.055559661239385605,-0.36959555745124817,0.9275110363960266,0.0,0.0,0.0,0.0,0.0,0.0
874,1724814822837420207,-1.9161735773086548,-0.31470391154289246,0.16539862751960754,0.00769723579287529,0.05489892140030861,-0.37010839581489563,0.9273331165313721,0.0,0.0,0.0,0.0,0.0,0.0
876,1724814822847569718,-1.9162143468856812,-0.31494200229644775,0.1654510647058487,0.008413243107497692,0.05353953316807747,-0.3704824149608612,0.9272570610046387,0.0,0.0,0.0,0.0,0.0,0.0
878,1724814822858430002,-1.9161479473114014,-0.31511709094047546,0.1655607968568802,0.00919339805841446,0.05356239899992943,-0.3712950348854065,0.9269231557846069,0.0,0.0,0.0,0.0,0.0,0.0
880,1724814822869823764,-1.9161391258239746,-0.3152444660663605,0.1658344268798828,0.010107265785336494,0.053538937121629715,-0.3720896244049072,0.9265962839126587,0.0,0.0,0.0,0.0,0.0,0.0
882,1724814822878326835,-1.9162070751190186,-0.3155743181705475,0.1656208038330078,0.009972120635211468,0.05135830119252205,-0.37207162380218506,0.9267285466194153,0.0,0.0,0.0,0.0,0.0,0.0
884,1724814822888292271,-1.9162636995315552,-0.3161291778087616,0.16465190052986145,0.0095052570104599,0.04697740077972412,-0.3702426850795746,0.9276977777481079,0.0,0.0,0.0,0.0,0.0,0.0
886,1724814822897537673,-1.9163734912872314,-0.31665486097335815,0.16407600045204163,0.008140821941196918,0.042310673743486404,-0.36852774024009705,0.9286177754402161,0.0,0.0,0.0,0.0,0.0,0.0
888,1724814822907811825,-1.9163957834243774,-0.3171408176422119,0.1636398732662201,0.007284896913915873,0.03962161764502525,-0.36767929792404175,0.9290796518325806,0.0,0.0,0.0,0.0,0.0,0.0
890,1724814822917521112,-1.916292428970337,-0.3174968361854553,0.16346652805805206,0.007793380878865719,0.03788656368851662,-0.3673413395881653,0.9292816519737244,0.0,0.0,0.0,0.0,0.0,0.0
892,1724814822927589350,-1.9161323308944702,-0.3177523612976074,0.1635487824678421,0.008515669964253902,0.03713244944810867,-0.3678141236305237,0.9291186332702637,0.0,0.0,0.0,0.0,0.0,0.0
894,1724814822940528874,-1.915818452835083,-0.3179909884929657,0.1634727120399475,0.010006996802985668,0.036730363965034485,-0.3686131238937378,0.9288030862808228,0.0,0.0,0.0,0.0,0.0,0.0
896,1724814822947577931,-1.9156326055526733,-0.3184700310230255,0.16303738951683044,0.010725075379014015,0.03415349870920181,-0.36799028515815735,0.9291402697563171,0.0,0.0,0.0,0.0,0.0,0.0
898,1724814822957228689,-1.915284276008606,-0.31906700134277344,0.16232308745384216,0.014644700102508068,0.02831699326634407,-0.3660639822483063,0.9300435185432434,0.0,0.0,0.0,0.0,0.0,0.0
900,1724814822978473978,-1.9149192571640015,-0.3195057809352875,0.16195489466190338,0.01670013926923275,0.02474646456539631,-0.3653751611709595,0.9303814768791199,0.0,0.0,0.0,0.0,0.0,0.0
902,1724814822978866630,-1.9147155284881592,-0.32015010714530945,0.16145572066307068,0.01582511141896248,0.020764345303177834,-0.36255943775177,0.9315949082374573,0.0,0.0,0.0,0.0,0.0,0.0
904,1724814822987744485,-1.9141801595687866,-0.32034268975257874,0.16149082779884338,0.016363389790058136,0.01965169794857502,-0.364031046628952,0.9310356378555298,0.0,0.0,0.0,0.0,0.0,0.0
906,1724814822999355185,-1.9137351512908936,-0.3206166625022888,0.1615828275680542,0.015784703195095062,0.019206473603844643,-0.3646422028541565,0.9308158159255981,0.0,0.0,0.0,0.0,0.0,0.0
908,1724814823007379786,-1.913143277168274,-0.3210303485393524,0.16161268949508667,0.016898484900593758,0.0177285335958004,-0.3650178611278534,0.9306783080101013,0.0,0.0,0.0,0.0,0.0,0.0
910,1724814823046237442,-1.9127798080444336,-0.3220153748989105,0.16071021556854248,0.01563790999352932,0.01305400300770998,-0.36176857352256775,0.9320454001426697,0.0,0.0,0.0,0.0,0.0,0.0
912,1724814823046622840,-1.9122323989868164,-0.32252436876296997,0.16054585576057434,0.015970366075634956,0.011422735638916492,-0.36093980073928833,0.9323824048042297,0.0,0.0,0.0,0.0,0.0,0.0
914,1724814823046954604,-1.9113062620162964,-0.32259121537208557,0.16084171831607819,0.01730872504413128,0.01194850355386734,-0.3630955219268799,0.9315145015716553,0.0,0.0,0.0,0.0,0.0,0.0
916,1724814823048026380,-1.910585880279541,-0.32319241762161255,0.1605970710515976,0.017682436853647232,0.009534654207527637,-0.3614303767681122,0.9321827292442322,0.0,0.0,0.0,0.0,0.0,0.0
918,1724814823057530087,-1.909766674041748,-0.3237319886684418,0.1604827642440796,0.0179984662681818,0.007696117274463177,-0.36011451482772827,0.9327027797698975,0.0,0.0,0.0,0.0,0.0,0.0
920,1724814823067507222,-1.9090145826339722,-0.32419896125793457,0.1605059951543808,0.017146972939372063,0.006918151397258043,-0.35931771993637085,0.9330320954322815,0.0,0.0,0.0,0.0,0.0,0.0
922,1724814823078419930,-1.908205270767212,-0.3245849311351776,0.1606128066778183,0.017015300691127777,0.00728394091129303,-0.3591976761817932,0.9330779910087585,0.0,0.0,0.0,0.0,0.0,0.0
924,1724814823087780312,-1.90744948387146,-0.32511472702026367,0.16035205125808716,0.015519247390329838,0.004224563483148813,-0.35720109939575195,0.9338890910148621,0.0,0.0,0.0,0.0,0.0,0.0
926,1724814823099760342,-1.9066227674484253,-0.3256957530975342,0.16000798344612122,0.015489584766328335,0.0016454157885164022,-0.3543521463871002,0.9349823594093323,0.0,0.0,0.0,0.0,0.0,0.0
928,1724814823109528676,-1.9056514501571655,-0.32616814970970154,0.1599898487329483,0.016426417976617813,0.0011492612538859248,-0.3528009057044983,0.9355534911155701,0.0,0.0,0.0,0.0,0.0,0.0
930,1724814823118020467,-1.9046618938446045,-0.3263387084007263,0.1601170152425766,0.016833584755659103,0.0011503855930641294,-0.3537617027759552,0.9351834058761597,0.0,0.0,0.0,0.0,0.0,0.0
932,1724814823128026004,-1.9039031267166138,-0.3268836438655853,0.16004808247089386,0.01664484106004238,-0.0005247614462859929,-0.3521190881729126,0.9358070492744446,0.0,0.0,0.0,0.0,0.0,0.0
934,1724814823138764391,-1.902924656867981,-0.3271307647228241,0.16031098365783691,0.01708277314901352,0.0003829028573818505,-0.35211992263793945,0.9357988834381104,0.0,0.0,0.0,0.0,0.0,0.0
936,1724814823147990419,-1.9019567966461182,-0.32757410407066345,0.16026806831359863,0.017104631289839745,-0.0003450116782914847,-0.35123491287231445,0.9361311197280884,0.0,0.0,0.0,0.0,0.0,0.0
938,1724814823159506302,-1.9010826349258423,-0.3279494345188141,0.16017718613147736,0.017403598874807358,-0.0023427281994372606,-0.349781334400177,0.9366667866706848,0.0,0.0,0.0,0.0,0.0,0.0
940,1724814823168177108,-1.9002296924591064,-0.3284556567668915,0.15984636545181274,0.015410068444907665,-0.003589734435081482,-0.3480418622493744,0.9373455047607422,0.0,0.0,0.0,0.0,0.0,0.0
942,1724814823177833705,-1.8993679285049438,-0.3289511501789093,0.15973956882953644,0.014582839794456959,-0.005191945470869541,-0.3463750183582306,0.9379684329032898,0.0,0.0,0.0,0.0,0.0,0.0
944,1724814823198103873,-1.898458480834961,-0.32931065559387207,0.1598101556301117,0.014794580638408661,-0.006509413477033377,-0.34465157985687256,0.9385915994644165,0.0,0.0,0.0,0.0,0.0,0.0
946,1724814823198418423,-1.897505760192871,-0.32959234714508057,0.16016186773777008,0.016433898359537125,-0.006691387854516506,-0.3444654643535614,0.9386313557624817,0.0,0.0,0.0,0.0,0.0,0.0
948,1724814823207469371,-1.8968178033828735,-0.3301553726196289,0.1602567881345749,0.015589077025651932,-0.008362862281501293,-0.34103792905807495,0.9398831129074097,0.0,0.0,0.0,0.0,0.0,0.0
950,1724814823218202974,-1.8956695795059204,-0.3300623595714569,0.1609450727701187,0.0168101005256176,-0.004927486646920443,-0.3437437117099762,0.9389000535011292,0.0,0.0,0.0,0.0,0.0,0.0
952,1724814823227484436,-1.8947759866714478,-0.33056876063346863,0.16094572842121124,0.016778597608208656,-0.006108971778303385,-0.34169867634773254,0.9396399259567261,0.0,0.0,0.0,0.0,0.0,0.0
954,1724814823238100738,-1.8939467668533325,-0.3310178220272064,0.16109009087085724,0.017377665266394615,-0.006494714878499508,-0.3406577408313751,0.9400043487548828,0.0,0.0,0.0,0.0,0.0,0.0
956,1724814823248252545,-1.893175482749939,-0.3315988779067993,0.16105177998542786,0.017024975270032883,-0.0066838678903877735,-0.3400532007217407,0.9402283430099487,0.0,0.0,0.0,0.0,0.0,0.0
958,1724814823257106243,-1.8926459550857544,-0.33248618245124817,0.1605692058801651,0.016986742615699768,-0.009783674962818623,-0.3368382751941681,0.9413584470748901,0.0,0.0,0.0,0.0,0.0,0.0
960,1724814823268029111,-1.891858696937561,-0.3329329788684845,0.1606210619211197,0.01708148419857025,-0.010183640755712986,-0.336637020111084,0.9414244890213013,0.0,0.0,0.0,0.0,0.0,0.0
962,1724814823278182182,-1.891042947769165,-0.33336809277534485,0.16090519726276398,0.01663302816450596,-0.011587690562009811,-0.3349839150905609,0.9420058727264404,0.0,0.0,0.0,0.0,0.0,0.0
964,1724814823311322267,-1.8902753591537476,-0.3339303135871887,0.16120359301567078,0.0168609619140625,-0.01017326395958662,-0.3353640139102936,0.941882848739624,0.0,0.0,0.0,0.0,0.0,0.0
966,1724814823311746606,-1.8896440267562866,-0.33460184931755066,0.1612527221441269,0.016842657700181007,-0.011621590703725815,-0.3342958688735962,0.9422460794448853,0.0,0.0,0.0,0.0,0.0,0.0
968,1724814823312007348,-1.8889837265014648,-0.3352329134941101,0.16143135726451874,0.01706782542169094,-0.011487484909594059,-0.3340226113796234,0.9423405528068542,0.0,0.0,0.0,0.0,0.0,0.0
970,1724814823318586288,-1.8883092403411865,-0.33618777990341187,0.16118305921554565,0.017209673300385475,-0.012667317874729633,-0.3331497609615326,0.9426317811012268,0.0,0.0,0.0,0.0,0.0,0.0
972,1724814823328208462,-1.8876534700393677,-0.3371032178401947,0.16108915209770203,0.01719585433602333,-0.014308883808553219,-0.33126065135002136,0.9432740211486816,0.0,0.0,0.0,0.0,0.0,0.0
974,1724814823337386535,-1.8870741128921509,-0.3379300832748413,0.16109898686408997,0.01587686501443386,-0.015342443250119686,-0.3300209641456604,0.9437154531478882,0.0,0.0,0.0,0.0,0.0,0.0
976,1724814823347543914,-1.8864578008651733,-0.3385756015777588,0.1616223007440567,0.016374653205275536,-0.014633922837674618,-0.32957690954208374,0.9438732862472534,0.0,0.0,0.0,0.0,0.0,0.0
978,1724814823357923876,-1.88591468334198,-0.33943605422973633,0.16175074875354767,0.015708347782492638,-0.014706742949783802,-0.3284033238887787,0.9442924857139587,0.0,0.0,0.0,0.0,0.0,0.0
980,1724814823367555530,-1.885460376739502,-0.3402820825576782,0.16178886592388153,0.015302694402635098,-0.0152561841532588,-0.32683801651000977,0.9448333978652954,0.0,0.0,0.0,0.0,0.0,0.0
982,1724814823377734626,-1.8848811388015747,-0.3409636914730072,0.16201643645763397,0.015389607287943363,-0.014594608917832375,-0.32530662417411804,0.9453706741333008,0.0,0.0,0.0,0.0,0.0,0.0
984,1724814823415274167,-1.8844844102859497,-0.3419642150402069,0.16201448440551758,0.015176745131611824,-0.014576369896531105,-0.3238653838634491,0.9458692073822021,0.0,0.0,0.0,0.0,0.0,0.0
986,1724814823415574459,-1.8840875625610352,-0.34307947754859924,0.1619909256696701,0.0156709011644125,-0.015348218381404877,-0.3222008943557739,0.9464172124862671,0.0,0.0,0.0,0.0,0.0,0.0
988,1724814823415863687,-1.8837380409240723,-0.3441413938999176,0.16201838850975037,0.016089415177702904,-0.01611984148621559,-0.3208385109901428,0.946860134601593,0.0,0.0,0.0,0.0,0.0,0.0
990,1724814823417419617,-1.8834619522094727,-0.3451923131942749,0.16202561557292938,0.015426966361701488,-0.01678047515451908,-0.31958797574043274,0.9472824335098267,0.0,0.0,0.0,0.0,0.0,0.0
992,1724814823427897270,-1.8831888437271118,-0.34644240140914917,0.1618148684501648,0.014238666743040085,-0.018455887213349342,-0.3172214925289154,0.9480649828910828,0.0,0.0,0.0,0.0,0.0,0.0
994,1724814823438850677,-1.8828846216201782,-0.3474106192588806,0.16194283962249756,0.01453032810240984,-0.017799735069274902,-0.3164585530757904,0.9483280181884766,0.0,0.0,0.0,0.0,0.0,0.0
996,1724814823447213313,-1.8827708959579468,-0.34882575273513794,0.16147470474243164,0.012183226644992828,-0.019163314253091812,-0.3145458698272705,0.9489706158638,0.0,0.0,0.0,0.0,0.0,0.0
998,1724814823457976406,-1.8825503587722778,-0.349821001291275,0.16145271062850952,0.01265078503638506,-0.020068874582648277,-0.3125910758972168,0.9495915174484253,0.0,0.0,0.0,0.0,0.0,0.0
1000,1724814823469029071,-1.8822977542877197,-0.3509282171726227,0.16138744354248047,0.0119679756462574,-0.020041849464178085,-0.31200340390205383,0.9497941732406616,0.0,0.0,0.0,0.0,0.0,0.0
1002,1724814823477482831,-1.881915807723999,-0.3515373170375824,0.1618795096874237,0.01481956522911787,-0.020104113966226578,-0.3107983469963074,0.9501476883888245,0.0,0.0,0.0,0.0,0.0,0.0
1004,1724814823512365644,-1.8818175792694092,-0.35274213552474976,0.1616012156009674,0.013493848033249378,-0.02222265675663948,-0.3091028332710266,0.9506732225418091,0.0,0.0,0.0,0.0,0.0,0.0
1006,1724814823512661200,-1.8815840482711792,-0.3536878526210785,0.1617295891046524,0.012927866540849209,-0.022093158215284348,-0.3084094226360321,0.9509093165397644,0.0,0.0,0.0,0.0,0.0,0.0
1008,1724814823513029769,-1.8811991214752197,-0.35455572605133057,0.16180557012557983,0.013621443882584572,-0.02168046124279499,-0.3073047697544098,0.9512666463851929,0.0,0.0,0.0,0.0,0.0,0.0
1010,1724814823518604818,-1.8809354305267334,-0.3556579053401947,0.1616315096616745,0.0136381471529603,-0.022133883088827133,-0.3057878315448761,0.9517446756362915,0.0,0.0,0.0,0.0,0.0,0.0
1012,1724814823528719542,-1.8808172941207886,-0.3566798269748688,0.16153988242149353,0.012344630435109138,-0.02270514704287052,-0.30446603894233704,0.952172577381134,0.0,0.0,0.0,0.0,0.0,0.0
1014,1724814823536970468,-1.8805800676345825,-0.3576577603816986,0.16148720681667328,0.011735602281987667,-0.02300466224551201,-0.3035896420478821,0.9524528980255127,0.0,0.0,0.0,0.0,0.0,0.0
1016,1724814823547766799,-1.8803766965866089,-0.35885950922966003,0.16093961894512177,0.009667801670730114,-0.027366336435079575,-0.3010804355144501,0.9531570076942444,0.0,0.0,0.0,0.0,0.0,0.0
1018,1724814823557166352,-1.8799742460250854,-0.3597525954246521,0.16082072257995605,0.010838008485734463,-0.02717122621834278,-0.30013298988342285,0.9534487128257751,0.0,0.0,0.0,0.0,0.0,0.0
1020,1724814823651526251,-1.879565715789795,-0.36054500937461853,0.16087718307971954,0.01049474161118269,-0.027101080864667892,-0.2990298867225647,0.9538010954856873,0.0,0.0,0.0,0.0,0.0,0.0
1022,1724814823653865607,-1.8789539337158203,-0.3609895706176758,0.16132338345050812,0.01222937274724245,-0.025144340470433235,-0.2984701991081238,0.9540094137191772,0.0,0.0,0.0,0.0,0.0,0.0
1024,1724814823654456109,-1.878696084022522,-0.362020879983902,0.16089631617069244,0.011620228178799152,-0.027518905699253082,-0.2969067692756653,0.954439103603363,0.0,0.0,0.0,0.0,0.0,0.0
1026,1724814823654800724,-1.8781042098999023,-0.3625778555870056,0.16115738451480865,0.01240737084299326,-0.026182066649198532,-0.2964279353618622,0.9546157121658325,0.0,0.0,0.0,0.0,0.0,0.0
1028,1724814823655173747,-1.8776825666427612,-0.36344102025032043,0.16097787022590637,0.011611764319241047,-0.026620248332619667,-0.29591915011405945,0.9547713994979858,0.0,0.0,0.0,0.0,0.0,0.0
1030,1724814823656406015,-1.8772177696228027,-0.36410847306251526,0.16108590364456177,0.011288654990494251,-0.026716122403740883,-0.29509544372558594,0.9550275802612305,0.0,0.0,0.0,0.0,0.0,0.0
1032,1724814823656749354,-1.8766627311706543,-0.3647666275501251,0.16111509501934052,0.010898749344050884,-0.027106013149023056,-0.29461660981178284,0.9551688432693481,0.0,0.0,0.0,0.0,0.0,0.0
1034,1724814823657156363,-1.8759921789169312,-0.36549168825149536,0.16079998016357422,0.01143248938024044,-0.028989309445023537,-0.29321596026420593,0.9555382132530212,0.0,0.0,0.0,0.0,0.0,0.0
1036,1724814823657543069,-1.8753550052642822,-0.36617738008499146,0.16056209802627563,0.011668140068650246,-0.030113009735941887,-0.2929431200027466,0.9555842876434326,0.0,0.0,0.0,0.0,0.0,0.0
1038,1724814823657815277,-1.8746824264526367,-0.36668792366981506,0.16051451861858368,0.011675688438117504,-0.03052385151386261,-0.29305943846702576,0.9555355310440063,0.0,0.0,0.0,0.0,0.0,0.0
1040,1724814823669934175,-1.8741055727005005,-0.36761099100112915,0.15980395674705505,0.009311670437455177,-0.0338607020676136,-0.2917103171348572,0.9558618664741516,0.0,0.0,0.0,0.0,0.0,0.0
1042,1724814823677216183,-1.873296856880188,-0.36811813712120056,0.15978695452213287,0.008769553154706955,-0.03475603088736534,-0.2907874882221222,0.9561160206794739,0.0,0.0,0.0,0.0,0.0,0.0
1044,1724814823688230697,-1.872467041015625,-0.36836397647857666,0.1600559502840042,0.009340537711977959,-0.03485875204205513,-0.2906802296638489,0.9561394453048706,0.0,0.0,0.0,0.0,0.0,0.0
1046,1724814823697441906,-1.8715507984161377,-0.3687572181224823,0.16004578769207,0.009682327508926392,-0.0354326032102108,-0.29001384973526,0.9563173055648804,0.0,0.0,0.0,0.0,0.0,0.0
1048,1724814823707543172,-1.8704791069030762,-0.36877283453941345,0.16042624413967133,0.011840199120342731,-0.03412317857146263,-0.2903444766998291,0.9562403559684753,0.0,0.0,0.0,0.0,0.0,0.0
1050,1724814823718823022,-1.8696248531341553,-0.3690680265426636,0.16047102212905884,0.01172460988163948,-0.03410711511969566,-0.290621280670166,0.9561582803726196,0.0,0.0,0.0,0.0,0.0,0.0
1052,1724814823728038764,-1.8687570095062256,-0.369499146938324,0.16003552079200745,0.01087757758796215,-0.03793754428625107,-0.2884540557861328,0.9566800594329834,0.0,0.0,0.0,0.0,0.0,0.0
1054,1724814823740793334,-1.867855191230774,-0.3698458969593048,0.15976396203041077,0.010892917402088642,-0.038813985884189606,-0.2880830466747284,0.9567564725875854,0.0,0.0,0.0,0.0,0.0,0.0
1056,1724814823747366437,-1.86680006980896,-0.36998510360717773,0.1596657633781433,0.0112333744764328,-0.03979596868157387,-0.2873562276363373,0.9569307565689087,0.0,0.0,0.0,0.0,0.0,0.0
1058,1724814823757536347,-1.8657655715942383,-0.36998555064201355,0.15982358157634735,0.011077003553509712,-0.04004304111003876,-0.2876841127872467,0.9568237662315369,0.0,0.0,0.0,0.0,0.0,0.0
1060,1724814823767916331,-1.8646990060806274,-0.3701644837856293,0.15978749096393585,0.009869873523712158,-0.04111390933394432,-0.28716591000556946,0.9569472074508667,0.0,0.0,0.0,0.0,0.0,0.0
1062,1724814823778886439,-1.8634893894195557,-0.3698982298374176,0.16041474044322968,0.009327314794063568,-0.03853369504213333,-0.28832298517227173,0.9567121863365173,0.0,0.0,0.0,0.0,0.0,0.0
1064,1724814823787784457,-1.8622790575027466,-0.37005218863487244,0.16054406762123108,0.01045250054448843,-0.039353322237730026,-0.28822439908981323,0.9566968679428101,0.0,0.0,0.0,0.0,0.0,0.0
1066,1724814823800359605,-1.8611363172531128,-0.3702484965324402,0.16049711406230927,0.010413308627903461,-0.04114147648215294,-0.28819262981414795,0.9566315412521362,0.0,0.0,0.0,0.0,0.0,0.0
1068,1724814823807428850,-1.8601906299591064,-0.3708012104034424,0.15989449620246887,0.008178828284144402,-0.045327328145504,-0.287688285112381,0.9566159844398499,0.0,0.0,0.0,0.0,0.0,0.0
1070,1724814823818011195,-1.8590850830078125,-0.3709229826927185,0.1599549651145935,0.007660618983209133,-0.04590814188122749,-0.28828009963035583,0.9564143419265747,0.0,0.0,0.0,0.0,0.0,0.0
1072,1724814823827779663,-1.8577275276184082,-0.3707799017429352,0.160419762134552,0.008629041723906994,-0.044311799108982086,-0.2899780869483948,0.9559679627418518,0.0,0.0,0.0,0.0,0.0,0.0
1074,1724814823838236669,-1.8565168380737305,-0.3710712194442749,0.16027402877807617,0.009141022339463234,-0.04648464918136597,-0.28903067111968994,0.9561469554901123,0.0,0.0,0.0,0.0,0.0,0.0
1076,1724814823847498543,-1.855465054512024,-0.37151652574539185,0.1600199192762375,0.008854272775352001,-0.04934363439679146,-0.28819891810417175,0.9562574625015259,0.0,0.0,0.0,0.0,0.0,0.0
1078,1724814823858316203,-1.8544037342071533,-0.3717636168003082,0.1601579338312149,0.008387678302824497,-0.049435269087553024,-0.28835347294807434,0.9562102556228638,0.0,0.0,0.0,0.0,0.0,0.0
1080,1724814823869893220,-1.8532204627990723,-0.3722345530986786,0.1599685102701187,0.0077899182215332985,-0.05135125666856766,-0.2882530093193054,0.9561446309089661,0.0,0.0,0.0,0.0,0.0,0.0
1082,1724814823877678128,-1.8521175384521484,-0.3724587857723236,0.16016951203346252,0.00638987822458148,-0.05195944756269455,-0.28880801796913147,0.9559547305107117,0.0,0.0,0.0,0.0,0.0,0.0
1084,1724814823888512590,-1.8510380983352661,-0.3727426528930664,0.16017721593379974,0.0045697977766394615,-0.05276147276163101,-0.2892998456954956,0.9557724595069885,0.0,0.0,0.0,0.0,0.0,0.0
1086,1724814823897328283,-1.849769949913025,-0.37224993109703064,0.16144247353076935,0.0053778053261339664,-0.048665162175893784,-0.29168012738227844,0.9552620649337769,0.0,0.0,0.0,0.0,0.0,0.0
1088,1724814823907812861,-1.8485205173492432,-0.37237682938575745,0.16150127351284027,0.004117118194699287,-0.050035469233989716,-0.291730135679245,0.9551822543144226,0.0,0.0,0.0,0.0,0.0,0.0
1090,1724814823918248639,-1.8473206758499146,-0.37244781851768494,0.16167134046554565,0.0031015132553875446,-0.05152945592999458,-0.29187726974487305,0.9550616145133972,0.0,0.0,0.0,0.0,0.0,0.0
1092,1724814823928073823,-1.8463289737701416,-0.3728843629360199,0.1613939255475998,0.0016308665508404374,-0.05470825359225273,-0.29213258624076843,0.9548105001449585,0.0,0.0,0.0,0.0,0.0,0.0
1094,1724814823937874500,-1.845123052597046,-0.37305065989494324,0.16140779852867126,0.0006229017744772136,-0.055781785398721695,-0.29289141297340393,0.9545169472694397,0.0,0.0,0.0,0.0,0.0,0.0
1096,1724814823947432036,-1.843841314315796,-0.3726000189781189,0.16225233674049377,0.001032027998007834,-0.054149825125932693,-0.29466503858566284,0.954064667224884,0.0,0.0,0.0,0.0,0.0,0.0
1098,1724814823957703210,-1.8426169157028198,-0.3725211024284363,0.1625622808933258,0.001967495772987604,-0.05546830967068672,-0.29502275586128235,0.953876793384552,0.0,0.0,0.0,0.0,0.0,0.0
1100,1724814823970526103,-1.841562032699585,-0.37278929352760315,0.1623438149690628,0.0014298097230494022,-0.05872560292482376,-0.2945912480354309,0.9538161158561707,0.0,0.0,0.0,0.0,0.0,0.0
1102,1724814823977497911,-1.8403855562210083,-0.37293925881385803,0.1622595191001892,0.00014835796901024878,-0.06098668649792671,-0.29478850960731506,0.9536144733428955,0.0,0.0,0.0,0.0,0.0,0.0
1104,1724814823987921678,-1.8392000198364258,-0.3723573088645935,0.16332751512527466,-0.0012467739870771766,-0.057576026767492294,-0.29721397161483765,0.9530725479125977,0.0,0.0,0.0,0.0,0.0,0.0
1106,1724814824000630299,-1.8382028341293335,-0.3721265196800232,0.1638985425233841,-0.003169602481648326,-0.05645091459155083,-0.29884812235832214,0.9526242613792419,0.0,0.0,0.0,0.0,0.0,0.0
1108,1724814824007252915,-1.8370801210403442,-0.37207546830177307,0.1641785353422165,-0.004434497561305761,-0.057382792234420776,-0.29918962717056274,0.9524563550949097,0.0,0.0,0.0,0.0,0.0,0.0
1110,1724814824018981200,-1.835978388786316,-0.3720965087413788,0.1643209159374237,-0.005512922536581755,-0.05833965912461281,-0.29927265644073486,0.9523665308952332,0.0,0.0,0.0,0.0,0.0,0.0
1112,1724814824027808441,-1.834886908531189,-0.3719632029533386,0.16473984718322754,-0.005666910205036402,-0.05798650160431862,-0.2998517155647278,0.9522050023078918,0.0,0.0,0.0,0.0,0.0,0.0
1114,1724814824037415872,-1.8339790105819702,-0.3717689514160156,0.1651814877986908,-0.006403117906302214,-0.05742938444018364,-0.3008649945259094,0.9519144296646118,0.0,0.0,0.0,0.0,0.0,0.0
1116,1724814824047949103,-1.833074688911438,-0.37218809127807617,0.16455426812171936,-0.008458593860268593,-0.06269257515668869,-0.2990744411945343,0.9521304965019226,0.0,0.0,0.0,0.0,0.0,0.0
1118,1724814824057106848,-1.8321566581726074,-0.3719731569290161,0.16488176584243774,-0.009655190631747246,-0.06269871443510056,-0.2998048961162567,0.9518889784812927,0.0,0.0,0.0,0.0,0.0,0.0
1120,1724814824067598148,-1.8311498165130615,-0.37185919284820557,0.1650392711162567,-0.009975485503673553,-0.06337243318557739,-0.29971054196357727,0.9518707990646362,0.0,0.0,0.0,0.0,0.0,0.0
1122,1724814824078211395,-1.8302046060562134,-0.37150222063064575,0.16558393836021423,-0.009237461723387241,-0.06245798245072365,-0.30026960372924805,0.9517624974250793,0.0,0.0,0.0,0.0,0.0,0.0
1124,1724814824087906445,-1.8292542695999146,-0.3712288439273834,0.1659802496433258,-0.009160298854112625,-0.06213895231485367,-0.30081436038017273,0.9516120553016663,0.0,0.0,0.0,0.0,0.0,0.0
1126,1724814824097424944,-1.8284293413162231,-0.3708309233188629,0.16672074794769287,-0.00841256882995367,-0.06049950048327446,-0.30215710401535034,0.9512991905212402,0.0,0.0,0.0,0.0,0.0,0.0
1128,1724814824107593956,-1.8276060819625854,-0.370512992143631,0.1672574281692505,-0.008069832809269428,-0.0605272501707077,-0.302924245595932,0.9510563611984253,0.0,0.0,0.0,0.0,0.0,0.0
1130,1724814824118022588,-1.8268258571624756,-0.37024185061454773,0.1676573008298874,-0.00808971282094717,-0.0611131526529789,-0.3036482036113739,0.9507878422737122,0.0,0.0,0.0,0.0,0.0,0.0
1132,1724814824127663877,-1.8260077238082886,-0.3699028193950653,0.16810427606105804,-0.008161058649420738,-0.06199992820620537,-0.30444109439849854,0.9504762887954712,0.0,0.0,0.0,0.0,0.0,0.0
1134,1724814824137355763,-1.8251627683639526,-0.3695726990699768,0.16849185526371002,-0.007963121868669987,-0.06318476796150208,-0.3046906292438507,0.9503199458122253,0.0,0.0,0.0,0.0,0.0,0.0
1136,1724814824147340364,-1.8244409561157227,-0.36945533752441406,0.16847698390483856,-0.009223642759025097,-0.06600839644670486,-0.304588258266449,0.9501493573188782,0.0,0.0,0.0,0.0,0.0,0.0
1138,1724814824160288717,-1.8236265182495117,-0.36891743540763855,0.16900143027305603,-0.008765682578086853,-0.06659165024757385,-0.30506131052970886,0.949961245059967,0.0,0.0,0.0,0.0,0.0,0.0
1140,1724814824173126731,-1.8227286338806152,-0.36863479018211365,0.1691168248653412,-0.008992583490908146,-0.06825488060712814,-0.30556729435920715,0.9496784210205078,0.0,0.0,0.0,0.0,0.0,0.0
1142,1724814824177956980,-1.8219767808914185,-0.36829453706741333,0.1693195402622223,-0.010863855481147766,-0.06927498430013657,-0.3065227270126343,0.9492769837379456,0.0,0.0,0.0,0.0,0.0,0.0
1144,1724814824188553192,-1.8211909532546997,-0.36788931488990784,0.1697225123643875,-0.01004196610301733,-0.07036218792200089,-0.3070332109928131,0.9490411281585693,0.0,0.0,0.0,0.0,0.0,0.0
1146,1724814824197119843,-1.8204855918884277,-0.3673460781574249,0.17030978202819824,-0.009874622337520123,-0.07096906751394272,-0.3079655170440674,0.9486955404281616,0.0,0.0,0.0,0.0,0.0,0.0
1148,1724814824207559011,-1.8196920156478882,-0.3670351803302765,0.17061974108219147,-0.009901226498186588,-0.07275090366601944,-0.3080468773841858,0.9485338926315308,0.0,0.0,0.0,0.0,0.0,0.0
1150,1724814824218811363,-1.8189038038253784,-0.36650124192237854,0.1712498664855957,-0.009102904237806797,-0.07310070842504501,-0.3083850145339966,0.9484050869941711,0.0,0.0,0.0,0.0,0.0,0.0
1152,1724814824227581262,-1.818114161491394,-0.3661029636859894,0.1716686189174652,-0.00840313732624054,-0.07391975820064545,-0.3082214593887329,0.948401153087616,0.0,0.0,0.0,0.0,0.0,0.0
1154,1724814824237917048,-1.8173730373382568,-0.3659614622592926,0.1717136800289154,-0.008190288208425045,-0.07681159675121307,-0.3071802854537964,0.9485110640525818,0.0,0.0,0.0,0.0,0.0,0.0
1156,1724814824248862737,-1.8166217803955078,-0.36550113558769226,0.1722371131181717,-0.008554273284971714,-0.07648799568414688,-0.3077176809310913,0.9483598470687866,0.0,0.0,0.0,0.0,0.0,0.0
1158,1724814824257441914,-1.8157751560211182,-0.3650418221950531,0.17287284135818481,-0.008429673500359058,-0.07499176263809204,-0.30879825353622437,0.9481291770935059,0.0,0.0,0.0,0.0,0.0,0.0
1160,1724814824267951643,-1.8149969577789307,-0.3646811544895172,0.17336562275886536,-0.008305396884679794,-0.07488430291414261,-0.3089122474193573,0.9481016397476196,0.0,0.0,0.0,0.0,0.0,0.0
1162,1724814824278756393,-1.8143399953842163,-0.364640474319458,0.1734926998615265,-0.00893101841211319,-0.07691557705402374,-0.3081170320510864,0.9481921195983887,0.0,0.0,0.0,0.0,0.0,0.0
1164,1724814824288872405,-1.813481330871582,-0.3642151653766632,0.17411236464977264,-0.0077856420539319515,-0.07643761485815048,-0.30759239196777344,0.9484111070632935,0.0,0.0,0.0,0.0,0.0,0.0
1166,1724814824297565187,-1.8125208616256714,-0.3638436496257782,0.17476776242256165,-0.006390758324414492,-0.0748022198677063,-0.3079923391342163,0.9484220743179321,0.0,0.0,0.0,0.0,0.0,0.0
1168,1724814824307826420,-1.8116155862808228,-0.3637888431549072,0.17495521903038025,-0.005629175342619419,-0.07604528963565826,-0.3067609369754791,0.9487271308898926,0.0,0.0,0.0,0.0,0.0,0.0
1170,1724814824321459428,-1.810819387435913,-0.36429765820503235,0.1744339019060135,-0.006069754716008902,-0.0802149698138237,-0.30250704288482666,0.9497464895248413,0.0,0.0,0.0,0.0,0.0,0.0
1172,1724814824328278731,-1.8099467754364014,-0.3640836179256439,0.1747480034828186,-0.006999192759394646,-0.07931125909090042,-0.3017653524875641,0.9500517845153809,0.0,0.0,0.0,0.0,0.0,0.0
1174,1724814824338246289,-1.8087509870529175,-0.3633642792701721,0.1757168173789978,-0.006310963071882725,-0.07546831667423248,-0.3039710819721222,0.9496665000915527,0.0,0.0,0.0,0.0,0.0,0.0
1176,1724814824347695908,-1.807585597038269,-0.3630075454711914,0.17628724873065948,-0.005700047127902508,-0.07369910180568695,-0.30398237705230713,0.9498056173324585,0.0,0.0,0.0,0.0,0.0,0.0
1178,1724814824357893327,-1.8063920736312866,-0.3623383641242981,0.17712004482746124,-0.0050499169155955315,-0.06893551349639893,-0.30713382363319397,0.9491528868675232,0.0,0.0,0.0,0.0,0.0,0.0
1180,1724814824367546190,-1.8051908016204834,-0.36222076416015625,0.17732296884059906,-0.0029648432973772287,-0.06932295858860016,-0.3054879605770111,0.9496645927429199,0.0,0.0,0.0,0.0,0.0,0.0
1182,1724814824377813284,-1.8037822246551514,-0.36191269755363464,0.17789016664028168,-0.00022788824571762234,-0.06631975620985031,-0.30516958236694336,0.949985921382904,0.0,0.0,0.0,0.0,0.0,0.0
1184,1724814824388799714,-1.8024702072143555,-0.3615697920322418,0.1783997267484665,0.00026298960437998176,-0.06422492116689682,-0.304975688457489,0.9501920938491821,0.0,0.0,0.0,0.0,0.0,0.0
1186,1724814824397359906,-1.8009920120239258,-0.36126527190208435,0.17876075208187103,0.0008162984740920365,-0.061413079500198364,-0.30549806356430054,0.9502097964286804,0.0,0.0,0.0,0.0,0.0,0.0
1188,1724814824409685906,-1.799371361732483,-0.36127611994743347,0.17870886623859406,0.00033148203510791063,-0.06135423481464386,-0.30407869815826416,0.9506690502166748,0.0,0.0,0.0,0.0,0.0,0.0
1190,1724814824418062412,-1.7977180480957031,-0.3608585596084595,0.17929834127426147,-0.00044304499169811606,-0.05595593899488449,-0.306662380695343,0.9501720070838928,0.0,0.0,0.0,0.0,0.0,0.0
1192,1724814824428109181,-1.7958961725234985,-0.36052218079566956,0.179801806807518,0.0006244154064916074,-0.05380300059914589,-0.3053814470767975,0.95070880651474,0.0,0.0,0.0,0.0,0.0,0.0
1194,1724814824438826260,-1.7940281629562378,-0.3601519465446472,0.1804353892803192,0.00373100396245718,-0.049292147159576416,-0.3065315783023834,0.9505760669708252,0.0,0.0,0.0,0.0,0.0,0.0
1196,1724814824447477610,-1.7922277450561523,-0.36012670397758484,0.18059788644313812,0.0020219029393047094,-0.04771975427865982,-0.3064735531806946,0.950680136680603,0.0,0.0,0.0,0.0,0.0,0.0
1198,1724814824458725098,-1.7900030612945557,-0.3598916828632355,0.1809847056865692,0.002757508773356676,-0.04417211562395096,-0.3073326647281647,0.9505724310874939,0.0,0.0,0.0,0.0,0.0,0.0
1200,1724814824469210037,-1.7878532409667969,-0.35969090461730957,0.18135902285575867,0.0029921133536845446,-0.03940616548061371,-0.30926749110221863,0.9501535892486572,0.0,0.0,0.0,0.0,0.0,0.0
1202,1724814824477794583,-1.7854790687561035,-0.35952144861221313,0.18180795013904572,0.005949259269982576,-0.03657228872179985,-0.30933937430381775,0.9502296447753906,0.0,0.0,0.0,0.0,0.0,0.0
1204,1724814824487673436,-1.7831887006759644,-0.3594209849834442,0.18243473768234253,0.006171029061079025,-0.033542271703481674,-0.31053560972213745,0.9499497413635254,0.0,0.0,0.0,0.0,0.0,0.0
1206,1724814824500201153,-1.7808337211608887,-0.35980746150016785,0.18265119194984436,0.005514252465218306,-0.03011355921626091,-0.3105636239051819,0.9500595331192017,0.0,0.0,0.0,0.0,0.0,0.0
1208,1724814824507373589,-1.7783300876617432,-0.35984134674072266,0.18316476047039032,0.005791462492197752,-0.025415558367967606,-0.31159350275993347,0.9498579502105713,0.0,0.0,0.0,0.0,0.0,0.0
1210,1724814824517696825,-1.7756978273391724,-0.35987403988838196,0.18391916155815125,0.008018666878342628,-0.021647244691848755,-0.3125409483909607,0.9496237635612488,0.0,0.0,0.0,0.0,0.0,0.0
1212,1724814824527601302,-1.7730787992477417,-0.3602200150489807,0.18438254296779633,0.01002418715506792,-0.018425581976771355,-0.3135106563568115,0.9493529796600342,0.0,0.0,0.0,0.0,0.0,0.0
1214,1724814824537150621,-1.770229697227478,-0.360308438539505,0.18502910435199738,0.011438049376010895,-0.01230134628713131,-0.31570616364479065,0.9487083554267883,0.0,0.0,0.0,0.0,0.0,0.0
1216,1724814824548389897,-1.7676011323928833,-0.3607909083366394,0.18528594076633453,0.008890259079635143,-0.009422220289707184,-0.31663230061531067,0.9484599232673645,0.0,0.0,0.0,0.0,0.0,0.0
1218,1724814824557245692,-1.7643911838531494,-0.36102232336997986,0.1860675811767578,0.011330150067806244,-0.0023224223405122757,-0.31925198435783386,0.9475993514060974,0.0,0.0,0.0,0.0,0.0,0.0
1220,1724814824567650235,-1.7614659070968628,-0.36145666241645813,0.1866048127412796,0.012224043719470501,0.0013915813760831952,-0.31988978385925293,0.9473749399185181,0.0,0.0,0.0,0.0,0.0,0.0
1222,1724814824590763747,-1.7582000494003296,-0.3617483973503113,0.1871401071548462,0.013849280774593353,0.005406912416219711,-0.32104015350341797,0.9469488859176636,0.0,0.0,0.0,0.0,0.0,0.0
1224,1724814824591029111,-1.7548086643218994,-0.36215582489967346,0.18783608078956604,0.016323871910572052,0.012733934447169304,-0.32334569096565247,0.9460543990135193,0.0,0.0,0.0,0.0,0.0,0.0
1226,1724814824597496344,-1.7513644695281982,-0.3626716136932373,0.18829649686813354,0.017385754734277725,0.01687105931341648,-0.3255825936794281,0.9452031850814819,0.0,0.0,0.0,0.0,0.0,0.0
1228,1724814824607231386,-1.7480403184890747,-0.36351028084754944,0.1883072406053543,0.017231451347470284,0.020281434059143066,-0.32524922490119934,0.9452537894248962,0.0,0.0,0.0,0.0,0.0,0.0
1230,1724814824641673591,-1.7443842887878418,-0.36400318145751953,0.18871738016605377,0.019347265362739563,0.02659134566783905,-0.32725897431373596,0.9443624019622803,0.0,0.0,0.0,0.0,0.0,0.0
1232,1724814824641949118,-1.7410883903503418,-0.364305704832077,0.18943996727466583,0.01940741203725338,0.03212740644812584,-0.3297240734100342,0.9433308839797974,0.0,0.0,0.0,0.0,0.0,0.0
1234,1724814824642374566,-1.7377455234527588,-0.36508411169052124,0.18924744427204132,0.018418747931718826,0.03260171413421631,-0.32998114824295044,0.9432445764541626,0.0,0.0,0.0,0.0,0.0,0.0
1236,1724814824647168918,-1.7344783544540405,-0.3655235767364502,0.18972961604595184,0.02218286506831646,0.036859139800071716,-0.33181947469711304,0.9423614740371704,0.0,0.0,0.0,0.0,0.0,0.0
1238,1724814824657421438,-1.7313129901885986,-0.366038054227829,0.18970979750156403,0.022530490532517433,0.03835522383451462,-0.33177462220191956,0.9423093199729919,0.0,0.0,0.0,0.0,0.0,0.0
1240,1724814824669790804,-1.7282902002334595,-0.3664419949054718,0.18998967111110687,0.022720590233802795,0.04109318181872368,-0.333257257938385,0.9416659474372864,0.0,0.0,0.0,0.0,0.0,0.0
1242,1724814824677659583,-1.72530996799469,-0.3669452369213104,0.1900606006383896,0.025612032040953636,0.043773505836725235,-0.3343298137187958,0.9410905838012695,0.0,0.0,0.0,0.0,0.0,0.0
1244,1724814824694977075,-1.7227184772491455,-0.3673113286495209,0.1901366412639618,0.026718266308307648,0.04572238400578499,-0.3353576362133026,0.9406014084815979,0.0,0.0,0.0,0.0,0.0,0.0
1246,1724814824697570659,-1.7201858758926392,-0.36759257316589355,0.19002366065979004,0.027771711349487305,0.04601290449500084,-0.3358560800552368,0.9403788447380066,0.0,0.0,0.0,0.0,0.0,0.0
1248,1724814824707517657,-1.7181719541549683,-0.36770302057266235,0.190168559551239,0.027133382856845856,0.04695672541856766,-0.33636415004730225,0.9401692152023315,0.0,0.0,0.0,0.0,0.0,0.0
1250,1724814824752325765,-1.7162669897079468,-0.36785414814949036,0.19019515812397003,0.028502095490694046,0.04705236852169037,-0.3372552990913391,0.9398045539855957,0.0,0.0,0.0,0.0,0.0,0.0
1252,1724814824752676056,-1.7147281169891357,-0.3680059015750885,0.18999721109867096,0.02915762923657894,0.046360816806554794,-0.3374100625514984,0.9397632479667664,0.0,0.0,0.0,0.0,0.0,0.0
1254,1724814824753051072,-1.7134367227554321,-0.3679797053337097,0.1900215446949005,0.028873998671770096,0.04542921110987663,-0.3374231457710266,0.9398127794265747,0.0,0.0,0.0,0.0,0.0,0.0
1256,1724814824753375285,-1.7124009132385254,-0.367989718914032,0.18975721299648285,0.030103733763098717,0.044812507927417755,-0.33778688311576843,0.9396731853485107,0.0,0.0,0.0,0.0,0.0,0.0
1258,1724814824757429412,-1.7115243673324585,-0.3677867650985718,0.18964527547359467,0.030721645802259445,0.04508950933814049,-0.3383445143699646,0.9394392371177673,0.0,0.0,0.0,0.0,0.0,0.0
1260,1724814824769561318,-1.7107250690460205,-0.36742642521858215,0.18977247178554535,0.032339200377464294,0.046780847012996674,-0.33898234367370605,0.93907231092453,0.0,0.0,0.0,0.0,0.0,0.0
1262,1724814824780172035,-1.7103291749954224,-0.36713385581970215,0.18957749009132385,0.03105843998491764,0.0459599569439888,-0.3389485776424408,0.9391682744026184,0.0,0.0,0.0,0.0,0.0,0.0
1264,1724814824787313488,-1.7100352048873901,-0.36670956015586853,0.18973425030708313,0.029604321345686913,0.04676191881299019,-0.33979707956314087,0.9388689398765564,0.0,0.0,0.0,0.0,0.0,0.0
1266,1724814824799564195,-1.7098240852355957,-0.366332471370697,0.1898927390575409,0.029152141883969307,0.04713603854179382,-0.34056949615478516,0.9385844469070435,0.0,0.0,0.0,0.0,0.0,0.0
1268,1724814824807316050,-1.70966374874115,-0.3659665584564209,0.18994152545928955,0.029778558760881424,0.046729911118745804,-0.3404662311077118,0.9386225938796997,0.0,0.0,0.0,0.0,0.0,0.0
1270,1724814824917752459,-1.709473967552185,-0.3655973970890045,0.1900634616613388,0.031002329662442207,0.04662015661597252,-0.3407615125179291,0.9384812116622925,0.0,0.0,0.0,0.0,0.0,0.0
1272,1724814824918230079,-1.7093579769134521,-0.3652680814266205,0.19013236463069916,0.03082253411412239,0.04637500271201134,-0.34081485867500305,0.9384799003601074,0.0,0.0,0.0,0.0,0.0,0.0
1274,1724814824918846484,-1.7091240882873535,-0.3649161458015442,0.19043748080730438,0.03219480440020561,0.047873008996248245,-0.3413631319999695,0.9381594061851501,0.0,0.0,0.0,0.0,0.0,0.0
1276,1724814824919503761,-1.7089654207229614,-0.3646346926689148,0.19050654768943787,0.03262196108698845,0.04774225503206253,-0.3413618505001068,0.9381516575813293,0.0,0.0,0.0,0.0,0.0,0.0
1278,1724814824920483367,-1.708802342414856,-0.3643547296524048,0.19059021770954132,0.03245972469449043,0.047770190984010696,-0.34146544337272644,0.9381182193756104,0.0,0.0,0.0,0.0,0.0,0.0
1280,1724814824921647789,-1.7085866928100586,-0.3640363812446594,0.1907002031803131,0.03301093354821205,0.04750031977891922,-0.3415122330188751,0.9380956292152405,0.0,0.0,0.0,0.0,0.0,0.0
1282,1724814824922358605,-1.708371877670288,-0.3636249303817749,0.19106563925743103,0.03371100872755051,0.04805696755647659,-0.34156185388565063,0.9380243420600891,0.0,0.0,0.0,0.0,0.0,0.0
1284,1724814824923167661,-1.7081573009490967,-0.36328741908073425,0.19120049476623535,0.03448003903031349,0.04818163067102432,-0.3415832817554474,0.9379821419715881,0.0,0.0,0.0,0.0,0.0,0.0
1286,1724814824923507670,-1.707964301109314,-0.3628893494606018,0.19141507148742676,0.03471656143665314,0.048600148409605026,-0.3418581485748291,0.9378517270088196,0.0,0.0,0.0,0.0,0.0,0.0
1288,1724814824923857408,-1.7077224254608154,-0.3624773323535919,0.19153828918933868,0.03523716330528259,0.0489838533103466,-0.34189146757125854,0.9378002285957336,0.0,0.0,0.0,0.0,0.0,0.0
1290,1724814824924128854,-1.7075151205062866,-0.362070769071579,0.1917024850845337,0.03539621829986572,0.04955585300922394,-0.34202849864959717,0.937714159488678,0.0,0.0,0.0,0.0,0.0,0.0
1292,1724814824927950341,-1.7073251008987427,-0.3618333637714386,0.19142428040504456,0.03477486968040466,0.04884406179189682,-0.3414762318134308,0.937976062297821,0.0,0.0,0.0,0.0,0.0,0.0
1294,1724814824939548556,-1.7070657014846802,-0.36140260100364685,0.19150783121585846,0.035088911652565,0.04871514067053795,-0.3416627049446106,0.937903106212616,0.0,0.0,0.0,0.0,0.0,0.0
1296,1724814824947343488,-1.7067807912826538,-0.36091700196266174,0.19183534383773804,0.03578181937336922,0.04933243244886398,-0.3418591618537903,0.9377730488777161,0.0,0.0,0.0,0.0,0.0,0.0
1298,1724814824957584544,-1.706520915031433,-0.360602468252182,0.19183726608753204,0.03697533160448074,0.04878035560250282,-0.34149420261383057,0.9378886222839355,0.0,0.0,0.0,0.0,0.0,0.0
1300,1724814824974085291,-1.7063833475112915,-0.3603951334953308,0.1915598064661026,0.036809857934713364,0.046414170414209366,-0.3405843675136566,0.9383459091186523,0.0,0.0,0.0,0.0,0.0,0.0
1302,1724814824977447995,-1.7061175107955933,-0.36005255579948425,0.19159138202667236,0.038065992295742035,0.04575004056096077,-0.3404809534549713,0.9383659958839417,0.0,0.0,0.0,0.0,0.0,0.0
1304,1724814824987715238,-1.7058662176132202,-0.35979747772216797,0.1915328949689865,0.0383797362446785,0.04535809904336929,-0.34086287021636963,0.938233494758606,0.0,0.0,0.0,0.0,0.0,0.0
1306,1724814824998451492,-1.7056255340576172,-0.3595258891582489,0.19163279235363007,0.03908208757638931,0.04500557854771614,-0.3410189747810364,0.9381647706031799,0.0,0.0,0.0,0.0,0.0,0.0
1308,1724814825007250150,-1.7053756713867188,-0.35921820998191833,0.1917673498392105,0.039783645421266556,0.04465284198522568,-0.34122076630592346,0.938078761100769,0.0,0.0,0.0,0.0,0.0,0.0
1310,1724814825018974357,-1.7050831317901611,-0.35882967710494995,0.19212597608566284,0.04073723405599594,0.04608597978949547,-0.3417358696460724,0.937781035900116,0.0,0.0,0.0,0.0,0.0,0.0
1312,1724814825027785386,-1.7048733234405518,-0.3585180938243866,0.1922149360179901,0.040127553045749664,0.0458914153277874,-0.341770201921463,0.9378043413162231,0.0,0.0,0.0,0.0,0.0,0.0
1314,1724814825042614125,-1.704582929611206,-0.35815107822418213,0.19236883521080017,0.0407114177942276,0.0454334057867527,-0.34202155470848083,0.9377098679542542,0.0,0.0,0.0,0.0,0.0,0.0
1316,1724814825047784775,-1.7043256759643555,-0.35780975222587585,0.1924886256456375,0.04113438352942467,0.04529703035950661,-0.3423496186733246,0.9375782012939453,0.0,0.0,0.0,0.0,0.0,0.0
1318,1724814825057213575,-1.7040815353393555,-0.35737887024879456,0.19270940124988556,0.041368819773197174,0.04551832005381584,-0.3426291048526764,0.9374551177024841,0.0,0.0,0.0,0.0,0.0,0.0
1320,1724814825068078245,-1.703770399093628,-0.35708287358283997,0.192657008767128,0.04223966225981712,0.04519656300544739,-0.34234148263931274,0.9375369548797607,0.0,0.0,0.0,0.0,0.0,0.0
1322,1724814825078078534,-1.7034876346588135,-0.3567659854888916,0.19266261160373688,0.04300369322299957,0.044877804815769196,-0.34237587451934814,0.9375048875808716,0.0,0.0,0.0,0.0,0.0,0.0
1324,1724814825087635169,-1.7031787633895874,-0.356405645608902,0.19274330139160156,0.04386578127741814,0.0446590892970562,-0.3425067067146301,0.9374276399612427,0.0,0.0,0.0,0.0,0.0,0.0
1326,1724814825097559322,-1.702911376953125,-0.3560766279697418,0.19279727339744568,0.04432349279522896,0.044406045228242874,-0.34253165125846863,0.9374090433120728,0.0,0.0,0.0,0.0,0.0,0.0
1328,1724814825107750135,-1.7026569843292236,-0.3557523190975189,0.19284510612487793,0.04383416473865509,0.04413241520524025,-0.3424908220767975,0.9374598264694214,0.0,0.0,0.0,0.0,0.0,0.0
1330,1724814825117592036,-1.7023817300796509,-0.35540521144866943,0.19295281171798706,0.04429859295487404,0.04410840943455696,-0.3427250385284424,0.9373536109924316,0.0,0.0,0.0,0.0,0.0,0.0
1332,1724814825147141345,-1.7021745443344116,-0.355064332485199,0.19299234449863434,0.044042252004146576,0.04360780119895935,-0.34284454584121704,0.9373453259468079,0.0,0.0,0.0,0.0,0.0,0.0
1334,1724814825147552392,-1.7019264698028564,-0.35468626022338867,0.19308920204639435,0.044554177671670914,0.04302624985575676,-0.34309932589530945,0.9372548460960388,0.0,0.0,0.0,0.0,0.0,0.0
1336,1724814825147955239,-1.7017351388931274,-0.35431820154190063,0.1931362748146057,0.04483962431550026,0.04241158440709114,-0.343149334192276,0.9372508525848389,0.0,0.0,0.0,0.0,0.0,0.0
1338,1724814825157585764,-1.7015460729599,-0.3539562225341797,0.1931971162557602,0.04533635452389717,0.04163544625043869,-0.34341341257095337,0.9371650218963623,0.0,0.0,0.0,0.0,0.0,0.0
1340,1724814825167593910,-1.7013885974884033,-0.3536178469657898,0.19330456852912903,0.045758407562971115,0.04083414375782013,-0.343498557806015,0.9371485710144043,0.0,0.0,0.0,0.0,0.0,0.0
1342,1724814825177865515,-1.70126211643219,-0.35326460003852844,0.1933649778366089,0.0455961674451828,0.039841197431087494,-0.34360751509666443,0.9371593594551086,0.0,0.0,0.0,0.0,0.0,0.0
1344,1724814825188275145,-1.7011431455612183,-0.35287728905677795,0.19366450607776642,0.04619146138429642,0.03907310962677002,-0.34394535422325134,0.9370385408401489,0.0,0.0,0.0,0.0,0.0,0.0
1346,1724814825197289929,-1.7010773420333862,-0.3526290953159332,0.19361601769924164,0.046138446778059006,0.03638523817062378,-0.34349650144577026,0.937313973903656,0.0,0.0,0.0,0.0,0.0,0.0
1348,1724814825207411645,-1.7009458541870117,-0.3523334562778473,0.1937265694141388,0.04633433371782303,0.03530886024236679,-0.34332114458084106,0.9374097585678101,0.0,0.0,0.0,0.0,0.0,0.0
1350,1724814825218344979,-1.7007988691329956,-0.3520352840423584,0.19379334151744843,0.046386007219552994,0.03423120826482773,-0.34295767545700073,0.9375802278518677,0.0,0.0,0.0,0.0,0.0,0.0
1352,1724814825228835716,-1.7006452083587646,-0.3517596125602722,0.1938975304365158,0.04689721018075943,0.032959356904029846,-0.34273818135261536,0.9376806020736694,0.0,0.0,0.0,0.0,0.0,0.0
1354,1724814825237522775,-1.700481653213501,-0.35150018334388733,0.19401976466178894,0.04730743542313576,0.03218138962984085,-0.34251222014427185,0.9377695918083191,0.0,0.0,0.0,0.0,0.0,0.0
1356,1724814825250462101,-1.700257420539856,-0.35121840238571167,0.19422902166843414,0.04742361232638359,0.03145181015133858,-0.34224992990493774,0.9378842115402222,0.0,0.0,0.0,0.0,0.0,0.0
1358,1724814825257491821,-1.6999452114105225,-0.35098758339881897,0.19454042613506317,0.0469190888106823,0.03078128956258297,-0.3416583240032196,0.9381474852561951,0.0,0.0,0.0,0.0,0.0,0.0
1360,1724814825268623069,-1.69963538646698,-0.35070380568504333,0.1950196772813797,0.04660801589488983,0.029938943684101105,-0.34130024909973145,0.9383206367492676,0.0,0.0,0.0,0.0,0.0,0.0
1362,1724814825277652039,-1.6993346214294434,-0.3504052758216858,0.1955413669347763,0.045774441212415695,0.029301078990101814,-0.34088099002838135,0.938534140586853,0.0,0.0,0.0,0.0,0.0,0.0
1364,1724814825291701397,-1.698986291885376,-0.3501269817352295,0.19605691730976105,0.045317672193050385,0.028799451887607574,-0.34063902497291565,0.93865966796875,0.0,0.0,0.0,0.0,0.0,0.0
1366,1724814825335023646,-1.698701024055481,-0.3498024642467499,0.1966501623392105,0.044238559901714325,0.02841452695429325,-0.3404649794101715,0.9387860298156738,0.0,0.0,0.0,0.0,0.0,0.0
1368,1724814825335381081,-1.6983449459075928,-0.3495640754699707,0.1970042884349823,0.04380115866661072,0.027084961533546448,-0.33935511112213135,0.9392476081848145,0.0,0.0,0.0,0.0,0.0,0.0
1370,1724814825335673554,-1.6979776620864868,-0.3492368459701538,0.19750645756721497,0.04372861236333847,0.026509353891015053,-0.3383661210536957,0.9396241307258606,0.0,0.0,0.0,0.0,0.0,0.0
1372,1724814825335928867,-1.6976218223571777,-0.3490784466266632,0.19774341583251953,0.044037722051143646,0.025637205690145493,-0.33739641308784485,0.939982533454895,0.0,0.0,0.0,0.0,0.0,0.0
1374,1724814825337494231,-1.6973427534103394,-0.34890875220298767,0.19800478219985962,0.04361166059970856,0.024642594158649445,-0.33653196692466736,0.9403387904167175,0.0,0.0,0.0,0.0,0.0,0.0
1376,1724814825348116682,-1.6971229314804077,-0.34878799319267273,0.1982676088809967,0.043455738574266434,0.0239801574498415,-0.33604562282562256,0.9405369758605957,0.0,0.0,0.0,0.0,0.0,0.0
1378,1724814825357777057,-1.6969192028045654,-0.3487117886543274,0.19842804968357086,0.04393995553255081,0.023168278858065605,-0.3353895843029022,0.9407690167427063,0.0,0.0,0.0,0.0,0.0,0.0
1380,1724814825371728539,-1.6967419385910034,-0.3486683666706085,0.1985381692647934,0.04444918408989906,0.022355901077389717,-0.33435913920402527,0.9411315321922302,0.0,0.0,0.0,0.0,0.0,0.0
1382,1724814825407819538,-1.6965802907943726,-0.34867483377456665,0.1985899657011032,0.044179435819387436,0.021702829748392105,-0.33364611864089966,0.9414124488830566,0.0,0.0,0.0,0.0,0.0,0.0
1384,1724814825408289614,-1.6964319944381714,-0.3486707806587219,0.19860516488552094,0.04417525231838226,0.021081414073705673,-0.3330748379230499,0.9416290521621704,0.0,0.0,0.0,0.0,0.0,0.0
1386,1724814825408640267,-1.6962783336639404,-0.34864839911460876,0.19859696924686432,0.04521230608224869,0.020266320556402206,-0.332336962223053,0.9418584108352661,0.0,0.0,0.0,0.0,0.0,0.0
1388,1724814825408960400,-1.6960948705673218,-0.3487209379673004,0.19846412539482117,0.045153673738241196,0.019348517060279846,-0.3316941261291504,0.942107081413269,0.0,0.0,0.0,0.0,0.0,0.0
1390,1724814825434062643,-1.6958723068237305,-0.34867826104164124,0.19851799309253693,0.04582641273736954,0.01899663731455803,-0.33109405636787415,0.9422929286956787,0.0,0.0,0.0,0.0,0.0,0.0
1392,1724814825434329243,-1.6955865621566772,-0.34856876730918884,0.19880856573581696,0.04699603095650673,0.02032741717994213,-0.33099979162216187,0.9422405958175659,0.0,0.0,0.0,0.0,0.0,0.0
1394,1724814825439013688,-1.6953474283218384,-0.3484604060649872,0.19898895919322968,0.048101410269737244,0.02027827315032482,-0.3306584060192108,0.9423056840896606,0.0,0.0,0.0,0.0,0.0,0.0
1396,1724814825447922115,-1.695115566253662,-0.3483864367008209,0.19900919497013092,0.0482952706515789,0.019840912893414497,-0.3303143382072449,0.9424258470535278,0.0,0.0,0.0,0.0,0.0,0.0
1398,1724814825457504402,-1.6948729753494263,-0.3482775092124939,0.19904892146587372,0.04829856753349304,0.0193367637693882,-0.32978853583335876,0.9426202178001404,0.0,0.0,0.0,0.0,0.0,0.0
1400,1724814825468293336,-1.6945878267288208,-0.3482511341571808,0.19892357289791107,0.04878498986363411,0.018697017803788185,-0.3288998603820801,0.9429185390472412,0.0,0.0,0.0,0.0,0.0,0.0
1402,1724814825477765105,-1.6943682432174683,-0.34815284609794617,0.19895868003368378,0.049410879611968994,0.01814202032983303,-0.3282746374607086,0.943114697933197,0.0,0.0,0.0,0.0,0.0,0.0
1404,1724814825488685190,-1.6942018270492554,-0.3480852246284485,0.19897952675819397,0.04940202832221985,0.017500247806310654,-0.3275899291038513,0.9433652758598328,0.0,0.0,0.0,0.0,0.0,0.0
1406,1724814825498318849,-1.6940200328826904,-0.3480125963687897,0.19898530840873718,0.05004487186670303,0.016985658556222916,-0.32668063044548035,0.9436560869216919,0.0,0.0,0.0,0.0,0.0,0.0
1408,1724814825507658859,-1.6938714981079102,-0.3479567766189575,0.19905364513397217,0.05043826252222061,0.01666560024023056,-0.32610517740249634,0.9438398480415344,0.0,0.0,0.0,0.0,0.0,0.0
1410,1724814825517609764,-1.6936661005020142,-0.34787750244140625,0.19908802211284637,0.051292940974235535,0.016006501391530037,-0.3255077600479126,0.944011390209198,0.0,0.0,0.0,0.0,0.0,0.0
1412,1724814825527516811,-1.6933979988098145,-0.3476855754852295,0.19924074411392212,0.05183112621307373,0.016604598611593246,-0.3260355293750763,0.943789541721344,0.0,0.0,0.0,0.0,0.0,0.0
1414,1724814825537448375,-1.6933592557907104,-0.3477974534034729,0.199109748005867,0.05146718770265579,0.015496169216930866,-0.32431843876838684,0.9444196820259094,0.0,0.0,0.0,0.0,0.0,0.0
1416,1724814825548312253,-1.6932724714279175,-0.3477744162082672,0.19911476969718933,0.05193211883306503,0.015409271232783794,-0.3235473036766052,0.9446601867675781,0.0,0.0,0.0,0.0,0.0,0.0
1418,1724814825557418330,-1.6932462453842163,-0.34780269861221313,0.19916896522045135,0.05191968381404877,0.015292552299797535,-0.3229733109474182,0.9448591470718384,0.0,0.0,0.0,0.0,0.0,0.0
1420,1724814825567593868,-1.6932271718978882,-0.3478502929210663,0.19914411008358002,0.05216268450021744,0.015085875056684017,-0.3220037817955017,0.9451799392700195,0.0,0.0,0.0,0.0,0.0,0.0
1422,1724814825585726592,-1.693253993988037,-0.34791234135627747,0.19918455183506012,0.05226345360279083,0.014867241494357586,-0.3212842345237732,0.9454225897789001,0.0,0.0,0.0,0.0,0.0,0.0
1424,1724814825587380217,-1.6933345794677734,-0.3481017053127289,0.19888490438461304,0.051637809723615646,0.012339466251432896,-0.31950539350509644,0.9460959434509277,0.0,0.0,0.0,0.0,0.0,0.0
1426,1724814825597961167,-1.693379282951355,-0.3482133746147156,0.19887474179267883,0.05102350935339928,0.011953162029385567,-0.3186301290988922,0.946429431438446,0.0,0.0,0.0,0.0,0.0,0.0
1428,1724814825608308451,-1.6934521198272705,-0.34837785363197327,0.1988530308008194,0.050859611481428146,0.011737234890460968,-0.3177649974822998,0.9467318058013916,0.0,0.0,0.0,0.0,0.0,0.0
1430,1724814825618123817,-1.69354248046875,-0.34853360056877136,0.1988164633512497,0.050410196185112,0.01153482310473919,-0.31702083349227905,0.9470076560974121,0.0,0.0,0.0,0.0,0.0,0.0
1432,1724814825627660562,-1.6935808658599854,-0.3485812246799469,0.1989695429801941,0.051696982234716415,0.01335992943495512,-0.31674715876579285,0.9470059275627136,0.0,0.0,0.0,0.0,0.0,0.0
1434,1724814825645074787,-1.6937291622161865,-0.34883221983909607,0.19858640432357788,0.051302630454301834,0.010853011161088943,-0.31493720412254333,0.9476628303527832,0.0,0.0,0.0,0.0,0.0,0.0
1436,1724814825647804230,-1.6938005685806274,-0.34897518157958984,0.19837318360805511,0.05188826844096184,0.010152106173336506,-0.31406933069229126,0.9479267001152039,0.0,0.0,0.0,0.0,0.0,0.0
1438,1724814825659175001,-1.6938339471817017,-0.34905779361724854,0.1979827880859375,0.052588723599910736,0.009004057385027409,-0.3128279745578766,0.9483100771903992,0.0,0.0,0.0,0.0,0.0,0.0
1440,1724814825667359491,-1.6938058137893677,-0.34905046224594116,0.19765082001686096,0.05334160104393959,0.008172246627509594,-0.3122643530368805,0.9484612941741943,0.0,0.0,0.0,0.0,0.0,0.0
1442,1724814825677599635,-1.6937556266784668,-0.3489704728126526,0.19726479053497314,0.05462699010968208,0.006869925186038017,-0.3116095960140228,0.9486138224601746,0.0,0.0,0.0,0.0,0.0,0.0
1444,1724814825689204287,-1.6936639547348022,-0.3486986756324768,0.196993887424469,0.05650695040822029,0.005842649377882481,-0.3110819458961487,0.9486838579177856,0.0,0.0,0.0,0.0,0.0,0.0
1446,1724814825697578486,-1.6935514211654663,-0.34847134351730347,0.196550190448761,0.05771390721201897,0.004729438107460737,-0.31089845299720764,0.9486774802207947,0.0,0.0,0.0,0.0,0.0,0.0
1448,1724814825711744193,-1.6934248208999634,-0.3482097089290619,0.19610820710659027,0.05905822291970253,0.0033642416819930077,-0.3107558786869049,0.9486472606658936,0.0,0.0,0.0,0.0,0.0,0.0
1450,1724814825718044686,-1.693189024925232,-0.34779679775238037,0.19603979587554932,0.062262363731861115,0.004262032452970743,-0.31211918592453003,0.9479910135269165,0.0,0.0,0.0,0.0,0.0,0.0
1452,1724814825727657369,-1.6931430101394653,-0.3477965295314789,0.19529122114181519,0.06320460885763168,0.0018437806284055114,-0.31108903884887695,0.9482749700546265,0.0,0.0,0.0,0.0,0.0,0.0
1454,1724814825739033858,-1.6930439472198486,-0.3476142883300781,0.1948012411594391,0.06480997055768967,0.0004802609037142247,-0.3108399510383606,0.9482499361038208,0.0,0.0,0.0,0.0,0.0,0.0
1456,1724814825749273309,-1.6929676532745361,-0.3474256098270416,0.1943114548921585,0.06666409969329834,-0.0008731153793632984,-0.3107326924800873,0.9481562972068787,0.0,0.0,0.0,0.0,0.0,0.0
1458,1724814825757291992,-1.6929044723510742,-0.34728705883026123,0.19386480748653412,0.06795525550842285,-0.002259856788441539,-0.31060469150543213,0.9481043219566345,0.0,0.0,0.0,0.0,0.0,0.0
1460,1724814825868135264,-1.6928648948669434,-0.34716594219207764,0.19322296977043152,0.06934759020805359,-0.005325554870069027,-0.3100658357143402,0.9481675624847412,0.0,0.0,0.0,0.0,0.0,0.0
1462,1724814825868538574,-1.6928237676620483,-0.3469758629798889,0.19278305768966675,0.07100796699523926,-0.006787105929106474,-0.31039413809776306,0.9479279518127441,0.0,0.0,0.0,0.0,0.0,0.0
1464,1724814825868854491,-1.6927587985992432,-0.3467741012573242,0.192349374294281,0.07306358963251114,-0.008056778460741043,-0.3105117678642273,0.9477232098579407,0.0,0.0,0.0,0.0,0.0,0.0
1466,1724814825869113850,-1.6927415132522583,-0.34662744402885437,0.1919342577457428,0.07406522333621979,-0.009099317714571953,-0.3106171488761902,0.9476015567779541,0.0,0.0,0.0,0.0,0.0,0.0
1468,1724814825869526968,-1.6926947832107544,-0.34646639227867126,0.19169938564300537,0.07600851356983185,-0.00859859399497509,-0.3112466335296631,0.9472456574440002,0.0,0.0,0.0,0.0,0.0,0.0
1470,1724814825869781698,-1.692646861076355,-0.3463411331176758,0.19128412008285522,0.07796894013881683,-0.00989497173577547,-0.3111439347267151,0.9471074938774109,0.0,0.0,0.0,0.0,0.0,0.0
1472,1724814825870037861,-1.6926541328430176,-0.346262127161026,0.1907990276813507,0.0786810889840126,-0.010919610038399696,-0.3115164637565613,0.9469147324562073,0.0,0.0,0.0,0.0,0.0,0.0
1474,1724814825870505698,-1.6926554441452026,-0.346209853887558,0.19025163352489471,0.08024515956640244,-0.012085831724107265,-0.31168317794799805,0.946714460849762,0.0,0.0,0.0,0.0,0.0,0.0
1476,1724814825870870759,-1.6927353143692017,-0.3460705280303955,0.18998853862285614,0.08247341215610504,-0.013497802428901196,-0.31142657995224,0.946588397026062,0.0,0.0,0.0,0.0,0.0,0.0
1478,1724814825871580414,-1.6927846670150757,-0.346038281917572,0.1894408017396927,0.08472058176994324,-0.01521820668131113,-0.31145644187927246,0.9463539719581604,0.0,0.0,0.0,0.0,0.0,0.0
1480,1724814825871887844,-1.6928600072860718,-0.34599119424819946,0.18900062143802643,0.08634339272975922,-0.016345437616109848,-0.31173795461654663,0.9460957646369934,0.0,0.0,0.0,0.0,0.0,0.0
1482,1724814825878722789,-1.69296395778656,-0.3459871709346771,0.18852944672107697,0.08772004395723343,-0.017612719908356667,-0.31185969710350037,0.9459061622619629,0.0,0.0,0.0,0.0,0.0,0.0
1484,1724814825887633717,-1.693102478981018,-0.34602540731430054,0.18794196844100952,0.08931096643209457,-0.020358072593808174,-0.3113527297973633,0.9458692669868469,0.0,0.0,0.0,0.0,0.0,0.0
1486,1724814825897771902,-1.6933270692825317,-0.3459882438182831,0.18764330446720123,0.09114877134561539,-0.021498454734683037,-0.3116317689418793,0.9455768465995789,0.0,0.0,0.0,0.0,0.0,0.0
1488,1724814825908997780,-1.6934759616851807,-0.3460231423377991,0.18720214068889618,0.09325716644525528,-0.02241009660065174,-0.3114870488643646,0.945397675037384,0.0,0.0,0.0,0.0,0.0,0.0
1490,1724814825917807048,-1.693646788597107,-0.3460603356361389,0.18677906692028046,0.09459658712148666,-0.02351214550435543,-0.3113074004650116,0.9452970623970032,0.0,0.0,0.0,0.0,0.0,0.0
1492,1724814825927946410,-1.693848967552185,-0.34614765644073486,0.1862579733133316,0.09498336166143417,-0.02422868274152279,-0.3116357624530792,0.9451318979263306,0.0,0.0,0.0,0.0,0.0,0.0
1494,1724814825938570265,-1.693995475769043,-0.3461730182170868,0.18585658073425293,0.09633714705705643,-0.025199297815561295,-0.3115607500076294,0.9449942708015442,0.0,0.0,0.0,0.0,0.0,0.0
1496,1724814825948432921,-1.6941370964050293,-0.3461973965167999,0.18561014533042908,0.09828893095254898,-0.024696791544556618,-0.311548113822937,0.9448106288909912,0.0,0.0,0.0,0.0,0.0,0.0
1498,1724814825957717066,-1.6941815614700317,-0.34639838337898254,0.18489283323287964,0.0992516428232193,-0.02624509297311306,-0.3105757534503937,0.9449884295463562,0.0,0.0,0.0,0.0,0.0,0.0
1500,1724814825977774776,-1.6943116188049316,-0.34649458527565,0.18453657627105713,0.10048621147871017,-0.0272492915391922,-0.3100084066390991,0.9450157880783081,0.0,0.0,0.0,0.0,0.0,0.0
1502,1724814825978056402,-1.6944330930709839,-0.3465523421764374,0.18420682847499847,0.1014837771654129,-0.02805928885936737,-0.30976253747940063,0.9449661374092102,0.0,0.0,0.0,0.0,0.0,0.0
1504,1724814825987543188,-1.694530963897705,-0.34665751457214355,0.18386653065681458,0.10190079361200333,-0.02881372720003128,-0.3095332086086273,0.9449737071990967,0.0,0.0,0.0,0.0,0.0,0.0
1506,1724814825998757159,-1.6946156024932861,-0.34673914313316345,0.18349887430667877,0.1020812839269638,-0.02944648265838623,-0.3094836175441742,0.9449509382247925,0.0,0.0,0.0,0.0,0.0,0.0
1508,1724814826007460654,-1.6946852207183838,-0.3468213379383087,0.18314044177532196,0.1026088148355484,-0.030292067676782608,-0.30902165174484253,0.9450182914733887,0.0,0.0,0.0,0.0,0.0,0.0
1510,1724814826018342565,-1.6947035789489746,-0.34692448377609253,0.18268978595733643,0.1033037006855011,-0.03128795698285103,-0.3087165057659149,0.9450098872184753,0.0,0.0,0.0,0.0,0.0,0.0
1512,1724814826028338392,-1.6947120428085327,-0.3470303416252136,0.18220564723014832,0.1035405620932579,-0.03214763477444649,-0.3082748353481293,0.9450992345809937,0.0,0.0,0.0,0.0,0.0,0.0
1514,1724814826039768474,-1.6946746110916138,-0.34713178873062134,0.1816895306110382,0.10369092226028442,-0.03319140151143074,-0.30795371532440186,0.9451513886451721,0.0,0.0,0.0,0.0,0.0,0.0
1516,1724814826051080480,-1.6945708990097046,-0.3472774922847748,0.1811886429786682,0.10325545817613602,-0.033996980637311935,-0.3078678250312805,0.9451983571052551,0.0,0.0,0.0,0.0,0.0,0.0
1518,1724814826057262127,-1.694424033164978,-0.3474408984184265,0.1807279884815216,0.1019284576177597,-0.03462345525622368,-0.3081190884113312,0.9452378153800964,0.0,0.0,0.0,0.0,0.0,0.0
1520,1724814826078942901,-1.6941931247711182,-0.34759944677352905,0.180382639169693,0.10094436258077621,-0.03489137813448906,-0.30875927209854126,0.9451246857643127,0.0,0.0,0.0,0.0,0.0,0.0
1522,1724814826079193460,-1.6938530206680298,-0.347748339176178,0.18010540306568146,0.10071535408496857,-0.035167962312698364,-0.3090066909790039,0.9450579285621643,0.0,0.0,0.0,0.0,0.0,0.0
1524,1724814826087533362,-1.6936004161834717,-0.3479185104370117,0.18004198372364044,0.09974579513072968,-0.03549991920590401,-0.3094210624694824,0.9450128674507141,0.0,0.0,0.0,0.0,0.0,0.0
1526,1724814826098018054,-1.6931588649749756,-0.34818974137306213,0.17972038686275482,0.09850811958312988,-0.03623971715569496,-0.3093152344226837,0.9451491832733154,0.0,0.0,0.0,0.0,0.0,0.0
1528,1724814826108005444,-1.6925407648086548,-0.3484830856323242,0.17924973368644714,0.09897997230291367,-0.03780380263924599,-0.3084047734737396,0.945336103439331,0.0,0.0,0.0,0.0,0.0,0.0
1530,1724814826120123394,-1.6920582056045532,-0.34876763820648193,0.17889371514320374,0.0988057553768158,-0.038847047835588455,-0.30841708183288574,0.9453080892562866,0.0,0.0,0.0,0.0,0.0,0.0
1532,1724814826127684172,-1.6915912628173828,-0.34903788566589355,0.17851148545742035,0.0983542874455452,-0.03949087858200073,-0.30831146240234375,0.94536292552948,0.0,0.0,0.0,0.0,0.0,0.0
1534,1724814826137837855,-1.6911709308624268,-0.3493179976940155,0.17815375328063965,0.09792624413967133,-0.040040530264377594,-0.30819401144981384,0.9454224705696106,0.0,0.0,0.0,0.0,0.0,0.0
1536,1724814826149222227,-1.690746545791626,-0.34964898228645325,0.17775510251522064,0.09780721366405487,-0.04087693244218826,-0.30790501832962036,0.9454931616783142,0.0,0.0,0.0,0.0,0.0,0.0
1538,1724814826157710496,-1.6903146505355835,-0.3500325381755829,0.17731349170207977,0.09736471623182297,-0.04198364168405533,-0.30759117007255554,0.94559246301651,0.0,0.0,0.0,0.0,0.0,0.0
1540,1724814826175694939,-1.689899206161499,-0.35043400526046753,0.17684818804264069,0.09703512489795685,-0.04299122840166092,-0.30734968185424805,0.9456596374511719,0.0,0.0,0.0,0.0,0.0,0.0
1542,1724814826182051789,-1.6896097660064697,-0.350877970457077,0.1765318512916565,0.09502455592155457,-0.043277282267808914,-0.30754783749580383,0.9457864165306091,0.0,0.0,0.0,0.0,0.0,0.0
1544,1724814826187516385,-1.6892818212509155,-0.35140886902809143,0.17607857286930084,0.09311634302139282,-0.043910495936870575,-0.30677998065948486,0.9461962580680847,0.0,0.0,0.0,0.0,0.0,0.0
1546,1724814826197789062,-1.688838243484497,-0.3521154224872589,0.17522549629211426,0.09199985861778259,-0.045970119535923004,-0.3047682046890259,0.9468575716018677,0.0,0.0,0.0,0.0,0.0,0.0
1548,1724814826207699929,-1.6884808540344238,-0.35278820991516113,0.17462687194347382,0.08933793753385544,-0.04658260941505432,-0.3045366406440735,0.9471569657325745,0.0,0.0,0.0,0.0,0.0,0.0
1550,1724814826218923740,-1.6880139112472534,-0.35361942648887634,0.17383982241153717,0.08924753218889236,-0.04788364842534065,-0.30391091108322144,0.9473016262054443,0.0,0.0,0.0,0.0,0.0,0.0
1552,1724814826227607725,-1.6876076459884644,-0.3543100357055664,0.17333334684371948,0.08956760168075562,-0.048694755882024765,-0.3029395043849945,0.9475411176681519,0.0,0.0,0.0,0.0,0.0,0.0
1554,1724814826237514917,-1.6872820854187012,-0.3551716208457947,0.17250020802021027,0.08837829530239105,-0.0502036027610302,-0.3016672134399414,0.9479798078536987,0.0,0.0,0.0,0.0,0.0,0.0
1556,1724814826249714254,-1.6870909929275513,-0.3558043837547302,0.17213523387908936,0.08747076988220215,-0.049702297896146774,-0.3023519515991211,0.9478722810745239,0.0,0.0,0.0,0.0,0.0,0.0
1558,1724814826257422083,-1.6867525577545166,-0.3568527102470398,0.17098850011825562,0.08614270389080048,-0.05266128480434418,-0.2991742789745331,0.9488419890403748,0.0,0.0,0.0,0.0,0.0,0.0
1560,1724814826270434365,-1.6866697072982788,-0.35783299803733826,0.1700727641582489,0.08445034921169281,-0.05422323942184448,-0.29731810092926025,0.9494893550872803,0.0,0.0,0.0,0.0,0.0,0.0
1562,1724814826277607358,-1.6865453720092773,-0.35878312587738037,0.16918101906776428,0.08265380561351776,-0.05508464574813843,-0.2964720129966736,0.9498623013496399,0.0,0.0,0.0,0.0,0.0,0.0
1564,1724814826289015056,-1.6864393949508667,-0.3598508834838867,0.16815677285194397,0.08178030699491501,-0.056417252868413925,-0.2944425046443939,0.9504907727241516,0.0,0.0,0.0,0.0,0.0,0.0
1566,1724814826297866235,-1.6862109899520874,-0.360888808965683,0.16722282767295837,0.07998400926589966,-0.056675419211387634,-0.29341936111450195,0.9509446024894714,0.0,0.0,0.0,0.0,0.0,0.0
1568,1724814826307172283,-1.686171293258667,-0.3618617355823517,0.16649344563484192,0.07964854687452316,-0.05740772932767868,-0.2918800115585327,0.951402485370636,0.0,0.0,0.0,0.0,0.0,0.0
1570,1724814826317544573,-1.6862491369247437,-0.36282408237457275,0.16580213606357574,0.07822687178850174,-0.05857432633638382,-0.29022276401519775,0.9519561529159546,0.0,0.0,0.0,0.0,0.0,0.0
1572,1724814826328165287,-1.6863950490951538,-0.3638358414173126,0.16495534777641296,0.07616870105266571,-0.05993350222706795,-0.2881535291671753,0.952666699886322,0.0,0.0,0.0,0.0,0.0,0.0
1574,1724814826337117336,-1.6864945888519287,-0.36459881067276,0.16434787213802338,0.07535292208194733,-0.05963484197854996,-0.2872828245162964,0.9530131816864014,0.0,0.0,0.0,0.0,0.0,0.0
1576,1724814826347830532,-1.6866495609283447,-0.3658204674720764,0.16298770904541016,0.07479409128427505,-0.06305286288261414,-0.283893346786499,0.953852653503418,0.0,0.0,0.0,0.0,0.0,0.0
1578,1724814826357967465,-1.6869020462036133,-0.3668469190597534,0.1618005335330963,0.07241590321063995,-0.06428485363721848,-0.2823941111564636,0.9543987512588501,0.0,0.0,0.0,0.0,0.0,0.0
1580,1724814826370951476,-1.6871073246002197,-0.3675515353679657,0.16107043623924255,0.07363348454236984,-0.06402120739221573,-0.2813502252101898,0.9546315670013428,0.0,0.0,0.0,0.0,0.0,0.0
1582,1724814826378516663,-1.687639594078064,-0.36868369579315186,0.15985548496246338,0.06997887045145035,-0.06569571048021317,-0.27923935651779175,0.9554122090339661,0.0,0.0,0.0,0.0,0.0,0.0
1584,1724814826388374694,-1.6879621744155884,-0.36979940533638,0.1585005223751068,0.06738080829381943,-0.06769461929798126,-0.27702760696411133,0.9561030864715576,0.0,0.0,0.0,0.0,0.0,0.0
1586,1724814826397530643,-1.6880924701690674,-0.37070032954216003,0.15743140876293182,0.06674576550722122,-0.06857270747423172,-0.27501988410949707,0.956664502620697,0.0,0.0,0.0,0.0,0.0,0.0
1588,1724814826407452171,-1.6885727643966675,-0.3717467188835144,0.1563725471496582,0.06610091030597687,-0.06998815387487411,-0.27335360646247864,0.9570841789245605,0.0,0.0,0.0,0.0,0.0,0.0
1590,1724814826421754371,-1.6889728307724,-0.3724483251571655,0.15591377019882202,0.06642754375934601,-0.06804972887039185,-0.2737596035003662,0.9570853114128113,0.0,0.0,0.0,0.0,0.0,0.0
1592,1724814826427661902,-1.6892281770706177,-0.37351128458976746,0.154584601521492,0.064407579600811,-0.0702126994729042,-0.271638959646225,0.9576712846755981,0.0,0.0,0.0,0.0,0.0,0.0
1594,1724814826438180534,-1.6896835565567017,-0.37427854537963867,0.15369874238967896,0.06306042522192001,-0.07217633724212646,-0.2687951326370239,0.9584169983863831,0.0,0.0,0.0,0.0,0.0,0.0
1596,1724814826447619917,-1.6902118921279907,-0.37478649616241455,0.15325620770454407,0.06331683695316315,-0.07175298035144806,-0.2681996822357178,0.9585986733436584,0.0,0.0,0.0,0.0,0.0,0.0
1598,1724814826457234154,-1.6906367540359497,-0.37537702918052673,0.15250715613365173,0.06202246993780136,-0.07208007574081421,-0.26724761724472046,0.9589245915412903,0.0,0.0,0.0,0.0,0.0,0.0
1600,1724814826468026430,-1.6910735368728638,-0.3760462701320648,0.15149818360805511,0.06018233671784401,-0.07321485131978989,-0.26637616753578186,0.9591983556747437,0.0,0.0,0.0,0.0,0.0,0.0
1602,1724814826482884638,-1.691271185874939,-0.37686794996261597,0.14980919659137726,0.057774610817432404,-0.077226422727108,-0.2632140517234802,0.9599044919013977,0.0,0.0,0.0,0.0,0.0,0.0
1604,1724814826490894952,-1.6915918588638306,-0.37713080644607544,0.148752823472023,0.05604510009288788,-0.07759921252727509,-0.2628859877586365,0.9600668549537659,0.0,0.0,0.0,0.0,0.0,0.0
1606,1724814826499299845,-1.6919608116149902,-0.37731656432151794,0.14776302874088287,0.05597463622689247,-0.07892397046089172,-0.2617245018482208,0.9602802991867065,0.0,0.0,0.0,0.0,0.0,0.0
1608,1724814826507639622,-1.692166805267334,-0.3776855766773224,0.14644268155097961,0.054315127432346344,-0.08024895936250687,-0.2613450884819031,0.9603691101074219,0.0,0.0,0.0,0.0,0.0,0.0
1610,1724814826517853083,-1.6923679113388062,-0.3779969811439514,0.14518538117408752,0.05399123206734657,-0.0820644199848175,-0.2603096067905426,0.9605150818824768,0.0,0.0,0.0,0.0,0.0,0.0
1612,1724814826527780211,-1.6925554275512695,-0.37821924686431885,0.14414694905281067,0.0534391812980175,-0.08271164447069168,-0.259596049785614,0.9606836438179016,0.0,0.0,0.0,0.0,0.0,0.0
1614,1724814826537936550,-1.692630648612976,-0.37828636169433594,0.14389623701572418,0.051595814526081085,-0.08164936304092407,-0.259346067905426,0.9609427452087402,0.0,0.0,0.0,0.0,0.0,0.0
1616,1724814826548126112,-1.6927621364593506,-0.37842997908592224,0.14372360706329346,0.05051954835653305,-0.08160755783319473,-0.25892308354377747,0.9611175656318665,0.0,0.0,0.0,0.0,0.0,0.0
1618,1724814826560156503,-1.692762017250061,-0.3786989748477936,0.1436358392238617,0.04993122071027756,-0.08143111318349838,-0.2582933008670807,0.9613326787948608,0.0,0.0,0.0,0.0,0.0,0.0
1620,1724814826568623391,-1.6926960945129395,-0.37897607684135437,0.14342001080513,0.04886109381914139,-0.08162485808134079,-0.25788041949272156,0.9614821076393127,0.0,0.0,0.0,0.0,0.0,0.0
1622,1724814826577926074,-1.6926467418670654,-0.3792063891887665,0.143305242061615,0.04773811995983124,-0.08180509507656097,-0.25738540291786194,0.9616557955741882,0.0,0.0,0.0,0.0,0.0,0.0
1624,1724814826588063877,-1.692540168762207,-0.37939366698265076,0.14316049218177795,0.04709312319755554,-0.08237569779157639,-0.25612205266952515,0.9619761109352112,0.0,0.0,0.0,0.0,0.0,0.0
1626,1724814826597973145,-1.6924535036087036,-0.37969279289245605,0.14278751611709595,0.04519599303603172,-0.08397212624549866,-0.254317969083786,0.962407648563385,0.0,0.0,0.0,0.0,0.0,0.0
1628,1724814826608091514,-1.6923480033874512,-0.37981146574020386,0.14264936745166779,0.04418445751070976,-0.0841774046421051,-0.2533959746360779,0.9626798033714294,0.0,0.0,0.0,0.0,0.0,0.0
1630,1724814826618131022,-1.6922391653060913,-0.3798685073852539,0.1424437016248703,0.04295367747545242,-0.08466878533363342,-0.2516920864582062,0.9631393551826477,0.0,0.0,0.0,0.0,0.0,0.0
1632,1724814826627451152,-1.6920804977416992,-0.3796798288822174,0.14233338832855225,0.04232514277100563,-0.08411368727684021,-0.2504616379737854,0.9635365009307861,0.0,0.0,0.0,0.0,0.0,0.0
1634,1724814826637362767,-1.6919162273406982,-0.37960371375083923,0.14206266403198242,0.041105639189481735,-0.08464109897613525,-0.24828270077705383,0.9641068577766418,0.0,0.0,0.0,0.0,0.0,0.0
1636,1724814826647818287,-1.6917648315429688,-0.37954097986221313,0.14184285700321198,0.04015038162469864,-0.08480929583311081,-0.24613624811172485,0.9646825194358826,0.0,0.0,0.0,0.0,0.0,0.0
1638,1724814826657451862,-1.6915730237960815,-0.3795734941959381,0.14154016971588135,0.03859088569879532,-0.08541394025087357,-0.24317429959774017,0.9654437303543091,0.0,0.0,0.0,0.0,0.0,0.0
1640,1724814826667628195,-1.6913141012191772,-0.37954625487327576,0.14149543642997742,0.03932901844382286,-0.08578518778085709,-0.24055379629135132,0.9660372734069824,0.0,0.0,0.0,0.0,0.0,0.0
1642,1724814826677338849,-1.6909810304641724,-0.37973228096961975,0.14117082953453064,0.03816995024681091,-0.08651191741228104,-0.23744769394397736,0.9667870998382568,0.0,0.0,0.0,0.0,0.0,0.0
1644,1724814826688234445,-1.6908577680587769,-0.3799609839916229,0.14103811979293823,0.03632039204239845,-0.08790933340787888,-0.23299041390419006,0.9678162932395935,0.0,0.0,0.0,0.0,0.0,0.0
1646,1724814826697539043,-1.690552830696106,-0.38011106848716736,0.14089620113372803,0.03580286353826523,-0.08831998705863953,-0.22900064289569855,0.9687499403953552,0.0,0.0,0.0,0.0,0.0,0.0
1648,1724814826707442144,-1.6901646852493286,-0.38019898533821106,0.1408669799566269,0.03643893077969551,-0.08792275190353394,-0.2254829704761505,0.9695872068405151,0.0,0.0,0.0,0.0,0.0,0.0
1650,1724814826719003909,-1.689887523651123,-0.3803367614746094,0.14095038175582886,0.03717292472720146,-0.08798165619373322,-0.22103086113929749,0.9705785512924194,0.0,0.0,0.0,0.0,0.0,0.0
1652,1724814826792761441,-1.6895757913589478,-0.3804834485054016,0.14090970158576965,0.037136200815439224,-0.08861462771892548,-0.21656863391399384,0.9715278148651123,0.0,0.0,0.0,0.0,0.0,0.0
1654,1724814826793680817,-1.6892255544662476,-0.3806391954421997,0.14089228212833405,0.03663207218050957,-0.08888835459947586,-0.21209816634655,0.9725077748298645,0.0,0.0,0.0,0.0,0.0,0.0
1656,1724814826794026206,-1.68892502784729,-0.3808724880218506,0.14082562923431396,0.036577336490154266,-0.09014672040939331,-0.20655594766139984,0.97358638048172,0.0,0.0,0.0,0.0,0.0,0.0
1658,1724814826794280665,-1.6886208057403564,-0.38080644607543945,0.14096152782440186,0.03659113124012947,-0.0895366221666336,-0.2028447687625885,0.9744220972061157,0.0,0.0,0.0,0.0,0.0,0.0
1660,1724814826794533868,-1.6883567571640015,-0.38084879517555237,0.1409909427165985,0.037677012383937836,-0.08970708400011063,-0.19863039255142212,0.9752328991889954,0.0,0.0,0.0,0.0,0.0,0.0
1662,1724814826794780915,-1.6880865097045898,-0.380906879901886,0.14088132977485657,0.03794253617525101,-0.09017057716846466,-0.19425219297409058,0.9760613441467285,0.0,0.0,0.0,0.0,0.0,0.0
1664,1724814826795144360,-1.6878386735916138,-0.38098567724227905,0.14084072411060333,0.036964740604162216,-0.09013079106807709,-0.1898830235004425,0.9769619107246399,0.0,0.0,0.0,0.0,0.0,0.0
1666,1724814826798037704,-1.687544822692871,-0.3810281753540039,0.14077915251255035,0.036230213940143585,-0.09079021960496902,-0.1859678477048874,0.9776811599731445,0.0,0.0,0.0,0.0,0.0,0.0
1668,1724814826872285625,-1.687208890914917,-0.3810809552669525,0.14062732458114624,0.03531685099005699,-0.09184874594211578,-0.18223078548908234,0.9783192873001099,0.0,0.0,0.0,0.0,0.0,0.0
1670,1724814826872670755,-1.686863660812378,-0.3811221718788147,0.1405012458562851,0.034736670553684235,-0.09248338639736176,-0.17865760624408722,0.9789390563964844,0.0,0.0,0.0,0.0,0.0,0.0
1672,1724814826873019759,-1.6864820718765259,-0.38113605976104736,0.14037905633449554,0.03446685150265694,-0.09325787425041199,-0.17505860328674316,0.9795252084732056,0.0,0.0,0.0,0.0,0.0,0.0
1674,1724814826873368267,-1.686069130897522,-0.38109448552131653,0.14036130905151367,0.03495350480079651,-0.09383753687143326,-0.17176607251167297,0.9800353646278381,0.0,0.0,0.0,0.0,0.0,0.0
1676,1724814826873618749,-1.6856846809387207,-0.3810281753540039,0.14040648937225342,0.034487418830394745,-0.09405182301998138,-0.16893470287322998,0.9805233478546143,0.0,0.0,0.0,0.0,0.0,0.0
1678,1724814826873866936,-1.685249924659729,-0.3808998167514801,0.14048320055007935,0.03440042585134506,-0.09377387166023254,-0.16607123613357544,0.9810420274734497,0.0,0.0,0.0,0.0,0.0,0.0
1680,1724814826874107065,-1.684812068939209,-0.38088393211364746,0.1404726505279541,0.03436607867479324,-0.0934964269399643,-0.16317810118198395,0.9815550446510315,0.0,0.0,0.0,0.0,0.0,0.0
1682,1724814826877626412,-1.6843971014022827,-0.38081884384155273,0.14049853384494781,0.03472026810050011,-0.09327072650194168,-0.16056713461875916,0.9819945096969604,0.0,0.0,0.0,0.0,0.0,0.0
1684,1724814826888946867,-1.6840596199035645,-0.38093888759613037,0.14023639261722565,0.034001920372247696,-0.09486676007509232,-0.1572989523410797,0.9823956489562988,0.0,0.0,0.0,0.0,0.0,0.0
1686,1724814826897377651,-1.6836928129196167,-0.3807881474494934,0.1403551995754242,0.033855754882097244,-0.09493773430585861,-0.15508447587490082,0.982745885848999,0.0,0.0,0.0,0.0,0.0,0.0
1688,1724814826908877586,-1.6833113431930542,-0.38088542222976685,0.14020055532455444,0.03323656693100929,-0.09652958810329437,-0.1518794745206833,0.9831124544143677,0.0,0.0,0.0,0.0,0.0,0.0
1690,1724814826917076786,-1.6829355955123901,-0.38060832023620605,0.14043234288692474,0.03386390581727028,-0.09579696506261826,-0.15098091959953308,0.983301043510437,0.0,0.0,0.0,0.0,0.0,0.0
1692,1724814826928132043,-1.6825652122497559,-0.38048699498176575,0.14050497114658356,0.034522123634815216,-0.09592150151729584,-0.1494588404893875,0.9834986329078674,0.0,0.0,0.0,0.0,0.0,0.0
1694,1724814826942010092,-1.6822302341461182,-0.3803812861442566,0.140593484044075,0.03425564989447594,-0.09598562866449356,-0.14811952412128448,0.9837042689323425,0.0,0.0,0.0,0.0,0.0,0.0
1696,1724814826947618133,-1.6818314790725708,-0.380140483379364,0.1408214122056961,0.03450888767838478,-0.09487462788820267,-0.1470700055360794,0.9839606285095215,0.0,0.0,0.0,0.0,0.0,0.0
1698,1724814826960949162,-1.6815046072006226,-0.3799876868724823,0.14093127846717834,0.034471768885850906,-0.09466280043125153,-0.14548492431640625,0.9842178821563721,0.0,0.0,0.0,0.0,0.0,0.0
1700,1724814826968689098,-1.68116295337677,-0.3798430860042572,0.14103029668331146,0.03504185006022453,-0.09479568153619766,-0.1440371572971344,0.9843978881835938,0.0,0.0,0.0,0.0,0.0,0.0
1702,1724814826977925810,-1.6808422803878784,-0.379731148481369,0.14108280837535858,0.03480914980173111,-0.09488324820995331,-0.1427006870508194,0.9845923781394958,0.0,0.0,0.0,0.0,0.0,0.0
1704,1724814826987535587,-1.6804709434509277,-0.3796096742153168,0.14114488661289215,0.035018280148506165,-0.095039002597332,-0.14121845364570618,0.9847835302352905,0.0,0.0,0.0,0.0,0.0,0.0
1706,1724814826999380009,-1.6801384687423706,-0.3795115053653717,0.14116822183132172,0.03483308106660843,-0.09497997909784317,-0.13977308571338654,0.9850020408630371,0.0,0.0,0.0,0.0,0.0,0.0
1708,1724814827007541062,-1.679770588874817,-0.37941405177116394,0.14115187525749207,0.034810736775398254,-0.09545069932937622,-0.13825289905071259,0.9851717948913574,0.0,0.0,0.0,0.0,0.0,0.0
1710,1724814827019194903,-1.6794441938400269,-0.3792807161808014,0.14123423397541046,0.03462018072605133,-0.09533959627151489,-0.13711760938167572,0.9853479266166687,0.0,0.0,0.0,0.0,0.0,0.0
1712,1724814827031051305,-1.6790677309036255,-0.37920820713043213,0.1412142813205719,0.03496572747826576,-0.09557422995567322,-0.13591700792312622,0.9854793548583984,0.0,0.0,0.0,0.0,0.0,0.0
1714,1724814827038147735,-1.6787328720092773,-0.37912440299987793,0.14127057790756226,0.03481338173151016,-0.09538180381059647,-0.134736105799675,0.985665500164032,0.0,0.0,0.0,0.0,0.0,0.0
1716,1724814827048334887,-1.678342342376709,-0.37914803624153137,0.14101839065551758,0.0342022068798542,-0.09624648839235306,-0.13329552114009857,0.9857987761497498,0.0,0.0,0.0,0.0,0.0,0.0
1718,1724814827069220928,-1.677917718887329,-0.3794422745704651,0.1404052972793579,0.03263109177350998,-0.0989144816994667,-0.13105203211307526,0.9858887791633606,0.0,0.0,0.0,0.0,0.0,0.0
1720,1724814827078384504,-1.6772191524505615,-0.37941214442253113,0.14031431078910828,0.03159075602889061,-0.09920014441013336,-0.12831555306911469,0.9862537980079651,0.0,0.0,0.0,0.0,0.0,0.0
1722,1724814827087716725,-1.676864504814148,-0.37942740321159363,0.1403004229068756,0.031655412167310715,-0.09922998398542404,-0.1278012990951538,0.9863154292106628,0.0,0.0,0.0,0.0,0.0,0.0
1724,1724814827097363419,-1.676532506942749,-0.3794640898704529,0.14027981460094452,0.030630620196461678,-0.09933169186115265,-0.12714862823486328,0.9864219427108765,0.0,0.0,0.0,0.0,0.0,0.0
1726,1724814827107465846,-1.676137089729309,-0.3795076012611389,0.14030860364437103,0.030484626069664955,-0.09914645552635193,-0.12631167471408844,0.9865526556968689,0.0,0.0,0.0,0.0,0.0,0.0
1728,1724814827119291539,-1.6757560968399048,-0.37957441806793213,0.14029480516910553,0.030065396800637245,-0.0991026982665062,-0.12574827671051025,0.9866418838500977,0.0,0.0,0.0,0.0,0.0,0.0
1730,1724814827127581250,-1.6754093170166016,-0.37926357984542847,0.1410870999097824,0.03174293041229248,-0.09603320807218552,-0.1265738308429718,0.9867872595787048,0.0,0.0,0.0,0.0,0.0,0.0
1732,1724814827207579817,-1.6749764680862427,-0.3792862296104431,0.14120832085609436,0.032072801142930984,-0.09541387856006622,-0.12631076574325562,0.9868703484535217,0.0,0.0,0.0,0.0,0.0,0.0
1734,1724814827208087999,-1.6745672225952148,-0.37939590215682983,0.14121609926223755,0.03125022351741791,-0.09548866748809814,-0.12609118223190308,0.9869176745414734,0.0,0.0,0.0,0.0,0.0,0.0
1736,1724814827208442958,-1.6741268634796143,-0.3795306086540222,0.14115940034389496,0.03093675896525383,-0.09576887637376785,-0.12556301057338715,0.9869677424430847,0.0,0.0,0.0,0.0,0.0,0.0
1738,1724814827208804821,-1.6737189292907715,-0.379747599363327,0.1410313993692398,0.02994808554649353,-0.09700440615415573,-0.12407885491847992,0.9870652556419373,0.0,0.0,0.0,0.0,0.0,0.0
1740,1724814827209059292,-1.6732721328735352,-0.37996548414230347,0.14087431132793427,0.029726149514317513,-0.09763707220554352,-0.12322530150413513,0.9871165156364441,0.0,0.0,0.0,0.0,0.0,0.0
1742,1724814827209314534,-1.672898292541504,-0.3800991475582123,0.14083537459373474,0.029137006029486656,-0.09775718301534653,-0.1227216050028801,0.9871849417686462,0.0,0.0,0.0,0.0,0.0,0.0
1744,1724814827209567947,-1.6725425720214844,-0.3801795244216919,0.14087854325771332,0.028444906696677208,-0.0974595695734024,-0.12277939915657043,0.9872273802757263,0.0,0.0,0.0,0.0,0.0,0.0
1746,1724814827209819135,-1.6722100973129272,-0.38045167922973633,0.1405905783176422,0.027261264622211456,-0.098504938185215,-0.12192622572183609,0.9872627258300781,0.0,0.0,0.0,0.0,0.0,0.0
1748,1724814827219480074,-1.6718045473098755,-0.380630761384964,0.14048634469509125,0.0271309707313776,-0.09871315211057663,-0.12101979553699493,0.9873570203781128,0.0,0.0,0.0,0.0,0.0,0.0
1750,1724814827228225185,-1.6714258193969727,-0.3808192014694214,0.14038850367069244,0.02655983529984951,-0.09882713109254837,-0.12030292302370071,0.9874487519264221,0.0,0.0,0.0,0.0,0.0,0.0
1752,1724814827239771570,-1.6710811853408813,-0.3809932470321655,0.14034608006477356,0.026804901659488678,-0.09885627776384354,-0.1194683387875557,0.9875405430793762,0.0,0.0,0.0,0.0,0.0,0.0
1754,1724814827249700901,-1.6706738471984863,-0.38100770115852356,0.14048776030540466,0.027570873498916626,-0.09797324985265732,-0.1193423867225647,0.9876226186752319,0.0,0.0,0.0,0.0,0.0,0.0
1756,1724814827257603515,-1.6703561544418335,-0.3811805248260498,0.140498548746109,0.026894349604845047,-0.09787137806415558,-0.11874625831842422,0.9877232313156128,0.0,0.0,0.0,0.0,0.0,0.0
1758,1724814827268792479,-1.6700297594070435,-0.3813115060329437,0.1405244767665863,0.027567854151129723,-0.09742524474859238,-0.1183457225561142,0.9877968430519104,0.0,0.0,0.0,0.0,0.0,0.0
1760,1724814827297799405,-1.6697990894317627,-0.3813757002353668,0.14059047400951385,0.026785971596837044,-0.09685501456260681,-0.1185186505317688,0.9878537654876709,0.0,0.0,0.0,0.0,0.0,0.0
1762,1724814827298106381,-1.6695083379745483,-0.3814399540424347,0.1406112164258957,0.026707956567406654,-0.09681036323308945,-0.11814217269420624,0.9879053831100464,0.0,0.0,0.0,0.0,0.0,0.0
1764,1724814827299039278,-1.6692248582839966,-0.38155579566955566,0.14057591557502747,0.026214025914669037,-0.09691879153251648,-0.11741792410612106,0.9879943132400513,0.0,0.0,0.0,0.0,0.0,0.0
1766,1724814827307345555,-1.6689176559448242,-0.38168594241142273,0.14052608609199524,0.025949077680706978,-0.09736599773168564,-0.11609199643135071,0.9881139397621155,0.0,0.0,0.0,0.0,0.0,0.0
1768,1724814827318277941,-1.66863214969635,-0.38170015811920166,0.1405514031648636,0.025877609848976135,-0.097288578748703,-0.11578871309757233,0.9881590008735657,0.0,0.0,0.0,0.0,0.0,0.0
1770,1724814827328057657,-1.6682993173599243,-0.3817620277404785,0.14052040874958038,0.0261309202760458,-0.0976090058684349,-0.11459537595510483,0.9882599115371704,0.0,0.0,0.0,0.0,0.0,0.0
1772,1724814827337532712,-1.6679555177688599,-0.3817964196205139,0.1405077427625656,0.025902561843395233,-0.09794607758522034,-0.11325254291296005,0.988387405872345,0.0,0.0,0.0,0.0,0.0,0.0
1774,1724814827348544871,-1.6676340103149414,-0.3817565441131592,0.14054760336875916,0.026074478402733803,-0.09781868755817413,-0.11231773346662521,0.9885021448135376,0.0,0.0,0.0,0.0,0.0,0.0
1776,1724814827358068434,-1.6673154830932617,-0.38166359066963196,0.14061841368675232,0.0260586179792881,-0.09762482345104218,-0.11189421266317368,0.9885696768760681,0.0,0.0,0.0,0.0,0.0,0.0
1778,1724814827367551302,-1.6669634580612183,-0.38165906071662903,0.14062267541885376,0.026106806471943855,-0.09797166287899017,-0.11042885482311249,0.9886988401412964,0.0,0.0,0.0,0.0,0.0,0.0
1780,1724814827400201658,-1.666605830192566,-0.38158026337623596,0.14067944884300232,0.025990216061472893,-0.09820207953453064,-0.10909662395715714,0.9888269901275635,0.0,0.0,0.0,0.0,0.0,0.0
1782,1724814827400595568,-1.666288137435913,-0.38166168332099915,0.14048252999782562,0.025159316137433052,-0.09928079694509506,-0.10682849586009979,0.98898845911026,0.0,0.0,0.0,0.0,0.0,0.0
1784,1724814827400913298,-1.6659718751907349,-0.38156476616859436,0.14049021899700165,0.02506311796605587,-0.09965616464614868,-0.10555599629878998,0.9890896677970886,0.0,0.0,0.0,0.0,0.0,0.0
1786,1724814827407676566,-1.6656749248504639,-0.3814486861228943,0.14049312472343445,0.024772489443421364,-0.09975982457399368,-0.1044958308339119,0.9891992211341858,0.0,0.0,0.0,0.0,0.0,0.0
1788,1724814827421549448,-1.6653661727905273,-0.38135552406311035,0.14047706127166748,0.024428755044937134,-0.09984147548675537,-0.10307209193706512,0.9893488883972168,0.0,0.0,0.0,0.0,0.0,0.0
1790,1724814827427763602,-1.6650663614273071,-0.38122013211250305,0.1405588835477829,0.024947626516222954,-0.09968090057373047,-0.10200135409832001,0.9894630312919617,0.0,0.0,0.0,0.0,0.0,0.0
1792,1724814827440494478,-1.6648122072219849,-0.38109347224235535,0.14060154557228088,0.025129683315753937,-0.0996493473649025,-0.10107098519802094,0.9895570874214172,0.0,0.0,0.0,0.0,0.0,0.0
1794,1724814827447433665,-1.664570689201355,-0.38089168071746826,0.14071957767009735,0.0251315925270319,-0.09899290651082993,-0.1005927100777626,0.9896715879440308,0.0,0.0,0.0,0.0,0.0,0.0
1796,1724814827457897998,-1.6642684936523438,-0.3806319832801819,0.14086712896823883,0.0248995590955019,-0.09853719919919968,-0.09981690347194672,0.9898015856742859,0.0,0.0,0.0,0.0,0.0,0.0
1798,1724814827470372725,-1.6639988422393799,-0.3804285526275635,0.14081227779388428,0.02463754639029503,-0.09992080181837082,-0.09911239892244339,0.9897401332855225,0.0,0.0,0.0,0.0,0.0,0.0
1800,1724814827480853241,-1.6638215780258179,-0.3801282048225403,0.14105796813964844,0.025052504613995552,-0.0983327180147171,-0.09897193312644958,0.9899028539657593,0.0,0.0,0.0,0.0,0.0,0.0
1802,1724814827487764282,-1.6636128425598145,-0.37994682788848877,0.14120057225227356,0.025047391653060913,-0.09793123602867126,-0.09820978343486786,0.9900187253952026,0.0,0.0,0.0,0.0,0.0,0.0
1804,1724814827497586013,-1.6633532047271729,-0.3798103928565979,0.14122888445854187,0.025115028023719788,-0.09796997159719467,-0.09702175855636597,0.9901302456855774,0.0,0.0,0.0,0.0,0.0,0.0
1806,1724814827507403925,-1.663145661354065,-0.37969738245010376,0.1412462741136551,0.024684535339474678,-0.09795056283473969,-0.09593271464109421,0.9902490973472595,0.0,0.0,0.0,0.0,0.0,0.0
1808,1724814827518012146,-1.6629126071929932,-0.3796214759349823,0.14127478003501892,0.024872247129678726,-0.0981423556804657,-0.09471457451581955,0.9903427362442017,0.0,0.0,0.0,0.0,0.0,0.0
1810,1724814827527699671,-1.6626503467559814,-0.37957891821861267,0.14122430980205536,0.02517087198793888,-0.09867993742227554,-0.09291913360357285,0.9904518127441406,0.0,0.0,0.0,0.0,0.0,0.0
1812,1724814827537784184,-1.6624361276626587,-0.3795675039291382,0.1411685347557068,0.024828851222991943,-0.09913870692253113,-0.09092630445957184,0.9905995726585388,0.0,0.0,0.0,0.0,0.0,0.0
1814,1724814827548022832,-1.6622542142868042,-0.37955230474472046,0.1411353200674057,0.024304497987031937,-0.09940163791179657,-0.08908648043870926,0.9907533526420593,0.0,0.0,0.0,0.0,0.0,0.0
1816,1724814827557323101,-1.6621129512786865,-0.3795333802700043,0.1410973072052002,0.02414652891457081,-0.09981229156255722,-0.08762454241514206,0.9908462762832642,0.0,0.0,0.0,0.0,0.0,0.0
1818,1724814827567379389,-1.6619715690612793,-0.37940099835395813,0.14118492603302002,0.023985834792256355,-0.09969359636306763,-0.08707691729068756,0.9909104704856873,0.0,0.0,0.0,0.0,0.0,0.0
1820,1724814827579122512,-1.661821722984314,-0.3792911171913147,0.1412496417760849,0.024730926379561424,-0.099594347178936,-0.08629997819662094,0.9909701347351074,0.0,0.0,0.0,0.0,0.0,0.0
