seq,stamp,px,py,pz,ox,oy,oz,ow,lx,ly,lz,ax,ay,az,timestamp,lyap_z,wx,wy,wz,aa_x,aa_y,aa_z,roll,pitch,yaw,vx,vy,vz,jx,jy,jz,forward_velocity,forward_velocity_1
17232,1724822274123624401,0.2604827880859375,-0.1016626954078674,0.1287517696619033,-0.0043963957577943,0.093721404671669,-0.093603566288948,0.9911787509918212,0.0,0.0,0.0,-0.622353226196139,-0.3064892653195725,0.09542160001193246,0.0,0.1287517696619033,0.0,0.0,0.0,17.13760574721543,5.42619153229912,10.406975160749806,-0.026724809955747143,0.1860375633931635,-0.19080798753173644,0.05818786937876631,0.01898918120652156,-0.015077295828834872,57.617596136720216,38.336375834330184,-9.714568417045264,0.0,0.0
17234,1724822274134076851,0.2610909938812256,-0.1014642119407653,0.1285941749811172,-0.0033874516375362,0.0939300209283828,-0.0931290686130523,0.991207718849182,0.0,0.0,0.0,-0.020108183456877704,0.09421978626997207,-0.006119440638812312,0.01045245,0.1285941749811172,0.17912996719248195,0.05671699568177993,0.10877838751897931,3.176324665974482,-0.592866716717766,7.5006320333826215,-0.024641040744031124,0.18665941952345697,-0.1896668513571608,0.05168275339961248,0.015785617485231995,-0.014079906325790148,53.77334765027274,25.248926345549087,-41.4116624923034,0.055431902975500075,0.056828451395039906
17236,1724822274146273683,0.2616287767887115,-0.1013172715902328,0.1284366399049759,-0.003201100975275,0.0937036722898483,-0.0921787470579147,0.9913185834884644,0.0,0.0,0.0,0.581043693377489,0.21591180770907958,-0.9623340129780538,0.022649282,0.1284366399049759,0.019169515129112812,-0.03617931939223879,0.158898303752906,10.832023893750446,4.490848710599914,1.0131196537898965,-0.024039693315597303,0.18626544370926096,-0.18768426212278336,0.06000884705732901,0.022637823582194017,-0.015599709647519333,-47.77089529011266,-53.1249611491738,-44.2955690212498,0.042751385042431686,0.04235578268735601
17238,1724822274154740308,0.2622303962707519,-0.1010633632540702,0.1282887905836105,-0.00205744872801,0.0939137861132621,-0.0916530191898346,0.991350531578064,0.0,0.0,0.0,-0.39385053511360857,-0.6047448793743269,-1.1369361942022573,0.031115907,0.1282887905836105,0.2516221833320514,0.07300042406777132,0.14927925857401045,-5.5812554111694945,-10.771081385528877,15.422332292411065,-0.02167342960478541,0.18691225497368236,-0.18641277618322588,0.0643311967353899,0.022432986651090836,-0.028670959158376697,-86.5664898018293,-57.36457905011814,54.81598322520539,0.06639426610002402,0.07079043994285901
17240,1724822274163478082,0.2627318501472473,-0.1009354889392852,0.1279371976852417,-0.0023852426093071,0.0929397419095039,-0.0897347852587699,0.99161696434021,0.0,0.0,0.0,-0.8925341951710877,-0.749212338986802,0.022307207467901824,0.039853681,0.1279371976852417,-0.09505509887134943,-0.23452904949665612,0.43335366280895105,-13.86755472091475,-16.883247075311672,7.281436529701708,-0.021783534268803216,0.1849457113867685,-0.18251539572592598,0.05273459573816197,0.011913678164608754,-0.0349358082158151,-0.2156693156090732,16.101036586367044,90.48367973665879,0.06026213246419563,0.05063751163207546
17242,1724822274173642482,0.2632128298282623,-0.1008465662598609,0.1276447921991348,-0.0020245143678039,0.0919550582766532,-0.0887115150690078,0.991801619529724,0.0,0.0,0.0,-0.22245784922835687,-0.1996837489239861,0.4432065039192876,0.050018081,0.1276447921991348,0.06914379564337253,-0.18961506372593914,0.20905107106306123,0.6598226141520023,3.949860253661887,-17.13006266153421,-0.020677741053648342,0.18306392938072127,-0.1803128987842352,0.04880175548771959,0.00967445759338581,-0.025967717857235506,36.52479871122066,40.95687988913568,-11.21337583555531,0.04946922290774312,0.04205356388719915
17244,1724822274183494152,0.2637077569961548,-0.1007424145936966,0.1274157017469406,-0.0024059659335762,0.0912293642759323,-0.0882500112056732,0.9919089674949646,0.0,0.0,0.0,-0.14334621138669323,0.07865532919982604,-0.1697335397791424,0.059869751,0.1274157017469406,-0.07230594479403504,-0.15517960734064612,0.08743648555405256,-7.581459768877563,-0.1797635475671342,-6.358044144374063,-0.02122540344297165,0.18155353868672452,-0.17940461808972763,0.048180579930630074,0.00790409779681056,-0.02579414283257986,-2.9482234499329323,19.946225976247,-48.39273186643328,0.05096233135385613,0.04624692467798676
17246,1724822274193609346,0.2641737461090088,-0.1006901711225509,0.1271284073591232,-0.0028481024783104,0.090286336839199,-0.0877833887934684,0.992035448551178,0.0,0.0,0.0,-0.2871882105173822,0.19414321733912687,-0.5156611619891491,0.069984945,0.1271284073591232,-0.07861487948327495,-0.19516726818994892,0.08529825170762625,-3.543694774995412,4.620598657594694,-3.5518095239660687,-0.021855362710029937,0.17959841400733406,-0.1784845177794952,0.04589669671571883,0.01138294546996832,-0.029456828716767802,-20.808458897651782,-16.502045874976158,-23.633065796194106,0.04877858695428341,0.040402045815275976
17248,1724822274203421303,0.2646224498748779,-0.1005192995071411,0.1268293410539627,-0.0035563178826123,0.0900153219699859,-0.0876290872693061,0.9920714497566224,0.0,0.0,0.0,-0.5540639103271747,-0.23350489428399995,-0.6469850126620948,0.079796902,0.1268293410539627,-0.14117733432941412,-0.06822610189668694,0.018654553190738395,5.274560646281995,0.016399366989187314,-2.3862672314592457,-0.02320469673467083,0.1789332821657626,-0.17828322602236318,0.04249441693044176,0.0118622949562468,-0.03597806424822814,-23.51570102754655,-30.16721846483952,-33.58376768787836,0.046672690157086534,0.041840829658784974
17250,1724822274213391285,0.2650133371353149,-0.1004572808742523,0.1264149397611618,-0.0034799196291714,0.0890191718935966,-0.087443396449089,0.9921780228614808,0.0,0.0,0.0,-0.7512008838379585,-0.39834821531268255,-1.1864487316626413,0.089766884,0.1264149397611618,0.02943801441108534,-0.19895942222813864,0.03949693232675301,5.996616031307555,-8.714772264659882,1.7196554368807575,-0.02283218801782289,0.17695926248408383,-0.1778368556478471,0.03487018852492518,0.006673807874956417,-0.04224982794012799,-12.7170845603613,9.039582888998883,-18.234535966465145,0.044219200055231285,0.03169343647389182
17252,1724822274223906858,0.2653319239616394,-0.1003820747137069,0.1259630620479583,-0.0037267196457833,0.0877727270126342,-0.0871455669403076,0.9923143982887268,0.0,0.0,0.0,-0.8066704337165429,-0.019655089485137278,-0.9803131730246877,0.100282457,0.1259630620479583,-0.030795114894305593,-0.2418228088282309,0.053466903346691026,0.3933508137353183,-9.117978640292733,21.170975621521123,-0.023045878802032207,0.17442993113272098,-0.17720675132860572,0.027120803534410598,0.003838747635480644,-0.060907974002245346,8.886144769162136,24.028589913456578,95.18320064531552,0.035585770468572905,0.02308842179548315
17254,1724822274233258550,0.2655591368675232,-0.1003737300634384,0.1252443045377731,-0.003595755668357,0.0860577598214149,-0.0852162018418312,0.9926325678825378,0.0,0.0,0.0,-0.6057970025893703,0.10538628824936844,0.5383844272706604,0.109634149,0.1252443045377731,0.023792340765667164,-0.36902210254481843,0.41647387444442296,-12.651955694186736,-3.7112204303158016,7.203530252876635,-0.022130363804404918,0.17106777678448895,-0.17317504175512383,0.018997178334217324,0.005733687795781428,-0.06347197659913473,37.95388697286123,-9.431374141613684,90.75484022229998,0.03651617743420389,0.010555916728218111
17256,1724822274243638717,0.2656952738761902,-0.100258432328701,0.1247396916151046,-0.0053203660063445,0.0846891403198242,-0.084413006901741,0.99281108379364,0.0,0.0,0.0,-0.02202016838649057,-0.25523610989465667,0.6549782984997536,0.120014316,0.1247396916151046,-0.32056422412970914,-0.2935890733047174,0.12700230742371066,-9.363233845645627,3.2234861505501513,-13.711137812730485,-0.025219889836641533,0.16805231243259636,-0.171764716234932,0.015737773514663544,0.005707188840464283,-0.04852134590486301,32.165431175338384,-22.85535759775958,-35.852661350061766,0.018999467110977396,0.006373329900000741
17258,1724822274254550996,0.2658970952033996,-0.1002581045031547,0.1242112666368484,-0.0062063280493021,0.083110861480236,-0.0835764929652214,0.99301016330719,0.0,0.0,0.0,0.05280667517696358,-0.3682864573034824,-0.2763998020062246,0.130926595,0.1242112666368484,-0.14958381173404295,-0.304799735871221,0.14000316953315695,11.381365927777463,-2.262539877656984,1.6092389570409331,-0.02658120977701429,0.16476696243104735,-0.17012877040223126,0.01884701486578777,2.328259014117151e-05,-0.050383074233129044,-6.952059796751069,1.7042463870883573,-44.20542478426218,0.025918742727617614,0.009942732819172795
17260,1724822274263314187,0.2660647332668304,-0.1002579480409622,0.123755969107151,-0.0066193453967571,0.081694059073925,-0.0828548744320869,0.9931855201721193,0.0,0.0,0.0,-0.10529559515676579,-0.26845206414690964,-0.3742219141963208,0.139689786,0.123755969107151,-0.08001767005199285,-0.33331931068324616,0.15704573394638308,6.3950740155643455,-2.209577770289931,2.5541940067013105,-0.027042805226966383,0.16188396360397636,-0.16865512403507874,0.01767623330858825,-0.0021302805984069195,-0.05354970831078987,2.786935465834511,21.423342604783578,32.55057053458317,0.026982951110188714,0.010126642695225197
17262,1724822274273502251,0.2662276029586792,-0.1003050953149795,0.1231915205717086,-0.0068527949042618,0.0799766555428505,-0.0818666145205497,0.9934056401252748,0.0,0.0,0.0,0.16980430688273251,0.06862217007458854,0.4751740397848896,0.14987785,0.1231915205717086,-0.033144929247291066,-0.3434542372601651,0.19028618594648766,9.499338672116293,2.5571324427219917,4.114029444166808,-0.027052136397048947,0.1584385339707307,-0.16659620144205867,0.016938755908400438,-0.005134172516767954,-0.05751469367370898,22.89556163860125,13.56422074421834,60.940222781317374,0.025066595785323206,0.0059542880699993295
17264,1724822274283503222,0.2664063572883606,-0.1003614142537117,0.1225955858826637,-0.0063265711069107,0.0785338580608367,-0.080709584057331,0.993618905544281,0.0,0.0,0.0,0.3584662285255088,0.012633874467027656,0.8644188423876624,0.159878821,0.1225955858826637,0.10994865816832357,-0.2830101482824521,0.23978838253868298,-10.430691407155102,15.49017913768097,-16.665130673553033,-0.02556111807321255,0.15567221683405408,-0.1640936679567892,0.021014626137308312,-0.0008796204595507007,-0.044276862258165295,-5.460445918913918,-34.19122834326872,-1.1540840023067958,0.02756789175209611,0.007162320673272558
17266,1724822274293819620,0.2666565775871277,-0.1003199219703674,0.1223017424345016,-0.0077389916405081,0.0785208418965339,-0.0814341381192207,0.9935507774353028,0.0,0.0,0.0,0.04327501665756173,-0.6443760603587486,0.4260460686719787,0.170195219,0.1223017424345016,-0.26092173005081776,-0.022681303043140567,-0.16215628491989198,-7.8168196182826275,5.59521690090922,-7.512352797016241,-0.02851410665888753,0.15539307581675446,-0.16577994169224664,0.024190395180241353,-0.005141995879069938,-0.040246256491872856,5.848300182217994,-72.0176998294939,-87.74969834289482,0.02738642040423396,0.01979968871069309
17268,1724822274304042463,0.2669032216072082,-0.1004653200507164,0.1217711493372917,-0.0080590667203068,0.0777121484279632,-0.0810007750988006,0.993647277355194,0.0,0.0,0.0,0.47180581421311363,-1.4650031395432472,-0.9294637401923824,0.180418062,0.1217711493372917,-0.055842940343079156,-0.16443060123436015,0.07963254780027705,-0.20532204299053625,-10.790768268979779,2.4752207544095235,-0.028950672877794816,0.15373622098768677,-0.1649075289682399,0.021952739869890436,-0.014071549933387661,-0.03553278318893227,25.187479660387623,-42.59776843043012,-100.04586002030896,0.033773978107566216,0.013163616370343289
17270,1724822274317156939,0.2671545445919037,-0.1006473153829574,0.1215805634856224,-0.0109214046970009,0.0762546360492706,-0.0823742598295211,0.9936199188232422,0.0,0.0,0.0,0.5206356263368468,-1.3897866038694149,-1.6938852087357334,0.193532538,0.1215805634856224,-0.3994942291250289,-0.25420912068867063,-0.24418208530244112,31.24680272755051,-22.630586303017463,62.95801450225173,-0.03466395821368839,0.15030223341757343,-0.16803830564937627,0.039760479769689994,-0.04323593211329424,-0.07111664766033599,-91.86259910390862,108.62174111569007,170.91976371901495,0.023151710044951326,0.014203913752557472
17272,1724822274323390421,0.2674634158611297,-0.101003810763359,0.120969608426094,-0.0110447574406862,0.0749082937836647,-0.081087477505207,0.9938267469406128,0.0,0.0,0.0,-0.33519559661160525,-0.4078575183019528,0.050650659024151334,0.19976602,0.120969608426094,-0.034499517221163845,-0.44204464116661807,0.4079580864722878,39.6113056068998,-13.177071797570564,59.33333891634332,-0.034483284023582854,0.14763628971489046,-0.165372032789651,0.04052525115291594,-0.049427987952728625,-0.07865499126352082,-83.9773307653532,110.71840924524074,212.45894782819383,0.07207249864531795,0.024451000802028385
17274,1724822274334364931,0.2677337825298309,-0.1013962775468826,0.1204804107546806,-0.0108977165073156,0.073491483926773,-0.0800815895199775,0.9940156936645508,0.0,0.0,0.0,-0.22661485929563652,-0.09714760753011698,1.079893758345266,0.21074053,0.1204804107546806,0.03421679289603878,-0.2590373179753091,0.1841295623404592,2.1707442394762015,6.090120316822279,-1.781161177560037,-0.0337959929136141,0.1448641094021812,-0.1632326046873099,0.02799967809748871,-0.04259138238731097,-0.05375445896507447,38.24042588790955,-0.8086214357258008,17.933521373164723,0.03623935824020632,0.011827153327951152
17276,1724822274343619808,0.2680191695690155,-0.1018437594175338,0.1199112832546234,-0.0107940565794706,0.072186566889286,-0.0786352977156639,0.994227945804596,0.0,0.0,0.0,0.3485316603747324,-0.33190869118311284,0.6538692655697707,0.219995407,0.1199112832546234,0.022380061538553337,-0.285291044972244,0.3129229585311502,-9.929125739495205,-1.2916529468754057,-5.864754499639157,-0.03315759080223856,0.14232220061375983,-0.1602187897580912,0.0330414871678677,-0.04911064127151654,-0.05304034280013248,38.740773698701915,-17.53207925046754,-61.870882363217646,0.04649187456794408,0.01371737585928908
17278,1724822274353517770,0.2683695554733276,-0.102337896823883,0.1194757893681526,-0.0117114335298538,0.0708678886294364,-0.0783365443348884,0.994335949420929,0.0,0.0,0.0,0.48423298532316283,-0.4225106132126424,-0.12618797877421484,0.229893369,0.1194757893681526,-0.1674662576220827,-0.2817198446000151,0.04547717525220909,-11.969045257624055,-1.1774054565012175,-17.217580961092867,-0.03473790885647101,0.1395506148284662,-0.15966880186364113,0.03441387973704657,-0.048452626261871856,-0.0404634909442958,7.713193712116942,-16.388942839924578,-80.71204372068456,0.04859002550177484,0.020633768527987595
17280,1724822274365128705,0.268755704164505,-0.102880448102951,0.1190541163086891,-0.0130658317357301,0.069134883582592,-0.0783499404788017,0.9944400787353516,0.0,0.0,0.0,0.4921113461725146,-0.7113496283399101,-1.0892383634048701,0.241504304,0.1190541163086891,-0.20821757063837126,-0.31634155738802566,-0.02091863427842002,17.498705669077122,-0.5304965187619608,24.55734223228225,-0.03717085969406439,0.13587125127989233,-0.1597805745496589,0.044743187096518255,-0.06001859593738512,-0.060954097186979084,-76.98242409098891,28.001232389500355,58.202370726098174,0.044816271439311446,0.020266053017118937
17282,1724822274372972330,0.2691675126552582,-0.1034216359257698,0.1184454709291458,-0.0129128778353333,0.0679400861263275,-0.0770497247576713,0.994625985622406,0.0,0.0,0.0,-0.5232092843790983,-0.21153726689802754,0.11516332160198317,0.249347929,0.1184454709291458,0.040352404386537984,-0.3075138340536473,0.3321208867595752,15.237190439166744,9.466725499873604,12.02713021130371,-0.03648947788121037,0.1335567801721865,-0.15706387610419847,0.046496864589304465,-0.06408921407081003,-0.06591826944052048,-82.43458809510918,40.74069515068677,85.81610052360088,0.07242348638387648,0.03029833056424654
17284,1724822274383226534,0.2695637941360473,-0.1040130257606506,0.1179260984063148,-0.0130694489926099,0.067447505891323,-0.0769670233130455,0.9946638345718384,0.0,0.0,0.0,-0.7383019578551338,-0.10185415481813465,0.08710149801831912,0.259602133,0.1179260984063148,-0.023971938632885516,-0.09862028117406316,0.013297018608264707,-1.8354377730671256,-4.193280242421745,-4.215782076430074,-0.036712098130979115,0.13255116550183849,-0.15688905648526502,0.03112059266009659,-0.06213701163448082,-0.054709203617115065,22.71285499692442,22.518169048712167,-16.061198457786524,0.05346244220837362,0.022209668407904594
17286,1724822274395017316,0.2698287069797516,-0.1048061922192573,0.1172259971499443,-0.0130719477310776,0.0646446272730827,-0.0750121101737022,0.9949992299079896,0.0,0.0,0.0,0.12181764647727178,0.32392759084446343,-0.28292213151826573,0.271392915,0.1172259971499443,0.014549202236657238,-0.4811021917275416,0.32796724886943746,0.9693509980753753,-3.781499793939531,7.552606692198932,-0.0360092453609445,0.12702290640846786,-0.15278388653610556,0.03273558749350158,-0.06729995901081054,-0.06732140665135589,49.82301713261057,46.679491517333524,64.54064781173484,0.039704497349415634,0.004344325538123807
17288,1724822274403323059,0.2701606750488281,-0.1053653433918953,0.1166203618049621,-0.0130666801705956,0.0632318779826164,-0.0738439336419105,0.995177447795868,0.0,0.0,0.0,0.4003326499829154,0.7734670647448418,0.814361621023138,0.279698658,0.1166203618049621,0.00915699955455236,-0.34484103270215977,0.2787411996667122,-0.9692536065508882,10.643053272387364,-5.67172019629034,-0.03562802232719445,0.12424348743001956,-0.15034845494156956,0.033658714680407265,-0.060152325040700116,-0.06506821132584983,24.960570170138197,2.443935562609026,61.99103861911018,0.05825504823114547,0.020112005504313794
17290,1724822274417872386,0.2704895734786987,-0.1060578152537345,0.1158737167716026,-0.013249184936285,0.0608192086219787,-0.0723379701375961,0.9954360127449036,0.0,0.0,0.0,0.5450168932045978,-0.5081088321728187,-0.07082251311096321,0.294247985,0.1158737167716026,-0.013101629487228646,-0.33685936088577567,0.20272122163009393,-67.23269212633608,5.450313259965895,-92.47173276106936,-0.03543638018124409,0.11945028030650741,-0.1472034409067982,0.046853662370253346,-0.05111871349807551,-0.03937868080520168,-98.57171635469331,-64.00518475601379,-188.39574282753458,0.035248430212531386,0.00911210182937126
17292,1724822274424293658,0.2708591520786285,-0.1063960492610931,0.1156546920537948,-0.0154573861509561,0.0600179843604564,-0.0742422342300415,0.9953125715255736,0.0,0.0,0.0,-0.39547312914734545,-0.8508617396975451,-1.6420546828603588,0.300669257,0.1156546920537948,-0.6310225563411759,-0.2879699639976621,-0.6383218656383078,-36.604919263851095,-3.8244575465425186,-47.0925182754092,-0.039967506138561634,0.11744795404468295,-0.15125807413403633,0.04932775706295445,-0.057581012220301986,-0.045038106722882,-102.09379400621819,-12.473099525274456,-167.09097514938068,0.06838542776362375,0.044665924835611805
17294,1724822274433528955,0.2712054252624511,-0.1069930046796798,0.1150935888290405,-0.0164228770881891,0.057897362858057,-0.073970727622509,0.9954429864883424,0.0,0.0,0.0,-0.7489812231406696,-0.4227377429710448,-2.1544554083932117,0.309904554,0.1150935888290405,-0.17710421096644458,-0.4752170873910399,0.04097110304708815,36.01673117937242,-4.705839369441723,56.82303926920093,-0.041538652003919374,0.11307825200832071,-0.1506974984290088,0.03530485035283526,-0.06337317573866574,-0.07030697067267777,15.219874057890214,57.379975155620066,61.90307964117447,0.05333049654684975,0.02028581705424253
17296,1724822274443701032,0.2715400159358978,-0.1076234653592109,0.1142714172601699,-0.0162136945873498,0.0561521686613559,-0.0717689394950866,0.9957074522972108,0.0,0.0,0.0,0.005219484148951237,0.2844318185799444,-0.20959460442586586,0.320076631,0.1142714172601699,0.0421129531859169,-0.3486484638415102,0.43152785470585897,14.386911439312643,9.79119238979184,18.752612943918233,-0.04060337891287946,0.10971496717376772,-0.14613775897129977,0.03630666909925573,-0.06538278675277365,-0.0857053777287371,31.410208324497784,74.02924002534515,188.16370756677236,0.05016793312970326,0.014375120702770779
17298,1724822274453085982,0.2719103097915649,-0.1082665473222732,0.1134248301386833,-0.0156547855585813,0.0548395775258541,-0.0697338879108429,0.9959341287612916,0.0,0.0,0.0,-0.0700196201801091,1.0182310731879864,1.530056261163749,0.329461581,0.1134248301386833,0.11510255505939723,-0.27971774960303836,0.43744215151640714,-1.9458109909949959,11.191173862027526,-14.149380604583989,-0.03906498347279734,0.10725539670259927,-0.141906220319164,0.03554807410163541,-0.058539957295688616,-0.07637971863303328,-10.076832098821406,1.7505648239545621,83.75614879318962,0.0581272198938271,0.019384343672019373
17300,1724822274463490650,0.272235095500946,-0.1087604835629463,0.1127896234393119,-0.0157533958554267,0.0542394965887069,-0.0690988600254058,0.9960097074508668,0.0,0.0,0.0,-0.1986263019222898,0.15471451560460814,1.2294226735035352,0.339866249,0.1127896234393119,-0.01730086458185331,-0.1189088385112383,0.11973749749279258,18.73064498148035,6.1301701391336625,-22.224325326460207,-0.039106531653891434,0.10606781894017467,-0.14060561041709302,0.034944254573487044,-0.04461074371107987,-0.05427281987225285,-37.01769388054907,-72.70879831604505,-22.095019685725568,0.043812502724372517,0.017551192491396216
17302,1724822274474016319,0.2726426124572754,-0.1091995686292648,0.1122905313968658,-0.0131180705502629,0.0532443709671497,-0.0693674981594085,0.9960829615592957,0.0,0.0,0.0,-0.8508142204876779,-0.5010852638005177,1.0692550133223984,0.350391918,0.1122905313968658,0.5147979535337255,-0.15368108343869663,-0.025697616715150598,-27.47106658239224,-18.845469388964933,-1.844100443145936,-0.03371026922569333,0.10444145732096057,-0.1408182226369683,0.031356537092019465,-0.05558993461660311,-0.050865408836079595,-30.962912908777223,26.248195632010663,9.970541856426493,0.04889066460010467,0.02730204066934754
17304,1724822274483059431,0.2728689908981323,-0.1098100692033767,0.1118037551641464,-0.0147758591920137,0.0513502322137355,-0.0690309554338455,0.9961825013160706,0.0,0.0,0.0,-0.8899744080921416,0.42428163928759854,1.3551101435437891,0.35943503,0.1118037551641464,-0.339820316191511,-0.44485365493940815,0.050649364829082014,-58.89384788365821,-10.189115204888154,-5.134129314002758,-0.03672168863685176,0.10043719926847414,-0.14021566033162663,0.01970045718391944,-0.055910288003626185,-0.03540370515032709,36.65348852628243,30.04312863173097,-60.346419676520114,0.039447360934149016,0.009863206498719898
17306,1724822274493631759,0.2730113565921783,-0.1102577969431877,0.1116571873426437,-0.0176751539111137,0.0500498414039611,-0.0697696954011917,0.9961499571800232,0.0,0.0,0.0,0.004104701987746595,-0.15154815547429346,-0.4194893335002394,0.370007358,0.1116571873426437,-0.5223080184406605,-0.28054010194027534,-0.171440051780432,11.137186112316655,12.239474589656544,1.4774537556203153,-0.04241180937617557,0.09740185201674866,-0.14191774963359283,0.01522269579533031,-0.045742603923979885,-0.025460766135898538,48.08771642473489,-71.39294783887597,-108.62309354799797,0.020577030820903383,0.006039073027185154
17308,1724822274505118504,0.2732081413269043,-0.1108255833387374,0.1112199872732162,-0.0179401133209466,0.0490421392023563,-0.0690180882811546,0.9962477087974548,0.0,0.0,0.0,0.10119472948765273,-1.1828764008337203,-0.9280080334283896,0.381494103,0.1112199872732162,-0.039962978436657116,-0.1811628736902121,0.12613861160211562,10.461288633750367,-0.8384624296820959,15.73350147871772,-0.042722319375031015,0.09538442477635158,-0.1403744252225561,0.020606908759177145,-0.061377341819644826,-0.04725194583291081,-3.8683922335122034,-76.70210222890397,-33.57734192912202,0.02739525693092804,0.0063618792406024815
17310,1724822274513550335,0.2734034061431885,-0.1114170551300048,0.1107646822929382,-0.0185884907841682,0.0480623543262481,-0.0681464299559593,0.9963436722755432,0.0,0.0,0.0,-0.007680616519135541,-1.7486455345478413,-1.1449453651389176,0.389925934,0.1107646822929382,-0.14690713709612796,-0.2469693982991908,0.19583778555760928,-4.013420436883678,-11.283555573644808,8.206318221389882,-0.043796335459813054,0.0933753969694445,-0.13862689362121278,0.019185335254807256,-0.07024799335267051,-0.04907885371603893,-2.775004803549196,-21.371306340286544,-21.384179067227734,0.037521757046040674,0.008127271251784354
17312,1724822274524365163,0.2735557854175567,-0.1121781691908836,0.1103021427989006,-0.0190458241850137,0.0458684712648391,-0.0665572434663772,0.9965458512306212,0.0,0.0,0.0,0.10292737268682428,-1.3454669174202891,-1.3159518783772217,0.400740762,0.1103021427989006,-0.07004786098981153,-0.4172576613343796,0.2837571123528714,33.39934813054578,-27.33855185808655,40.86323647850812,-0.04425538617996025,0.08900225158796765,-0.13534885469137245,0.02133437803398941,-0.09882207616073835,-0.07433766005893627,-22.1706946114058,162.70894319001405,141.48172028048387,0.027166030529726316,0.0006744872617378547
17314,1724822274534014987,0.2738240361213684,-0.1133767068386077,0.1093129813671112,-0.0167823545634746,0.0420473366975784,-0.0619744732975959,0.997050404548645,0.0,0.0,0.0,-0.3899741428494825,1.3046273208808081,1.4036726532612938,0.410390586,0.1093129813671112,0.4786367951227354,-0.7808870349557296,0.9599278724691781,-5.320969236450342,11.801164850611709,7.638199955007924,-0.03881712313359228,0.08185785995595456,-0.1257457225573826,0.021502867692024807,-0.10064099280432348,-0.0782571135424055,-31.28221533937434,112.04432971107295,171.54398112658774,0.05139291736899509,0.003504552724548047
17316,1724822274543799866,0.2739719748497009,-0.1141276881098747,0.1087878346443176,-0.0176784209907054,0.0412880815565586,-0.0598953552544117,0.9971936941146852,0.0,0.0,0.0,-0.4996485147228163,0.7878590634873608,1.987956217375399,0.420175465,0.1087878346443176,-0.19037243003270146,-0.17444596528690637,0.4152215854065589,-34.460051847362735,36.42863255921852,-39.54300784215041,-0.04034450176399177,0.08031302964141056,-0.12160485669353846,0.013644524126837254,-0.07306090288074474,-0.04656542185350654,23.260029010180503,-59.044559991869434,70.97570527429966,0.02854487152493552,0.001370078595295594
17318,1724822274556774553,0.2741236388683319,-0.1150121763348579,0.1083058789372444,-0.0180348921567201,0.0404152534902095,-0.0587028339505195,0.9972940683364868,0.0,0.0,0.0,0.3951527647449605,-0.08543655292847507,3.1026129339875546,0.433150152,0.1083058789372444,-0.05405215723153537,-0.1413453386031668,0.17958636557899457,10.211345544487004,-15.415599403274106,19.645349660697853,-0.040854545175874425,0.0785752163806,-0.11919468397107594,0.012382615766924232,-0.09777701606252265,-0.04229301720278844,28.375560916378248,66.5664227621416,18.15026650059869,0.022567513411312502,0.0006148842734321708
17320,1724822274565363677,0.2742339372634887,-0.1160203367471695,0.107913352549076,-0.0178948678076267,0.0388406515121459,-0.0562664940953254,0.9974995851516724,0.0,0.0,0.0,0.40808474149321206,1.2475081351042245,2.873230707179652,0.441739276,0.107913352549076,0.03197537536825546,-0.3759094704716436,0.5632874896699586,-28.064452591775723,21.67862036603466,-53.18323063290342,-0.040196541574523764,0.07554514097146668,-0.11421492018109691,0.018576447912483474,-0.0881652380476785,0.00012461952309195112,-59.965419733201976,-78.56266005997766,-263.73981080148667,0.0295095919414052,-0.00392416614168693
17322,1724822274573069978,0.2744167447090149,-0.1164977923035621,0.1082311570644378,-0.0196652729064226,0.0394006185233593,-0.0582190155982971,0.9973321557044984,0.0,0.0,0.0,-0.47905101321967225,-0.9741350226402843,-0.7981302130967228,0.449445577,0.1082311570644378,-0.4475933791547268,0.12986660042062673,-0.5231571434985881,-28.65515143001101,22.4155163153076,-49.89771225102358,-0.04395559906576711,0.07637545264172642,-0.11829681135769347,0.019556843116635747,-0.07766347295429643,0.007986678715090623,-77.4245420126979,-217.510228035767,-306.895276355174,0.027631584977987927,0.019724006028484526
17324,1724822274584502694,0.2745696902275085,-0.1176521033048629,0.1077584624290466,-0.0208517983555793,0.0375421345233917,-0.0555607117712497,0.9975313544273376,0.0,0.0,0.0,-0.7248990459704915,-2.2603820739623277,-1.4316236618875042,0.460878293,0.1077584624290466,-0.20572231354016582,-0.3468517928335191,0.45125088531137636,29.666452246203562,-32.40122840895076,43.58757928467308,-0.04590955192403586,0.07264571096103674,-0.11295003410962229,0.0037969938308997087,-0.12843652491586877,-0.03197911619243676,43.300339100951305,142.41911703544315,97.87223800813979,0.027608349616674827,-0.0009686474742310365
17326,1724822274593074504,0.2745406627655029,-0.1189295873045921,0.1075445413589477,-0.020455015823245,0.0351522415876388,-0.0531441047787666,0.9977583289146424,0.0,0.0,0.0,0.06274798235525908,0.5987623907746107,0.3924385724217303,0.469450103,0.1075445413589477,0.1032676671319656,-0.5648420405190371,0.5572486109739927,18.706310920982233,-3.531742536407455,8.966645711119071,-0.04467273643246828,0.06802520813875686,-0.10794672195131096,0.0017837838186807176,-0.13379746467646836,-0.030985037044846564,65.56121490329102,170.05402883667603,106.35397491294212,0.014356743478234684,-0.02075439546883039
17328,1724822274603485946,0.274624615907669,-0.1201299428939819,0.1071457043290138,-0.0200245566666126,0.0335085466504097,-0.0499675944447517,0.9979877471923828,0.0,0.0,0.0,0.4124084559416325,0.3016933473388308,0.15366054174306387,0.479861545,0.1071457043290138,0.07873610602457894,-0.32467627119487086,0.607618362558259,-9.806730242188097,15.343275947964532,-14.172855780995212,-0.04342231340870394,0.0649266866335058,-0.10146350038774923,0.006200648368386297,-0.11208267634019986,-0.0234030051598495,14.452896841008023,-39.80538916858017,-32.53952860029423,0.022143869026122656,-0.0059774018306007455
17330,1724822274614418015,0.2746710181236267,-0.1213183999061584,0.1070609465241432,-0.0206704977899789,0.0322254858911037,-0.0486407466232776,0.9980823397636414,0.0,0.0,0.0,0.350804879323497,-0.26285532226924246,-0.31232087346046034,0.490793614,0.1070609465241432,-0.11399423744557896,-0.24560661659822514,0.2344601301567014,3.9362357497457,13.587834924304161,11.504028563770053,-0.044497799944451945,0.0623569232659083,-0.09877940552031515,0.01057340934383788,-0.1292622819423519,-0.028318623742219273,-14.666625580092074,-237.91966410480185,62.73676686538167,0.015399148025975624,-0.006709276276496605
17332,1724822274623715780,0.2748193740844726,-0.1226827502250671,0.1066350191831588,-0.020148592069745,0.031951505690813,-0.0453890636563301,0.9982550144195556,0.0,0.0,0.0,0.14301889171936827,-3.948023660618907,1.1041703028996024,0.500091379,0.1066350191831588,0.09314360847127519,-0.06901601529525239,0.7023196921639532,13.075086741627176,15.50049832349329,19.07531161551405,-0.043223851492452905,0.06200216795735674,-0.09221485515626161,0.013446134506263974,-0.12135787214256988,-0.030136530887313828,-9.628932330895736,-219.81609228970612,8.899368227868337,0.032182679955995885,-0.00025685567271443457
17334,1724822274640174115,0.2749675512313843,-0.1239406391978263,0.1065956354141235,-0.0197588186711072,0.0326469838619232,-0.0445427261292934,0.9982783794403076,0.0,0.0,0.0,0.3550926845726776,-2.422775785299791,-2.928512286215512,0.516549714,0.1065956354141235,0.040217331906028574,0.08435324279804679,0.10601168946894082,52.15473917184164,94.74284314738208,33.87827893225196,-0.04245617322525567,0.0634639263688619,-0.09052781017108188,0.010965260974359126,-0.32612327664204344,0.02590087630821003,-67.06314730185831,1521.4139160426512,-437.422064815004,0.015995579096423986,0.0020897035321238225
17336,1724822274643624161,0.2750068008899688,-0.1252463608980178,0.1067054569721221,-0.0192589815706014,0.0334508307278156,-0.0441023297607898,0.9982811212539672,0.0,0.0,0.0,0.06590215702239667,3.859450419263351,-4.576782756844359,0.51999976,0.1067054569721221,0.2601980389497861,0.47299997144580763,0.2735972442874138,40.15454224071596,54.071722503024716,49.01984906767149,-0.041502166371055714,0.06513397837778911,-0.08965139794475578,0.012556167407828056,-0.32723637481436274,0.011217062227021124,-77.50787501458309,1479.3984597858928,-274.37445772124374,0.043047606104326924,-0.01935049394333404
17338,1724822274653258523,0.2751595079898834,-0.1270208060741424,0.1062588989734649,-0.0192029513418674,0.0307192262262105,-0.0404053926467895,0.9985265135765076,0.0,0.0,0.0,-0.5109538965566145,8.924372845680008,-1.7484516075177,0.529634122,0.1062588989734649,0.011929057819524098,-0.5820511958861265,0.7578439002897135,-7.798676201188608,-41.718878309465595,38.11409812691747,-0.040916367470579154,0.05983180986542324,-0.08211050940352507,0.002557883942461814,-0.1775371809270032,-0.04150447997985918,15.899031540863488,-90.02387606211038,315.87706163086057,0.03361916588773269,-0.0017912586792857375
17340,1724822274664101264,0.2750250399112701,-0.1288647502660751,0.1058680117130279,-0.0182837583124637,0.0296715684235095,-0.0348704420030117,0.9987840056419371,0.0,0.0,0.0,0.5860796748751835,0.43461091060422063,1.9487635862373114,0.540476863,0.1058680117130279,0.14665753658750186,-0.2071747508831028,1.0228627270473887,-11.580886004912038,25.13685611870644,-41.95956077256098,-0.0386670741442144,0.058028411455297114,-0.07091980044343846,0.0034463513241771437,-0.16147709488935824,-0.01502228996542776,26.77982479026823,-447.081381101081,91.37839143709586,0.0017715240150518166,-0.026193764930969296
17342,1724822274674633236,0.2752234637737274,-0.1304775923490524,0.1059249192476272,-0.0194681175053119,0.0294976346194744,-0.0353494212031364,0.998749852180481,0.0,0.0,0.0,0.10703504341429526,-0.8376515977469143,0.35765218346115,0.551008835,0.1059249192476272,-0.2209018899121011,-0.03897665192337964,-0.09834998970384269,-9.163124472156817,1.3475466569104544,-28.463318845639723,-0.041052546521633634,0.057576950061875416,-0.0719401309501312,0.014776317989907639,-0.16760633490912902,0.0004521924872662453,-52.9176859878885,-52.5176145775376,-142.00637563284397,0.02943834512126759,0.008448839909789329
17344,1724822274683995236,0.275327980518341,-0.1321671307086944,0.1058879494667053,-0.019885841757059,0.028846651315689,-0.0339942127466201,0.998807728290558,0.0,0.0,0.0,-0.450236797719239,-0.7610754391411945,-0.8963473885277815,0.560370835,0.1058879494667053,-0.09250990315204194,-0.1480509196268542,0.28424798885073366,17.237632446368753,-3.3489603002231405,28.637969954064587,-0.04176380076379558,0.05630225057867718,-0.06921950154059636,0.007716580395408457,-0.17757625163995083,-0.005450484263008981,-34.84284541211996,10.258946149184787,-82.12025516551816,0.023803898173102765,-0.001161379221572038
17346,1724822274693643379,0.2753681540489197,-0.1338516622781753,0.105820432305336,-0.0193163454532623,0.0283995252102613,-0.0318848565220832,0.9989012479782104,0.0,0.0,0.0,-0.5409913896719559,-0.6414193202786489,-1.1733533853761275,0.570018978,0.105820432305336,0.10883521598250676,-0.09781726598024809,0.43895638969416156,15.401235194427251,16.43353300554285,16.956332969409154,-0.04047470081981112,0.05553338390017052,-0.0649424796336789,0.006393797154245817,-0.18189793607931115,-0.016741969310209548,-3.8132508359655297,2.020109669278227,42.44560692413162,0.015850389209809537,-0.007187155236247024
17348,1724822274703651677,0.2754552960395813,-0.135747954249382,0.1055517122149467,-0.0181683618575334,0.0293420292437076,-0.0288413967937231,0.9989880323410034,0.0,0.0,0.0,-0.5210877182816979,-0.7289850168569476,-0.009806500377239069,0.580027276,0.1055517122149467,0.2062117227132652,0.18321168959765916,0.6182251468442178,-12.192182874947434,-18.436933742692162,17.529408884463002,-0.038064804813755806,0.05760852961186457,-0.05882205324170979,-0.0032137402065117726,-0.1903262468956548,-0.028516656265283657,19.90629000512678,15.975774817862883,168.06189723102872,0.021343640410996154,-0.003640898035566367
17350,1724822274714930086,0.2752675414085388,-0.1379053890705108,0.1052089035511016,-0.0193165838718414,0.0259888730943202,-0.0241739209741354,0.999183177947998,0.0,0.0,0.0,-0.06884937942665526,-0.2345551805705135,2.5440737732991208,0.591305685,0.1052089035511016,-0.20991579215441342,-0.6159389233515786,0.8110662130951344,-13.259747795796478,15.281778194292759,-53.06390000390415,-0.03992065935228393,0.051023510683399775,-0.0493967283182579,-0.003512879678233105,-0.19710996979399198,-0.013799024488954537,-22.908711103708857,-20.979849913958553,-66.1494352724372,-0.005622211391615033,-0.02726107632077793
17352,1724822274723910738,0.2753299176692962,-0.1397171914577484,0.1052036583423614,-0.0200389325618743,0.0266076419502496,-0.0249173715710639,0.9991344809532166,0.0,0.0,0.0,-0.725144596735267,-0.8864859512927215,-0.142302035062713,0.600286337,0.1052036583423614,-0.1599741189140106,0.13727910569561094,-0.16721303872417215,13.3624127642607,38.26779688015718,-32.79634379234287,-0.0414374332414184,0.05219428509660302,-0.05094938105718814,-0.0044338672998005535,-0.19659255133171527,0.017909494829403627,-17.594275214802643,-9.193574307234782,-330.59661709964723,0.01721798745720079,-0.002934545326178839
17354,1724822274733632725,0.2751670479774475,-0.1415742337703704,0.105572409927845,-0.019741827622056,0.0267746280878782,-0.0233959220349788,0.9991726875305176,0.0,0.0,0.0,-0.31224811000145425,-0.30861937337009593,-3.687536781612983,0.610008324,0.105572409927845,0.05204087779996261,0.02936434096200912,0.315231070732146,-0.8400721224503176,-40.30239027172486,79.3469689427127,-0.04077150460892329,0.05260545714445358,-0.04789483167582065,-0.01803619601665396,-0.21514716131691003,-0.022131161395209098,58.83148857114257,-83.01483578750353,-33.02379412093187,-0.00957227562708481,-0.02337449708049105
17356,1724822274743907653,0.2749677896499634,-0.1440469175577163,0.1046927943825721,-0.0206652283668518,0.0233426503837108,-0.0158360321074724,0.9993884563446044,0.0,0.0,0.0,0.46991166991073213,-2.708543848455113,-0.42549425347927144,0.620283252,0.1046927943825721,-0.20253107204511459,-0.7018570585780726,1.45328637298423,-6.481637293612993,-18.846020537338504,20.481836689312793,-0.04210148603981139,0.04601848073550489,-0.03265783007624914,-0.009441721494910738,-0.20094437023310174,-0.05533964069361419,11.70054649010811,-131.33259859036747,246.23546336033675,-0.007574194135411695,-0.030797151967288407
17358,1724822274758248716,0.275031566619873,-0.1461338698863983,0.1045050248503685,-0.0201600827276706,0.023864010348916,-0.0162891466170549,0.9993792772293092,0.0,0.0,0.0,-0.6517923013598383,-2.5455593680944233,1.679812762983779,0.634624315,0.1045050248503685,0.07070154457715698,0.07511557728786897,-0.060025858648408884,-18.081024373526905,2.3052644064382757,153.8460551202025,-0.04112970233708457,0.047058980878227796,-0.033563723745567715,-0.0100394528940555,-0.32167087327608357,-0.00526597830022979,-34.497867130077,864.0800163114792,-109.17946549323557,0.009933620391337843,-0.0007913095045158255
17360,1724822274763507679,0.2749508321285248,-0.148165225982666,0.1044924259185791,-0.0203343983739614,0.0239005833864212,-0.0129995485767722,0.9994230270385742,0.0,0.0,0.0,-0.7489045801986175,3.643063740788361,0.611981213839254,0.639883278,0.1044924259185791,-0.095997705278776,-0.012797858386148081,1.2492372370769442,-19.01557013244021,-16.929951018735903,131.4390128009078,-0.04132461896280695,0.047262504219738356,-0.026989515470566508,-0.014643804567128882,-0.32373243189115897,7.40145580224727e-05,-0.2860195652943691,855.7276274224996,-159.59936595040202,-0.0048036629044668185,-0.025106087065172096
17362,1724822274773326211,0.2748200297355652,-0.1501974910497665,0.1045384258031845,-0.0205471739172935,0.023044679313898,-0.0110839698463678,0.9994618892669678,0.0,0.0,0.0,-0.4184494624905539,6.159816524873129,-0.1585472329245703,0.64970181,0.1045384258031845,-0.050215168657463616,-0.18293105241767346,0.3854932551425585,0.9400302206488527,-16.19711191375856,-24.839378373353696,-0.04163843626459616,0.04562489632390085,-0.02312914593222941,-0.019675839292093045,-0.21399481710376111,-0.0013125604718497996,37.57445454879473,-67.71718551659343,-44.546053107792105,-0.008736324751641112,-0.0174765157729594
17364,1724822274783334873,0.274558275938034,-0.1524108350276947,0.1044640988111496,-0.020869493484497,0.0214610621333122,-0.0071343067102134,0.9995264410972596,0.0,0.0,0.0,-0.0024042239583271785,2.176007954402758,-0.25821453492919644,0.659710472,0.1044640988111496,-0.07878889729596956,-0.33350703443660834,0.7809808467662845,-9.179114612953462,6.362512729752962,-0.11858045018109564,-0.04207604702700017,0.04261691835980846,-0.015171976517114195,-0.022904371861041994,-0.20352669986535687,-0.003076184759638778,-21.965662366264613,-347.2707441236591,23.466551377084443,-0.022457585438680296,-0.029402600778520603
17366,1724822274793641030,0.2743566930294037,-0.1543214619159698,0.1044785603880882,-0.0220699794590473,0.0212985780090093,-0.0052534439601004,0.9995157718658448,0.0,0.0,0.0,-0.9030419308341693,-0.8642720188802651,0.33835440998397176,0.670016629,0.1044785603880882,-0.24050598801299405,-0.04075146410314597,0.35915254692512477,-3.7119444878084327,9.329025243304791,-22.696808071147053,-0.04439675830218687,0.04235730717346255,-0.011452440781453153,-0.019531351791107987,-0.169107216744532,-0.006607659152488843,-50.81056106112959,-168.16366378809818,4.486356317484887,-0.017478874712388508,-0.021253181286931426
17368,1724822274807987020,0.2740770578384399,-0.1564223766326904,0.104223795235157,-0.0224109441041946,0.0192995574325323,-0.0023485869169235,0.9995598196983336,0.0,0.0,0.0,-0.901535123573157,-0.7439753571516832,-0.6636157458080241,0.684362619,0.104223795235157,-0.05453718948370124,-0.28787028634476286,0.39764441873114514,27.99220532215705,84.34184711235065,-29.059146289479422,-0.044941206528280674,0.03848635648738367,-0.0055642979370444726,-0.05705517288084394,-0.2654567341186542,0.01184573170735348,226.7125685336825,792.8928370868568,-177.34578981763656,-0.017979925564694257,-0.020725417311374984
17370,1724822274813334907,0.2736970484256744,-0.1580792665481567,0.1043461635708808,-0.0220649726688861,0.0202868171036243,-0.0018986406503245,0.9995489716529846,0.0,0.0,0.0,0.7626585869704843,5.060305212202555,-1.8263560845690407,0.689710506,0.1043461635708808,0.12512366158778865,0.3656634048783567,0.17895862363179116,18.048389983452388,71.85165670870029,-17.022473052652913,-0.044237736056971566,0.04048260396063226,-0.004694688378501094,-0.058459290921337725,-0.25752945757275736,0.004409454395601475,196.63400290547887,708.6964854622643,-116.28842757410662,-0.07047159731370019,-0.07096755042543611
17372,1724822274823481457,0.2733464241027832,-0.1596856266260147,0.1040352955460548,-0.0219702813774347,0.0209745671600103,0.0004482338845264,0.9995385408401488,0.0,0.0,0.0,0.5525461896167199,5.000326196684471,-1.0593828854580405,0.699857056,0.1040352955460548,0.00896896437244449,0.12537217711902834,0.4657528706115221,-10.827031584475643,-20.345168032975145,9.041196991693734,-0.043954313788738916,0.04196178539814955,-2.5602735993326464e-05,-0.030984479495641537,-0.1373048089118276,-0.022512303648544396,-67.00539869382419,-178.0512976909277,77.68823185849769,-0.03323630587300088,-0.03552185934528576
17374,1724822274837588313,0.2729793787002563,-0.1612104773521423,0.1038770824670791,-0.0228656977415084,0.0203294828534126,0.0020072569604963,0.9995298385620116,0.0,0.0,0.0,-1.3007206616737061,-0.8875848960807886,0.07771497789225124,0.713963912,0.1038770824670791,-0.13159322535729456,-0.09618796983766566,0.21625710176023044,19.03442154595345,-39.24731703740286,30.392211642935447,-0.04568206564783901,0.04074291526107434,0.003085496307389914,-0.06546055978973442,-0.2010848374220977,-0.0061956708829082885,156.36993242462393,421.9108511440751,8.417325017771088,-0.025873645018036913,-0.025917751139094128
17376,1724822274843411859,0.2725033462047577,-0.1626050621271133,0.1038530692458152,-0.0226907897740602,0.0192537531256675,0.0035106469877064,0.9995509386062622,0.0,0.0,0.0,0.3016584552592583,3.5871340815819273,-0.0468121499513485,0.719787458,0.1038530692458152,0.04896871835032734,-0.3813415610633477,0.5088306388242991,27.595789842411286,-21.103519957971045,32.549560127472034,-0.04527529742855574,0.03865916155398302,0.006149008343499732,-0.07028704085991677,-0.19751829158255862,-0.008336904982731319,218.17046197523527,533.1026916213989,-22.628832564519442,-0.08299214548651117,-0.07994825486096375
17378,1724822274853650652,0.2719899117946625,-0.1638721525669098,0.1036918610334396,-0.0212550330907106,0.0188288483768701,0.0061746956780552,0.9995777010917664,0.0,0.0,0.0,1.5096463015777983,4.810034666858685,-0.3009240697864219,0.730026251,0.1036918610334396,0.2701362506321904,-0.0958548575840282,0.5236477963159516,-9.918597792512454,15.782946590731964,-20.116126131842584,-0.04230259575321565,0.03791336294254396,0.01155231918975413,-0.0468486409137423,-0.10724116746542833,-0.0030399836277847925,18.443744892897033,-99.45662410890654,-54.716948853835646,-0.05093839820701635,-0.04906844705861435
17380,1724822274864591287,0.2715159058570862,-0.1648523956537246,0.1038071289658546,-0.0223786532878875,0.0184744130820035,0.0064849909394979,0.9995579123497008,0.0,0.0,0.0,0.547778210262214,1.1629099543573789,-1.249092137523173,0.740966886,0.1038071289658546,-0.20686136343547015,-0.06463433635784138,0.05147715928845615,4.672337788995052,-0.5639417523017869,18.235204458328077,-0.0445434943261837,0.037231343189004534,0.012146098801096775,-0.039445311886993295,-0.10146203360214123,-0.015898252786055167,-50.478357535013224,-65.2776351597008,21.614438113546214,-0.044771686738176934,-0.04167035917819678
17382,1724822274872973218,0.2712101936340332,-0.1657790392637252,0.1035041213035583,-0.0217337198555469,0.0181518569588661,0.0089899720624089,0.9995586276054382,0.0,0.0,0.0,0.36508957299277345,2.337257851804994,-0.37259156463534393,0.749348817,0.1035041213035583,0.14228093553424814,-0.09130765464340551,0.5985650462308132,10.252545867477775,-2.245466188223093,20.769560324549364,-0.04316432285835808,0.0366866904926186,0.01719541080538462,-0.0356816448193058,-0.08763889727808838,-0.026842075199373205,-31.40831914858798,85.61691829859926,122.58461580168714,-0.03701653068089037,-0.03566643644396729
17384,1724822274883629597,0.2708406746387481,-0.166402518749237,0.1033441871404647,-0.0226339194923639,0.0176224969327449,0.0101743740960955,0.9995367527008056,0.0,0.0,0.0,-0.09984344692457281,2.511423685851881,1.1777752914219366,0.760005196,0.1033441871404647,-0.17389317041744082,-0.10254477688714084,0.2170025425248126,-12.759467802005915,-6.572481038698268,-11.058630638329312,-0.044932005178294175,0.03569681935144537,0.01955529284080293,-0.03292822156665487,-0.05340982653711812,-0.018171549106511087,2.2288588373455447,-19.016011554659585,68.17132443260894,-0.03525483028872615,-0.03393226424751544
17386,1724822274895538938,0.2704717814922333,-0.166970744729042,0.1030856743454933,-0.0231747217476367,0.0161588639020919,0.0126873115077614,0.9995203018188475,0.0,0.0,0.0,0.5370589943495188,1.814329571914956,0.9606054271744802,0.771914537,0.1030856743454933,-0.10077801279667704,-0.25426098716890133,0.4146799792460777,-3.0838933790764482,6.877005774811898,-25.37041084613417,-0.04595821755459156,0.03289620771841777,0.024629310350166148,-0.03888514581925406,-0.03282580908968846,0.0007013951746337455,96.9758668762901,-55.047801771400955,-115.31037099795525,-0.03140939665420377,-0.03039152924974161
17388,1724822274903567528,0.270116776227951,-0.1671537160873413,0.1032125875353813,-0.023875031620264,0.0157757624983787,0.0126424822956323,0.9995105266571044,0.0,0.0,0.0,1.5510601538313393,1.3912387855405226,-0.49058476723154415,0.779943127,0.1032125875353813,-0.1754571125487617,-0.09287701106549627,-0.016161783692719058,12.139529966973434,13.217911548777158,-22.831000797135665,-0.047369977887769144,0.03214529647287396,0.024534429508616663,-0.028959304783819917,-0.017794174822847175,0.00503574932565698,48.65306303932002,-65.34365055708427,-119.21358497787291,-0.045248339517639825,-0.043099393192796244
17390,1724822274913693012,0.2700183987617492,-0.1672700941562652,0.1031260192394256,-0.0227406490594148,0.0155700845643877,0.0133712692186236,0.999530792236328,0.0,0.0,0.0,1.0521568899860185,0.5681174563545609,-0.9118215801070795,0.790068611,0.1031260192394256,0.22126620379266135,-0.04693863273354229,0.1463948146435136,1.50132576474273,-0.23294317826422262,8.057888151115383,-0.045081540210986135,0.031739029135802434,0.026037897294014397,-0.009234721286951242,-0.009849911472695538,-0.01309054407871546,-106.24583528514913,59.05748958072422,27.65819878138892,-0.009735418953346503,-0.00965319114436261
17392,1724822274922929300,0.2699371576309204,-0.1673472225666046,0.1029668524861335,-0.0231040902435779,0.0151690086349844,0.0140948770567774,0.999518632888794,0.0,0.0,0.0,-0.40917466261787094,2.296059425445441,-0.0728358850156572,0.799304899,0.1029668524861335,-0.08232239957298565,-0.08927700422064923,0.15344938674916714,-25.388613077580853,-3.1301235587817255,-0.13647062515512984,-0.04579630001507818,0.030979667334657762,0.027491904978547567,-0.007064452907446617,-0.006426359970540307,-0.014112184911801218,-32.68409532686222,-1255.535765812794,-1455.9307494872962,-0.008483975637639982,-0.009058512716468889
17394,1724822274957308522,0.2699158489704132,-0.1673219203948974,0.1028810143470764,-0.0230568554252386,0.0149963833391666,0.014675160869956,0.9995139837265016,0.0,0.0,0.0,14.531030010739698,-225.4743026570493,-248.06014437526704,0.833684121,0.1028810143470764,0.0020866792094249116,-0.010852158029563894,0.033555044844299275,-4974.947928926502,-87.68010707142665,-2878.9760539098725,-0.04568850869910894,0.030659719054788134,0.028661910737372256,-0.10356042705507207,0.31889565360103234,-0.011782215205357716,21471.00720707391,-45887.8476074409,41121.800321608665,-0.0005216455656668154,-0.0007145259029817169
17396,1724822274957686558,0.2698762714862823,-0.1672000437974929,0.1028765216469764,-0.0234185848385095,0.0149780819192528,0.014479199424386,0.9995087385177612,0.0,0.0,0.0,22.735290194280935,-242.98477203905802,-232.31369900822173,0.834062157,0.1028765216469764,-1.8993133364705894,-0.044372355618816015,-1.066754684611622,-4570.928229089647,-1155.5423893825189,2321.3282865889773,-0.046418844683607546,0.030624398893003682,0.02825965189374709,-0.09799510280748791,0.2326816387164854,-0.10658932453793568,19984.522910401312,-22004.60433441802,67348.06414566984,-0.09513234146458426,-0.11450687313657809
17398,1724822274958069145,0.2698413729667663,-0.1671457588672638,0.1027990728616714,-0.0240743458271026,0.0148047460243105,0.0148463370278477,0.9994903802871704,0.0,0.0,0.0,29.715988230719763,-241.98886374201518,-196.59837625100954,0.834444744,0.1027990728616714,-3.4704657730080024,-0.8995534066626732,1.8471183402067284,-3786.672265875993,-2072.4533685403276,7072.332714173426,-0.047724593911052875,0.03031387668566267,0.02898208344672877,-0.08619406347823055,0.13393916317322363,-0.18831618738464573,16744.759887473938,5383.2983264269205,89863.97421992764,-0.08089160464056078,-0.10129529751926664
17400,1724822274963308351,0.26975017786026,-0.16701440513134,0.1028253808617591,-0.024997865781188,0.0145821608603,0.0145436730235815,0.9994754195213318,0.0,0.0,0.0,9.733573884035325,-14.31441045247357,23.95237874311642,0.83968395,0.1028253808617591,-0.35205074639580625,-0.07682573026758421,-0.12265931850529208,399.86633774554804,107.30456202824544,-238.9936363408623,-0.049587794725204706,0.02988059054001058,0.02835950059131288,-0.0115354021376195,0.02142178577377507,0.0026490984552616226,-2813.981286199301,29009.608184211436,26833.38700633151,-0.016830939928709862,-0.017995954168798567
17402,1724822274973323780,0.2697470486164093,-0.1668697297573089,0.1028064936399459,-0.0254297945648431,0.014818268828094,0.0150759210810065,0.9994531273841858,0.0,0.0,0.0,0.6968097823895478,-0.3567807491068806,0.4810811558194259,0.849699379,0.1028064936399459,-0.08718286711601943,0.04578654457840255,0.10621548020024736,0.9907865212190465,3.5862438497441236,9.69852999174499,-0.050429627815531335,0.030391763787089115,0.029399511413807873,-0.0005200108117993096,0.015171915320040696,0.0032792110064105984,-474.0215226877371,705.8915968453376,-1181.6875188740999,0.00016956729227573722,-0.0008127748931711664
17404,1724822274983481794,0.2697396278381347,-0.1667081266641616,0.102893017232418,-0.027146752923727,0.0147658446803689,0.0154536943882703,0.9994029998779296,0.0,0.0,0.0,0.29392474214127834,-0.27166002130024164,0.4473493913343507,0.859857393,0.102893017232418,-0.33937390168945286,-0.00696487411984406,0.0692156844595628,-10.463282067366166,0.8362888990312949,-3.177556057469474,-0.05385555164331582,0.030357756888439016,0.030105664523908872,0.0024058994166686887,0.014301041975910422,0.01247425924961476,-16.656040671815664,-6.773670687974423,-22.822911156453532,-0.0005097516535081003,-0.0009897835505040913
17406,1724822274993704614,0.2697964906692505,-0.166578471660614,0.103061243891716,-0.0286737885326147,0.0150729687884449,0.0156794525682926,0.9993521571159364,0.0,0.0,0.0,0.36033711552269665,-0.4968041259010037,0.013395408993495561,0.870080213,0.103061243891716,-0.298565658488875,0.06361478170580712,0.04151468235254055,6.398507275136824,2.9000296063259903,0.6532753431841924,-0.056895820059063955,0.03103056598860898,0.030493594454901348,0.005471185785301813,0.00961108223013607,0.012337032281544591,-10.16071193012607,-3.6748305141040847,-24.17866068558387,0.005433024840770257,0.005629616387889003
17408,1724822275007827290,0.2698719799518585,-0.1665026694536209,0.1031551137566566,-0.0298021920025348,0.01526531111449,0.0165123250335454,0.999302864074707,0.0,0.0,0.0,-0.10814569030987564,-0.19071158314739947,0.028397758749074242,0.884202889,0.1031551137566566,-0.1612476131715427,0.026449923605273963,0.11635366775457705,-7.142880007146697,-0.3285538260995633,23.821288185830127,-0.059122447753310575,0.03149875363329959,0.032113193981163995,0.011740280087003896,0.0018528923412013398,0.0130494572569404,-59.47469593298905,45.8490657432103,-12.309101213840243,0.005302767354456908,0.005354076506984845
17410,1724822275013436962,0.2699520885944366,-0.1665001064538955,0.1032425835728645,-0.0304606836289167,0.0153619367629289,0.0173364095389843,0.9992675185203552,0.0,0.0,0.0,-0.5003865512429498,0.12035435517520496,-0.07044664994899175,0.889812561,0.1032425835728645,-0.23889822273260616,0.029738477123456435,0.2912545405117351,-4.830961339526478,-1.086359204826004,14.275639237837524,-0.060411293316847296,0.03176286717938648,0.033734962594095835,0.009903533283914356,0.0015821718532604834,0.013159632240583807,-46.9362184373071,48.38260913034218,-3.58358213308383,0.013785343821755884,0.014711116935986219
17412,1724822275024620171,0.269965261220932,-0.166457325220108,0.1033355072140693,-0.0309665836393833,0.0152555564418435,0.0177615024149417,0.9992462396621704,0.0,0.0,0.0,-0.5128248593293967,0.5038258259119359,0.2024185476870919,0.90099577,0.1033355072140693,-0.09202226647782162,-0.01969982763208732,0.07406431928877838,6.921548458913726,2.539499997186947,-9.440655320694995,-0.061413787305372225,0.03159339644115478,0.0345755434341908,0.00045153501465300394,0.0066872633256611635,0.010363382479130046,31.14787823568735,-1.077146074953788,3.1818562450735737,0.0010463052751144468,0.0012813888134211792
17414,1724822275033896849,0.2699638605117798,-0.1663732677698135,0.1034474521875381,-0.0313172973692417,0.0155245400965213,0.0180519297719001,0.9992258548736572,0.0,0.0,0.0,0.02437117371744838,0.22167762340404795,0.06866177646469429,0.910272448,0.1034474521875381,-0.07561622816304767,0.057418732541652244,0.06328767270903027,-3.598678405528511,5.753645009042456,-7.564038729732542,-0.062097604019945137,0.032161263034512215,0.0351289237289987,-0.001748125461471517,0.01172530370017455,0.015722902175918207,38.081052173306674,-36.386553397303445,-30.2493226470503,-0.0002207771358498645,-0.00012577573791515775
17416,1724822275043634700,0.2699305117130279,-0.1662318557500839,0.1036379262804985,-0.0321359820663929,0.0159230735152959,0.0176822766661643,0.9992002844810486,0.0,0.0,0.0,0.19252632519536064,-0.1936922928967063,-0.3877224134047682,0.920010299,0.1036379262804985,-0.1655229105934739,0.0872835781837699,-0.07581427554681873,0.7912177878406792,0.3368488472082398,0.2594643402048531,-0.06373519398501544,0.03296312294283725,0.03433826233584638,0.0011621191957758015,0.010598539812393781,0.011187735043722391,1.8795484196902663,-10.085394827868306,0.13948338934303273,-0.003567138847358648,-0.0033486016270403425
17418,1724822275054615702,0.2700000703334808,-0.1661640554666519,0.1036571040749549,-0.0323116071522235,0.0162524748593568,0.0182627849280834,0.9991788268089294,0.0,0.0,0.0,0.022610205481967363,0.09886708432781777,0.19588417624759902,0.930991301,0.1036571040749549,-0.03270978534039636,0.057176901897925195,0.10713277084928222,-0.26300040737804853,-10.75684136264589,5.704600561948719,-0.06405658426238692,0.0336648158631934,0.03547282268239086,0.0019595486649492955,0.00750595724136538,0.007896057464057193,-6.406881015491343,23.18335577851376,30.169797710211107,0.006486947146447099,0.0061497194413365095
17420,1724822275063511551,0.2699859738349914,-0.1660876870155334,0.1037716642022132,-0.0328496396541595,0.0158258527517318,0.0186363570392131,0.9991612434387208,0.0,0.0,0.0,0.030956459800631803,0.28017520109539906,0.29868218837798166,0.93988715,0.1037716642022132,-0.12410768441809034,-0.09627653237727415,0.07892608325080108,-3.5721780929607725,1.3623196027608495,-0.7977685992470454,-0.06513547722476203,0.032855463479224876,0.03622917748344791,0.0018002901987461684,0.011127571397475222,0.013210550868032023,-5.035931550181444,-4.080145093478588,-11.233969988553074,-0.0016949732817440899,-0.0015198556279219307
17422,1724822275073301261,0.2700400650501251,-0.1659513562917709,0.1039045751094818,-0.0332777462899684,0.0164085123687982,0.0190970189869403,0.9991289973258972,0.0,0.0,0.0,-0.08270568384395395,-0.0232998150102402,-0.056817351574431796,0.94967686,0.1039045751094818,-0.08687459531340051,0.11757794640567075,0.09668141762095765,-0.43973648061918436,5.214970804384992,-0.60259567471652,-0.06595686679324461,0.0340660410570584,0.0370987229996951,0.0026297220749427197,0.012502857321917915,0.012916223250571512,-51.24592212424007,188.15258076414693,99.27747756677468,0.005572112313023531,0.005399575217001697
17424,1724822275084563039,0.2700321674346924,-0.165828987956047,0.1040414795279502,-0.0340939797461032,0.0161835234612226,0.0194475427269935,0.999098300933838,0.0,0.0,0.0,-1.1733123730700015,4.9347901992241825,2.817832891832061,0.960938638,0.1040414795279502,-0.14679604089564005,-0.03913525444866652,0.05859187456458195,-2.5031139803830005,-8.068787331995434,-3.578963629063625,-0.06758673729508094,0.03367031143004598,0.03778689623559356,-0.00047078712177661686,0.010118623496074619,0.011929776787227953,42.96371261727143,-301.76831588589323,-116.30977881447788,-0.0006993610636111436,-0.000757618130821872
17426,1724822275107502399,0.27003213763237,-0.1656317859888076,0.1043045446276664,-0.0349424257874488,0.0167156290262937,0.0190671179443597,0.9990676045417786,0.0,0.0,0.0,6.344738094535728,-36.65927510815743,-17.211960162247692,0.983877998,0.1043045446276664,-0.07255850219052447,0.04896326028587499,-0.032701351269066495,-8362.752246518367,-4250.928641976531,11050.147334775502,-0.06927942648140424,0.03473957669326124,0.036961221308086586,-0.06934547301602834,0.3637932864522213,0.21232703416262666,1195.1386280423649,-4832.049286196969,-3002.9313897877364,-8.212639042989618e-05,2.888478028769498e-05
17428,1724822275107851639,0.2700075507164001,-0.1655028462409973,0.104379765689373,-0.0354561582207679,0.0164748132228851,0.0197626817971467,0.9990400671958924,0.0,0.0,0.0,6.766740289624105,-38.36287112575744,-18.272027901091988,0.984227238,0.104379765689373,-3.0376480577839784,-1.4582536662324892,3.8852268979406697,-8002.651322151388,-4068.0625714334933,10571.049926483305,-0.07029231793524479,0.03432615516521176,0.03835114176984841,-0.06707993759084996,0.3507135073580334,0.20617796412067158,1147.8242290261403,-4562.470787963885,-2874.469869687445,-0.06355241202014542,-0.07852991480343395
17430,1724822275113905727,0.2699500024318695,-0.1653198152780532,0.104661725461483,-0.0364440008997917,0.0161552559584379,0.0196110904216766,0.9990127086639404,0.0,0.0,0.0,7.36430928152115,-32.86937249747776,-18.78966773844233,0.990281326,0.104661725461483,-0.32760749886842105,-0.0970922510269246,-0.058971715156407,322.7841086457529,136.39161774629116,-374.0865321334586,-0.07228637541436973,0.03371441183871919,0.0380367141708678,0.0032399696666089994,0.02288016372969448,0.025764670837474135,-262.22946366595625,1989.1401800208057,759.9308777268052,-0.009914296634635777,-0.009276881320452924
17432,1724822275122943006,0.2701512277126312,-0.1652122288942337,0.1046138480305671,-0.0323304757475853,0.0160251203924417,0.0209205318242311,0.9991297721862792,0.0,0.0,0.0,0.12529719493780822,-0.29983144727715705,-0.5166776454555224,0.999318605,0.1046138480305671,0.9051449459961802,-0.05760368199561699,0.30264977989992536,32.050525449380885,2.786386798571607,11.10714479338564,-0.06401352086393743,0.03338129044274985,0.040802498455571934,0.012445795667185067,0.012925836118437672,0.004494888853988854,-450.9999892878026,1993.5021161634738,1164.036796663195,0.022897360332901184,0.021562719847337247
17434,1724822275133738395,0.2701589465141296,-0.1650595217943191,0.1047886535525322,-0.0328308977186679,0.0157645884901285,0.0212055463343858,0.9991115927696228,0.0,0.0,0.0,-0.22977420946070065,0.453748963930072,0.9862233496305584,1.010113994,0.1047886535525322,-0.0945944786142455,-0.047938877200545044,0.049781321077457634,-54.18579648290493,10.022312829662958,-18.46606497790427,-0.06501582002669426,0.03289949509740313,0.04137246678744603,0.0022781750254114996,0.020026637268958147,0.022604713342111893,4.6089075281357585,6.301504311864772,18.83993283442139,0.0007661323118308428,0.0005875109739953467
17436,1724822275144918789,0.2702025175094604,-0.1647675186395645,0.1051156297326088,-0.0342868454754352,0.0166644137352705,0.0206424165517091,0.9990599155426024,0.0,0.0,0.0,0.2559717717357257,-0.21112183492633807,-0.19699973432354057,1.021294388,0.1051156297326088,-0.255517309459518,0.16979772412678495,-0.09927091959992428,2.1268411734949835,1.680015956665656,-1.9935019515750723,-0.06791433286478785,0.03471999753069434,0.04013824224804037,0.007954409122325146,0.022737431229106875,0.025626096875424942,-10.35969093300496,-64.142503197409,-94.99896736649026,0.003923798843328982,0.0037169223049303684
17438,1724822275154789613,0.2703163921833038,-0.164572536945343,0.1053370386362075,-0.0347381979227066,0.0168061349540948,0.0205452516674995,0.999043881893158,0.0,0.0,0.0,-0.31518643183949074,-0.8850016287200929,-1.0403276665506467,1.031165212,0.1053370386362075,-0.09055641491482701,0.031305119587983626,-0.02014115906287249,11.383946705919735,-7.590473247947608,3.4797488144154176,-0.06881584461113352,0.035014697046378766,0.03991864886376311,0.00828737972707927,0.016700683417921525,0.019609723468267504,-34.199745841469465,-37.106066863455254,-48.738049666587685,0.011522827256129185,0.011407478163815918
17440,1724822275163956619,0.2703647017478943,-0.1644454300403595,0.1054927855730056,-0.0348863415420055,0.0168746691197156,0.0204220283776521,0.999040186405182,0.0,0.0,0.0,-0.4272392749959117,-0.9598441766765398,-1.1746827151369486,1.040332218,0.1054927855730056,-0.03155913548559656,0.016549557992346472,-0.026865591087650215,3.238551828092916,-4.915464470542751,5.143162769930603,-0.06911415032142298,0.03514908196816524,0.03966235276919624,0.002427584450876097,0.006260084320162562,0.006405328788647857,11.954308216300564,24.51291214946145,33.89266824395135,0.005214946455654138,0.0052290693258799596
17442,1724822275173608339,0.2703592479228973,-0.1644622981548309,0.1054470464587211,-0.035031359642744,0.0165744144469499,0.0208332743495702,0.9990315437316896,0.0,0.0,0.0,-0.0661632725716099,-0.39118410061024483,-0.3542017330418547,1.049983938,0.1054470464587211,-0.03279247031697832,-0.0644871475050943,0.08249427746282431,2.657733498952128,-2.986785394040838,1.1452208734453753,-0.06940143189876165,0.03458325474723901,0.04050022902586366,0.00045822062576306166,-0.0011841581427223247,-0.002231878684452404,99.03074011757991,24.94111197845774,45.08698281557635,-0.0004711253090773911,-0.000639504469403123
17444,1724822275184451679,0.2703766822814941,-0.1644682735204696,0.1054533869028091,-0.0348682068288326,0.0164044722914695,0.0206784848123788,0.9990432858467102,0.0,0.0,0.0,1.7583229714528312,-0.5346483483793001,-0.3516388146488405,1.060827278,0.1054533869028091,0.029959633137595944,-0.030977302565877652,-0.02916691709540575,3.2570128505072806,2.303940577737281,-6.309726152648068,-0.0690866306877744,0.034226281110138645,0.04020778847737186,0.001420448971502175,-0.0007954612017408991,0.0005140735172921573,-90.26415637393178,42.11006051363515,51.58185343017655,0.0015634525013234243,0.0016473216503197913
17446,1724822275207476516,0.2704002261161804,-0.1644985377788543,0.1054617688059806,-0.0350760780274868,0.0162198729813098,0.0209247004240751,0.9990339279174804,0.0,0.0,0.0,-12.959468241856769,3.1405978163859203,3.3463640811702646,1.083852115,0.1054617688059806,-0.018749743223770116,-0.01637847207735176,0.020527997421884922,1136.922249492722,-2581.239749918805,7328.8108516587145,-0.06950139169784798,0.03388280246682047,0.04070570986163431,0.12353338626678578,-0.04099779386905311,-0.03715549152059339,-2050.465943339539,757.7465260968411,927.4823300606004,0.0009553162338329374,0.001088820904325858
17448,1724822275207874043,0.2704501748085022,-0.1645151078701019,0.1054467409849166,-0.0349744670093059,0.0160319823771715,0.0215232465416193,0.9990278482437134,0.0,0.0,0.0,-13.784269747312036,3.445927670109036,3.720326674105043,1.084249642,0.1054467409849166,0.44102517261671753,-1.0602112921739932,2.984213633383918,1071.2498662079186,-2436.8147084335005,6913.547466445738,-0.06928517869858553,0.03354461247532706,0.041919076373183345,0.11825630221981331,-0.03971578267885212,-0.035791025416823,-1938.5730246620337,731.052092238116,898.4363221010477,0.12498959265360117,0.1261528233549565
17450,1724822275213305051,0.2705439329147339,-0.1645848453044891,0.1054016649723053,-0.0351419597864151,0.0153243197128176,0.0224585551768541,0.9990124702453612,0.0,0.0,0.0,-14.202527931977658,4.66936878259951,5.462176915055023,1.08968065,0.1054016649723053,-0.0729491967451714,-0.2709755175187341,0.3341166103946673,-89.35121696046434,104.91532539633836,-341.481600650657,-0.06961847607644733,0.03220241360548767,0.04383245231264478,0.005590631689978309,-0.00460595484202031,0.005778822785289517,374.8021683189148,13.402257729992684,31.24826000194382,0.01694282092437881,0.017586957897491286
17452,1724822275224160417,0.2703513503074646,-0.1644561737775802,0.1057698652148246,-0.0401896201074123,0.0151263093575835,0.0214816480875015,0.9988465905189514,0.0,0.0,0.0,-0.3306807847509571,0.21787576802796016,-0.4794768731251109,1.100536016,0.1057698652148246,-0.9282011375453333,-0.008766030122425396,-0.19465532125727517,19.947096637583876,9.362466757481728,-8.246115824455998,-0.07976186413244166,0.03194983902347146,0.04173130361943181,-0.006630469886077961,0.0071276989325532725,0.017512154755936926,614.5831770865416,-223.39711000944516,-290.0775954757514,-0.01830554080475606,-0.017272982897644056
17454,1724822275233531584,0.2703790962696075,-0.1644276082515716,0.1058012470602989,-0.0399126335978508,0.0149520579725503,0.0217446256428957,0.998854637145996,0.0,0.0,0.0,0.06268509299471964,-0.3654271291076694,-1.1165586761545803,1.109907183,0.1058012470602989,0.0574676205834924,-0.040697431253765966,0.05542278062953492,26.695518670636655,-4.2337417406841436,15.034802046488451,-0.07920590444090791,0.03161089969705225,0.04227959928829,-0.003296806514240913,0.00218760765839221,0.00039578561300590565,29.38269729677276,-22.441489137087505,4.205988097454714,0.002979591636866444,0.0029148187055963036
17456,1724822275243338919,0.2702825367450714,-0.1644149869680404,0.1057748198509216,-0.0422785617411136,0.0144722079858183,0.0222059227526187,0.9987542629241944,0.0,0.0,0.0,0.22159391947521911,-0.17698880995434907,-0.3343736047101234,1.119714518,0.1057748198509216,-0.48628011504512847,-0.09070046938240713,0.08328945336665007,-11.352621989437507,-2.1245308400093013,2.0449779741935323,-0.08394735820310095,0.030790892928064847,0.04316665105239833,-0.005689851920855915,0.0002637214743801408,-0.003268054689189448,19.66027597380355,16.89888269896129,59.55115392530146,-0.009693343722948429,-0.009963305637633542
17458,1724822275254473676,0.2702717185020447,-0.1644249856472015,0.1057311818003654,-0.0425688475370407,0.0140611426904797,0.022762194275856,0.998735249042511,0.0,0.0,0.0,0.4842119191943339,-0.018091450449303846,0.07329874619192178,1.130849275,0.1057311818003654,-0.05530549379652822,-0.07675970641995165,0.0959913988391292,19.687964039749343,-0.21494206578651465,5.12742553239836,-0.08452858038345015,0.030029151376461054,0.0443041382049739,0.00266358065786676,-0.001464544410106683,-0.006495561590479149,-14.682356672946888,19.181743649341698,41.81654676614759,-0.0008922670274328114,-0.0010307597750671882
17460,1724822275263277875,0.2703204751014709,-0.1644418239593505,0.1056560575962066,-0.0426125973463058,0.0137006537988781,0.0235222466289997,0.9987208247184752,0.0,0.0,0.0,0.08854672659853108,0.18497849991883702,0.47768693124573103,1.139653474,0.1056560575962066,-0.014357064459211406,-0.08886415482781106,0.1688872858262723,3.098636692902924,2.0915144276788604,0.6281242233400595,-0.08460900685692693,0.02937516903030393,0.04585251437359217,0.005074933029808548,-0.0006692576999096644,-0.003322126366521516,-28.822670140763627,5.802296903378898,11.203076605960181,0.0056926626852421645,0.005405360756248096
17462,1724822275274113472,0.270369291305542,-0.1644324958324432,0.1056895479559898,-0.0426126047968864,0.0136093851178884,0.0239254999905824,0.998712420463562,0.0,0.0,0.0,-0.008821424905242542,0.01763794307019074,0.13595394562538637,1.150489071,0.1056895479559898,-0.001483489521553335,-0.01997495595919077,0.07365462543060658,1.004833601030342,3.9406967798826114,-6.7384149484272875,-0.08460122502844737,0.02922694048836679,0.046666384323962105,0.003562752237579403,0.0025972936689964143,0.0034173913544952583,7.284081586826685,-17.262819392186103,-34.35476009284238,0.004448164517429406,0.0045339202386157455
17464,1724822275283877096,0.2703957855701446,-0.1643918603658676,0.1057257875800132,-0.0425778217613697,0.0136020854115486,0.0240519177168607,0.9987109899520874,0.0,0.0,0.0,0.2054365137842181,-0.16691474078334292,-0.224254089407555,1.160252695,0.1057257875800132,0.006715165419155663,-0.0027633241777575606,0.025902573742638508,-2.292060984554954,-1.7674772449356946,0.5444347404993022,-0.0845282313831341,0.0292214193800248,0.04692077319461732,0.00462679366887464,0.00027247956821074837,0.00046888776375375585,11.71984917519708,-4.6547276452464486,-13.670731917243085,0.0027961051154284234,0.0025978992006362783
17466,1724822275294188701,0.2704643309116363,-0.1644314080476761,0.1056953072547912,-0.0428268238902092,0.0133096277713775,0.0245356112718582,0.9986925721168518,0.0,0.0,0.0,0.21493692957465332,-0.05975405560326055,-0.11232435227314394,1.1705643,0.1056953072547912,-0.05102576408706964,-0.05943512724236463,0.09070826431045954,2.571253113983879,4.113539977770533,1.4274698787758056,-0.08502590123373223,0.02868995307731428,0.04790507480276891,0.007795616324681731,-0.0006733413236279517,-0.0009969759750214635,-2.786526008469375,-10.27567813180546,-4.1840204518621,0.006538250514488002,0.006756996881159415
17468,1724822275304628384,0.2705578505992889,-0.1644050180912017,0.1057056039571762,-0.0425098054111003,0.0137732168659567,0.0247951913625001,0.9986934065818788,0.0,0.0,0.0,0.14665682132503077,-0.3854753876805984,-0.3149540942295588,1.181003983,0.1057056039571762,0.062177992421370044,0.08507473758637715,0.05427246799515045,0.5444694725127904,-1.7503957498998508,3.1816635435768124,-0.08436250649163891,0.029622851480565354,0.04839470661126058,0.009063203847325951,-0.0009592539161964453,-0.0018542980267204356,-7.254562553395839,-17.912889961469688,5.199412707935507,0.009036703170640144,0.00884058394226953
17470,1724822275313520825,0.2706392407417297,-0.1644399613142013,0.1056675985455513,-0.0425450950860977,0.0135813644155859,0.025396067649126,0.9986794590950012,0.0,0.0,0.0,0.0767369130688812,-0.4441189887650841,-0.08231759372622795,1.189896424,0.1056675985455513,-0.010991242633847268,-0.048598083526520175,0.1331007658192101,-0.550314539315937,-11.305786707094093,11.30038505027882,-0.08442442514868528,0.029292004244477695,0.04961104313742306,0.010558496710956433,-0.007099415221583527,-0.006418602340973578,-8.949604915564434,23.508319166024354,39.051209190741815,0.009067938754024646,0.009234716291250371
17472,1724822275323184381,0.2707560360431671,-0.1645418554544448,0.1055830493569374,-0.042202528566122,0.0130714429542422,0.026708859950304,0.998666524887085,0.0,0.0,0.0,-0.02116071951254589,0.09918372769464823,0.4304213896009969,1.19955998,0.1055830493569374,0.0643209082030325,-0.11871926665547612,0.267881729448003,-0.871345953509649,-4.217452382942252,-1.0277811035550792,-0.08372568643085027,0.02836619181713783,0.052288041356452125,0.010340035943869452,-0.008803885908529097,-0.002688323782688684,-2.6787052745108095,40.77747109378207,13.900326642080568,0.011762077669949062,0.012430213140726691
17474,1724822275333929308,0.270846277475357,-0.164615660905838,0.1056265756487846,-0.0424392633140087,0.0123968282714486,0.0271593164652586,0.9986529350280762,0.0,0.0,0.0,0.039086866116498364,0.35281630949086307,0.11193829718536684,1.210304907,0.1056265756487846,-0.04856224711937233,-0.12773003493648513,0.0779258717847887,-3.1159301929051577,6.454073515313703,-7.128185768279554,-0.08422115887282257,0.02706880616514844,0.05323787637802669,0.010129940702428897,-0.0044459042652889025,0.0024670581101071676,3.4526890956544847,8.273432623827764,-25.79369092562814,0.007908527831682003,0.00885433845164899
17476,1724822275343987885,0.2709644734859466,-0.1646375656127929,0.1056364774703979,-0.0424853153526783,0.0124473674222826,0.0276889353990554,0.9986358284950256,0.0,0.0,0.0,0.05353018219175382,0.29167342066615587,-0.11128938975047357,1.220363484,0.1056364774703979,-0.010321336392244206,0.005857139150271299,0.10557041011712476,4.197049199302935,7.090518737970298,2.2976978788478917,-0.08429638807839882,0.02721688052628546,0.05429142978599454,0.01107525568826695,-0.0013939482399711878,0.000129216876969096,-0.25797817618224705,-4.809451871442297,-11.31938665345471,0.011584190429764545,0.011874002436559885
17478,1724822275355220539,0.2710804045200348,-0.1646433919668197,0.1056272014975547,-0.0422434024512767,0.0125278970226645,0.0283892918378114,0.99862539768219,0.0,0.0,0.0,0.029384521602577318,0.2535714449972993,-0.10204287972806751,1.231596138,0.1056272014975547,0.04178031644614777,0.007851466892275893,0.12572671690894532,-0.7487966181456075,-0.9600072962154664,0.870987995342551,-0.08378882667199596,0.02742330995254127,0.055691807019335,0.011169135963353227,0.0017349936488901818,0.00039861003839547493,-1.5697273682958865,-2.5626556501794333,8.79107746007716,0.010294800277823504,0.010312295699676474
17480,1724822275363774004,0.2711814641952514,-0.1646138727664947,0.1056385859847068,-0.0422344133257865,0.0125177223235368,0.0289337653666734,0.998610258102417,0.0,0.0,0.0,0.01973477359980147,0.23705410846438016,0.025048675955185173,1.240149603,0.1056385859847068,0.0002869622666654153,-0.00776916844273622,0.12716196235422886,-2.0328586842906002,-4.090173642709693,1.4348466449728816,-0.08375647219771101,0.027448099479992355,0.05678163644215423,0.011557429007812203,0.003741165108044342,-0.0012950560943920664,1.06389899928022,-1.6989083380832426,16.10792599089174,0.011950825925509155,0.011618513892756135
17482,1724822275373068160,0.271286278963089,-0.1645761728286743,0.1056000292301178,-0.0421705245971679,0.0122305639088153,0.0296580344438552,0.9985952973365784,0.0,0.0,0.0,0.05176047695137154,0.22360878336310147,0.18737631317640407,1.249443759,0.1056000292301178,0.009854215319229465,-0.0686473704502079,0.1532935697605521,-0.8351701143122874,-0.24640699254063103,-4.0762359080869315,-0.08362482773315147,0.02693141239348141,0.05825526624620041,0.011481694730916203,0.005969723595486087,0.0011904105176938629,8.068159830087229,2.2633298834775193,4.35273650156002,0.011602071709068271,0.010918870832390827
17484,1724822275383758919,0.2714115381240845,-0.1644888222217559,0.1056784093379974,-0.0422873273491859,0.0122660063207149,0.0297915879637002,0.9985859394073486,0.0,0.0,0.0,0.19485755987662046,0.29342786835167667,0.07265903119097672,1.260134518,0.1056784093379974,-0.022003225449704455,0.006237012105413396,0.0250140361833798,1.0116832788908858,1.9456442918772296,-1.0923271115887339,-0.08385301769249874,0.027020223911159193,0.05851626516203975,0.012771768808226724,0.008161402494897274,0.0022092593132141403,11.744809387457867,15.51547824388439,-17.60603837543295,0.011971851967882072,0.01135876844207872
17486,1724822275394124487,0.2715545296669006,-0.1644043177366256,0.1056498289108276,-0.0421276874840259,0.0121709611266851,0.0304332915693521,0.9985744953155518,0.0,0.0,0.0,0.30011362654383245,0.5445531596421604,-0.17893847755617862,1.270500086,0.1056498289108276,0.028599975789116223,-0.024439042140839935,0.1233074872309187,1.6740752433768535,-0.1591254983853273,0.8676406575908744,-0.08352166054303026,0.0268746260180924,0.0598115893326848,0.015537164023017525,0.012091603937282258,0.0027348453261479833,1.2410719165229853,-2.7076882886438014,-28.022930312898897,0.014326452004469171,0.013201404540528115
17488,1724822275403339352,0.2717119753360748,-0.1642606258392334,0.1057200208306312,-0.0420422032475471,0.0121715916320681,0.0307122748345136,0.9985694885253906,0.0,0.0,0.0,0.23853285465597796,0.2989568463174287,-0.46788974725932375,1.279714951,0.1057200208306312,0.017748528640826485,-0.0029656305237882644,0.06072903582804165,7.60106440345404,7.350863097937412,2.9383507877759367,-0.08334304293656837,0.0268940253691408,0.060371725184001454,0.01857568192387582,0.018464478444289334,-0.0007952657992857937,-17.86687537324228,-32.04199497540028,17.60089724559935,0.017784417640139445,0.01624183755150684
17490,1724822275413682314,0.2719213962554931,-0.1640363186597824,0.1056141331791877,-0.0410262383520603,0.0129257328808307,0.0317250341176986,0.998570680618286,0.0,0.0,0.0,-0.07610171719805248,-0.0950234351350191,0.2825167790796579,1.290057913,0.1056141331791877,0.19827901623100547,0.13134858402611374,0.20407028025491802,-5.702325630363664,-4.296378858347884,-1.115150115348711,-0.0812371556981857,0.028421459607046565,0.06236437765146515,0.019983969149873104,0.01699847856493264,-0.006619100197794658,-15.805266405364865,4.652105092711894,66.49213696454152,0.02184215012394399,0.018565448193881166
17492,1724822275423122678,0.2721077799797058,-0.1639162451028823,0.1055828258395195,-0.0412732288241386,0.0126560069620609,0.0320437550544738,0.9985538125038148,0.0,0.0,0.0,-0.09937946277760756,0.317196930268964,0.8580084574559064,1.299498277,0.1055828258395195,-0.05508394480593891,-0.05812540734891029,0.0645191544670597,-15.516085399146874,-8.391971847413028,-14.0691306763363,-0.08173880757158716,0.027924135342317028,0.06301636858126639,0.017436589897512178,0.01650394794143306,0.003334006324330563,13.315421176106277,24.739181993180328,-8.506450257086039,0.020589674223932083,0.018794109487711517
17494,1724822275436011692,0.2722919285297394,-0.1636369228363037,0.1057428270578384,-0.0416490882635116,0.0128691615536808,0.0313668884336948,0.998556911945343,0.0,0.0,0.0,0.34995245358425797,0.3030009500814139,-0.47407946217279817,1.312387291,0.1057428270578384,-0.05582913479719552,0.03922526925553794,-0.10426652712569043,-0.4345191840380087,-5.5685016549675534,2.6432117665983417,-0.08249722082480519,0.028317769550212955,0.061634980412236126,0.01915534770853,0.027096011492984573,0.010938407754732538,3.033096186337813,-36.09355177958715,-92.25738437604522,0.01523725149598706,0.013160221644848235
17496,1724822275443896694,0.2724664509296417,-0.1633971035480499,0.1058219596743583,-0.0418814904987812,0.0125927627086639,0.0313515961170196,0.9985511898994446,0.0,0.0,0.0,0.22033588633787293,-0.15038982382545618,-1.1480181104346634,1.320272293,0.1058219596743583,-0.06107243823545058,-0.06797707677939793,-0.007506237168622293,4.547833641440329,-1.0044817445863665,13.818183044726133,-0.08297918824240047,0.027778711991188358,0.061620286736190764,0.022959554577136387,0.026982670656146013,0.002067490963782781,-28.996737569096858,-20.461421135781073,-5.744517205297589,0.02367643420931267,0.020372556926124726
17498,1724822275453315422,0.2726919949054718,-0.1631815731525421,0.1057517826557159,-0.0416926257312297,0.0129283610731363,0.0319950953125953,0.9985344409942628,0.0,0.0,0.0,-0.19406796988917463,0.07360709297329748,-0.3051394027867813,1.329691021,0.1057517826557159,0.04041050574191508,0.06422335241071195,0.14004559453611326,3.3050072689066035,1.6446472604032696,8.891022136239194,-0.08256299410012992,0.02849060087758916,0.06288531761166419,0.022085724585478417,0.024035908048042565,-0.009003937961888475,-10.610246919360224,23.878603094081676,71.95869742070488,0.025539031530690228,0.022229984556989726
17500,1724822275463718347,0.2729003727436065,-0.162918284535408,0.1056402698159217,-0.0417293533682823,0.0126430224627256,0.0328125320374965,0.9985100626945496,0.0,0.0,0.0,0.07917688580844962,0.3231234886838419,0.24201146685512542,1.340093946,0.1056402698159217,-0.01103300447320051,-0.06104268512204886,0.15469636955501914,-2.6973232367594546,-1.8974758220194694,-7.984046897405452,-0.08263099007695818,0.027990516599669356,0.06454218186546473,0.01890300659212052,0.029242153845286722,-0.0021782167816732922,26.924866898136287,-10.35270941704843,-0.11458806945715949,0.021912893251313154,0.01805472716804971
17502,1724822275473727141,0.2730787098407745,-0.1625877320766449,0.1057007163763046,-0.0418151132762432,0.0127252470701932,0.0327316336333751,0.9985080361366272,0.0,0.0,0.0,0.3550054469806454,-0.11115496436701355,-0.2667157793346907,1.35010274,0.1057007163763046,-0.016384771255973426,0.01764799187491629,-0.015659121132189473,1.5143348794656766,-2.2142220164327036,5.003983052084889,-0.08279976930708946,0.02815359591877671,0.06437132133081265,0.023404035088395503,0.030768553346186778,-0.003743814013773772,-8.816098230884519,-15.948469724825081,5.7627232035592915,0.01972771453264418,0.01571710952346944
17504,1724822275483324652,0.2733547389507293,-0.1623132079839706,0.1055747494101524,-0.0417041070759296,0.0123134674504399,0.0338762216269969,0.998479664325714,0.0,0.0,0.0,-0.06436836890864184,-0.011675515971625972,0.3094039614674525,1.359700251,0.1055747494101524,0.01700666514955089,-0.09633720910033405,0.23506155612589175,0.18499836737015674,-8.163739734805223,9.107381991248689,-0.08257193760399775,0.02741848412611153,0.06669688165830742,0.025939649739266102,0.027275238120380685,-0.0073186679410470745,-14.666712985095863,34.43408745271096,21.536242197402395,0.03095122342103072,0.026435705976704964
17506,1724822275493692540,0.273592084646225,-0.1620453000068664,0.1055639013648033,-0.0417637526988983,0.0116188209503889,0.0346264578402042,0.9984596967697144,0.0,0.0,0.0,0.10870090545485334,0.6149080241348999,0.10157728821130335,1.370068139,0.1055639013648033,-0.017970425350534953,-0.13939423291805597,0.13890350112300165,-3.07186563341918,4.784529205437385,-9.972218662505577,-0.0827166370234662,0.026097072695733383,0.06825195412273537,0.02159234220279771,0.0311000491853477,0.0035263360851658376,25.166220645065156,20.336955474860815,-51.158100004288606,0.024620285353727518,0.02099823129913116
17508,1724822275504859499,0.2738175690174103,-0.1616347432136535,0.1056582778692245,-0.0420378632843494,0.0117339137941598,0.0347313731908798,0.9984433054924012,0.0,0.0,0.0,0.4916458828968009,0.359725833596626,-0.8439167937911703,1.381235098,0.1056582778692245,-0.048644696994928904,0.021530630331650386,0.019153502461426043,14.721987274253898,3.696265606881457,18.019696319885337,-0.08325479873120524,0.026354411444533172,0.06844525531730843,0.029156853217362055,0.04092547913360889,-0.006698732115622441,-28.843512559819416,-58.54639249956959,7.96544034266366,0.022428695163306537,0.01772506112995365
17510,1724822275513659205,0.2741363048553467,-0.1612457633018493,0.105494275689125,-0.0411276742815971,0.0117455851286649,0.0363809429109096,0.9984223246574402,0.0,0.0,0.0,-0.19997263063268855,-0.40298333852529034,-0.13147079649509613,1.390034804,0.105494275689125,0.20203847256742807,-0.020240936955371328,0.37703560877479764,6.579897629423282,-3.7247320757205977,12.454526944984725,-0.08138920840901508,0.026449719832586403,0.0717676265902858,0.03219511323172952,0.04048416142229172,-0.013627507418700446,1.1720339480676998,23.756033301218537,41.41188916875254,0.039776773199025055,0.03247998758207173
17512,1724822275523467640,0.2744080722332001,-0.1608893424272537,0.1054153814911842,-0.0409760139882564,0.0115656005218625,0.0373224355280399,0.99839586019516,0.0,0.0,0.0,0.6836069404777299,1.037339570649891,-0.15768351473008146,1.399843239,0.1054153814911842,0.027063687420740657,-0.045599273503133274,0.19072340085573913,-11.18605214195151,-1.0441262069710349,-12.271987539525526,-0.08107373934496623,0.02615572682682304,0.0736690982119179,0.024272685808140793,0.03267408583857412,-0.007746030158710671,40.12330760518673,83.45531565745836,20.168905071862298,0.03050693978756375,0.02471920663172803
17514,1724822275540367028,0.2747182548046112,-0.1604438573122024,0.1052931398153305,-0.0406848676502704,0.0114826429635286,0.0388364680111408,0.9983509182929992,0.0,0.0,0.0,-0.09301413838507955,0.6019748385414481,0.8482241430024686,1.416742627,0.1052931398153305,0.03174444962686745,-0.018368713631558835,0.179089221070334,-7.899936407493245,-55.56941900466366,119.61746757619986,-0.08045779122210062,0.026090487340089716,0.07671180524307818,0.07924762851540379,0.10359290174955049,-0.03246139446292773,-382.8746875428163,-452.78009478338845,245.08925786313327,0.020502690424187425,0.01608267703158223
17516,1724822275543982962,0.2750519216060638,-0.1600095182657241,0.1051562428474426,-0.0406573787331581,0.011058553121984,0.0401278547942638,0.9983057975769044,0.0,0.0,0.0,-1.738136505672896,-1.3656299111486883,1.8780222363475498,1.420358561,0.1051562428474426,-0.0031476402191337803,-0.26354455057995,0.7046982142899408,-6.9339767063693865,-43.09622601076073,94.13719229289563,-0.08040187490675461,0.02534533566369422,0.07932914686645272,0.0763224433211791,0.1029885110112585,-0.027606474885288,-343.14666118582795,-428.37820534980887,207.77913542521534,0.10243232135576455,0.08151282078769473
17518,1724822275554498446,0.2753666043281555,-0.1594503670930862,0.1051794812083244,-0.0406214743852615,0.0112913586199283,0.0407921820878982,0.99827778339386,0.0,0.0,0.0,-1.9270893756297653,-2.3299765604759863,1.7077877244742292,1.430874045,0.1051794812083244,0.006980186924962973,0.03885133652392898,0.1282277162387959,1.2474394249018794,8.798443167174286,-28.89898289281259,-0.08029490464834402,0.02586078450242978,0.08064082171354509,0.029631174396032023,0.051978581960728576,0.008513662062479277,98.13746070257254,62.071067038130856,-102.02884016069288,0.03404320863274748,0.02548144442438294
17520,1724822275564941906,0.2756730020046234,-0.1589199304580688,0.1053337752819061,-0.0404799319803714,0.0109188640490174,0.0413036905229091,0.998266577720642,0.0,0.0,0.0,0.30205340933542013,-0.08676149800906563,-0.24807179084601577,1.441317505,0.1053337752819061,0.022956559550599127,-0.07627329977696491,0.09528480751300955,-9.497979176486876,-14.165271928447972,9.179149393849034,-0.080028218257067,0.025146465381412898,0.08169684693013517,0.035571910521859706,0.05379276737124883,0.008434894291712958,82.35341771364925,98.93677333572303,-76.49939961202153,0.03300369573371187,0.025270926175166065
17522,1724822275572957430,0.2759964764118194,-0.1584702879190445,0.1053623855113983,-0.0409187376499176,0.0101017840206623,0.0423220284283161,0.9982147216796876,0.0,0.0,0.0,0.15565536958251025,-0.006503431447865804,-0.17972253613616007,1.449333029,0.1053623855113983,-0.12101808360916533,-0.20914301551287512,0.24473707227153982,-6.326605080620276,-3.3127666377085596,3.527370627035138,-0.08094726825207703,0.023633226919411478,0.08378761174849714,0.036351697892202495,0.05149486577925,0.004966720934325153,-4.415169557636888,19.75000642907953,9.723122936453825,0.04481221869948051,0.03547667808732419
17524,1724822275584427024,0.2763476967811584,-0.1579551845788955,0.1054422855377197,-0.0409244410693645,0.0099412444978952,0.0425413362681865,0.9982067346572876,0.0,0.0,0.0,0.33230870433282433,0.3798286690622774,-0.04857317867141536,1.460802623,0.1054422855377197,-0.002620810258641274,-0.029452594668399643,0.03707675302220705,0.9820130534604758,11.328456771546232,-10.449151143434433,-0.08096672439072489,0.023330911802804298,0.08423890967913049,0.03909498806588729,0.0560185829738451,0.00705697341268241,-17.398861418019507,-15.701786555350065,-8.29797767292777,0.03412015902905839,0.026768196283490638
17526,1724822275593744073,0.2767760753631592,-0.1573491841554641,0.1055087223649025,-0.0412315018475055,0.0101292552426457,0.0425252057611942,0.9981928467750548,0.0,0.0,0.0,-0.07804913800843205,-0.14023462013933186,-0.2752309097987633,1.470119672,0.1055087223649025,-0.06416621934243752,0.04326145804990586,-0.0023331643468435187,-2.6489808176660574,-4.120474574183946,7.292590746873342,-0.08156583629301145,0.023730883750189516,0.08418450005904025,0.04289597218850005,0.059447110318524565,0.004857487397343263,-20.70330320364381,-24.729612333996727,-23.47806278353014,0.051100528187950016,0.040345198948018184
17528,1724822275603235845,0.2771534323692322,-0.1568390280008316,0.1055328473448753,-0.0414423123002052,0.0096272388473153,0.0433940812945365,0.99815171957016,0.0,0.0,0.0,-0.048863314467030516,-0.07434044536275941,-0.48986834848540506,1.479611444,0.1055328473448753,-0.051049400447689464,-0.11116003884362077,0.17830601960432815,1.4287396104612153,-4.892207242119668,12.614919339873303,-0.08200911843640182,0.022817572069609562,0.08595796663288663,0.03745554936839035,0.053201674828597945,0.00186639194751681,6.236526095972194,29.599337438172984,17.072793965084344,0.04415424977949498,0.03493994788095662
17530,1724822275614737163,0.2775521576404571,-0.1562347412109375,0.1055449023842811,-0.0416220612823963,0.0096235638484358,0.0447410643100738,0.9980847835540771,0.0,0.0,0.0,0.06692699538656299,0.5818473502714192,0.2595649708641774,1.491112762,0.1055449023842811,-0.03396444465958835,-0.008876521157632626,0.23397583707857114,7.328050026978486,12.577401728859474,3.453523592980609,-0.0823381932490776,0.022936707007938952,0.08864899762991289,0.04420049452901864,0.06048050364206148,-0.006203016721723742,-27.546346362280925,-23.97152943194878,68.0983324181189,0.039148890690723526,0.029804270099645744
17532,1724822275623154806,0.2779829502105713,-0.1556767225265503,0.1054480150341987,-0.0413666106760501,0.0101829404011368,0.0457865893840789,0.9980424642562866,0.0,0.0,0.0,-0.39667813985234845,-0.11910973701480643,0.8508907610719061,1.499530405,0.1054480150341987,0.0637150736259194,0.11969299417497371,0.2545027932378449,-6.129228208037437,4.988341712135137,-13.681990391636669,-0.08175356848665608,0.02411642352203287,0.09070210696853628,0.041563213630961826,0.06506395478838733,0.0019034479996591358,-2.175653927319214,-74.99013853751794,-7.313945937937291,0.05723249915542772,0.04464730181153455
17534,1724822275633600052,0.2782924771308899,-0.1550130248069763,0.1056417524814605,-0.0425806045532226,0.0103074628859758,0.0452830418944358,0.9980131387710572,0.0,0.0,0.0,0.2662435053430885,-0.7950521127342323,-0.2308098054155744,1.509975651,0.1056417524814605,-0.230152833688564,0.03848488382604055,-0.09735146833892186,-3.203592576432975,-11.970410642547836,-4.605243635991254,-0.08418299078999365,0.02443275619701695,0.08965512892926088,0.03633917941994724,0.05521854490346545,0.009337712909661455,37.81022048308094,-6.11622392139968,-63.56332617485391,0.03473974305421906,0.02401656273044907
17536,1724822275643703165,0.2787251472473144,-0.1545364707708358,0.1056460887193679,-0.0426402911543846,0.009710912592709,0.0460178852081298,0.9979829788208008,0.0,0.0,0.0,0.39752794580489015,-0.28422716337813814,-0.4821508374126342,1.520078764,0.1056460887193679,-0.018893230866273904,-0.12345530327892203,0.14029979210085144,11.792788694502693,-9.308239310009707,16.37131491711785,-0.08433764556410596,0.023309193661900523,0.09117297276615967,0.046518262380466524,0.04862764802735242,-0.0022049248943565303,-34.90917109648058,43.949063455786394,36.31292517492301,0.04691938571246775,0.038271060496677084
17538,1724822275652957829,0.2791869640350342,-0.1540740728378296,0.105603352189064,-0.0425375550985336,0.0090544456616044,0.0471149943768978,0.9979422688484192,0.0,0.0,0.0,-0.3316461007657754,0.06645295983879684,0.3726535896360097,1.529333428,0.105603352189064,0.01295126410946296,-0.15262709544657077,0.23118621766442227,5.276625299308765,1.928076156988559,3.8736388648626514,-0.08416668111347024,0.02208173590854694,0.09342436752733171,0.04502606709083068,0.04911808029674347,-0.0010691223805920913,-35.91841531713139,25.127372585883872,58.15104538528342,0.05443312550418699,0.044869426216388314
17540,1724822275664000276,0.2796199321746826,-0.1535428315401077,0.1056383028626442,-0.0419853255152702,0.0087703512981534,0.0482030771672725,0.9979162812232972,0.0,0.0,0.0,-0.16341630496980475,0.17573576428277393,0.5639981924436532,1.540375875,0.1056383028626442,0.09540470556468376,-0.06440187495531287,0.19560585954342052,-9.247750362822769,-1.3417710579615063,0.4053876823321598,-0.08306492367465794,0.02155346522133745,0.09563671993056587,0.03911864404122589,0.05002922666224663,0.0063388071562933135,31.98109396656527,17.564947978573134,3.716701342071527,0.0435458940499976,0.03440001704171673
17542,1724822275674781953,0.2800407409667969,-0.1529832184314727,0.1057400554418563,-0.0428976863622665,0.0078246667981147,0.0495328232645988,0.9978201389312744,0.0,0.0,0.0,0.3576825387052667,0.44584044093530917,0.4607824074060213,1.551157552,0.1057400554418563,-0.18025833130352728,-0.17710083139204177,0.23816388452905143,-4.836648010469306,-0.559925600166566,0.9159122304150493,-0.08495208252600372,0.019866213986188232,0.09835625966819855,0.041268155246491744,0.05290531413022226,0.011294718442259821,68.44158803378379,50.45708783845138,-12.345546866938152,0.04374207795050318,0.03377540998141849
17544,1724822275686153341,0.2805368602275848,-0.1523696035146713,0.1058907657861709,-0.0427940636873245,0.0075124530121684,0.050752006471157,0.9977657794952391,0.0,0.0,0.0,1.3771410928049175,1.3242974257354962,0.28714737365377774,1.56252894,0.1058907657861709,0.013377498900214436,-0.06481895108179805,0.2122231158984522,-1.5409122519775371,11.6884938876264,-15.023631239477915,-0.08475160806848407,0.01933631119473823,0.10082380281854635,0.0472342357416462,0.06012295018973646,0.01654790913983817,12.44041921444262,-5.134684475694755,-14.211137711825568,0.04857315272080354,0.038040424468661564
17546,1724822275697560064,0.2811169028282165,-0.1516132950782776,0.1061172187328338,-0.0440573468804359,0.0079321106895804,0.0501422248780727,0.9977383017539978,0.0,0.0,0.0,0.6355868251067189,0.32305074918093535,0.137154443503257,1.573935663,0.1061172187328338,-0.21667172936193244,0.08926940436540806,-0.10494795995301612,15.677111221024042,4.580357941779731,38.809391081544774,-0.0872484507247238,0.020247991607947532,0.09954338477230451,0.07269716655986613,0.08311911611247069,0.01782301959001309,-185.53341113003623,-194.25824894640263,7.085820475806926,0.05677474540395982,0.04413482065454888
17548,1724822275703876897,0.2816525399684906,-0.151029422879219,0.1062227040529251,-0.0440373197197914,0.008259336464107,0.0513060539960861,0.9976773858070374,0.0,0.0,0.0,-0.9580042197226823,-1.2765334754867252,0.2527005569967,1.580252496,0.1062227040529251,0.007748907475942582,0.08697062310996327,0.37323351937950305,16.812838886580728,-1.3102956912207504,38.59910576550689,-0.0871520462696112,0.02100061223175733,0.10184473025845417,0.07112661810724852,0.07923752545958251,0.018778144272746822,-172.99753565133324,-173.56005766067165,3.621981763552899,0.09338184401123038,0.07500720169902107
17550,1724822275714029038,0.2821516096591949,-0.1504402607679367,0.1064472645521164,-0.0446884855628013,0.0085568707436323,0.0521074160933494,0.9976044297218324,0.0,0.0,0.0,-1.4207709694129913,-1.7387090819269178,0.050117807318350915,1.590404637,0.1064472645521164,-0.12691305918830145,0.058227067975702165,0.1597630185658489,-12.40278600329095,-6.372265773590929,-10.61952276034108,-0.08840707438201584,0.02173165781674479,0.10340896540149076,0.04982660124791849,0.05547591834993071,0.0229996369429184,22.48208202682873,25.997392136321174,-26.17254163796056,0.05439330957569372,0.043081709411557055
17552,1724822275723903923,0.2826500535011291,-0.1499170064926147,0.1066828370094299,-0.0458595678210258,0.0083383275195956,0.0528888888657093,0.9975119829177856,0.0,0.0,0.0,-0.544982593860174,-0.7950014592982436,-0.2680568182724419,1.600279522,0.1066828370094299,-0.24111325656013383,-0.03871020213973074,0.1548637170503166,-2.8742445444789473,-6.936302088942528,-0.03626536014700621,-0.09075437886029523,0.021487739934077994,0.10496665152580964,0.04230235279335126,0.044087181804265185,0.01998187368454296,156.1550581560741,171.1914593757056,-2.7783830613615788,0.05522446702811157,0.04483605649011962
17554,1724822275739917291,0.2831152081489563,-0.1494421660900116,0.1069022193551063,-0.0463075935840606,0.0077743921428918,0.0542480647563934,0.9974228739738464,0.0,0.0,0.0,3.7075374542717503,3.9101574079445833,0.4519980330736002,1.61629289,0.1069022193551063,-0.061468235057150496,-0.07499045927667579,0.166224805759694,0.05515975617221969,1.646073351132494,-1.1639576593094443,-0.09168069670790074,0.020534350833860363,0.10772740730126536,0.039209698279641714,0.0406607996848134,0.016664286720634358,-27.859544133796703,-19.25834397620001,-1.4066057237794336,0.03177968412471626,0.025786786357481047
17556,1724822275749878860,0.2835687696933746,-0.148968905210495,0.1070865914225578,-0.0469390638172626,0.0076015619561076,0.054971519857645,0.9973551034927368,0.0,0.0,0.0,1.6117242457951448,1.7781634016503247,0.15062161474902158,1.626254459,0.1070865914225578,-0.13009622671788404,-0.03435268761747662,0.1430205294890955,-56.53948620592748,-72.00694400286383,168.6883123244468,-0.09294703365957649,0.02032493593350758,0.1091779040752868,0.10031453844569427,0.1051688096286938,0.02525171666113124,-586.7996328357774,-705.702619850028,-182.84796538454373,0.05005006950707487,0.04019248514318964
17558,1724822275753251220,0.2839696109294891,-0.1485484093427658,0.1071794480085372,-0.0475283861160278,0.0070261289365589,0.0565306469798088,0.9972442388534546,0.0,0.0,0.0,-0.7969106250225351,-1.1630563859714573,-0.6402194126381988,1.629626819,0.1071794480085372,-0.3774518223032744,-0.36405148879611954,0.9071438000750245,-52.965675313226406,-69.28680946863787,156.68498709266098,-0.09415717031312905,0.01938836872798203,0.11233905099081945,0.10058684593776501,0.10580240008054043,0.024947444612885672,-561.7946519196456,-694.7430156454088,-187.7537658866481,0.13153086814317316,0.10418530351495575
17560,1724822275764598514,0.2844132781028747,-0.1480689495801925,0.1073637530207634,-0.04864052683115,0.0066101951524615,0.056647527962923,0.997186839580536,0.0,0.0,0.0,-1.3516461047267971,-2.2726994511165897,-0.9856287555055241,1.640974113,0.1073637530207634,-0.20024831339161883,-0.06293472357019897,0.016254271639934214,36.569473955120976,21.242414823339523,-29.6081932266059,-0.09642465981565751,0.018695019411322376,0.11259065331173884,0.05803396493908153,0.04102444974399244,-0.0033168038720647885,37.08620195785214,104.05205445694344,79.1180588627736,0.04328740444952345,0.03416842351555922
17562,1724822275774911955,0.2851893007755279,-0.1476573646068573,0.1071462035179138,-0.0467460714280605,0.0073094577528536,0.0574785135686397,0.997224986553192,0.0,0.0,0.0,-0.16326539529959305,0.6924514975653819,0.8573221963208904,1.651287554,0.1071462035179138,0.3733186636092722,0.10652264564580202,0.1692979480659774,-22.139090914979136,-13.962629585290568,-7.951354259653289,-0.09254285872067036,0.019953461241183596,0.11422556227483685,0.06657592680076974,0.04979313307470612,0.000627457422022637,7.804026011392587,74.73759086546231,50.26954594825634,0.07970712489425237,0.0699422367964967
17564,1724822275783499397,0.2856990396976471,-0.1471590846776962,0.1073069050908088,-0.0482870526611804,0.006217195186764,0.0572711825370788,0.997170865535736,0.0,0.0,0.0,-0.8643506108445806,-0.18708348192184499,0.37073545258704366,1.659874996,0.1073069050908088,-0.3727538621475205,-0.2307021591675641,-0.0619433844626205,-35.85253757410469,-7.987219314656204,-16.869100698484772,-0.09575036264023874,0.017931085888606788,0.11388215659425634,0.05808436669830641,0.054611435855324686,0.011385218202399905,12.627870249047172,-32.32861670199582,-54.73152395091636,0.06522172198906416,0.05243092393047332
17566,1724822275793903767,0.2862873077392578,-0.1466339081525802,0.1073329821228981,-0.0488465577363967,0.0065766009502112,0.0566802136600017,0.9971750974655152,0.0,0.0,0.0,0.45535855242236,0.3601236512393937,-0.1743690329877967,1.670279366,0.1073329821228981,-0.10254538252054027,0.08053198955119888,-0.11065796804935603,20.577802347746278,12.505812065068527,2.2183507604656327,-0.09683972671495897,0.01865439393892836,0.11265540405439284,0.050660554298648464,0.043233719195635345,0.004124286696044699,93.07006962352742,46.89625030267352,-44.901078721919376,0.06179899152518724,0.050452984158269994
17568,1724822275807696861,0.2868785560131073,-0.1461700201034546,0.107419453561306,-0.0482503697276115,0.006175460293889,0.0570156015455722,0.9971875548362732,0.0,0.0,0.0,1.1215484557704247,0.9027821865100965,-0.6567205782198413,1.68407246,0.107419453561306,0.08267468996486613,-0.06528832583290047,0.04611886375050207,-8.250070896464571,-15.114837875898132,12.833347314030402,-0.09568625711918884,0.01781917499520725,0.11337525122425346,0.07831507566223905,0.07478216621261424,0.011291751422490393,-148.85129919386685,-157.73468848906828,-35.94488684985062,0.046276119584653254,0.03878194282593707
17570,1724822275813348775,0.2874032855033874,-0.1456520557403564,0.107494905591011,-0.0482621565461158,0.0057354518212378,0.0573817603290081,0.9971686005592346,0.0,0.0,0.0,-0.1763362868219125,-0.4451424753414397,-0.8621345943383036,1.689724374,0.107494905591011,-0.014160430034977614,-0.1612371262894329,0.12204938395209805,-7.6596220616662585,-10.415182524813945,10.727159754072563,-0.09575282548798633,0.0169779755752675,0.11414911724627888,0.08260804659915166,0.07667822130493462,0.004855625975976885,-183.37520123784296,-165.59874445766155,2.7245811192898133,0.10243376732594132,0.08176393637950269
17572,1724822275823219981,0.2880423069000244,-0.1451531648635864,0.1073963940143585,-0.0478522293269634,0.0050566303543746,0.0583077073097229,0.9971383810043336,0.0,0.0,0.0,-1.1889149527217362,-0.8231354288924355,-0.16168292627398517,1.69959558,0.1073963940143585,0.0735564419482923,-0.15093123837528216,0.1812643837284025,-9.24932057896859,8.169835920179542,-16.427967336349937,-0.09499535647623217,0.015665268676530956,0.11607243488413103,0.06473224998044458,0.05882611002066529,0.0011142766648530866,40.33908139417707,73.65094234148299,36.42380430189931,0.07030116042286544,0.05834612587687853
17574,1724822275834020103,0.2887413799762726,-0.1444199234247207,0.1075395196676254,-0.0491617619991302,0.005029167048633,0.0569023452699184,0.9971559643745422,0.0,0.0,0.0,0.9355370147852646,1.2950778427089178,-0.17638580162562356,1.710395702,0.1075395196676254,-0.24063409861049667,0.021505669204406976,-0.26116402725150617,-3.899728117005572,7.109652979130455,-8.308301333508151,-0.09763850737385706,0.015625202747330612,0.11324221194479724,0.05924151563017688,0.06157970263231416,0.0019361923876415332,103.80069299740683,97.87233163748334,13.17509760962405,0.07176963605968649,0.05662657020087555
17576,1724822275846856771,0.2894181311130523,-0.1437257528305053,0.1073917225003242,-0.0485499165952205,0.0049614454619586,0.0577411577105522,0.9971380233764648,0.0,0.0,0.0,0.8505090745730577,1.0523124202042808,0.2145247939755892,1.72323237,0.1073917225003242,0.09366156976445959,-0.022356532362816418,0.13043812822058748,8.949144848990628,-7.659819849178813,-35.90013666235851,-0.09640982539278645,0.015501769474928678,0.11493672537380244,0.09328111884568813,0.09407352288668491,-0.004180287221316803,1179.9855522158632,1408.4108029236968,40.24477101548875,0.05874552420974102,0.046063514100631954
17578,1724822275853165261,0.2901323437690735,-0.143008291721344,0.1073880866169929,-0.0482338704168796,0.0046692257747054,0.0568028539419174,0.9972086548805236,0.0,0.0,0.0,11.973237231541022,14.362333479655609,0.49876667023564497,1.72954086,0.1073880866169929,0.09712405191245518,-0.08383245379285124,-0.3019156424325712,-0.10130049255324025,-5.886115662074238,-47.220698494036675,-0.09582506744535299,0.014792567180072158,0.11309142515311878,0.09306223387357226,0.09612668732258056,-0.0006846476825161929,739.0745365126973,886.4437750994953,41.62091075215078,0.12532054192913425,0.09954130794863814
17580,1724822275872216785,0.2907458543777466,-0.1421897113323211,0.1073688119649887,-0.0476979278028011,0.0049593113362789,0.0570238381624221,0.997220516204834,0.0,0.0,0.0,-32.8659229195971,-39.13903537365627,1.0940099768099092,1.748592384,0.1073688119649887,0.057786935409962104,0.02604709787742228,0.024794657546673385,706.2701550307943,-1975.974059670609,-733.2887480545545,-0.094717784036054,0.01533149246905811,0.11351452272103299,1.0120501751251254,1.177366062085298,0.005633040665287581,-8614.675590489758,-10066.690183529623,-71.72523086789988,0.03687350355875954,0.027080234214281948
17582,1724822275872890973,0.2914515435695648,-0.141368880867958,0.1073727682232856,-0.0474875457584857,0.0045071020722389,0.0568807944655418,0.9972407817840576,0.0,0.0,0.0,-38.82321061098102,-46.09904836707494,1.043197059823759,1.749266572,0.1073727682232856,0.5508451865250016,-1.3534111041910706,-0.48748368444212004,683.4509867965501,-1915.5227858620096,-711.9869841252367,-0.09434997656199813,0.014392087487058764,0.11327341681040998,0.9879574189408842,1.148691200675756,0.006388798314516775,-8330.614364783867,-9728.975348713317,-80.77291887390574,1.1774269698865867,0.9012851198876695
17584,1724822275883370046,0.292232483625412,-0.1405407488346099,0.1075245141983032,-0.0478974618017673,0.003619966097176,0.0561204850673675,0.9972679615020752,0.0,0.0,0.0,-43.76442754123371,-51.20618057999925,-0.6834023300815858,1.759745645,0.1075245141983032,-0.08674975436499024,-0.15753093762042775,-0.1533977263533169,-30.496001241359885,67.775382872273,19.382353656629963,-0.0952785381409667,0.012596543119521686,0.1118293427666804,0.07827849897470784,0.08469099429420801,0.004649797490331231,1719.4522134907338,2053.1481138315717,-61.621159583818965,0.08268844318190302,0.06520583384382833
17586,1724822275894367191,0.2931366562843323,-0.1395440250635147,0.1074621900916099,-0.0483095720410347,0.0038658340927213,0.0556446239352226,0.9972737431526184,0.0,0.0,0.0,0.43041226122455534,0.6922151119806674,-0.17067720850530108,1.77074279,0.1074621900916099,-0.0718707590932767,0.052940233536228516,-0.0844948215950094,9.185156161499966,-2.2285061474849064,9.199922399088152,-0.09608148882930717,0.013087299199398184,0.11084867267816781,0.09376600934505674,0.10241383367371704,-0.008837507783641563,1719.114740644262,2034.2445926825137,91.6484601129908,0.09180673541190312,0.07160098466925108
17588,1724822275903116575,0.2940374314785003,-0.1385659724473953,0.1073627993464469,-0.0480063073337078,0.0033816341310739,0.0557395778596401,0.9972848892211914,0.0,0.0,0.0,-0.5363180823803453,-0.1999408943085479,0.9446117113488899,1.779492174,0.1073627993464469,0.06301385120394863,-0.11529616966922362,0.016425319760113122,1.2010345374397602,-9.125437404924511,3.363434794508121,-0.0955271483366792,0.012096902881692772,0.11108825077254635,0.09072457586209204,0.10207050259404671,-0.002981627440399315,-32.16843259469691,-29.197955672921434,25.82056784389412,0.11483991741733678,0.08983088232919799
17590,1724822275913681321,0.2948399186134338,-0.1376115530729293,0.107438176870346,-0.0485393591225147,0.0029009559657424,0.0554870516061782,0.9972746968269348,0.0,0.0,0.0,0.12297652927497627,0.41989893908913967,-0.07932593177893607,1.79005692,0.107438176870346,-0.10564052178534425,-0.08282331999206242,-0.052277767361775064,-8.171891313751857,-5.949529503954371,-1.932513802708658,-0.09664863626383174,0.011172944271988072,0.11062241687406697,0.08265129404412619,0.09790816153092408,0.010510162962885872,66.10553482691134,66.15366104092422,-94.76102213428129,0.08538287976786892,0.06546928422177933
17592,1724822275923434323,0.2957062721252441,-0.1365885138511657,0.1075710728764534,-0.0490398183465004,0.0017826169496402,0.0553954355418682,0.9972578883171082,0.0,0.0,0.0,0.8010207878729472,1.1324705596860118,-0.9840896383860596,1.799809922,0.1075710728764534,-0.1151847924773785,-0.2220908907126641,-0.029974155116914886,28.234295089486572,3.1127898557538223,10.98212119646875,-0.09777283985559262,0.008988742866317016,0.11054167746374893,0.09183823907201827,0.10933133648588722,-0.0024758774602613443,8.46368946745697,32.01360997527886,23.21803399975377,0.09973238132058034,0.07665023694860917
17594,1724822275933637027,0.2966753840446472,-0.1354256868362426,0.1073739528656005,-0.0465710163116455,0.0019394039409235,0.0562816895544528,0.9973263740539552,0.0,0.0,0.0,0.23569364625448674,1.020983097572647,0.4907293797462674,1.810012626,0.1073739528656005,0.484674702763418,-0.004702110296638733,0.17487907946871492,2.9471737611444695,15.840795027848593,-3.991345355043135,-0.09281173577290515,0.009110754405485318,0.11232247259198795,0.0985065449867637,0.12047173128653998,-0.00880838230651193,-46.23827403274244,-60.329506309837,89.06862399041029,0.10733357270593565,0.08159444925932156
17596,1724822275943888393,0.2977214753627777,-0.1341237425804138,0.1073919311165809,-0.0469098947942256,0.0024130651727318,0.0556754991412162,0.9973434805870056,0.0,0.0,0.0,-0.14384539292419074,-0.1063328769562144,0.8323135115696352,1.820263992,0.1073919311165809,-0.06035130872662144,0.10138458026915548,-0.11396155570172622,-34.889916622360886,-4.359831760947161,-6.571301574198653,-0.09344248081639647,0.010036941770910383,0.11106256489427127,0.0966183658340718,0.13020767726070037,0.00766995933571657,0.2737342393456679,-87.51416065167234,-75.30078309855648,0.11546815736626122,0.08727657108559203
17598,1724822275953049634,0.2985621988773346,-0.1329046338796615,0.1075106337666511,-0.04794717207551,0.0020854750182479,0.055703081190586,0.9972932934761048,0.0,0.0,0.0,0.16401435151191723,-0.7242457125254358,-0.7468246150559248,1.829425233,0.1075106337666511,-0.23035772310536493,-0.05897492288661969,0.0027142026294597055,-2.535237871842706,-14.88213417685525,6.558199388440814,-0.09555209330070427,0.00950141389578302,0.11113828980591388,0.09563085047443387,0.1205875748074634,0.00894908409405204,32.03799411777737,46.74456159285863,-87.68174102389915,0.10583456205241146,0.07637243034443111
17600,1724822275963358946,0.2995928823947906,-0.1318062990903854,0.1075563952326774,-0.0482579469680786,0.0011293538846075,0.0557418838143348,0.9972776770591736,0.0,0.0,0.0,0.47612955095949516,1.0824427494441933,-0.6682537436758507,1.839734545,0.1075563952326774,-0.07062009457215188,-0.18198110284916805,-0.0013432397467952528,8.601192904102655,-0.468426574567375,4.373565488840868,-0.09627871709981081,0.007632610691558669,0.11130418283984705,0.10047502971236888,0.11690127141114548,-0.009034076812230118,-7.324330074187941,99.55818592084285,78.87529287918699,0.11115388322046685,0.08748400474684509
17602,1724822275973318034,0.3005983233451843,-0.130542367696762,0.1073368042707443,-0.048490896821022,0.0007570719462819,0.0561979003250598,0.9972411394119264,0.0,0.0,0.0,0.04145098276002557,1.3457558127979707,0.8027894454121847,1.849693633,0.1073368042707443,-0.05127891642849529,-0.0763621246612914,0.08807696426538829,4.3869689197083,15.429167824862855,-9.623827697139784,-0.09678250378639155,0.006960195949961117,0.11225058873150362,0.10527693418731765,0.14153543600394602,-0.005336304025664873,-61.81340333519067,-80.36731129358597,50.89294692992408,0.11468853986524886,0.0861718261665017
17604,1724822275983364705,0.3016997873783111,-0.1289722025394439,0.1074525788426399,-0.0484395809471607,0.0013529179850593,0.0551791228353977,0.9972999691963196,0.0,0.0,0.0,-0.7636907291413868,-0.5441574951139501,0.3328649021620108,1.859740304,0.1074525788426399,0.017574695872412494,0.127539805775569,-0.1971480854426827,-2.324429562126982,-0.44351968298337585,-6.372879868759579,-0.09662166988817557,0.00804432406330236,0.1101554019636971,0.10122675086038235,0.1436257204476341,0.007102250632817331,12.778769052448471,-62.23996967718462,-89.8250099375154,0.12605452651959217,0.09171471631681949
17606,1724822275993705925,0.3026570975780487,-0.1276217103004455,0.1074789613485336,-0.0489489510655403,0.0008116896497085,0.0550563707947731,0.9972823858261108,0.0,0.0,0.0,0.3575238935230809,0.15205286695827258,-1.054286009319684,1.870081524,0.1074789613485336,-0.10415501571553651,-0.0978009479687551,-0.02869223962828717,-2.3111865900812965,-4.757703511511766,6.954691758847833,-0.09770022802481586,0.007008928166127381,0.10995817680025136,0.08949137567438825,0.12999158817170464,0.0009090334831940439,93.21130792281555,88.11151720648468,-58.70170250323093,0.10632356570899651,0.07765005061818231
17608,1724822276005336350,0.3036576211452484,-0.1261177211999893,0.1074680536985397,-0.0490138716995716,0.0011934431968256,0.0546311177313327,0.9973021745681764,0.0,0.0,0.0,1.2426512626915933,1.4487377228177571,-0.7502780865621038,1.881711949,0.1074680536985397,-0.007293358286849256,0.06966039707778131,-0.06991200161957754,8.467403679930468,-17.94503622983916,30.235526539450994,-0.09779159704225725,0.00773588933891959,0.1090698564262986,0.11316985136675584,0.15099440579456136,-0.017309546105484408,-79.55995501801652,-2.8705413278038208,99.75530625517015,0.09959591164966314,0.07140917817883699
17610,1724822276013694014,0.3047664761543274,-0.1247255578637123,0.1072250604629516,-0.048681154847145,0.000142832257552,0.0562941953539848,0.9972267150878906,0.0,0.0,0.0,-0.3571807747828064,0.737910313405429,0.5255713563933293,1.890069613,0.1072250604629516,0.06430979770602366,-0.2745688471129017,0.3856618151144419,-5.316852707118763,-15.939548626805285,14.04681196507533,-0.09723095756117126,0.005765837115431662,0.1125012732310722,0.11879133467045477,0.16095769981986852,-0.018678263193263156,-116.77357918977381,-72.19920647160191,82.04528629854826,0.1507018459091629,0.1132808720585741
17612,1724822276023939463,0.3058091700077057,-0.123147003352642,0.1071642637252807,-0.0494868606328964,-0.0005162671441212,0.0564336143434047,0.9971790313720704,0.0,0.0,0.0,-0.6160345692789502,0.15961047802208483,0.479314390899618,1.900315062,0.1071642637252807,-0.1645444755832972,-0.12077464618404592,0.021378439626189356,-3.6100217069432143,22.01690769615923,-24.08007946008836,-0.09891503559694056,0.004555839034535759,0.11284041219151592,0.10219800656186351,0.16281328025665243,-0.004635697892603652,23.08079713812211,-49.948068718438826,-26.349127616881052,0.1184988535805596,0.08382943662217741
17614,1724822276033857985,0.3068269193172455,-0.1214482188224792,0.1071307510137558,-0.0496342405676841,0.0002669954847078,0.055862583220005,0.9972039461135864,0.0,0.0,0.0,0.07711284476583113,-0.2734210790870666,0.008316945403379294,1.910233584,0.1071307510137558,-0.02053202921897264,0.16487167185001683,-0.1072718284960894,17.911943387237095,-3.5802349789018457,6.652606911118225,-0.09912516985170226,0.00607792911139086,0.11161996486560177,0.10572392810509079,0.16418991584007614,-0.008439899408107188,19.752245144023185,-25.131032829916034,-17.561941243530516,0.12106865253781354,0.08290083937586154
17616,1724822276043597779,0.3078864216804504,-0.1199167966842651,0.1070001423358917,-0.0486800447106361,-0.0005198107101023,0.056610882282257,0.9972087740898132,0.0,0.0,0.0,-0.20998020002269957,-0.340986525743495,0.12347580726290835,1.919973378,0.1070001423358917,0.18637246084271977,-0.17968606573897228,0.1452062153591852,-9.78140421928433,-17.124733771826993,6.730942119559098,-0.09730162484494803,0.004474935894379738,0.11319907798038138,0.10381252577750821,0.1575843036033815,-0.004611012191745978,-3.0829554214670503,47.108151847903756,-14.504116156413858,0.1259040111432982,0.09042668164403485
17618,1724822276054755624,0.3089812397956848,-0.1181540116667747,0.1070611625909805,-0.0504130348563194,-0.0013922112993896,0.0565080866217613,0.997127652168274,0.0,0.0,0.0,0.09298970348230196,0.875463901106663,-0.37488834486106865,1.931131223,0.1070611625909805,-0.31933456663047316,-0.13746337069917647,-0.02500196478580969,0.3329772945148797,6.665673666300423,0.7147324412972953,-0.1008651771966803,0.002921067666554784,0.11307320045823083,0.101294052643226,0.1580901213276995,-0.006679949046079159,2.937225737481933,33.31632706861618,-17.76848139262327,0.11530382269835546,0.07966604559464019
17620,1724822276064650884,0.3100114166736603,-0.11658875644207,0.1068884506821632,-0.0499834902584552,-0.0015660824719816,0.0571230910718441,0.9971139430999756,0.0,0.0,0.0,-0.0904530378792261,0.5407792016239465,-0.31468126210953395,1.941026483,0.1068884506821632,0.0846164263485026,-0.04621764847998562,0.12220987144873302,11.201596528183403,0.17704175826118984,7.464959285291769,-0.10002442868835697,0.0025873004811473904,0.11432226075370529,0.10501100177949851,0.17403791597490148,-0.01205221594606165,11.01120958263593,-14.910527059453251,24.0678372732197,0.12151767978055272,0.08558756071368932
17622,1724822276073675123,0.3109664916992187,-0.1148877069354057,0.1068241447210311,-0.0502149872481823,-0.0020876796916127,0.0577279850840568,0.9970665574073792,0.0,0.0,0.0,0.2521051273411996,0.5618683626757939,0.05051404105951085,1.950050722,0.1068241447210311,-0.05807587988676158,-0.11905202435767293,0.1285751329813645,-2.6597085726217298,-3.6019789155005664,-0.8358195111864788,-0.10054586332366776,0.0016345095913456182,0.11558429690440378,0.10035892650611444,0.17010480690921082,-0.013013651701755169,24.04254320029953,23.588114546862776,33.87037318067704,0.12687862649972315,0.08353924005220786
17624,1724822276085838533,0.312097430229187,-0.1131201982498169,0.1065693274140358,-0.0494254790246486,-0.0025585822295397,0.0583216995000839,0.9970703125,0.0,0.0,0.0,0.3163772172515511,1.1971840965667209,0.354323645118512,1.962214132,0.1065693274140358,0.12520108082439127,-0.08959714647725094,0.09314187546398578,34.801825370757555,11.385726369118434,-2.947322442244598,-0.09902156193235874,0.0006629831528869911,0.1168201392598467,0.11601008810227142,0.1932960167854958,-0.009824406920031947,-100.4169210941981,-162.91347079184203,-24.66679564901065,0.10929585654220757,0.0757092076679329
17626,1724822276093731347,0.313131034374237,-0.1113488003611564,0.1065487638115882,-0.0474655292928218,-0.0022479724138975,0.0585919059813022,0.997150421142578,0.0,0.0,0.0,-1.0175563748615506,-1.1905561340172044,-0.09462578100765107,1.970106946,0.1065487638115882,0.5009553595108306,0.04617924771383558,0.06970394459093625,0.27883039471821247,1.6941022315345826,-5.509587183970433,-0.09506716070069592,0.0010790585902893768,0.11733238975769314,0.11353734682669092,0.1991116103398589,-0.006555972306217406,-81.08938679081194,-187.19401393327365,-45.01153165134335,0.15633015078221055,0.10390386668562696
