seq,stamp,px,py,pz,ox,oy,oz,ow,lx,ly,lz,ax,ay,az,timestamp,wx,wy,wz,aa_x,aa_y,aa_z,roll,pitch,yaw,vx,vy,vz,jx,jy,jz,fw
16408,1724813451415468249,0.937506914138794,-0.6539183259010315,0.1267955601215362,0.0052909362129867,-0.0002285658702021,0.9719902276992798,-0.2349615395069122,0.0,0.0,0.0,0.0301379368778397,-0.6390379283463186,0.4391655168614756,55.028752896,-0.0980356228062956,0.0325206219384796,0.0328446298357285,-1.07533990492992,0.4560001950052145,-7.16378034909535,-0.0029308166261821,-0.0101782439490759,-2.6672129409257908,0.0101176941289224,0.0325703936925734,-0.0104390096961513,-29.784791747102332,22.527404724986127,-24.91768380053936,-9.985291803108574e-05
16410,1724813451425175512,0.9375934600830078,-0.6536262631416321,0.1266922354698181,0.0053396080620586,-0.000754163833335,0.9719756841659546,-0.2350194752216339,0.0,0.0,0.0,-0.3561414406862233,-0.194460831058524,0.0284152344871825,55.038460159,-0.1075501686596026,0.0156782718018981,0.0128769355681983,1.9599755217551385,-0.7273253590536719,-0.968446360497644,-0.0039760918839415,-0.0100256199720177,-2.667088456754676,0.0070485377250477,0.026975556715076,-0.0079355991531997,-12.341921273666454,34.65129905440087,-29.399163314147465,-0.0001020847762276
16412,1724813451436042280,0.9376473426818848,-0.6533709764480591,0.1266389489173889,0.0052982149645686,-0.0010468180989846,0.9719561338424684,-0.2351002842187881,0.0,0.0,0.0,-0.1563242853121123,0.0464848694052837,-0.133956165708143,55.049326927,-0.0504856461098973,0.0200330405321934,0.0155948784984011,-2.561855673993197,-1.226821313312373,5.087745667378167,-0.0045263793629241,-0.0098072078122145,-2.6669199425088195,0.0026922016897259,0.0295080609808877,-0.0104183313516337,19.469953878226995,-21.245225215275504,13.1493712478464,-5.258548344787164e-05
16414,1724813451444991114,0.9376547336578368,-0.6530625820159912,0.1265050768852234,0.0054483376443386,-0.0016156845958903,0.9718533754348756,-0.235517993569374,0.0,0.0,0.0,0.025883118738913,-0.4635995386047158,0.1907322102424711,55.058275761,-0.1309894945231339,-0.0029397541997993,0.0967747356013125,-2.304748002535536,1.166141352347201,0.9048852897516112,-0.0057070868172129,-0.009829083337088,-2.6660537412619023,0.003095556878776,0.0285491693865225,-0.0109205708217814,9.463330741710353,-32.2257458091693,27.44746506362484,-0.0001339565253746
16416,1724813451454637999,0.9377081990242004,-0.6528486609458923,0.1264417320489883,0.0053222430869936,-0.0020618375856429,0.9718304872512816,-0.2356118559837341,0.0,0.0,0.0,0.0038454727983704,-0.5168395282670808,0.3636331193899795,55.067922646,-0.0836380526699622,0.0471335821960898,0.0205756789807187,4.796412023889922,2.96272836459585,-4.053542508154488,-0.0065158127245548,-0.0093731866732516,-2.6658580311643423,0.0031456802357361,0.0203700490910527,-0.0065134514801492,-2.8949472973847055,7.859109864591899,2.4467858137618164,-6.305646751144007e-05
16418,1724813451467560252,0.9377073645591736,-0.6526166796684265,0.1263584792613983,0.0050634969957172,-0.0022825303021818,0.9717788100242616,-0.2358286380767822,0.0,0.0,0.0,-0.0441316135738612,-0.1837132378024535,0.1273629586608962,55.080844899,-0.0235972854742172,0.0468545465366982,0.034755438882935,0.1392083444551879,-0.2061299494663684,-3.3931666982232116,-0.0068247794810348,-0.0087647383634225,-2.665412957126647,0.0031719985291829,0.0194210236345497,-0.0034279401582519,-9.295920624824248,13.713448236900886,-25.52406320794413,-8.37318578208809e-05
16420,1724813451475167379,0.937745988368988,-0.652462363243103,0.1263459026813507,0.0049375803209841,-0.0024801052641123,0.9717892408370972,-0.2357861399650573,0.0,0.0,0.0,-0.1398493974211244,-0.1334264240809332,-0.0992243620470495,55.088452026,-0.0427219852900089,0.0444600990996311,-0.0111660604518836,0.3834426028567722,-0.2783417873484608,-2.728987887161785,-0.0071490199740498,-0.0084271257132732,-2.6655002225958384,0.0026295331437786,0.017529673801075,-0.0029579990355652,-4.750816373501941,10.0002694528204,-20.166736668040055,-1.2544517270020183e-05
16422,1724813451487454872,0.9377297163009644,-0.6523016691207886,0.126283660531044,0.0046596745960414,-0.0024248301051557,0.9717604517936708,-0.2359111756086349,0.0,0.0,0.0,-0.0427827557564864,0.0567305390001997,-0.1561008830679467,55.100739519,0.0194975649781435,0.0417628603862234,0.0209501906510781,1.9948542775353175,-5.044036582088841,3.7664918629804065,-0.0069115179828135,-0.0079121684930156,-2.665246443043045,-0.0004491982945467,0.0181766745044456,-0.0073726815002075,14.80968459059603,-17.196893251065756,18.489512451309604,-6.280870712066191e-05
16424,1724813451494687992,0.9377301931381226,-0.6521484851837158,0.1262205094099044,0.0046950527466833,-0.0023393908049911,0.9717150330543518,-0.2360982745885849,0.0,0.0,0.0,0.0937592924455354,-0.2067707125233916,0.0760698245815658,55.107972639,0.0208601874315518,-0.0152632593352262,0.0531019178812135,-1.0686410216982285,-3.575725412813528,0.4067192277837845,-0.0067636992182549,-0.0080199403773176,-2.6648615769028043,0.0001260206489916,0.0186043652863112,-0.0076366652175936,16.603003096869877,-32.3049195605215,18.669485223314485,-6.349960317540785e-05
16426,1724813451504874242,0.9377323389053344,-0.6519958972930908,0.1261584162712097,0.0046546827070415,-0.002391415880993,0.9717159867286682,-0.2360945641994476,0.0,0.0,0.0,0.2302561209647307,-0.4766646864057231,0.0736047323239373,55.118158889,-0.0080574188142126,0.010116453589062,-0.0006856105020594,-1.760610037350781,1.6814784726507843,-3.2370253935247946,-0.0068457126594325,-0.0079169413213739,-2.6648692482533294,0.0012852582473783,0.0126837871222527,-0.0052470256690275,10.935802936513124,-4.4818150318223875,-5.42231772343806,-6.244169311048884e-05
16428,1724813451515818710,0.9377590417861938,-0.6518840789794922,0.1261109709739685,0.0045727672986686,-0.002493530511856,0.9717319011688232,-0.2360296845436096,0.0,0.0,0.0,0.320964621657091,-0.2668492764434687,-0.0466556276512556,55.129103357,-0.0146467736603756,0.0189934224406457,-0.0120847731638062,-0.1310122898092416,0.3736553710236897,-0.6134267761429746,-0.0070049694229209,-0.0077099896663835,-2.6650029687729373,0.0051746621084163,0.0086965700284338,-0.0063345612462635,-8.196629025003944,15.231998583653668,4.1031918336646775,-4.747449074963123e-05
16430,1724813451525598405,0.9378335475921632,-0.6518123149871826,0.1260315477848053,0.0044971252791583,-0.002571060322225,0.97174870967865,-0.2359610348939895,0.0,0.0,0.0,0.0967462331622569,-0.1523066644393483,0.1253545416967643,55.138883052,-0.0118115001264582,0.0188249513939147,-0.0143426191403319,0.5650987656439581,0.0485015725615685,0.1011575727716378,-0.0071194035817177,-0.007526882336834,-2.6651445229506097,0.0080128790997946,0.0069385937412533,-0.0063301872208958,20.11713651728476,57.24592350571442,-28.717747611977885,-7.88836233426031e-05
16432,1724813451535388642,0.937915861606598,-0.6517482995986938,0.1259871274232864,0.0044065196998417,-0.002610913477838,0.9717607498168944,-0.2359126657247543,0.0,0.0,0.0,0.7155636455875095,0.8544101024275264,-0.6096368427558104,55.148673289,-0.0035820241272643,0.0199439814776063,-0.0100981220841544,0.6125759854618653,0.0002504203657106,0.4019652147498749,-0.0071537274129192,-0.0073323363595498,-2.665244768552296,0.0070638980125954,0.0057165180535299,-0.0038787464247371,-211.22167977534787,645.2860899416753,-143.89656392826063,-4.3803420407945734e-05
16434,1724813451575790661,0.9379771947860718,-0.6516544222831726,0.125940203666687,0.0044683399610221,-0.0029461944941431,0.9717557430267334,-0.235928326845169,0.0,0.0,0.0,-53.57372675586282,117.36903099189794,-17.89812779851877,55.189075308,-0.0168477310836956,0.0009385462946815,0.0008769879733466,127.15977320204732,968.0263818824288,-1952.0880506684473,-0.0078346673494768,-0.0072941532430433,-2.665209653077379,0.1714411527468655,0.2035041315373291,-0.1719023899591434,127497.53067402104,-129331.2765887643,-122118.80769357926,-4.6642775680583775e-05
16436,1724813451576171963,0.938043177127838,-0.6515761017799377,0.1258740425109863,0.0043981145136058,-0.002956410171464,0.9717898368835448,-0.2357891052961349,0.0,0.0,0.0,-4.495013539013797,67.57896543153294,-64.9001918036526,55.18945661,0.0320973250998427,0.3735341865250505,-0.7504838761616693,-1545.690223855132,189.38566904326535,-80.6359777452697,-0.0078203535184505,-0.0071539683754244,-2.6654969401873143,0.1508059513969328,0.2486619265019953,-0.1787764244276388,152912.8728054525,-225322.304363969,-93617.91349090608,-6.578901573897263e-05
16438,1724813451576553003,0.9380921721458436,-0.6514648795127869,0.125803917646408,0.0044248197227716,-0.0031840268056839,0.9717919826507568,-0.2357766032218933,0.0,0.0,0.0,62.98550240734639,-54.35399677008155,-89.28252614054219,55.18983765,-1.1943154052187952,0.1457278514769029,-0.0615851603428441,1018.0018843170534,-355.2810930382498,-76.60737186751498,-0.0082752643151709,-0.0070986302300702,-2.66552081124862,0.16798842176172,0.2550490522636437,-0.22135397928173,104013.89888748786,-245716.03620116337,5037.833207571908,-7.008199721247031e-05
16440,1724813451576915832,0.9381667375564576,-0.6513850688934326,0.1257107108831405,0.0043801860883831,-0.003075128654018,0.9718241095542908,-0.235646516084671,0.0,0.0,0.0,75.47587681522486,-117.84250885701768,-63.60671804865718,55.190200479,0.638739451436522,0.1006277251649133,-0.7404708509413234,4827.699782777094,-119.59974819466768,-1785.0783895056522,-0.0080416068396265,-0.0070643129390949,-2.665789790309747,0.1970228280137718,0.2107579763013816,-0.2459893415292552,32423.321133222627,-166747.06937693537,68114.01828874579,-9.277080999517004e-05
16442,1724813451584835954,0.9382596611976624,-0.6513080596923828,0.1256468445062637,0.0044395364820957,-0.0027517441194504,0.9718320965766908,-0.2356164753437042,0.0,0.0,0.0,-13.784619018021845,-14.804359468583364,17.44303537419328,55.198120601,0.0758019007608403,-0.0337760500810964,-0.0082512428163836,-44.75805240234059,-7.638689507689264,53.577429099736904,-0.0074407910666406,-0.0073323212945118,-2.665853072787118,0.008786881795423,0.0085654782949902,-0.0078570181054828,-5892.639048228918,8036.151805441197,5247.780187092506,-6.31913353245084e-05
16444,1724813451595537510,0.9383111000061036,-0.6512331366539001,0.1255657523870468,0.0043670921586453,-0.0028938760515302,0.9718284010887146,-0.2356313169002533,0.0,0.0,0.0,0.911800423526526,-0.7210153404728531,1.5114755397283477,55.208822157,-0.0226142024204914,0.0194056074078686,0.0030134995337077,-3.81433276054716,1.5939183235309566,-0.4576709690815984,-0.0076830197930628,-0.0071244129990785,-2.6658223830163976,0.0056102330483014,0.005211304829686,-0.0037256520139932,670.7543350602822,599.8822135449306,-663.3008727342179,-8.084812229590467e-05
16446,1724813451604741180,0.93836909532547,-0.6511993408203125,0.1255619525909423,0.0043507628142833,-0.0029692004900425,0.9718425869941713,-0.2355720847845077,0.0,0.0,0.0,1.5242630737682596,-0.8683572466370268,1.9401852544890297,55.218025827,-0.0151183915942956,0.0073560826977292,-0.0131534251138885,-4.835986562878674,4.11496202216585,-19.13085695071962,-0.0078213020341754,-0.0070576502691139,-2.665943949491443,0.0235690650910953,-0.0046509116517441,0.0190936877096197,-38.04736155443413,58.24608603436254,-56.63544027751511,-3.3537824453431836e-06
16448,1724813451615236170,0.938823103904724,-0.6513477563858032,0.12599578499794,0.0039335461333394,-0.0037830651272088,0.9723618626594543,-0.233415201306343,0.0,0.0,0.0,-0.1267572522610998,0.631582192948793,0.1105636813228114,55.228520817,-0.1334934032297921,0.1154562686749023,-0.4218581129356624,-7.940416729708748,7.437629427253395,-27.911958687883303,-0.0091936040687673,-0.0058836446195942,-2.6703816211445353,0.0344560073758897,-0.0113325742598098,0.0330031779224317,-6487.055616721819,1981.823957291359,-7590.257369063073,0.0004389007378304
16450,1724813451651504416,0.9389693737030028,-0.6514067053794861,0.1261482238769531,0.0034837962593883,-0.0039444039575755,0.9725815057754515,-0.232502743601799,0.0,0.0,0.0,-1028.736560317057,302.98725860323407,-1204.6468982744072,55.264789063,-0.0030141815246234,0.0264305268022222,-0.0516248317345138,2119.646448541056,274.17890246613445,2091.55661064024,-0.0092927402996236,-0.0049424022611202,-2.672262759428253,-0.1160437802423075,0.1705275393774172,-0.1152411278604859,320753.43078728113,-149554.97024066362,370802.7327076518,0.0001540467140314
16452,1724813451651891031,0.9389240145683287,-0.6513400673866272,0.1261031776666641,0.0034210118465125,-0.0037957802414894,0.9725477695465088,-0.2326471209526062,0.0,0.0,0.0,-903.2896778847804,244.51635011676257,-1059.623922219971,55.265175678,0.8251937343103198,0.1335722841472255,0.7655801217112428,6203.613667762895,-644.5182412781794,11591.103404654436,-0.0089751600457277,-0.0048880596570818,-2.6719672333493865,-0.5179913627393944,0.2888949847240383,-0.5859235155934357,508647.5304661857,-205038.5222856028,590744.0706381362,-4.581172344440344e-05
16454,1724813451652230607,0.938628613948822,-0.6512072086334229,0.1257642060518264,0.003311974927783,-0.0031017763540148,0.9722518920898438,-0.2338926643133163,0.0,0.0,0.0,-675.6338366620229,158.8436578344937,-794.7062205684631,55.265515254,4.143149049548355,-0.3601809515680132,7.528359721737579,8611.863754072714,-1299.230482179427,17601.757369632316,-0.0075808761006113,-0.0049892030077295,-2.669409895475233,-0.7840534599767182,0.3535399449787206,-0.8986747110079172,631903.3797299891,-234910.40366564444,735569.7543895077,-0.0003418841848136
16456,1724813451655169965,0.9385084509849548,-0.6511274576187134,0.1256554126739502,0.0036649634130299,-0.0030671199783682,0.9721124172210692,-0.2344667911529541,0.0,0.0,0.0,201.98116180381697,-89.37372647803045,233.33073363633875,55.268454612,-0.0322504551283973,-0.2405575265255908,0.4011817426907971,-1108.947900973193,37.746830002422,-1905.8540552897216,-0.0076819950461003,-0.0056872679851968,-2.668225280592855,-0.0252242490812975,0.0183234269710101,-0.0211833360046402,228579.5405754504,-63977.38374698407,267818.0039079755,-0.0001101559654568
16458,1724813451665580856,0.9388231635093688,-0.6512615084648132,0.1260185688734054,0.0035572280175983,-0.0035629170015454,0.9724850654602052,-0.2329109013080597,0.0,0.0,0.0,0.7149436003609573,-0.6657163694913024,0.4170323782300494,55.278865503,-0.0886128560347947,0.0436305971795533,-0.3069335678521996,6.481329488900645,12.913692533490476,-12.092097015620178,-0.0085870257904936,-0.00525904206485,-2.6714243578087253,0.0059694438969657,-0.0024339200700786,0.0037621844991848,-9961.240504603138,4409.75074898646,-11491.997630998188,0.0003665443287197
16460,1724813451676532309,0.9386090636253356,-0.6511678695678711,0.1257012635469436,0.0032978826202452,-0.0029557778034359,0.9722256064414978,-0.2340037375688552,0.0,0.0,0.0,-0.4200119726537003,0.2690635045222141,-0.0971343390573635,55.289816956,0.1193999024386861,0.0193551573633742,0.2048973903418316,1.5647865875046183,-4.406020622562506,13.270610518568102,-0.0072909562546151,-0.0050292669553164,-2.669182135725631,-0.0124817900077331,0.0055752758946781,-0.0144697101453319,-1.7923946064320582,23.568087824175727,14.255581578301502,-0.0003193556324715
16462,1724813451685993960,0.938548743724823,-0.6511394381523132,0.125682920217514,0.0034912787377834,-0.0029501696117222,0.972161829471588,-0.2342658340930938,0.0,0.0,0.0,0.3955444326250926,-0.0130355289374998,0.53807008437867,55.299278607,-0.0082706778606162,-0.0402301931298147,0.0568930032283864,-7.910710087891889,-3.174708738787465,-6.134800506237256,-0.0073720337195882,-0.0054059542910959,-2.668641052486796,-0.00611659675954,0.004342203374037,-0.0025739145654828,32.13202409563751,-13.00550663405307,0.7014087287737394,-1.895197971499746e-05
16464,1724813451695254630,0.9384944438934326,-0.6510871052742004,0.125653326511383,0.0037096680607646,-0.0030459542758762,0.9720670580863952,-0.2346541583538055,0.0,0.0,0.0,0.2030749499143817,0.0188852233330701,-0.0575823243296337,55.308539277,-0.030927177983949,-0.041324695789949,0.0862585205474514,1.0814847476344394,1.275147442910189,-0.5556209573380864,-0.0076629248100399,-0.0057826327899993,-2.667839366018984,-0.0049660430704392,0.005284576076086,-0.0041097709381343,-11.527426005647534,0.7031198976030762,-28.536832939565013,-3.028037052744262e-05
16466,1724813451705106181,0.9384549260139464,-0.6510388851165771,0.1256032586097717,0.0037575392052531,-0.0029503812547773,0.9720187783241272,-0.2348544746637344,0.0,0.0,0.0,0.1865172086343144,-0.0029433051172143,0.0363048948185611,55.318390828,0.0167011816517731,-0.0141601714552969,0.0417293836389419,1.4248967407210829,2.18084735868435,-4.214500459129668,-0.0075008034853626,-0.0059190114180272,-2.6674272023546157,-0.0021392481598425,0.0046020782662878,-0.0035424155947332,-7.762180458067557,-0.2866602727759031,-1.0575973024822178,-5.060051879896608e-05
16468,1724813451716136123,0.9384544491767884,-0.6509917378425598,0.1255832016468048,0.0037552318535745,-0.003005898091942,0.9720199704170228,-0.2348489612340927,0.0,0.0,0.0,0.0257991673454199,0.0177176721399936,-0.106112038388685,55.32942077,-0.0096897547005066,0.0027746134734633,-0.0009834523583355,2.1183528402158673,0.2487438317909284,-0.5565146769125076,-0.0076076158242516,-0.0058884906513494,-2.667438299629888,-0.0013221124858588,0.0053888024800485,-0.0034048362289365,-5.24447196857031,-0.5177831943485165,-17.96500400158084,-2.0252538763062553e-05
16470,1724813451725202445,0.9384329319000244,-0.6509345769882202,0.1255405098199844,0.0037291424814611,-0.0028113040607422,0.972000539302826,-0.2349320650100708,0.0,0.0,0.0,0.0477554869053377,-0.0047947790778332,-0.3066460738376202,55.338487092,0.0431332600778582,-0.0045583170772854,0.0186822358927626,4.413188433611373,-0.4135091612908761,-0.0225774023641793,-0.0072175579175017,-0.005928560798795,-2.667268587873723,-0.0014480365008182,0.0051499306991544,-0.0052506127739704,6.432891092956559,-4.814287950004637,-9.21125195385925,-4.308661357501177e-05
16472,1724813451736206470,0.938429355621338,-0.6508933305740356,0.1254754960536956,0.0036556564737111,-0.00241667823866,0.9720155596733092,-0.2348756492137909,0.0,0.0,0.0,0.1721155047681977,-0.0889065497594705,-0.2356185948932506,55.349491117,0.0728229126565661,-0.0038289998550587,-0.0108378480546028,-2.132378519485721,-1.077200621993246,0.4054415966716888,-0.0064155054692489,-0.0059715076955499,-2.667387600825753,-9.921577512983504e-05,0.0053850194232509,-0.0100014097329932,3.556462946161794,-6.10363318655102,21.86084805111146,-6.516369402601455e-05
16474,1724813451744772434,0.9384300112724304,-0.6508362889289856,0.1253625303506851,0.0037191368173807,-0.0023030466400086,0.9720021486282348,-0.2349312752485275,0.0,0.0,0.0,0.1509366915825142,-0.1309205756640066,0.0543702204724936,55.358057081,0.0223471951367567,-0.0206810660624109,0.0132268801388997,-2.975771851401418,1.5779355336963503,-0.39595583113473,-0.0062247735132439,-0.0061479413159547,-2.667273177661463,0.0017054581517754,0.0038881568356678,-0.0107120055139393,-2.7403790048342227,3.773279472485053,21.385517878643327,-0.0001131116334224
16476,1724813451754899913,0.9384667873382568,-0.650830090045929,0.1252836883068084,0.0035013956949114,-0.0022138468921184,0.9720377922058104,-0.2347877919673919,0.0,0.0,0.0,0.1199753272990926,0.0112010555984484,0.1216630521820064,55.36818456,0.027135084861709,0.037749185239739,-0.0291622676869959,0.4340621912594529,1.3327111650517094,-0.6568234751884654,-0.0059481896216007,-0.0057674414087789,-2.667570808355575,0.0025187257370404,0.0030870041356259,-0.0085170797871327,7.237800103610691,8.759846925405753,1.5384093882092835,-7.856726004027941e-05
16478,1724813451766027622,0.9384812116622924,-0.6507654786109924,0.1251799613237381,0.0034691952168941,-0.0020414805039763,0.972029447555542,-0.2348245233297348,0.0,0.0,0.0,0.3263891627477872,0.0442014050008833,0.0763502921560074,55.379312269,0.0314920276527763,-0.0016679044457868,0.0066736573299271,1.5660615465179202,0.1081238235105361,0.5188885699465047,-0.0055981854929507,-0.0057855727243624,-2.667496470184564,0.0043388381578708,0.0043158158951186,-0.0083256028622411,7.572835250991439,6.465074908484411,-10.122320769624336,-0.0001037636651903
16480,1724813451774945592,0.9385416507720948,-0.6507376432418823,0.1251128315925598,0.0033028519246727,-0.0018345265416428,0.9720386862754822,-0.234790414571762,0.0,0.0,0.0,0.3154725556070946,0.1268676286048392,-0.0571616812739713,55.388230239,0.0538524710686645,0.0253856866918887,-0.0080068832443809,0.3451199117729773,0.4566691990186973,-1.7725266037402196,-0.0051175189090409,-0.0055595698370421,-2.6675690948498536,0.0084132722480987,0.0042366778172322,-0.0072220152968567,-5.645692089808071,12.941105747200137,-13.34217361520236,-6.67437717681462e-05
16482,1724813451785887680,0.93865567445755,-0.6506763100624084,0.1250379085540771,0.0032888185232877,-0.0016764927422627,0.9720762372016908,-0.2346362173557281,0.0,0.0,0.0,0.1943344548495238,0.3177622785400256,-0.181283340005261,55.399172327,0.028599563897608,-0.0042143525426206,-0.0290983721615405,-0.8405989647702616,-1.8251596815912747,0.9512807898154096,-0.0048028033561476,-0.0056072622222822,-2.6678872511810594,0.0099667299958881,0.0074472903199236,-0.0102763183075209,-2.363667289472362,-1.047208548885572,9.699614068304982,-7.42074751395094e-05
16484,1724813451796250056,0.9387544989585876,-0.6505810618400574,0.1248977705836296,0.0033200439065694,-0.0014863378601148,0.9720653295516968,-0.2346823066473007,0.0,0.0,0.0,0.2552880111201872,0.1254307919543944,0.1257317977024058,55.409534703,0.0342878369256287,-0.0144916218034846,0.0090102696205749,-1.9382751690813316,1.06139581285685,-1.7861113012848826,-0.004448034505526,-0.0057569965540387,-2.667793201724622,0.0124943602985609,0.0109789559040791,-0.0111946041929575,-11.005678639614963,-21.22625361968479,19.739769101340123,-0.0001395542521881
16486,1724813451804870998,0.9388834238052368,-0.6504735946655273,0.1248179674148559,0.003281278302893,-0.0014962706482037,0.9721115231513976,-0.2344912737607956,0.0,0.0,0.0,0.0392860980581708,-0.0766783065862711,0.2249881331695095,55.418155645,-0.0002605970234613,0.0093843696255139,-0.0455742934423895,-0.9356442222895508,3.27187175923079,-3.462574834077415,-0.0044480324999088,-0.0056778425843425,-2.668186436785862,0.0147766892817671,0.0105155084333148,-0.0085733311001297,-21.863456912777163,-8.752451113684508,11.54506008947733,-7.903539626035206e-05
16488,1724813451815330073,0.939035713672638,-0.6503883600234985,0.1247369721531868,0.0029920740053057,-0.0014096959494054,0.9721682071685792,-0.2342606484889984,0.0,0.0,0.0,-0.1488813353383219,0.0182017267536152,0.3461405482250093,55.42861472,0.0289326188719777,0.0499793514614769,-0.0453838870863196,1.0354297915023165,1.2838225276560735,1.1715323393307964,-0.0041428405034566,-0.0051571487283956,-2.6686633754455458,0.0123267411465093,0.009422689759738,-0.0072235010013841,-7.265688633037293,4.716650878478039,13.969435400505564,-8.012108034560056e-05
16490,1724813451826319731,0.9391453862190248,-0.6502701044082642,0.1246635988354682,0.0027843005955219,-0.0013462284114211,0.9721935987472534,-0.2341581881046295,0.0,0.0,0.0,-0.1048838830360449,0.0197493894423584,0.5272109461724065,55.439604378,0.0200376538893728,0.0340944491906746,-0.0191914940575084,-5.122740990531251,-0.4781589768589347,-3.429299531215982,-0.0039215777676083,-0.0047833158611675,-2.6688757955489404,0.0116762520119522,0.0110394058825775,-0.0009128515400131,-5.5878859631783,-7.884225328732336,-7.342111265076419,-7.286437638720649e-05
16492,1724813451834751970,0.9392548203468324,-0.6501752138137817,0.1246931925415992,0.0026863261591643,-0.0015903917374089,0.9722782373428344,-0.2338060140609741,0.0,0.0,0.0,-0.2140583723952374,-0.0986540684714907,0.311195445512217,55.448036617,-0.0510657066512191,0.0363207750344898,-0.0857158937283063,-0.5401828974622198,0.3779882610419716,-3.3310967271715457,-0.0043488223233136,-0.0044800416063834,-2.669599819396975,0.0104962150582963,0.0103819031084384,0.0032284715010009,-7.871457303469703,-10.095955825389526,-23.17610096775772,3.0071904784333312e-05
16494,1724813451845188631,0.9393323063850404,-0.6500781178474426,0.1247232556343078,0.0024198724422603,-0.0014108998002484,0.972354292869568,-0.2334937453269958,0.0,0.0,0.0,-0.2306430032023566,-0.1530520311435619,0.1008552481057813,55.458473278,0.045243720797915,0.0417378307845148,-0.061600686637036,-0.5167754009971879,0.2069674997565567,1.6960705265955047,-0.0038738805286789,-0.0040470852053656,-2.670244551516571,0.0073047774811456,0.0090851594531713,0.0041520025838632,-1.2646637644822345,-4.284850802588195,-14.398511158896143,3.0321631996540377e-05
16496,1724813451854857682,0.9394018650054932,-0.6499922275543213,0.1247747913002967,0.0022808548528701,-0.001677680411376,0.9724116921424866,-0.2332545518875122,0.0,0.0,0.0,-0.2399650641850093,-0.1861753738727209,0.0131921624069974,55.468142329,-0.0470456444714273,0.0409434867590242,-0.0507064083088916,-1.78073621663295,-0.606785420074655,0.9684935053751408,-0.0043268740228618,-0.0036532147948385,-2.670736527632712,0.005747847120979,0.0073472760459551,0.0052379515225817,-6.530411964490087,7.751772427014267,-21.968765266512108,5.170898074256335e-05
16498,1724813451864572161,0.939443588256836,-0.6499358415603638,0.1248247772455215,0.0021268904674798,-0.0016571088926866,0.9724605083465576,-0.2330520451068878,0.0,0.0,0.0,-0.3577323590936009,-0.0017773909615114,-0.3261519873524235,55.477856808,0.0114338377664053,0.0299284094367918,-0.0428422729901763,3.4899335981865156,-1.288932542444588,1.2063557980144937,-0.0042143345827918,-0.0033642550838167,-2.671153851220184,0.0026462181644504,0.005475837142896,0.0043986864864384,1.9292022811343803,12.702189627941625,-14.96721071295255,5.0064208082615903e-05
16500,1724813451876998517,0.9394502639770508,-0.6498730182647705,0.1248675659298896,0.0020368252880871,-0.0015852600336074,0.9724920392036438,-0.2329219579696655,0.0,0.0,0.0,-0.1103979559668193,0.0562489149591417,-0.1947973656774125,55.490283164,0.0145876427886415,0.0114471109343454,-0.0215439668981351,-0.4292518313806905,-1.393146782455832,5.140855351875499,-0.0040321800639712,-0.003223114594523,-2.671422195601734,-0.002410318533748,0.0084876326499809,-0.0034652261024561,28.79413104788621,-18.26029294657765,30.249437384704088,4.268539668140412e-05
16502,1724813451884646066,0.9394179582595824,-0.649791955947876,0.1248085498809814,0.0020248184446245,-0.0015565409557893,0.9724618792533876,-0.233048066496849,0.0,0.0,0.0,0.1516481515290935,-0.1913178512108971,0.1291554883039179,55.497930713,0.0080901166408087,0.0012359281357868,0.0338997479199264,-2.2335079510058256,-0.1592304048931085,1.8177414931428355,-0.0039711444634738,-0.0032126253055006,-2.671162967922058,-0.0018590012096382,0.0080418072618044,-0.0028932814984132,17.45301898623306,-19.69510304375916,10.697068032848914,-5.933484136638936e-05
16504,1724813451894929390,0.9394315481185912,-0.6497446298599243,0.1248454973101615,0.0019864563364535,-0.00174538011197,0.9724887013435364,-0.2329349666833877,0.0,0.0,0.0,0.09864980556518,-0.2185581785607529,-0.1986682422046801,55.508214037,-0.0340135003947486,0.0158595882781687,-0.0225207367173029,-0.2506559046075255,-0.9814037859822878,-1.2759922595931386,-0.0043201886974119,-0.0030504973004455,-2.6713952016231266,0.0008005290272805,0.0042350664899402,-0.0008133648857402,38.208183404037854,-16.629506803333108,35.1941410138993,3.689360656680441e-05
16506,1724813451905497635,0.9394343495368958,-0.649703860282898,0.1247890442609787,0.0020860517397522,-0.001693980069831,0.9724766612052916,-0.2329852133989334,0.0,0.0,0.0,0.9734005258615568,-0.5461462175996763,0.9017592309346488,55.518782282,0.0050841945031016,-0.0206164577645351,0.0097259283018504,5.498598536262799,-0.5884777696704372,2.11776081991378,-0.0042667863141185,-0.0032679344624162,-2.671291581261557,0.0001055782230707,0.0035721271209681,-0.0072674575171083,66.76546631693978,-27.909380193277613,102.6911193426502,-5.6533350889476325e-05
16508,1724813451914989505,0.9394339919090272,-0.6496723890304565,0.1247036457061767,0.0020138681866228,-0.0013570786686614,0.9724528789520264,-0.2330868393182754,0.0,0.0,0.0,1.4706752436372756,-0.7847327386251519,1.8642587460670008,55.528274152,0.0726133334226364,-0.0017947964726494,0.0218690799246131,-7.644285672569224,6.20651002059755,-19.072045912773717,-0.0035782293899833,-0.0032841553802898,-2.671083839647469,0.018203927814369,-0.0057330101955592,0.0141858786993456,-59.91244727376068,13.369886904594274,-5.396651005016164,-8.545269386672332e-05
16510,1724813451925125283,0.9398159384727478,-0.6498284339904785,0.1250983476638794,0.0016845290083438,-0.0022904938086867,0.9729132056236268,-0.2311533987522125,0.0,0.0,0.0,-0.3520696983998458,-0.2324564555802805,0.6536328566557649,55.53840993,-0.1646063295755822,0.1068264291144145,-0.3917112666554087,-17.13894845975247,7.86365315142376,-29.4248866333505,-0.0052357093685275,-0.0022188919983284,-2.675058938213606,0.0283908802237435,-0.0115698974871789,0.0287963886312591,126.56057838407838,9.396309586586009,655.9359414926222,0.0003969259226604
16512,1724813451962249689,0.9396064281463624,-0.6497377753257751,0.1247879117727279,0.0012673238525167,-0.0014171279035508,0.9726434350013732,-0.2322954982519149,0.0,0.0,0.0,46.008526215690495,-6.014980485601299,130.4374203062378,55.575534336,0.0510420882689538,0.010825897117936,0.0631932792265236,-1245.7050150664004,-4979.936733248895,3912.877335417399,-0.0033455192577165,-0.0018069245687188,-2.672714657783713,-0.1692149174173209,0.0264962172170726,-0.0540659509193233,89339.62268540189,-14379.328334998692,-19915.184461016965,-0.0003112846350181
16514,1724813451962604293,0.9395458698272704,-0.6497282981872559,0.1247685849666595,0.0015887952176854,-0.0014125829329714,0.9725825190544128,-0.2325482815504074,0.0,0.0,0.0,77.98708605030302,-11.16212444624555,123.2961205484691,55.57588894,-0.3949288926995928,-1.7719383626491378,1.4639270285428845,-1511.6318250180852,-1645.134418713052,2059.129130459046,-0.0034866675180644,-0.0024334838447206,-2.672193360287504,-0.15272624576005,0.0243394347332923,-0.0073629555560046,78673.16284523712,-13007.190357874755,-49871.57654644988,-1.9572608358476945e-05
16516,1724813451962990920,0.9394944310188292,-0.6497198939323425,0.1247856095433235,0.0018219008343294,-0.001573140732944,0.9725161194801332,-0.2328232526779174,0.0,0.0,0.0,103.55320003571296,-15.55537099091728,91.48081283221102,55.576275567,-1.086426670729166,-0.982191736292678,1.4629036834005398,-1361.3742118094888,1792.6013135078394,-144.09411332313564,-0.0039081965897047,-0.0028111320767076,-2.671626398312189,-0.1093007146064053,0.0178824670683539,0.036762106734054,50109.07281131039,-8777.912241098471,-77979.38445027704,1.6785832034026423e-05
16518,1724813451964870321,0.939505934715271,-0.6497215032577515,0.1247882694005966,0.0016721674473956,-0.0013600357342511,0.9725385308265686,-0.2327320128679275,0.0,0.0,0.0,51.400348314524585,-8.435642263911568,-15.698175897768436,55.578154968,0.257505967983958,0.1023588875097769,-0.1001412396954993,600.0434907080235,485.8227151001141,-701.2088444913046,-0.0034237265362,-0.0026194498327288,-2.6718152930505985,0.0052352858896558,-0.0008881951503543,0.0017887274393966,-24225.83824486906,3322.2855751444336,-47920.45359980611,2.707535332889495e-06
16520,1724813451975088652,0.9395102262496948,-0.6497323513031006,0.1248272955417633,0.0016897727036848,-0.001368690165691,0.9725589752197266,-0.2326467484235763,0.0,0.0,0.0,-0.3702176816410478,-0.3777131490872266,0.6397274520333256,55.588373299,-0.0024718021160107,-0.0029275774482531,-0.0171633693079058,-21.05080189087057,-8.53550547364531,6.799771040551094,-0.0034485230034906,-0.0026499676862948,-2.6719906472203445,0.0003077844380796,-0.0008652052131687,0.0030852105861718,-5098.2083573147065,2375.19387985562,-2599.799889274248,3.9062961752183304e-05
16522,1724813452024144353,0.9394989013671876,-0.649728536605835,0.1248057782649993,0.0018195619340986,-0.0013609802117571,0.9725279808044434,-0.2327749282121658,0.0,0.0,0.0,-257.9478728938164,489.79459621846746,-1115.703242581002,55.637429,-0.0009182412695596,-0.0052287169873289,0.0053686923954645,-12676.500433894576,91.33872130894385,-1521.963719525546,-0.0034943013324545,-0.0029055497334681,-2.671726304303988,0.0085239461245691,-0.1088771477197951,0.1552457458932963,14291.306241624055,-652039.0005369622,1835608.533089516,-2.1571177304125575e-05
16524,1724813452024387853,0.9395009875297546,-0.6497551798820496,0.1248437687754631,0.0019055344164371,-0.0017287918599322,0.9725378155708312,-0.2327307611703872,0.0,0.0,0.0,-254.44431992722645,330.2229210913917,-666.486410900701,55.6376725,-3.1029678657979964,0.0171227168997442,-0.3670695833397644,4245.908645881959,-557.3526968877386,3339.755892282267,-0.0042496145500413,-0.0029017265388752,-2.671815713351882,-0.0545983377216998,0.0109824987339379,-0.117780261945569,364457.9893754865,-1137627.3293471616,2851124.418373758,3.806537853463925e-05
16526,1724813452024642987,0.9394701719284058,-0.6497201919555664,0.1247405260801315,0.0018673446029424,-0.0014076094375923,0.9724851846694946,-0.2329530864953994,0.0,0.0,0.0,-67.87671954796329,-88.95536514346692,329.9380688209294,55.637927634,2.5208922093554613,-0.2986088568248424,1.7866894552811887,4223.264505980151,-2981.2053454671536,3166.695768483434,-0.00360778982949,-0.0029761203893265,-2.6713595765311577,-0.1182366512027783,0.0519234350526858,-0.1662526589395554,716879.1412570411,-1155790.8404869367,2543322.596150855,-0.0001034390443484
16528,1724813452024893798,0.9394411444664,-0.6497281789779663,0.1247576102614402,0.0020709193777292,-0.0014639886794611,0.9724472165107728,-0.2331092804670334,0.0,0.0,0.0,108.38032398256108,-258.7201674396574,631.9725020026524,55.638178445,-0.8134661233181614,-1.4762549791615005,1.28032541483287,-9954.440775529698,-3231.0275770372477,-1862.4221052263729,-0.0038128350563652,-0.0033451871125446,-2.671037044790174,-0.090496643705876,-0.0318857759541515,0.044693057643883,541546.185735423,-457556.4311773791,748547.7106103242,1.6962264693780035e-05
16530,1724813452025761045,0.9394383430480956,-0.6497559547424316,0.1247261315584182,0.0019657656084746,-0.0012355885701254,0.972434103488922,-0.2331663966178894,0.0,0.0,0.0,94.63068183397314,2.110495241471478,-85.32876062234773,55.639045692,0.5689692917727468,0.1127787854255431,0.1344026666485367,1495.049660790885,1720.906291069426,-1241.9273067418303,-0.0033197814916622,-0.0032469652704348,-2.6709208730960334,-0.0031640846423162,-0.0300569414377762,-0.0342135108453351,-15319.177519310528,282569.55492443696,-776714.2750500108,-3.144940337201564e-05
16532,1724813452039240132,0.9394095540046692,-0.6497482657432556,0.1247015073895454,0.0021410370245575,-0.0013290251372382,0.9723867774009703,-0.2333615124225616,0.0,0.0,0.0,0.2604009497802866,0.6582620558250709,1.2449264515960838,55.652524779,-0.0194973491196393,-0.022106504625132,0.0297852854601451,-13.716726860822972,-1.8065685494576784,-6.840559983345385,-0.0035839543908269,-0.0035435529689881,-2.6705183414925684,0.0006762597821818,-0.0012503894656745,0.0006230089515142,-2568.718279586253,-94.40178840231974,2242.8823211741014,-2.4773776331456455e-05
16534,1724813452046941861,0.939427137374878,-0.6497659087181091,0.1247170865535736,0.0021349338348954,-0.0013041417114436,0.9724037647247314,-0.2332910001277923,0.0,0.0,0.0,-0.0172458712504495,-0.0100994390260138,0.1246114673357692,55.660226508,0.0066198566414756,6.69746107834358e-05,-0.0188463072866293,1.0971975030047831,2.318669211954239,-4.616178536631974,-0.0035324558435062,-0.0035435537645677,-2.67066351081433,0.0025739359911582,-0.0026885981311544,0.0043161711090169,-26.53098793831229,-46.3497424340108,-100.41322841241195,1.5689848488938186e-05
16536,1724813452058034669,0.9394603371620178,-0.6498020887374878,0.1248016059398651,0.0020675563719123,-0.0014217334100976,0.972459316253662,-0.2330591678619384,0.0,0.0,0.0,-0.159464994305491,0.1217165947073112,-0.2694971478332562,55.671319316,-0.0178585177402326,0.0168347139181947,-0.042920659870395,2.3332490971805826,-0.9161610358455612,7.067448566838967,-0.0037289114070501,-0.0033585392144639,-2.671140282144323,-0.0018295727605988,2.152855430637146e-05,2.8034481784899867e-05,14.300390003995304,-10.425302198842427,4.053966442896865,8.47390030817354e-05
16538,1724813452065679997,0.9394209384918212,-0.6497846245765686,0.1247618198394775,0.0020569481421262,-0.0013307136250659,0.9724061489105223,-0.2332816272974014,0.0,0.0,0.0,0.0927753618818737,-0.0755369009355632,-0.029933451263435,55.678964644,0.0239021113964479,-0.0029621039057814,0.059788351995474,2.435327174115932,-0.7122910793728681,5.070003376171805,-0.0035477123441503,-0.0033795223959566,-2.6706831187189266,-0.0017972576317646,0.0003060933379863,-0.0014154755473017,16.695247593305126,-17.623215802339846,17.951978459596422,-3.999613027397525e-05
16540,1724813452076901435,0.939456045627594,-0.6498137712478638,0.1248083338141441,0.001946396776475,-0.0013490908313542,0.9724339246749878,-0.2331664711236953,0.0,0.0,0.0,0.0116957511542489,-0.1386121339973414,-0.0489027889253961,55.690186082,0.001375863841191,0.0199614818554046,-0.0210798711826244,-2.50645712957512,-1.7015486406956195,2.225863521984685,-0.0035314972512592,-0.0031563642568486,-2.670920417786717,0.0007022350010288,-0.0023986889442397,0.0008653594973857,-8.166557315236362,-1.4893950065034058,-4.564670163124836,4.671845683842246e-05
16542,1724813452085157505,0.9394471049308776,-0.6498323678970337,0.1247955560684204,0.0020351686980575,-0.0014230428496375,0.9723811149597168,-0.2333855330944061,0.0,0.0,0.0,-0.0614446897523514,-0.125812215092804,-0.1040479492295945,55.698442152,-0.0223488780148781,-0.0168312575173318,0.0545927845719855,-1.6082256771859489,-2.929947673378308,5.452445139174306,-0.003717466575088,-0.003293689942543,-2.670469218789109,-0.0004831719750484,-0.002920917935663,-0.0010700861240233,-5.054625959629594,-0.5225224207843007,2.676502553829529,-1.2785113583737016e-05
16544,1724813452103571979,0.9394628405570984,-0.6499136090278625,0.1247954666614532,0.002107533160597,-0.0014056338695809,0.9723756313323976,-0.2334078997373581,0.0,0.0,0.0,0.0017296591440025,-0.2205716934694622,0.3295013949586315,55.716856626,8.369636389964669e-06,-0.008088401510327,0.0024861196203023,-0.3694084539790567,-1.4365428134580327,1.5934552124580696,-0.00371746860924,-0.0034424624757555,-2.6704228967416226,0.0017588155416774,-0.00780707355716,0.0023688463185624,-4.8335974810340305,15.692847774887955,-7.169518933811407,1.2756791514788425e-07
16546,1724813452110598115,0.9394776225090028,-0.6499775648117065,0.1248184740543365,0.0021926222834736,-0.0014100521802902,0.9723544716835022,-0.2334952056407928,0.0,0.0,0.0,-0.054387233632824,-0.0544458267516619,0.1967889518783694,55.723882762,-0.0068323396413191,-0.0233057361116269,0.0255396905959421,0.4584085090049521,1.0030389758704947,0.1640573932076776,-0.0037661080498238,-0.0036055391284384,-2.6702428351717726,0.00144920720534,-0.0092368142048187,0.0050666598452995,-0.2911086994456551,19.631887472327207,-17.40057554334969,2.318973353684131e-05
16548,1724813452118964735,0.9394832253456116,-0.6500561833381653,0.1248787194490432,0.0021138826850801,-0.0013804421760141,0.9723587036132812,-0.2334783524274826,0.0,0.0,0.0,0.0198489584700127,0.0698347770354687,0.0660278843126565,55.732249382,0.0112699640462158,0.0166571565322066,-0.0041424922492473,1.7635305503715055,1.5187095831827966,-1.11367378667385,-0.0036716919304217,-0.0034663046661815,-2.670277984013276,0.0008913333809061,-0.0082074482068996,0.0048482786481764,4.608146706113361,5.957454928829582,-11.429434471751224,6.040472427369197e-05
16550,1724813452130632747,0.9394972324371338,-0.6501325964927673,0.1248970106244087,0.0021848916076123,-0.0012116122525185,0.9723280668258668,-0.2336062788963318,0.0,0.0,0.0,0.0042203453500855,-0.005424571459748,0.0010032426638507,55.743917394,0.0253363346789163,-0.0186331028634621,0.0224697286382031,-9.16160967659347,1.6353204404469708,2.7790672097377143,-0.0033770073146389,-0.0036827907314659,-2.6700150593552436,0.0025309152970436,-0.0082582536835502,0.0071178313813025,-9.13459581373884,15.563320781241414,-33.37949764707204,1.8460429480078847e-05
16552,1724813452136592357,0.9395163655281068,-0.6501870155334473,0.1249563246965408,0.0022117346525192,-0.001391781726852,0.9722996354103088,-0.2337233424186706,0.0,0.0,0.0,-0.0739464158104051,0.1543345739767144,-0.2825676972159578,55.749877004,-0.0608204957232663,0.0052971651998983,0.0405486375699511,-3.166956702827756,1.9500460933174764,1.8015259935160215,-0.0037403594040072,-0.00365036194523,-2.669773520180232,0.0021411781948685,-0.0082938400193839,0.006534781646911,-1.7330757646780737,18.02162930579999,-25.639889166037264,5.949902067639516e-05
16554,1724813452144877271,0.9395217895507812,-0.6502460837364197,0.1249710991978645,0.0021792948246002,-0.0012168200919404,0.9722598791122437,-0.233890026807785,0.0,0.0,0.0,0.0427990127575819,0.2024569596037379,-0.2422722411872041,55.758161918,0.042972180132299,-0.0023346781673688,0.0412840316940939,1.186709670796212,-1.2949412840194352,-0.4822701049579221,-0.0033855906098181,-0.0036684859058623,-2.6694314331089077,0.0014300638252322,-0.0051688692110865,0.0020660571571058,10.779536030413368,-9.29076795595372,18.270191084274465,1.4879937045363086e-05
16556,1724813452155004238,0.9395458698272704,-0.6502741575241089,0.1249955222010612,0.0023790812119841,-0.0016137848142534,0.972224235534668,-0.2340335696935653,0.0,0.0,0.0,0.1109677586362695,-0.0785370159273099,0.1087025080270503,55.768288885,-0.0853980201539622,-0.0200752195665778,0.0293315195290993,-2.5020051637616247,0.8066576543902853,-0.8965944879107093,-0.0042515358080989,-0.0038706508485662,-2.669133568866578,0.0034557625651885,-0.0052815172065621,0.0032903572837525,2.4713230653052123,-26.39722704304555,14.21079464002988,2.4609015384382425e-05
16558,1724813452164882718,0.9395903944969176,-0.6503505110740662,0.1250364929437637,0.0023326040245592,-0.0016865496290847,0.9721974730491638,-0.234144777059555,0.0,0.0,0.0,0.0943301123309522,-0.3262939887774126,0.0520578422758883,55.778167365,-0.0120757671075764,0.0125469753427834,0.023208010541018,4.871208760751457,1.94680185932217,-0.7575969595023779,-0.0043716972670577,-0.0037457186617852,-2.6689048659267507,0.0036937421047014,-0.0067069456202943,0.0042466844539479,-4.417678602237006,-4.9474846845676534,-6.18976928262713,4.1374154897492274e-05
16560,1724813452179995735,0.9396274089813232,-0.6504282355308533,0.1251029670238495,0.002249902812764,-0.0016867293743416,0.9721825122833252,-0.2342076748609542,0.0,0.0,0.0,-0.0356351873927414,0.064435470938772,-0.0520228030731702,55.793280382,0.0025555178697143,0.0106270002518081,0.0085743260574856,10.124917363163698,-6.002097040124101,16.517242298368977,-0.0043335480187537,-0.0035845500843526,-2.6687759771029325,0.0067433810041279,-0.015846254369606,0.0039987273656763,0.2479449289529713,34.79457108764878,19.535369575868653,6.68371919262567e-05
16562,1724813452184632048,0.9396647810935974,-0.650516927242279,0.1251209378242492,0.0022731241770088,-0.0015325244748964,0.972122848033905,-0.2344560474157333,0.0,0.0,0.0,-0.0219017402831545,0.238470492221179,0.076129836252557,55.797916695,0.0625216034766025,-0.0255567521985316,0.1100232728990867,6.520218651755148,-5.660438547365308,14.050618360744634,-0.0040455382743088,-0.0037009010842031,-2.6682653822921494,0.0062404744369324,-0.0145957491675581,0.0037068764421763,4.052422726713867,19.900308114421954,20.64250311841993,1.83322831864383e-05
16564,1724813452196065301,0.939684808254242,-0.6505559682846069,0.1251585483551025,0.0024970914237201,-0.0017364148516207,0.9720551371574402,-0.2347329258918762,0.0,0.0,0.0,0.0551705494034847,-0.0312753850196514,0.1148186531222185,55.809349948,-0.0437655597299625,-0.0298250347784692,0.0498817528323614,-2.121875031213131,4.12118337753402,-6.5977064512125185,-0.0045481338918277,-0.0040394446007282,-2.667693607899259,0.0084308636902648,-0.0127503180463008,0.0084985666972876,-16.984395440724313,0.0161416659990329,-23.294212504649312,3.780941144556812e-05
16566,1724813452204910704,0.9398050904273988,-0.6507326364517212,0.1252693682909011,0.0023504516575485,-0.0018328017322346,0.97207373380661,-0.2346566915512085,0.0,0.0,0.0,-0.2574236552639436,0.1304324618166538,-0.2737942101023531,55.818195351,-0.0134375457421696,0.0373857300785979,-0.0176303813459904,3.824988885849684,-0.058913033867507,0.3778356346224374,-0.0046663843058077,-0.003709474763441,-2.6678510805954945,0.0079853749741971,-0.014345558755167,0.0074318877741301,-13.211180619411037,11.89499744895385,-17.8130648213096,0.0001119057010456
16568,1724813452215048940,0.9398208260536194,-0.6508126854896545,0.1252854913473129,0.0025712605565786,-0.0016241045668721,0.9719789624214172,-0.235048159956932,0.0,0.0,0.0,-0.1342272952971344,0.1768146118456374,-0.1508626794353738,55.828333587,0.029946270231119,-0.052189543985651,0.0792799976230645,0.5062934002191654,-3.1905405312091077,4.267781890235829,-0.0043659840906529,-0.0042349494145695,-2.667044933224944,0.0029695127199786,-0.0094119392321303,0.0028758757378613,28.03820995018027,-18.54272509725221,23.645924806000306,1.6369397007143694e-05
16570,1724813452226749099,0.9398747086524964,-0.6509432792663574,0.1253364980220794,0.002667058026418,-0.0016924053197726,0.971899151802063,-0.2353765368461609,0.0,0.0,0.0,0.4083358392539672,-0.3522899222786593,0.2813549576992621,55.840033746,-0.0150748707260339,-0.0132985699334777,0.0577692664217217,-1.3595252663925554,0.6480542899994848,-0.6241873992089402,-0.0045452797528905,-0.0043875319381195,-2.666368359508806,0.0062670277218757,-0.0115265955780685,0.0051416748996668,14.550684369063864,-22.154081266830083,14.980832976032314,5.1593574661922105e-05
16572,1724813452236488123,0.9399492144584656,-0.6510584950447083,0.1253929138183593,0.0028116158209741,-0.0016988705610856,0.9718281030654908,-0.2356678694486618,0.0,0.0,0.0,0.2920800809734776,-0.3810465435655517,0.2492297806048371,55.84977277,-0.0081429757045309,-0.0286797477354579,0.0615342374385449,-2.7443950119802105,0.7186680444891245,0.4426546049333879,-0.004627302173514,-0.0046640930387368,-2.6657677701437588,0.0112693123455542,-0.0163482644093235,0.0085927432836783,-30.706640369943656,23.524340279817295,-19.61837697020805,5.71091579077406e-05
16574,1724813452244887865,0.94007009267807,-0.6512285470962524,0.1254853755235672,0.0028912746347486,-0.0019232333870604,0.9717625975608826,-0.2359352260828018,0.0,0.0,0.0,-0.101826187764304,0.0083684677723007,-0.0337903134447531,55.858172512,-0.0562337994956217,-0.0059949330182096,0.065658617934662,-0.5455625494435988,1.1140870719218,0.8449792776530374,-0.0051022383870438,-0.0047117655247679,-2.665216027282762,0.012117639451219,-0.0187227722187266,0.0099246179649972,77.13411961027404,-35.66791698755052,75.23449317416436,9.365204742485489e-05
16576,1724813452255696567,0.9401694536209106,-0.6514097452163696,0.1255775839090347,0.0029619403649121,-0.0018519992008805,0.9716606736183168,-0.2363541573286056,0.0,0.0,0.0,2.456956500530266,-1.5180478426871111,2.2944304525624686,55.868981214,0.0099115332313359,-0.0160199365274454,0.0797149000438871,2.0229910854384725,-0.2844746538939369,-0.0075952321562704,-0.0049992437844464,-0.004880565895142,-2.664353502499007,0.0081960945632921,-0.0145841506308741,0.006884059805754,94.93998725323446,-59.00456702366106,75.76044105641533,9.326347866226852e-05
16578,1724813452270767308,0.9402720332145692,-0.651583731174469,0.1256467252969741,0.0030923313461244,-0.0021755560301244,0.9715669751167296,-0.2367347776889801,0.0,0.0,0.0,0.9082115549498512,-0.6796450396599099,0.501847740592833,55.884051955,-0.0456848209236278,-0.006795183447435,0.0521137929687619,-39.46883062000953,78.88957801895982,-165.59084826383184,-0.0056916228018754,-0.0049787750468631,-2.663567601097789,0.1044771183990462,-0.0774075142187058,0.0955877357846013,-603.5212625869053,377.1907057820865,-588.2161157124534,7.034222643318673e-05
16580,1724813452275079725,0.940843105316162,-0.6519988179206848,0.1261712312698364,0.0023283041082322,-0.0029340470209717,0.97200745344162,-0.2349203675985336,0.0,0.0,0.0,-2.312345242746064,1.343755498320919,-2.6138555085373585,55.888364372,-0.2600423155930685,0.4300021469479891,-0.8640582633749179,-29.78948610286553,67.86650111525806,-138.11515777833188,-0.0067978492926398,-0.0031477282827722,-2.66730534816959,0.1016310275457001,-0.0760331817547204,0.0911082166256815,-565.172262121995,355.1635075337693,-537.4984377241249,0.0005297768259777
16582,1724813452287263811,0.9410213232040404,-0.6522291302680969,0.1262307167053222,0.0016085481038317,-0.0027154793497174,0.9719924926757812,-0.2349906414747238,0.0,0.0,0.0,-2.9456948203218776,1.745355790003988,-2.7943767228373906,55.900548458,0.0626480269491887,0.1063717349320283,0.0120524799321167,11.711525065667644,-15.650649054724328,32.35463769403748,-0.0060348855526728,-0.0018507699500504,-2.667166758929158,0.0165755469948862,-0.0243736495495454,0.0050388343080456,164.58725814068782,-102.45923664426256,185.64078896668556,6.131065389698282e-05
16584,1724813452295798950,0.9411744475364684,-0.6524698734283447,0.1262746602296829,0.0013757138513028,-0.0024458558764308,0.9719416499137878,-0.2352052479982376,0.0,0.0,0.0,-0.2460547894472609,0.0611746407691864,-0.0113756251486533,55.909083597,0.0742795178119888,0.0380285804227381,0.0517254744809514,-4.890611191936198,-7.037533990235777,6.246445641796458,-0.0054016411651459,-0.0015236714944741,-2.666727130840971,0.0155599077103261,-0.0243917752617761,0.0067169898959376,169.485223103509,-109.76515269149635,165.2709595998815,4.5517306027125466e-05
16586,1724813452305909269,0.941303253173828,-0.6526708006858826,0.1263613551855087,0.0015392579371109,-0.0026671634986996,0.971781313419342,-0.235863596200943,0.0,0.0,0.0,-0.2907542828507365,2.7102554304603288e-05,-0.2661228100534427,55.919193916,-0.0500579623656395,-0.0215093898364528,0.1340199995653235,-1.7925169255339688,-2.1355932659293457,6.430125485844619,-0.0059099524035027,-0.0017334715188732,-2.665370975030297,0.0115505221587,-0.0230152069108982,0.0041110139313094,-20.26855055624383,2.3551034856441877,-39.521833485398254,8.813638336007137e-05
16588,1724813452315391217,0.9414021968841552,-0.6529169678688049,0.1263606399297714,0.0015461202710866,-0.0025376202538609,0.9715801477432252,-0.2366921156644821,0.0,0.0,0.0,-0.6238644877482595,0.0970840606080233,-0.7682544598545813,55.928675864,0.02636755511755,-0.0083828062018412,0.1797878851134821,1.387504003430409,-0.5760842776741659,3.6211223199927858,-0.0056629513513626,-0.0018030910865594,-2.663665769678218,0.0097345293248096,-0.0242254832340549,0.0015132312482517,-18.222775228999183,9.871430869383484,-38.22611324574477,7.345565578145276e-07
16590,1724813452326181823,0.941498637199402,-0.6531570553779602,0.1263964772224426,0.001797896111384,-0.0027027537580579,0.9713180661201476,-0.2377618104219436,0.0,0.0,0.0,-0.6128684573745408,0.1991262557106285,-0.9998488866341236,55.93946647,-0.04059919852597,-0.0386733235243578,0.2040558702864477,8.49678521456354,-2.3960281095287845,17.7478794121556,-0.0061054619827203,-0.0022074364874311,-2.661461474796716,-0.0023064715766381,-0.0204183024040602,-0.0128464361479823,72.54815946252762,-14.85449608177932,56.91676127045981,3.735262844110416e-05
16592,1724813452335504080,0.941386580467224,-0.6533326506614685,0.1261465102434158,0.0018788734450936,-0.0019320356659591,0.9707688689231871,-0.2400012016296386,0.0,0.0,0.0,0.6395193612667313,-0.1351456501784909,0.1619888759377111,55.948788727,0.157022261289598,-0.0576989024413001,0.4943298010597118,5.833911111030221,0.6723019771068715,5.980208974597545,-0.0046530179344754,-0.0027205252913272,-2.656850377044291,-0.0039686920800008,-0.0197998313047449,-0.0195022497608157,88.62327038200128,-18.13824385087073,87.54208440916507,-0.0002499757235971
16594,1724813452344921083,0.9414258003234864,-0.6535282731056213,0.1260324120521545,0.0019185076234862,-0.0016051535494625,0.9704163074493408,-0.2414247840642929,0.0,0.0,0.0,1.0391583395492885,-0.1373963107172214,0.6335613176428607,55.95820573,0.0657976432532001,-0.0255581436487656,0.3113291866859701,-6.859875654128059,3.8743640585129473,-15.88713333443624,-0.0040417135101007,-0.0029484587414801,-2.6539175375702655,0.0098334070175312,-0.0229892064841052,-0.009644053750244,-13.517438246793134,15.448015766567783,8.469343508728079,-0.0001134921165562
16596,1724813452354829054,0.9415823221206664,-0.653779149055481,0.1259626299142837,0.0017995401285588,-0.0014968002215027,0.9701879620552064,-0.2423424571752548,0.0,0.0,0.0,0.3219182309493765,0.179192042828005,0.2837379222511348,55.968113701,0.0273039902178772,0.0176378654515417,0.1908839405499854,-5.659436418021112,0.4449573560537438,-7.001268870692829,-0.0037765884935096,-0.0027663113809556,-2.652026970477177,0.01568330393102,-0.0222522087908778,-0.0076750965548084,-63.01872108711726,20.07628022692426,-34.28299809685385,-6.861146364116085e-05
16598,1724813452365068731,0.941741704940796,-0.6539745330810547,0.1258773505687713,0.0019550689030438,-0.0017200325382873,0.9699714183807372,-0.2432050853967666,0.0,0.0,0.0,-0.2241994404379306,0.259082537092275,-0.056469572304955,55.978353378,-0.0494234965371476,-0.0192338757819909,0.1737473091005359,-5.845557245880234,-0.0103519738946755,-3.703553590769383,-0.004287762073124,-0.002956084898375,-2.650247076426038,0.0161381909641207,-0.0193082136815405,-0.0038700590043196,-39.808420206550295,6.019623879980022,-34.2163446507197,-8.407420092766206e-05
16600,1724813452375959271,0.9419240951538086,-0.6541874408721924,0.1258868426084518,0.0019610517192631,-0.0022471472620964,0.9698249101638794,-0.2437842637300491,0.0,0.0,0.0,-0.5010768549637159,0.3039940280952402,-0.4405930942198558,55.989243918,-0.0940010197811116,0.0222415383344116,0.1099005609984491,4.139676636569753,-1.232041915471966,7.794857883724266,-0.0053148703937247,-0.002708118643536,-2.6490513588084372,0.0105851338954323,-0.0168159175008781,-0.0094432462373319,10.152978082054291,-10.42334303422851,32.582304687973796,1.1109897446378124e-05
16602,1724813452384703824,0.9419733881950378,-0.6543152928352356,0.1257318407297134,0.0020597954280674,-0.0022239722311496,0.969532072544098,-0.2449460178613662,0.0,0.0,0.0,-0.1624945676755638,0.1107040509867095,0.320754210695858,55.997988471,5.4366731482395015e-06,-0.0239231710780012,0.2739579622832279,5.216068515555612,-2.779839440319688,3.1416720101640356,-0.0053215497528284,-0.0029045732611658,-2.646654707028297,0.006265373034239,-0.01363000426797,-0.0127964424399777,25.542441448801178,-15.40606560678138,63.01449179260085,-0.0001543261055132
16604,1724813452395137624,0.942046582698822,-0.6544451713562012,0.1256596893072128,0.0021873018704354,-0.0022704885341227,0.9693880081176758,-0.2455140054225921,0.0,0.0,0.0,-0.0600324663194453,0.0333458498290342,0.6788171380955302,56.008422271,-0.0144686883092158,-0.0218113312433745,0.112285535138348,-0.4751201471971668,1.4854219683015208,-10.02634546681359,-0.0054760493224812,-0.0031258200283754,-2.6454819239337484,0.0086969024575083,-0.0156324383909165,-0.0006827192444545,-12.696813254760125,15.590951917102624,-26.97872892029066,-7.132576230711393e-05
16606,1724813452405468547,0.9421536326408386,-0.6546392440795898,0.1257163882255554,0.0021659436170011,-0.0023299718741327,0.9693058729171752,-0.2458374798297882,0.0,0.0,0.0,-0.4215302508739203,0.429735783981471,-0.226901835121459,56.018753194,-0.0100470474891917,0.0066585199415425,0.0646440119668715,1.0772543894429123,0.3045516074373825,-1.085053360228745,-0.0055819060892291,-0.0030533396538303,-2.6448144244763614,0.0050788197696078,-0.0129837073734151,0.0013977309407868,-10.08138510301845,18.892874905035793,-50.05756794483765,5.7939833843154926e-05
16608,1724813452417023627,0.9421440362930298,-0.6547142863273621,0.1256796717643737,0.0022697206586599,-0.0022402158938348,0.9691668152809144,-0.2463849037885666,0.0,0.0,0.0,-0.2160717246040901,0.3963258817004783,-0.3191982528891929,56.030308274,0.0107918597698218,-0.0215028807029909,0.0976835527037449,1.136492671538172,-3.065847720165752,1.2711626457559635,-0.0054607924133712,-0.0032955710951389,-2.6436842966315988,-0.0007136470340185,-0.0057776864139711,-0.0067593889052695,20.021353480635952,-11.135911766954692,22.33666464868745,-3.652660286709121e-05
16610,1724813452425577176,0.942138671875,-0.6547591686248779,0.1255991756916046,0.002465934259817,-0.002119165379554,0.969062566757202,-0.2467938065528869,0.0,0.0,0.0,-0.0306315813642703,0.2488723607237027,0.0638628732655495,56.038861823,0.0162899933167821,-0.0517075136326377,0.0985008540104347,-2.344015271516835,-1.521631988961656,-3.590719896687679,-0.0053244245515111,-0.0037333040572601,-2.642839389633766,-0.0007559016502582,-0.0038268727733878,-0.007040977594702,8.546144534020275,1.949567634558477,20.810251814437255,-8.039590784019529e-05
16612,1724813452434947149,0.9421302676200868,-0.6547804474830627,0.1255575269460678,0.0027135086711496,-0.0022320004645735,0.9690303802490234,-0.2469164878129959,0.0,0.0,0.0,-0.0853636202472322,0.4640960902608535,0.0127812786941452,56.048231796,-0.0363308993736714,-0.0453378992782442,0.0270188271551517,-1.2655966435419062,1.9831070876384556,-4.542178536875635,-0.005665851841199,-0.004156721217998,-2.642583873110611,-0.0013066253419573,-0.0012814301771264,-0.0054491664482436,-3.5255884959321415,12.5265694935258,-7.575004372191618,-4.163764523466737e-05
16614,1724813452449652616,0.9421015977859496,-0.6547764539718628,0.1254542171955108,0.0025313938967883,-0.0019339728169143,0.968974232673645,-0.2471413165330886,0.0,0.0,0.0,-0.0837663868728573,0.4072911347694219,-0.1476183936881363,56.062937263,0.0454592483825581,0.0139040309670921,0.0314614152530921,-6.860635261495528,-5.785013525348226,-8.689483526039686,-0.0049992235126653,-0.0039497920112629,-2.6421223436663843,-0.0031755705891498,0.009984586281007,-0.0088870113455001,3.2662012014330477,-19.29938646034355,6.734554342577269,-0.0001034856766506
16616,1724813452455205935,0.9420813918113708,-0.6547006368637085,0.125400960445404,0.002648810390383,-0.0019573853351175,0.9689983129501344,-0.2470454722642898,0.0,0.0,0.0,-0.0590062445020612,0.2677429736341906,-0.0732215224074517,56.068490582,-0.0186917562875521,-0.0388023952294464,-0.035650634170568,-7.580754286581332,-6.131535234409833,-8.180859400137926,-0.005102225821625,-0.0041662712830621,-2.642319234373318,-0.0035498926704331,0.0114939106313567,-0.0095260907245036,1.9509783869375945,-23.047829146147517,14.04947050915399,-5.356724068681876e-05
16618,1724813452471061762,0.9420291185379028,-0.654616117477417,0.1252528131008148,0.002445149468258,-0.0016749961068853,0.96897691488266,-0.2471335083246231,0.0,0.0,0.0,-0.1415966683786456,-0.003491345983392,0.1790904803467272,56.084346409,0.0408858523757096,0.0160641396737158,0.0113830375428502,-5.501162115424555,-3.8804120655138226,-3.151446962647298,-0.004454670650037,-0.00391070141581,-2.642139951913562,-0.0041052559543004,0.015556081449418,-0.0087920532266778,8.544974061428954,-66.23165330084883,11.032554280808498,-0.0001486079290273
16620,1724813452475414481,0.9420102834701538,-0.6545361876487732,0.1252152025699615,0.0024622632190585,-0.0016573874745517,0.9689820408821106,-0.2471132278442382,0.0,0.0,0.0,-0.0879683378033173,-0.3504791309502877,0.221280567178244,56.088699128,0.005877693543405,-0.0095976831849713,-0.0096444749810553,-3.976497440168495,-4.13670803847499,-2.922093917126576,-0.0044289220956848,-0.0039526632335627,-2.6421817151679465,-0.0048489282095474,0.0152305857763224,-0.0078538444735918,17.596836594312176,-63.76245468864013,5.380676271030402,-3.7874636553055835e-05
16622,1724813452485186488,0.9419514536857604,-0.6544560790061951,0.1251557171344757,0.0024484794121235,-0.00137741479557,0.9689778685569764,-0.2471313923597335,0.0,0.0,0.0,0.1997396698751844,-0.6235370044450901,0.1792587892274304,56.098471135,0.0562284635190549,-0.0114345128978256,0.0036769528934984,0.8228597125777135,1.1265213933637566,-0.4158861248855686,-0.0038796029319932,-0.0040642510403242,-2.6421453076021497,-0.0038902046900304,0.0057572728911061,-0.0055656692471313,11.875420116054416,7.345436091413425,-10.366178691803029,-5.992059075217636e-05
16624,1724813452496081149,0.9419349431991576,-0.6544229984283447,0.1251014173030853,0.002342979889363,-0.0013332120142877,0.969008445739746,-0.2470128685235977,0.0,0.0,0.0,0.1157488414701358,-0.1148890015564027,-0.0073561139524019,56.109365796,0.0126035449906372,0.01680473250187,-0.0224635661193432,-2.6497644564837546,0.4860535535890561,-1.3058556979582487,-0.0037413166905641,-0.0038821033049954,-2.642390769456137,-0.0004796751264137,0.0031654104215448,-0.0042795044271271,-13.840507718888112,26.52380715716096,-14.55520311354427,-5.443206908170102e-05
16626,1724813452506327359,0.9419400095939636,-0.6543893218040466,0.1250643581151962,0.0023376415483653,-0.0013422128977254,0.9690404534339904,-0.24688720703125,0.0,0.0,0.0,-0.0851458534221378,-0.0374281139344995,-0.1316895360680213,56.119612006,-0.0014942193170302,0.0014910407546703,-0.0253059723995682,0.1987178435385299,0.326280699491501,0.8835014352812848,-0.0037556216961957,-0.0038677977084775,-2.64265010154216,-0.0011949131919877,0.0031736312217134,-0.0055633788336493,-14.946386806794724,5.5384585080727975,-12.604142132303192,-3.708106983159418e-05
16628,1724813452516510637,0.9419107437133788,-0.6543581485748291,0.1249880045652389,0.0022022982593625,-0.0012901335721835,0.9690465927124025,-0.2468647509813308,0.0,0.0,0.0,-0.1901829567980526,-0.0014874776422387,-0.2647933645227742,56.129795284,0.0164656696740189,0.0232420042248757,-0.0045597524458188,3.1336866235374083,-1.7635298342202743,2.103031879837052,-0.0035877700588912,-0.0036312902232067,-2.642697432127853,-0.0022172364024868,0.0024055702760463,-0.0069690527786185,-16.440548650862194,26.071517185918665,-19.293181276532987,-7.654016082234814e-05
16630,1724813452526270391,0.9418952465057372,-0.6543408036231995,0.1249249354004859,0.0022740445565432,-0.0009705462143756,0.9690266251564026,-0.2469439804553985,0.0,0.0,0.0,-0.4079392278619984,0.46381978039662,-0.5112930351112034,56.139555038,0.0598646511969072,-0.0304447324067648,0.0165803254137028,4.298084712342926,1.0108852032771871,2.6949931775638327,-0.0030041211671561,-0.0039278884534811,-2.642534644250051,-0.0049132626413097,0.0030826411863031,-0.0107390257819721,-9.30414847607056,59.23226759894117,-39.77130156818579,-6.315726650236761e-05
16632,1724813452536035247,0.9418147802352904,-0.654297947883606,0.1247782856225967,0.0019491290440782,-0.0005480488762259,0.968969464302063,-0.2471722513437271,0.0,0.0,0.0,-0.3717100638790355,1.155117396337082,-1.0414606620265527,56.149319894,0.1003825802663381,0.0430456064716495,0.0480643370847287,4.247106001242276,-0.1713381509972826,1.8507878986363948,-0.0020256403175235,-0.0035063752871745,-2.642066358800261,-0.0101834349489564,0.0114654965777241,-0.016953125877225,16.21757771549136,20.75398361260916,-10.975667586611896,-0.0001469785437003
16634,1724813452549038227,0.9416487216949464,-0.6540263295173645,0.1245243400335311,0.0022786566987633,0.0005908726016059,0.9688904285430908,-0.2474789768457412,0.0,0.0,0.0,0.0557314660585828,0.5585354313183601,-0.4341342164438169,56.162322874,0.1573000303152388,-0.0924609854468059,0.0483493152591292,-15.325156963974958,1.5846461294782888,-0.3398456295112408,1.7142549569353017e-05,-0.0047080118169734,-2.6414364631447698,-0.0121079037988351,0.0316218499802545,-0.0375092530738445,135.3059396877233,-104.88382365170554,221.1542193504064,-0.0002540101074273
16636,1724813452555100305,0.9415771961212158,-0.6538043022155762,0.1242461428046226,0.0024158777669072,0.0006528528174385,0.9688560962677002,-0.2476118803024292,0.0,0.0,0.0,1.165461950256787,-0.2440329009683622,1.39954033794072,56.168384952,0.0087151091378441,-0.0489240430017946,0.0452667392360519,-14.180048489089014,8.086278027363477,-1.5120327541782688,6.864165104610431e-05,-0.0050046049229063,-2.641162058941379,-0.0111942670319393,0.0322052989164625,-0.0369001012968164,135.5067346832178,-52.526621108013416,184.77439809240468,-0.0002779589434281
16638,1724813452565531474,0.94147127866745,-0.6535477042198181,0.1240226179361343,0.0020951793994754,0.0008195741684176,0.9688416719436646,-0.2476706355810165,0.0,0.0,0.0,1.7253946119855077,0.6415637339826228,1.2141841704921816,56.178816121,0.0462247492252502,0.0516590024171441,0.0114819147510628,5.0712887804768405,13.156863233898305,-32.353919326998934,0.0005502519028168,-0.0044657779788305,-2.6410420967235972,0.0191767596786505,0.0235520310239039,0.0010156980197768,-101.07787252658864,67.07090602490709,-155.18087714060186,-0.0002232358079151
16640,1724813452575498397,0.941941738128662,-0.6533229351043701,0.1242464855313301,0.0009118398884311,0.0010938523337244,0.96956467628479,-0.2448312044143676,0.0,0.0,0.0,-0.7558409740688304,1.1402705680290566,-1.6411071986282308,56.188783044,0.1108203387733007,0.2162604611661317,-0.5882599233518244,12.287696621267376,-7.843054561055432,-0.4590800094209619,0.00167463267822,-0.0023037958990244,-2.646902887018475,0.0250773325830522,0.0439564451990008,-0.0099355011570647,-185.8660257907692,-29.23485845677077,-138.72903989173747,0.0002250236758912
16642,1724813452584533942,0.9419870972633362,-0.6527504324913025,0.1238913461565971,0.0008504214929416,0.002334235003218,0.9696764945983888,-0.2443794459104538,0.0,0.0,0.0,-1.9185328460739073,0.2267925827709629,-1.684368713170773,56.197818589,0.2694102274982174,-0.0541256720787113,-0.1032774255565261,-1.356709684686171,-7.986802697093317,33.10418610727949,0.0041112821493911,-0.0027901491980216,-2.647837460049794,0.0072073336356268,0.0468304632587965,-0.0292063211815003,-10.070690158360788,-48.77212812082091,49.45504220006748,-0.0003522823042595
16644,1724813452595493360,0.942095160484314,-0.6524569392204285,0.1237054988741874,4.91345017508138e-05,0.0021504422184079,0.9696954488754272,-0.2443073242902755,0.0,0.0,0.0,-0.4522398435238116,0.3878460697798229,-0.4213224093355014,56.208778007,0.0031923136981357,0.1499627279502912,-0.0139205870909519,-4.43661395695378,-17.157803607901954,35.335932752354886,0.0041465548327885,-0.0011460288251634,-2.647983220222563,-0.0130315742670248,0.0481025128785219,-0.0417053375172642,171.87343849902516,-42.61781160208517,150.0490287722419,-0.000184717737349
16646,1724813452605023014,0.9417812824249268,-0.6518218517303467,0.123102992773056,0.001341218361631,0.0030907795298844,0.9690515995025636,-0.2468353360891342,0.0,0.0,0.0,1.501205252178652,-0.4932084326997554,1.2969723021940798,56.218307661,0.1254366704718832,-0.3100331707543468,0.5480641799302011,-1.0212630732855812,-17.161003453260307,3.9362751957078914,0.0053282000718686,-0.004125258505746,-2.6427744266960285,-0.0057860715119346,0.0540506090992352,-0.0397611401753401,78.25207827271093,-63.14816279015621,91.46221846804264,-0.000598604562307
16648,1724813452614752023,0.9419946670532228,-0.651421070098877,0.1229492053389549,0.0021602518390864,0.0031882766634225,0.9690027832984924,-0.2470197826623916,0.0,0.0,0.0,1.003731972242957,-0.8164963746401181,1.3043224857804656,56.22803667,-0.0220553577900552,-0.1680020706312022,0.0397139108283287,1.9015051996609689,18.52610368547978,-24.58953146026079,0.0051117551524085,-0.0057617467857621,-2.6423965638848275,0.0161781234628364,0.0381538092008924,-0.0162870541705304,-79.96604109329431,38.10555422509981,-44.49892190574113,-0.0001503215069969
16650,1724813452625099224,0.9420987367630004,-0.6510597467422485,0.1227753981947898,0.0015893826493993,0.0040310970507562,0.9688852429389954,-0.2474724203348159,0.0,0.0,0.0,-0.1409910896224832,0.3628059962190537,0.3458731478910156,56.238383871,0.1853764794675484,0.0669107988051445,0.089686315217945,12.049207570083908,3.5559554234273483,0.5294796306382517,0.0070248323909403,-0.0050750512618811,-2.641464358744994,0.0127655493498721,0.038701264302368,-0.014989324798913,-40.56701508377924,62.96148761726141,-36.03417573317377,-0.0001705810768599
16652,1724813452634763955,0.9422465562820436,-0.6506515741348267,0.1226468533277511,0.0016509447013959,0.0051913764327764,0.9688125848770142,-0.2477347403764724,0.0,0.0,0.0,0.0994280868848371,0.5108161794831556,0.5085082084983741,56.248048602,0.2296292529073501,-0.0715677972940315,0.0559856075521665,-5.843430820743204,-4.050078673996457,-2.6582813201496593,0.0092412343519653,-0.0057711126279812,-2.640928914828983,0.0131073969338544,0.045005216283581,-0.0096564482875267,22.897727728694893,21.99353132307575,-20.822045870939583,-0.0001240049260738
16654,1724813452644831096,0.9423555731773376,-0.6501694321632385,0.1225878521800041,0.0015974703710526,0.0054967165924608,0.9687635898590088,-0.2479200065135955,0.0,0.0,0.0,0.3091987008278599,0.8022668960018253,-0.0959168794815774,56.258115743,0.0615120130818119,-0.0045605525518681,0.0379142853297956,-11.20240543302949,3.854951138460149,-4.8541346896694355,0.0098582747439143,-0.0058206671569939,-2.6405476692084617,0.0147800796502721,0.0486644141103731,-0.0049910630014888,14.168383903307276,15.9687717046282,-53.32094005750366,-5.3440253260903714e-05
16656,1724813452656028000,0.9425702691078186,-0.6496149301528931,0.1225427985191345,0.0015693177701905,0.0055166576057672,0.9688391089439392,-0.2476243823766708,0.0,0.0,0.0,0.3847914679997093,0.819397953577754,-0.6092783282705962,56.269312647,0.0045388194483665,0.0037197989601914,-0.0545327876724014,0.6507154486486995,5.893498071177724,0.5973430542944569,0.0099126321042281,-0.0057729827913631,-2.641157817882345,0.0200235642816508,0.0631117393050288,-0.0130307977697547,-10.872997855286147,-57.1090113652068,12.388784180817408,-3.862610309393232e-05
16658,1724813452664739281,0.9427504539489746,-0.6489730477333069,0.1223682388663292,0.0011368609266355,0.0056267352774739,0.968826949596405,-0.2476719170808792,0.0,0.0,0.0,0.1706265335888928,-0.0755173238832154,-0.1066559577560387,56.278023928,0.0491032462788873,0.0899905165047225,0.0106771824283796,4.371428254594121,3.090411182441609,3.34581603822501,0.010339841472231,-0.0049900323424524,-2.64105688997296,0.0228096317287764,0.0670582559860655,-0.0176013206800202,-19.039788898748,-58.52207570918667,64.2494047867614,-0.0001672937379188
16660,1724813452675030887,0.9430110454559326,-0.648363471031189,0.1222167238593101,0.0008340936619788,0.0060010831803083,0.9688312411308287,-0.2476474642753601,0.0,0.0,0.0,0.0420959772533526,-0.1402886142051969,0.6342312064004536,56.288315534,0.0850427695911859,0.0389600830267377,-0.0052241802281795,-0.2995086801575255,-1.3911910422297438,2.315826776505478,0.0112153045485646,-0.004588514161959,-2.641106311967828,0.0227516304721504,0.0598545925830507,-0.0136165426870471,-2.0730304725814204,2.1244788363782696,48.09183579992864,-0.0001445172423838
16662,1724813452685690577,0.9432252049446106,-0.6477185487747192,0.1220837831497192,0.0004553192702587,0.0061234515160322,0.9687482118606568,-0.2479702681303024,0.0,0.0,0.0,0.1349987895808497,-0.0246987944289296,0.883023057764825,56.298975224,0.039986959925197,0.0635163263819922,0.0620898589658067,-6.158226514297301,-1.4370371364139716,2.936681239662524,0.011638706267815,-0.003919057318537,-2.640436805078775,0.0237273639769526,0.0645384041936552,-0.0041282367831678,-7.057076694110023,-9.022103259572145,-15.067818287034871,-0.0001255950367124
16664,1724813452694793533,0.9434694647789,-0.6470996737480164,0.1221110597252845,0.0003979810862801,0.0059621538966894,0.9686784148216248,-0.2482466250658035,0.0,0.0,0.0,-0.0518493898714854,-0.2612542622080624,0.4472995201095858,56.30807818,-0.0310855915458162,0.0213565253916653,0.0625621417724524,3.416025777536136,-1.81615013069309,-2.4351410598651793,0.0113535475941929,-0.0037312091991203,-2.6398650590150905,0.0252941215617426,0.0607059103294105,0.003854785705883,-32.16009921926734,16.075240239242596,-55.69054488263585,3.401070960855095e-05
16666,1724813452705680846,0.943724811077118,-0.6465335488319397,0.1221642047166824,-9.310826499131508e-06,0.0067133223637938,0.9686682820320128,-0.2482674419879913,0.0,0.0,0.0,-0.5534778730490727,0.4614684338475849,-0.2609056373104503,56.318965493,0.1522539529698947,0.0382426644042102,0.0036653756721451,12.29548719113247,-0.2349795262607159,3.9815139136648496,0.0130110266322245,-0.0033153666099393,-2.639820116356992,0.0218132791231084,0.0599418864450598,0.0031297432039423,-20.483462284324332,40.361120546624896,-15.984205078427385,5.96448075163751e-05
16668,1724813452714931117,0.9439136981964112,-0.6459166407585144,0.1221793889999389,-0.0003688903525471,0.0077197086066007,0.9685291647911072,-0.2487800419330597,0.0,0.0,0.0,-0.5418250912089904,0.6303110137028325,-0.0231477186969423,56.328215764,0.230275521259671,0.0220324112814871,0.1143043239942128,-1.108059144088534,-3.0946578024937788,8.85426492225238,0.0151377230840079,-0.00312646182502,-2.6387599772252828,0.0148562316363722,0.06838898631554,-0.0008108641229656,78.04944508349304,-36.59657867652975,88.93727037697792,2.343369913745376e-05
16670,1724813452725237116,0.94400292634964,-0.6451923251152039,0.1221428737044334,-0.000376098731067,0.0082978541031479,0.9683065414428712,-0.2496265769004821,0.0,0.0,0.0,1.1442686313374084,-0.3766447851785295,1.6195115214216946,56.338521763,0.1092859381033701,-0.0252731266843296,0.1698885622999887,-15.943260930907474,-0.4396752223385679,-1.4596466184243653,0.0162583123168415,-0.0034143787418596,-2.6370134004146046,0.0116865038834674,0.0716370857235659,0.0035762025917698,81.33205429611607,-52.528465245104805,55.53351858310897,-2.5441339628933967e-05
16672,1724813452735030406,0.9441455602645874,-0.6444781422615051,0.1222441494464874,-0.0003101719194091,0.0078793447464704,0.9681975841522216,-0.2500624060630798,0.0,0.0,0.0,1.1751551660874695,-0.4706471165241703,1.1968824524783437,56.348315053,-0.0859695230386996,0.0090451974009364,0.0918188912643005,-10.65268446365394,15.935321317827055,-29.299655855726023,0.0154133460283274,-0.0033400466151254,-2.6361128803402045,0.0364035160586766,0.0615104433464708,0.0305464410609488,-111.42449598089846,23.336865807892025,-129.55584463155944,0.0001114012834863
16674,1724813452744848615,0.9447179436683656,-0.6439865827560425,0.1227429434657096,-0.0015723395626991,0.0070539945736527,0.9686962366104126,-0.2481442540884018,0.0,0.0,0.0,-1.0466503806000582,0.0826696636717612,-0.9255843215096596,56.358133262,-0.0991658383749203,0.2878627383900336,-0.4057859016528772,2.4691139992149926,-1.710881502065314,-0.7523946534431962,0.014447194109284,-0.0004545776251805,-2.6400544617700374,0.0346657553723233,0.0624351043085624,0.0269711617131998,-172.9138456447704,94.91506636027856,-142.94116971432177,0.0005013287348861
16676,1724813452754938643,0.9448226690292358,-0.6432283520698547,0.1227679625153541,-0.001321816118434,0.0069372709840536,0.96856689453125,-0.2486529946327209,0.0,0.0,0.0,-2.2378332572645885,1.440196763367955,-1.6084595602561211,56.36822329,-0.0347121315694156,-0.0416103516976302,0.1043593152264102,6.182538817121133,-6.719081960576334,20.975629820126205,0.0140962415000815,-0.0008894118608433,-2.6390074823465506,0.015087229301038,0.0631499075362036,0.0118102457924562,-38.84683950585133,104.83849725768869,-27.269804220679053,3.407810753147754e-05
16678,1724813452767313114,0.945080816745758,-0.6426289677619934,0.1230557113885879,-0.0029959767125546,0.0067547676153481,0.968692421913147,-0.2481541931629181,0.0,0.0,0.0,-1.5164624011551706,2.2867418115232683,-1.3326656110606652,56.380597761,0.0386775047619033,0.2688260842300262,-0.0850445552975197,-6.450579849078825,-53.46360655130673,66.11706181464584,0.0145740725016948,0.0024519145169509,-2.6400121189062733,-0.0171189049810323,0.1017530723201929,-0.0097006700706092,182.03556796608584,-167.79659988009195,96.65575575832904,0.0002923062922709
16680,1724813452775147838,0.9447582960128784,-0.6415672898292542,0.1228162422776222,-0.0008545971941202,0.0070111085660755,0.9678797721862792,-0.2513145208358764,0.0,0.0,0.0,0.5235440586823195,-0.1995914165940862,-0.206493863864161,56.388432485,-0.0732778278625752,-0.5396918219638464,0.836859196926879,-12.992109492797445,-37.4602024345046,41.21702098051888,0.014001847674566,-0.0018696931938415,-2.6335166356899338,-0.0236121072930899,0.115537809049222,-0.0181294601814689,188.45528978747012,-221.12526201040797,107.89473836135446,-0.0002238222522251
16682,1724813452785050023,0.9447441697120668,-0.6406731605529785,0.1227923557162284,-0.000192211009562,0.0062318826094269,0.9675264358520508,-0.252692848443985,0.0,0.0,0.0,1.4895082390985404,-1.1849674826343195,0.4132749738459411,56.39833467,-0.1856893086708871,-0.0879227820429287,0.2881853045569206,11.5067564583934,27.5390820311134,-27.679829080593976,0.0121565093405191,-0.0027775694409031,-2.6306745086968437,-0.0015033449106667,0.0890436995652734,-0.0092943361001704,12.491612180121855,20.364910500161074,18.848028291813694,-1.3139490756647362e-05
16684,1724813452795758421,0.9447271823883056,-0.639734148979187,0.1226131319999694,-0.0004427490930538,0.0072831758297979,0.9670944809913636,-0.2543129622936249,0.0,0.0,0.0,0.6382688574057472,0.4213009059308685,0.1085745840951326,56.409043068,0.2022419511802576,-0.0024415741056031,0.3128937921373021,8.53031057593023,3.1876906071750577,-4.256198898807307,0.0143127786819106,-0.002848055481944,-2.627324593894035,0.0058403749880966,0.0936162881940205,-0.0104153567077762,-51.30198293923179,35.341411977504734,-9.46642952309663,-0.0001661107244128
16686,1724813452805030927,0.944840967655182,-0.6388185024261475,0.1225673109292984,-0.0004537746426649,0.0075614033266901,0.9668316841125488,-0.2553019821643829,0.0,0.0,0.0,0.3889184314603541,-0.1716135171954347,0.1732538948917913,56.418315574,0.0589597515735857,-0.0113830181506026,0.2207280740049757,-12.991648822253577,-2.980318111791541,-3.5091275062077134,0.0148535200345041,-0.0029834395364326,-2.6252796046665026,0.0113771665420827,0.0974769674814908,-0.0076962953943313,-13.992360269782722,-38.060473613752976,19.679221704866823,-3.317925954436548e-05
16688,1724813452815302935,0.9449476599693298,-0.6378316879272461,0.1224569082260131,-6.034394391463138e-05,0.0074162953533232,0.966494619846344,-0.2565797567367553,0.0,0.0,0.0,0.3919698741869519,-0.2680441553315322,0.5199591160477817,56.428587582,-0.046489404280041,-0.0649376814555803,0.2578571120422358,-0.0818973920115615,-0.9599457236289104,-0.8864555786039183,0.0143671772104309,-0.0036891066888351,-2.622640926078252,0.013002971302825,0.0890234815528749,-0.0072819714430991,-1.1011355941211427,31.25503899693312,15.960590329259636,-9.669300735241028e-05
16690,1724813452826014318,0.94511616230011,-0.6369568109512329,0.1224176213145256,-2.714536435632908e-07,0.0077980379574,0.9662191867828368,-0.2576038241386413,0.0,0.0,0.0,0.3645579274159998,0.5207018359839104,0.4921922472669834,56.439298965,0.0663816586054673,-0.0277080478041729,0.1980873494859578,17.35379913044819,16.381738071744376,-3.0956618530556064,0.0150700596427997,-0.0040170950337751,-2.6205237334384885,0.0198117748297761,0.0923505564489488,0.0036446934894645,-21.4868629698511,12.66482394177392,-38.78138564979695,-2.6775600216337312e-05
16692,1724813452834611521,0.945314645767212,-0.6360892057418823,0.1224994137883186,-0.001124499249272,0.0086648650467395,0.966000199317932,-0.25839364528656,0.0,0.0,0.0,0.0492237962342541,0.2088620062337343,-0.0909353903163271,56.447896168,0.2626104799115195,0.2021847356880697,0.1886161859674613,-0.7626336184206632,6.387424345126924,-0.1697893357115809,0.0173225619949276,-0.0023053611748731,-2.61887418908809,0.0210752603361967,0.0982768274683039,0.0042334520901192,-20.68051237199399,-55.32185921080501,-17.953699444815193,9.447996154314868e-05
16694,1724813452845337930,0.9455137848854064,-0.6350703835487366,0.122474156320095,-0.0010216489899903,0.0083511294797062,0.9657263159751892,-0.2594261467456817,0.0,0.0,0.0,0.0414987905132666,-0.6394827591573544,0.3839452807386123,56.458622577,-0.0612380823095585,-0.0016839982005327,0.1992660766206701,-15.982939721111045,-10.847197039434596,-1.81608663142912,0.016660713086815,-0.0023597382431225,-2.616737400315909,0.0202951940495452,0.0940871531368898,0.0011245608689449,-6.449410322914936,-2.8131496176422397,38.881553084929905,-1.0616370278317429e-05
16696,1724813452856047734,0.9457496404647828,-0.6340723037719727,0.1225234046578407,-0.0007448652177117,0.0079783024266362,0.9655215740203856,-0.2601996660232544,0.0,0.0,0.0,-0.0888370168921061,0.1460275597665461,0.7427167449395582,56.469332381,-0.0804747281267297,-0.0306088426810464,0.1497793792334109,2.643477980174291,-0.0988110242904561,-7.388737517202357,0.0157947884710113,-0.0027135397089093,-2.6151387958773693,0.0219610468494906,0.0845769980207826,0.0124414259773715,-25.30016646836778,135.64865244568742,-28.07490318807973,6.29134964452737e-05
16698,1724813452868447890,0.9460210800170898,-0.6331472396850586,0.1227902844548225,-0.0008029042510315,0.0080655347555875,0.9654910564422609,-0.2603101134300232,0.0,0.0,0.0,-0.5910801279751635,2.7226045821562668,-0.4894564474451317,56.481732537,0.0160461921086446,0.0055231611992485,0.0184162104142942,17.788258787477208,-3.0376779585099625,12.602889181827928,0.0159931494165961,-0.0026486898841059,-2.6149093958905425,0.0173507929644785,0.1012334042051392,0.0171435254041494,16.548626560987884,-25.337460908529977,-63.02126229385737,0.0002793047324223
16700,1724813452876939267,0.9461420178413392,-0.6321327686309814,0.1229103952646255,-0.0008180005243048,0.0090504679828882,0.965194821357727,-0.2613742649555206,0.0,0.0,0.0,-0.1188202360117213,1.1519069318757102,-0.8132500837767458,56.490223914,0.2252658944118272,-0.0548773099500624,0.2603136844784247,-12.614647406939758,-5.850442852970046,20.202027976612932,0.017899582950684,-0.0031520643127661,-2.612707227436895,0.0110565971606817,0.132372680647542,0.0079363874146149,58.750185200452165,-284.2070893767812,7.82991523255,0.0001366177889139
16702,1724813452884786028,0.9462056756019592,-0.6310005187988281,0.122927650809288,-0.0003107681986875,0.0086008422076702,0.9648310542106628,-0.262729674577713,0.0,0.0,0.0,0.3649016930858038,-1.797733609652794,-0.4185366799186894,56.498070675,-0.1438479925469636,-0.0916283175444926,0.3587560815577047,-20.924332552757132,6.194303020761176,1.6271683222591058,0.0167609288776857,-0.003919725368385,-2.609904910204843,0.0146374995566418,0.1231730837993403,0.0035203601141713,6.207346060729316,-212.31012884816155,29.76293789134448,3.553386054133358e-05
16704,1724813452895034381,0.9464430212974548,-0.6300209164619446,0.1229814141988754,-0.000869600335136,0.0083999326452612,0.9645217657089232,-0.2638682425022125,0.0,0.0,0.0,-0.3135293623815675,-1.7838421100970765,-0.3884401291693159,56.508319028,-0.0087264146054026,0.1174534607423219,0.229288763759189,7.368727789540239,7.4532073450686545,-4.8540878198651285,0.0166635899814707,-0.0027554575138928,-2.607535319650837,0.0171530508421966,0.0963792898386906,0.00116178873595,0.6550295809838396,171.78726436333304,38.62465995275296,6.77291892362349e-05
16706,1724813452905740905,0.946559488773346,-0.6289801597595215,0.1229481697082519,-0.0011356123723089,0.0083535118028521,0.9641469717025756,-0.2652351260185241,0.0,0.0,0.0,0.4412583381071144,1.961712196675104,0.4242716849291624,56.519025552,0.0051142308918225,0.0524224363313927,0.2643267390334136,1.0878684509847645,-5.0919929331963365,0.6553987069844869,0.016711254579362,-0.002241496928869,-2.604696381769098,0.0075438557866078,0.0865710251808451,-0.0047676531798677,56.76898851059656,195.3593384303375,45.47093178036128,-1.7873330659478337e-05
16708,1724813452920016090,0.9466037154197692,-0.6279467940330505,0.1228484660387039,-0.0011431133607402,0.0084735304117202,0.9637208580970764,-0.2667751312255859,0.0,0.0,0.0,0.9903386866634448,1.8102485388792149,0.4940568331234982,56.533300737,0.0167445535684961,-0.0015765461548596,0.2238689428781305,-47.53332990725987,11.068603820943416,12.093356320848637,0.0169430005528329,-0.0023177720724358,-2.601501353193493,0.0393241018111893,0.1693492384675892,0.0199051744074907,-140.79524537918107,-628.3219571509921,-114.18217977645568,-8.373957189717666e-05
16710,1724813452924887270,0.9468554854393004,-0.6269606947898865,0.1229901239275932,-0.0011257799342274,0.0077315173111855,0.9635263681411744,-0.2674993872642517,0.0,0.0,0.0,0.0065327418544408,-2.2771890473324725,-0.2600660256093293,56.538171917,-0.2951636027808832,0.0770266700184013,0.307590524185154,-32.08868377831351,8.51023014134016,8.937875914042891,0.015501983337446,-0.0019669162522795,-2.5999971610267467,0.0420938588259502,0.1715375487735215,0.0202601200439369,-62.27765076608357,-27.494935449979096,-164.77019498696612,0.0001541510005157
16712,1724813452935975245,0.947080135345459,-0.6258385181427002,0.122992143034935,-0.0012348404852673,0.0085932528600096,0.9632245302200316,-0.2685575485229492,0.0,0.0,0.0,2.8415437651703046,17.902118738111042,-2.3383379002109814,56.549259892,0.1552350113766646,-0.0210877133973765,0.1984915468352528,27.078571002623917,-1.4035248467006305,-14.189609964527332,0.0172186092521441,-0.0022367104162035,-2.597800402784056,0.0279803173850226,0.0774761795795413,0.0089736671873459,-206.5846792707135,-275.1832566638832,-120.7401172600962,1.8280253970771843e-05
16714,1724813452957790880,0.9480218887329102,-0.6251668930053711,0.1235652640461921,-0.004559576511383,0.0095351645722985,0.9640671014785768,-0.2654487192630768,0.0,0.0,0.0,-21.50686345343638,-78.02824244299427,-2.109669735445067,56.571075527,0.1647216689858213,0.2678587535456706,-0.2977852042056726,238.39385455829145,138.1714387484513,4556.80987095632,0.0208073904981111,0.0037292896194783,-2.6041845623834203,0.2665706657544433,1.6005415786020194,-0.0987149430578142,-2136.931757184717,-14107.281299358116,1122.9306278628806,0.0005706683237389
16716,1724813452958446077,0.9482009410858154,-0.6240873336791992,0.1234981268644332,-0.0046931761316955,0.0096107628196477,0.9638234972953796,-0.2663265764713287,0.0,0.0,0.0,-22.927062446075,-87.46236121090725,-1.3520384425247882,56.571730724,0.3255991104199695,0.3608465412366171,2.7779384653293597,224.48440571755972,124.89369441647516,4362.1125906624375,0.0210277048862058,0.0039275938451101,-2.6023598353710917,0.251841016907842,1.5465084763336154,-0.100041570469103,-1937.3487953302815,-13333.83595576046,1132.1334174455044,-5.235690913467992e-05
16718,1724813452967441375,0.947818636894226,-0.6226713061332703,0.1228979676961898,-0.0016618730733171,0.0092651797458529,0.9626528024673462,-0.2705753147602081,0.0,0.0,0.0,-11.919711221079572,-75.87061995548174,5.842229755118596,56.580726022,-0.2554860237818654,-0.6188289182094896,0.9859222440029108,-19.114725363825013,-11.578280384276644,-139.5087885431888,0.0187387536303482,-0.0018142453046009,-2.59360359197403,-0.0094513538138727,0.1430254427727533,-0.0291219056509337,1780.4726896352076,6706.896429098711,-29.82601686258493,-0.0005729267084083
16720,1724813452975478206,0.9479799866676332,-0.6216251850128174,0.1229338869452476,-0.001510969013907,0.008962083607912,0.9623361825942992,-0.2717103362083435,0.0,0.0,0.0,6.387703545666835,16.937280128544,-0.3544620833838805,56.588762853,-0.0825101290612663,-0.012994057731216,0.2934478890104742,17.454832018033233,57.409107029567025,-67.40377704604778,0.0180711847959446,-0.0019620624536311,-2.5912475242595954,0.0177390265694281,0.1088072079902255,0.0031696085297041,997.3740742878822,5215.284669342767,-17.642014389880615,5.184394765536617e-05
16722,1724813453000969356,0.9482432007789612,-0.6205784678459167,0.1229095980525016,-0.0015828181058168,0.0093845091760158,0.9620131850242616,-0.2728369534015655,0.0,0.0,0.0,-71.72513559165111,-362.121323161924,60.10974804056616,56.614254003,0.0335198684340755,-0.0027499375666832,0.0919488231558696,-1429.994524624215,164.93157306228017,15082.313611077898,0.0189209153457256,-0.0020754995010285,-2.588905287135575,0.4234891285491358,2.254225512009498,-0.3593862343290652,-7271.659175618028,-39411.17425012891,6551.704832620977,-8.438451148606523e-06
16724,1724813453001422172,0.948438286781311,-0.6195399165153503,0.1227439790964126,-0.0015451667131856,0.0092462487518787,0.9615783095359802,-0.2743709981441498,0.0,0.0,0.0,-75.05170171310981,-380.16473284038767,63.110085222866154,56.614706819,-0.6255435454025073,0.0732571398170157,7.042842438671145,-1281.303918954333,150.5692765170334,13602.83873728734,0.0186310013492763,-0.002102208954627,-2.585716225187069,0.3903058730140785,2.086661418224036,-0.3315696722746213,-6486.496283385496,-35444.820684635524,5892.195497547987,-0.0001495724739149
16726,1724813453005379509,0.9485813975334167,-0.6184371113777161,0.1226140782237052,-0.0018507521599531,0.0098322480916976,0.961334764957428,-0.2752005457878113,0.0,0.0,0.0,-70.98152364365185,-368.1798199540094,61.05071501285058,56.618664156,0.3276436264938797,0.0713154499524562,0.4359378731702805,184.3940315251055,-0.1019133324653278,-1313.3291077968563,0.0199241722392873,-0.0018532963578683,-2.5839858426106423,0.0320958502601342,0.232370547706699,-0.0237222557527911,1886.509109654132,7947.855855505909,-1334.079411985978,-0.0001114343498031
16728,1724813453019659108,0.9488301277160645,-0.6175047755241394,0.1227443814277648,-0.0025652907788753,0.0100056985393166,0.9612590074539183,-0.2754531502723694,0.0,0.0,0.0,0.166366094766805,-1.212935808543083,0.0743394688099208,56.632943755,0.0509345845750126,0.0898906244842413,0.0359928135126937,-32.20564146268738,-6.861639449480795,38.599936251215006,0.0206508417764552,-0.0005803846633794,-2.583445968492347,0.0251478618841645,0.1476644232652262,-0.0145363595263727,1464.1391011799712,7485.349327432825,-1242.9392698496372,0.0001442945851723
16730,1724813453025605582,0.9489988088607788,-0.616422712802887,0.1225993484258651,-0.0024938646238297,0.0094927651807665,0.960910439491272,-0.276685357093811,0.0,0.0,0.0,0.1603553388705456,-1.803155223506788,0.1795715181882798,56.638890229,-0.1723406756310362,0.0288753781689373,0.4304678351953135,-22.72386905703301,-3.047905395624782,31.809807541574337,0.0196246876965625,-0.0004602571605141,-2.5808832521768705,0.0277540121089927,0.1521374655137286,-0.0155031886075889,62.8751485719855,-134.462004587428,56.843751722763486,-0.0001284523767298
16732,1724813453035240695,0.9492566585540771,-0.6154225468635559,0.1225887089967727,-0.0027907250914722,0.00860564596951,0.9606517553329468,-0.2776083648204803,0.0,0.0,0.0,1.7635418851685716,-3.64835235214717,1.338427417301217,56.648525342,-0.1598634899287423,0.1121141468837217,0.1979159968501388,1.653952141260027,-1.214955016215023,-14.199795407935277,0.0180845038910945,0.000583831337077,-2.5789563099926096,0.0249603233176145,0.0948697891135665,-0.0084312470896321,84.56106372237909,42.671121388853656,10.457618963438412,1.7348478947917829e-06
16734,1724813453046579300,0.9495156407356262,-0.6144660711288452,0.1223953440785408,-0.0023873799946159,0.0079180598258972,0.960391402244568,-0.2785317599773407,0.0,0.0,0.0,1.6304802469884665,-0.0398105897537721,-0.0083111646298852,56.659863947,-0.1363199871816507,-0.0331472036625511,0.1694899072061043,-11.166965057239372,39.9757368677668,-45.488735548407185,0.0165395497882287,0.0001747761645033,-2.577041291391716,0.0723567183598703,0.0841292636140522,0.0148100145110241,-320.6122377126857,193.04614340719263,-279.42511429534926,-0.000182393521413
16736,1724813453055084165,0.9504469037055968,-0.613752007484436,0.1227245703339576,-0.0046583046205341,0.0058610928244888,0.9609712362289428,-0.2765471339225769,0.0,0.0,0.0,-3.0667123303434756,0.8032865128170688,-3.409626874301452,56.668368812,-0.3157773565266753,0.6435865714757516,-0.4915803034487542,4.204895336798176,23.55918776098452,-7.476566091281271,0.0138418325651243,0.0057112877044996,-2.5811385642793843,0.0699589218071778,0.0895795553821301,0.0016102979499983,-319.2233808324472,55.024530209761096,-192.60418708652708,0.0003240367758302
16738,1724813453065529586,0.9506704211235046,-0.6127442121505737,0.1222654432058334,-0.0055832141079008,0.0058869002386927,0.960484743118286,-0.2782146632671356,0.0,0.0,0.0,-3.4111192696833164,0.8122078441720619,-2.76177958626316,56.678814233,0.0527819361670254,0.1711207665873612,0.3315683014693178,11.34184941109014,-32.03582879342076,54.255329548641555,0.0144161191322159,0.0074496089057729,-2.5776502530903267,0.0022005634182136,0.1000541561151493,-0.0578354776592755,190.8832189156784,-60.028371585072875,217.07044578530736,-0.000453930282138
16740,1724813453076348765,0.9504790902137756,-0.6116216778755188,0.1214841604232788,-0.005279584787786,0.0054655885323882,0.9595141410827636,-0.2815581560134887,0.0,0.0,0.0,1.1626721586303557,-0.5195176421514409,1.324264008087778,56.689633412,-0.0928150266434793,-0.0276017889729241,0.6434581870088396,-15.865676775027058,4.905621232923699,-4.587017655208953,0.013462380849464,0.0070539689674181,-2.5706931862653852,-0.0002368379485204,0.1067058155897271,-0.0548889618400547,195.47049652623792,-139.39506387011457,176.28086895450855,-0.000770228659353
16742,1724813453084608464,0.9505871534347534,-0.6107217073440552,0.121140033006668,-0.0056254207156598,0.0043412619270384,0.959054946899414,-0.2831311225891113,0.0,0.0,0.0,1.3440501288966895,-1.7736981792490625,1.5104098808198938,56.697893111,-0.2390472570090172,0.1596715162988863,0.3948684729922677,-6.173589947932137,13.418595620760245,-26.848202681838515,0.0115131347857604,0.0083319788090346,-2.567415372073643,0.0181185438508322,0.095262059346421,-0.0373178218380907,-18.183573117018543,-33.30964431739777,-20.417835686805255,-0.0003408970902467
16744,1724813453095299737,0.950850546360016,-0.6098927855491638,0.1208011955022811,-0.0062991855666041,0.0033350456506013,0.9588207602500916,-0.2839225232601166,0.0,0.0,0.0,0.5941189956898955,-0.4894705581280445,0.6976840328942602,56.708584384,-0.1454809347967017,0.1750627326214059,0.1527819704621035,2.9573296473233865,0.9442373314339232,-15.123026126142406,0.0099730660154739,0.0101859667733243,-2.565761820153302,0.0203345799339054,0.0709267230908068,-0.0297070344547951,-53.259043551094656,81.84102541656888,-49.129630661245045,-0.0003401472799834
16746,1724813453108797397,0.9510517120361328,-0.6090480089187622,0.1204340606927871,-0.007066635414958,0.0016725833993405,0.9586688280105592,-0.2844317555427551,0.0,0.0,0.0,0.162982042384788,-0.037096025830392,0.4927404142465459,56.722082044,-0.204303274776674,0.1793663029791829,0.0768085476592271,-62.260856273976074,22.47806741859337,-42.828274912832775,0.0072274946139755,0.012597987750988,-2.564704248561535,0.0349458864715472,0.0947669225135854,-0.0205316569191502,-118.42128998721384,-118.38384678822176,-71.35670299927085,-0.0003706999509327
16748,1724813453114863253,0.9513183236122132,-0.608385443687439,0.1203276962041854,-0.0075234458781778,-0.0008090399205684,0.9589064717292786,-0.2836216390132904,0.0,0.0,0.0,-0.7910879875712891,-1.1692716051947372,-0.0932267882760031,56.7281479,-0.7398118908315614,0.3761210618572708,-0.2843877813118302,-51.70491384072876,17.0493144802469,-35.083686125165435,0.0027163412483729,0.0148880343327323,-2.5664181184956947,0.0334278888531009,0.0896259923131115,-0.0180526217864138,-119.50949330555288,-122.70101113103202,-85.81338748563769,-0.0001139323831116
16750,1724813453127502681,0.9514636397361756,-0.6077688932418823,0.1200858876109123,-0.0078816413879394,-0.003752848599106,0.9590408205986024,-0.2831333875656128,0.0,0.0,0.0,-1.3067261426739298,-1.0360028768685856,-0.893750299268139,56.740787328,-0.4299978082673731,0.1863673076453219,-0.0835717423808143,-10.322906147984426,-0.1999904580367939,8.009267256288236,-0.0027355684492451,0.0172435996500623,-2.567474523397366,0.0091851303341599,0.0663731477703066,-0.0324497442714193,19.48695906853186,-27.825292251297412,39.67745768813656,-0.0002508495920738
16752,1724813453134725976,0.9515204429626464,-0.6072168350219727,0.1197965145111084,-0.0080701457336544,-0.0062518627382814,0.959081530570984,-0.2829458713531494,0.0,0.0,0.0,-0.91711595737776,-1.3953824632985443,-0.1819076288078955,56.748010623,-0.6483617193667585,0.2460706809710979,-0.058242383749598,-5.1447771934574344,2.2159807919195664,5.033076943230452,-0.0074266747322896,0.0190188795015222,-2.5679042928835725,0.0022697309026611,0.0622075115742042,-0.0378929013449589,98.84005928116024,-70.06285436524455,147.78846638056365,-0.0002991326182346
16754,1724813453145471078,0.9514554142951964,-0.60677570104599,0.119424007833004,-0.0085030943155288,-0.0080738281831145,0.9590314626693726,-0.2830569744110107,0.0,0.0,0.0,0.8626452898059266,-2.4728501223616655,2.1931515202380294,56.758755725,-0.3026722369401557,0.1731877544059015,0.0202374263693636,13.389868808417283,-2.4931015690220395,-0.5708801275777011,-0.0106749201883511,0.0208816942393064,-2.567703719122434,-0.0069412784750895,0.0341280721275012,-0.0307102847614766,109.72626684184551,-7.434232872241054,115.14681066550384,-0.0003805958356654
16756,1724813453154756071,0.9513838291168212,-0.6065143942832947,0.1191706135869026,-0.0088901445269584,-0.0097831012681126,0.9590737819671632,-0.2828478217124939,0.0,0.0,0.0,1.432883576196787,-1.7969863944380449,2.412705353506507,56.768040718,-0.3290404809467184,0.1844576115990191,-0.0482438541674753,-3.3911732638166825,5.895181651533019,-26.32584383309101,-0.0137402534252475,0.0225887877856685,-2.5681726837684127,0.0148674285516463,0.0122939972097348,0.0018861981546436,-77.27634923234517,106.00616550447651,-117.16871763176454,-0.0002586988210183
16758,1724813453165072461,0.9517959952354432,-0.606569230556488,0.1195245087146759,-0.0098015116527676,-0.0120759280398488,0.9598183035850524,-0.2801909446716308,0.0,0.0,0.0,-0.9540596547259128,-0.3226611267122601,-0.4101224664895787,56.778357108,-0.3703442940372319,0.2989346014296234,-0.5370473574829719,8.460063444361683,3.681476272647009,-6.069219265715054,-0.0176955185767716,0.0255852632299407,-2.5737624262501466,0.0191509109555241,0.0001121284704481,0.0141914233475075,-138.89728733562308,95.66445863260904,-172.47657058343657,0.0003503304257036
16760,1724813453175047308,0.9517863988876344,-0.6065157651901245,0.1194720864295959,-0.0108223259449005,-0.0132482014596462,0.960072100162506,-0.2792293429374695,0.0,0.0,0.0,-1.4476379982826548,0.175903000863101,-1.155007331808802,56.788331955,-0.1657482234007955,0.2641406494336954,-0.1991483618043204,11.003428369646931,-8.950361361853302,23.84260855715916,-0.0194035576172924,0.028182730191713,-2.575798198780937,-0.0035717750535368,0.0051703065568915,-0.0053588957440569,24.253933033266605,10.94251535148982,-6.149201153666873,-5.3946398284872735e-05
16762,1724813453187148864,0.9517048597335817,-0.6064559817314148,0.1194057166576385,-0.0109661351889371,-0.0143799940124154,0.9601504802703856,-0.2788979411125183,0.0,0.0,0.0,-0.0715548544350389,-0.2648432788658718,-0.2233280030147436,56.800433511,-0.1721798020579109,0.0756331098020896,-0.057909757418356,-5.866258451441146,-1.6383943137954908,2.976497798621855,-0.0215078042572493,0.0290834812482321,-2.5765178374356705,-0.0088993487676702,0.0024365717302998,-0.0075181859426294,36.747618635344566,3.912450093352095,-3.033625643489671,-6.727986303839032e-05
16764,1724813453194847205,0.9516257643699646,-0.6064494848251343,0.1193378791213035,-0.0111856563016772,-0.0154239917173981,0.960214138031006,-0.2786140739917755,0.0,0.0,0.0,-0.1655700264118569,-0.0372023695990619,-0.6385704311861238,56.808131852,-0.2434661151091952,0.1312818021858235,-0.0775754356347683,-0.4077856089644704,2.130500374826546,-0.8196806694198604,-0.0234004278156188,0.030080469090332,-2.577137832865719,-0.0076446619777854,0.0002069998339813,-0.0094573143451217,-31.143449423830457,24.28912900210867,-60.64948812804876,-6.700195366606446e-05
16766,1724813453205246489,0.951583206653595,-0.6064562797546387,0.1192304641008377,-0.0114105064421892,-0.0161619801074266,0.9602885842323304,-0.2783063948154449,0.0,0.0,0.0,-0.7553801528562326,0.1412005566866701,-1.363546642189564,56.818531136,-0.1233528425634925,0.0818193151007182,-0.0617285675274043,9.332599133438702,-5.039291352855711,8.576150940413799,-0.0247034120094887,0.0309156474971754,-2.577800357571416,-0.0139819122208955,0.0033660063307614,-0.0215300289537174,5.561817156589177,-3.435149162209518,-0.5157759194812621,-0.0001065270666147
16768,1724813453219527569,0.9511895775794984,-0.6063293814659119,0.1187033206224441,-0.0113962767645716,-0.0163844414055347,0.9598878026008606,-0.2796732783317566,0.0,0.0,0.0,0.5454402745690996,-0.3116741476036102,-0.0138059762799196,56.832812216,-0.033563499848419,0.0043035095492687,0.1990569833387931,-44.84453446722518,15.182606169303062,-18.27079458925775,-0.025094709569749,0.0310478629657228,-2.574958675811005,-0.0276326366234798,0.0021941843220218,-0.0449768736985731,111.07172417763373,-14.781856283557566,147.46339356376575,-0.0005265194673942
16770,1724813453224876287,0.9510416388511658,-0.6063310503959656,0.1184465959668159,-0.0114418882876634,-0.0174432639032602,0.9598458409309388,-0.2797512710094452,0.0,0.0,0.0,1.1795663415740985,-0.3568235367033886,0.8810087771351852,56.838160934,-0.3758548576148028,0.1267992233392853,0.0281489743507191,-33.6612841354577,14.40254086427073,-21.199282454509092,-0.027100879800149,0.0317297721393449,-2.5748257636622043,-0.0217077268991303,6.713756808807148e-05,-0.0417893914114468,59.65310193619567,-4.352149414285728,101.39991882132492,-0.0002546289976429
16772,1724813453234908560,0.9509358406066896,-0.6063232421875,0.1181441694498062,-0.0117792608216404,-0.0182858761399984,0.9598015546798706,-0.279835432767868,0.0,0.0,0.0,0.6696381347641915,-0.3235428076574883,0.6583332748481316,56.848193207,-0.1427658362107085,0.111357840910517,0.0178255220673214,11.255348665352626,0.957993777564722,-2.909907077695054,-0.0285283758884462,0.0328514865044691,-2.574678006738538,-0.0085221649722129,-0.0027439305155922,-0.0275866338869477,-58.93015035646633,1.873591699858789,-41.3784171527229,-0.0003011563921107
16774,1724813453245309348,0.9508690237998962,-0.6063897609710693,0.117884837090969,-0.0122907329350709,-0.0192765891551971,0.9598247408866882,-0.279667317867279,0.0,0.0,0.0,-0.0306376330388555,-0.3196239726173645,0.0211233108713373,56.858593995,-0.1548643473265369,0.1482482571272277,-0.0327210623770752,-8.07005682703247,2.4609426136518646,-1.917159278038482,-0.0301520483216618,0.0343827370706653,-2.5750636215421348,-0.0085088426234207,-0.0065763621380341,-0.0289060867842962,-29.759312417273375,-5.638096881047712,-17.20907131282617,-0.0002552864604786
16776,1724813453254917313,0.950768768787384,-0.6064545512199402,0.1175718531012535,-0.0126419570297002,-0.0208502933382987,0.9598203301429749,-0.2795538902282715,0.0,0.0,0.0,0.016889527272001,-0.4271801334087423,0.2468057825200917,56.86820196,-0.2937032398719769,0.1622545279659599,-0.0250227157603901,-1.578718478984924,3.7432442353710007,-1.4702339214066773,-0.0329841233114972,0.0359333083346363,-2.575353306147791,-0.0090865032993434,-0.0092137159618381,-0.0273896899076557,8.697704154786052,-10.00718509489976,14.129236773340455,-0.0003082963710838
16778,1724813453265807538,0.9506864547729492,-0.6065853834152222,0.1173375844955444,-0.0136111909523606,-0.0220014713704586,0.959891140460968,-0.2791767716407776,0.0,0.0,0.0,0.1579111453549662,-0.52150513646534,0.2851417948178976,56.879092185,-0.1520128431470634,0.2312302221570034,-0.0690721667605669,-4.319027241099443,3.0209159106988803,-1.1839516900836102,-0.0346707102893427,0.0384245773276727,-2.5761908339613417,-0.007951958443563,-0.0157504700337511,-0.0236036005095421,12.049835523940146,-10.730831748751008,-3.6392900991232633,-0.0002262948857139
16780,1724813453275154858,0.9506089687347412,-0.6067625880241394,0.1171001717448234,-0.0142176430672407,-0.0237957630306482,0.9599151611328124,-0.2789168655872345,0.0,0.0,0.0,0.263327791245648,-0.6384124268934198,0.1936833418855365,56.888439505,-0.3314214562854721,0.2328889844159165,-0.057185832802169,-11.238545135713403,-3.0090475060164152,-0.3221799277545631,-0.0377928492567943,0.0405806786180544,-2.5768044121216196,-0.0060448277801299,-0.0199934507856127,-0.0214398685478061,2.294624048751346,-6.805976757619135,-16.352362422087957,-0.0002264606341251
16782,1724813453287202501,0.9505710005760192,-0.6070195436477661,0.1169033497571945,-0.0144794359803199,-0.026035338640213,0.9599950313568116,-0.2784282267093658,0.0,0.0,0.0,0.1514822793081218,-0.6318820042739617,-0.1053108775079891,56.900487148,-0.3432930835180416,0.1471568113722999,-0.0858161126176843,-12.247042533012802,9.040435646325816,-9.306139282296227,-0.0419745036004005,0.0423109426915522,-2.577909173211157,-0.0019515641338898,-0.0305495492155145,-0.0196933731893711,-9.461120246969523,33.87497744587209,3.1994330225688357,-0.0001810511451101
16784,1724813453294897025,0.9505618810653688,-0.6072999238967896,0.1167353242635726,-0.0150259230285882,-0.028183476999402,0.9601316452026368,-0.2777180671691894,0.0,0.0,0.0,0.0778110806877084,-0.2074222607110725,0.0569915254933078,56.908181672,-0.4928713548450889,0.2961166558963307,-0.1914771173271136,-5.698696523796103,8.081248070279186,-4.518686787990838,-0.0458352081146079,0.044522557655602,-2.5794825420866476,-0.0017112150365363,-0.0342109481066117,-0.0217336239212775,4.665681343516461,22.21143647551791,41.83581120595116,-0.0001500481876295
16786,1724813453305379990,0.9505364298820496,-0.607626736164093,0.1165089681744575,-0.015597247518599,-0.0303051583468914,0.960215389728546,-0.2771731615066528,0.0,0.0,0.0,0.3300983070013644,-0.4452045196203928,0.7917986273241263,56.918664637,-0.3563645108431394,0.219761291374859,-0.1072629448096151,8.626066575272972,-2.3290648912230143,2.1052353168645705,-0.0496272965461085,0.0467700365220534,-2.580716923659822,-0.0002303482194392,-0.0325517605428729,-0.016535296614033,5.035581163052096,-23.849471672449702,28.143149951946334,-0.0002036495589223
16788,1724813453316700991,0.9505606889724731,-0.6080120801925659,0.1163836047053337,-0.0164606422185897,-0.0324155576527118,0.960381031036377,-0.276308923959732,0.0,0.0,0.0,0.1544347327401334,-0.729469039832046,0.5974983221268318,56.929985638,-0.312450911416766,0.2539701627458872,-0.1559078786653474,-5.4694558953063925,6.28192671896732,-8.21805091663163,-0.0532566355302658,0.049550667010359,-2.5826295921230824,0.0058153878329676,-0.0449700768229206,-0.0039534733889841,-47.8137999354281,54.18929533883512,-78.74449235505041,-9.786674247256122e-05
16790,1724813453325396980,0.95063579082489,-0.6084761619567871,0.1163967847824096,-0.0172968693077564,-0.0345945730805397,0.9605992436408995,-0.2752328515052795,0.0,0.0,0.0,-0.4770871760442747,0.2714478855932194,-0.4986063912799837,56.938681627,-0.4224572384097481,0.3303747535338187,-0.2535640027036034,-6.595675653702198,1.2282942755163813,0.4908263459783795,-0.0570506088751609,0.0522976813201906,-2.584992627276563,0.004622801070397,-0.0488590415160636,-0.0021901143653506,-45.92013821149246,77.00855412298748,-90.83455879240287,4.73380913576667e-05
16792,1724813453334939261,0.9506378769874572,-0.6088951826095581,0.1163370832800865,-0.017927011474967,-0.0368842706084251,0.9606706500053406,-0.2746452689170837,0.0,0.0,0.0,-0.6356744444363194,0.6074217884276203,-0.996666457524055,56.948223908,-0.4219981105123825,0.2629572805763576,-0.1261521991937752,10.037181523647904,-9.73617604762222,12.883999429749064,-0.061149744949667,0.054731409184116,-2.5863444244889555,-0.0034892405861697,-0.0387437523706069,-0.0142921108477818,17.78173413386752,-2.2418191011362136,15.315832868017017,-2.570927181461384e-05
16794,1724813453345685877,0.9505555033683776,-0.6092489957809448,0.1160862371325492,-0.0182935502380132,-0.0380670242011547,0.96060973405838,-0.2746729850769043,0.0,0.0,0.0,-0.0282253896217112,0.1300647473520495,-0.0149919087034253,56.958970524,-0.1932351977153873,0.1259988187587276,0.0066388629873106,11.027027465266553,-0.4579910557047029,5.191065248754206,-0.0632270953571409,0.0560872929961519,-2.586357449574045,-0.0077252193880141,-0.0376941531475907,-0.0217159421218307,26.480031301930527,-60.53745847831307,19.798551402010773,-0.0002193469442668
16796,1724813453354807159,0.950484573841095,-0.60962975025177,0.1159007474780082,-0.0190281197428703,-0.0390927754342556,0.960562825202942,-0.2746429443359375,0.0,0.0,0.0,-0.0192922111404696,-0.5468975784572476,-0.3883175395818687,56.968091806,-0.1720846585655598,0.2169393427300657,-0.0014854467687865,2.303706382444203,4.062802953879454,-1.46969109291726,-0.064804730372746,0.0580611349180159,-2.5864977538985703,-0.0051496243003796,-0.0362569869609146,-0.016620689845876,6.229311681656306,-58.70376202743808,-29.113803963738263,-0.00015114353436
16798,1724813453370873207,0.9504761695861816,-0.61005699634552,0.1157388538122177,-0.0196038354188203,-0.0403984412550926,0.9605932235717772,-0.2743071615695953,0.0,0.0,0.0,0.2293530683199316,-1.0510096104801685,-0.5217077843075373,56.984157854,-0.1355006694861662,0.1150440031094643,-0.0414821594160604,-44.21001559487553,20.155715611385684,24.91480175653231,-0.0670281406599082,0.0598615313498808,-2.5872859295183512,-0.0139961967935278,-0.0649785611282993,-0.049656014488594,163.29674819236362,144.20758728076356,310.3450682616594,-0.0001233557048447
16800,1724813453376212886,0.9503775238990784,-0.6104720830917358,0.1154034659266471,-0.0199780613183975,-0.0417530871927738,0.960426390171051,-0.2746610641479492,0.0,0.0,0.0,1.3636397396965834,0.0306207644951577,1.7009344759130451,56.989497533,-0.4540679396708408,0.2696946416910922,0.1401889147969509,-31.91631370627453,14.336697430336724,15.724588252650278,-0.0694133513439051,0.0613492858485751,-2.5866360231484284,-0.0113872871536884,-0.0692831886522071,-0.0497184915281954,121.75834429010456,171.69727345627072,277.32154139180705,-0.0002945818758926
16802,1724813453384578100,0.9503751397132874,-0.6109408736228943,0.1151591315865516,-0.0203681401908397,-0.0434137433767318,0.9603093862533568,-0.2747842371463775,0.0,0.0,0.0,1.1939693712417334,1.0623860167143329,2.2001207983988724,56.997862747,-0.3574671439032998,0.1979517311835247,0.0319287288745182,6.955633917602633,0.0177825796061412,-19.26993903540961,-0.0723943666024555,0.0630199629688966,-2.5864866871228207,0.011487439169727,-0.0580609984732483,-0.013045628909202,-102.8780764818749,63.59130730620545,-86.96062839770316,-0.000198838370879
16804,1724813453396312972,0.950703740119934,-0.6116554737091064,0.1152721121907234,-0.0216390956193208,-0.0459769591689109,0.96065491437912,-0.2730569541454315,0.0,0.0,0.0,-1.3729651281175892,0.8250460233462049,-1.2342350273418077,57.009597619,-0.3514413203086791,0.3396358782971802,-0.2983761163742069,10.883553055062842,-9.13076541262161,18.92084319219487,-0.0767646430044851,0.0667335845056238,-2.5902833090586292,0.0001383776216457,-0.0501892808385662,-0.0231778055027662,-56.96515552646677,-52.85582610586429,-83.68559018974724,0.0001785557862017
16806,1724813453406401424,0.9504634737968444,-0.6120689511299133,0.1147537603974342,-0.0218081101775169,-0.0467667989432811,0.9601970911026,-0.2745155990123749,0.0,0.0,0.0,-0.5445418249528637,0.0088061484602754,-0.2660315198897346,57.019686071,-0.151703341244967,0.0636130766450486,0.3007291002079106,6.270535134578958,-14.18414067239084,24.80512497433,-0.0780949437525209,0.0676080922464112,-2.587301371125625,-0.0172325972425682,-0.0405280381815877,-0.038845375666705,143.05860307485997,-116.21135974055902,143.17760041575548,-0.0004696127277049
16808,1724813453418043571,0.9503512978553772,-0.6125346422195435,0.1144699305295944,-0.0218479000031948,-0.0483272932469844,0.959915578365326,-0.275225967168808,0.0,0.0,0.0,1.9397388175769636,-1.8184440130683237,2.0350833695079222,57.031328218,-0.260453059023247,0.0755021766090527,0.124925838196763,-7.887608355870103,2.822643317963016,-10.524429751926196,-0.0810330627952124,0.0685999231542151,-2.585918284439897,-0.0077547224218648,-0.0531733976672725,-0.0246517028086454,84.58617352390873,-1.6245280232484447,70.12386931765793,-0.0002317046347204
16810,1724813453426224732,0.9502986669540404,-0.6130453944206238,0.1142666861414909,-0.0219320934265851,-0.0496873557567596,0.9597689509391784,-0.2754881978034973,0.0,0.0,0.0,1.8912693882506468,-0.938751663842596,1.8756007348003945,57.039509379,-0.3166270092001562,0.1089512119207123,0.0651323881996258,-2.452142022142251,19.130713286431728,-28.724432518729625,-0.0835917678643048,0.0695320590978966,-2.585459384015002,0.0145859561760701,-0.0722602634618212,-0.003311582407897,-122.6300775736241,156.3991029544259,-129.74730229353787,-0.0001463845717182
16812,1724813453435060105,0.950628101825714,-0.6137776374816895,0.1144428774714469,-0.0232724696397781,-0.0514939799904823,0.9601374864578248,-0.2737569212913513,0.0,0.0,0.0,-0.3058058159075105,0.9094293490821376,-0.3227920771345522,57.048344752,-0.2961735615587469,0.4215090687860119,-0.3930056896149488,1.760975098188352,11.87798542967763,-15.162033985838557,-0.0864780517627026,0.0729478880633383,-2.589245122595246,0.0232858182966992,-0.0672504537612077,0.0062673094812852,-161.4321913859963,112.63833628145724,-160.9513645868814,0.0002513681110239
16814,1724813453446559839,0.9506863355636596,-0.6143171191215515,0.1143102794885635,-0.023959120735526,-0.0533902458846569,0.9600523710250854,-0.2736328244209289,0.0,0.0,0.0,-0.8565256620759837,0.7597520464965095,-0.8585536527963488,57.059844486,-0.2842144646225124,0.2063989407703153,-0.0181954662759525,-6.988175001080311,-10.761104776657676,17.732560819857717,-0.089777432090824,0.0752937907599687,-2.589663581226279,0.0004539816556317,-0.0516671894923135,-0.0185032263161772,32.840208509327724,-102.33367484901083,18.0767237361681,-7.028870661389111e-05
16816,1724813453455370664,0.9506592154502868,-0.6148044466972351,0.1141001805663108,-0.0241845548152923,-0.055277019739151,0.9598936438560486,-0.2737952470779419,0.0,0.0,0.0,-0.0221966634621142,-0.7448459876979046,-0.2627470975187964,57.068655311,-0.3999810540469256,0.165215620432881,0.0377258109015914,-5.444958284118133,-3.520814794385736,0.8828640043677307,-0.0932865228072528,0.0767737693649335,-2.5894650862217663,0.0005280707706454,-0.0489921158108064,-0.017322628322304,57.79384582725577,-106.36259325178864,37.11394301678374,-0.0001499619015747
16818,1724813453471192064,0.9507700204849244,-0.6154000759124756,0.1140114292502403,-0.0246401242911815,-0.0576363243162632,0.9599705934524536,-0.272997111082077,0.0,0.0,0.0,-0.1561448236364255,-0.5979138300897766,-0.5422935279112302,57.084476711,-0.267535439616818,0.1422784597227928,-0.1035395491022943,-37.968737669018026,53.643267532919396,4.081641702031737,-0.0976631937631443,0.0788583962147906,-2.591315937142007,-0.0006926188611089,-0.0905634563299742,-0.0327511230476673,-108.82439799064946,231.20293552863075,-49.75960043260805,-1.5884312665624944e-05
16820,1724813453476190697,0.9507544040679932,-0.6159363389015198,0.11380485445261,-0.0254625622183084,-0.0592523217201232,0.959904670715332,-0.2728075087070465,0.0,0.0,0.0,-0.8586110806070576,0.9082510655456312,-0.8417035604729826,57.089475344,-0.5305108523955031,0.4974284674095986,-0.0625899382797963,-29.741913623731406,43.88309661704036,6.3124645943905096,-0.100359740219447,0.0813017588658583,-2.59187487187621,-0.0015978771816556,-0.0903468735762569,-0.034778224625029,-111.30185472878152,225.83008370447897,-55.11203040662532,-0.0001361461341073
16822,1724813453488242865,0.9507794976234436,-0.616533100605011,0.1135759800672531,-0.0264491103589534,-0.0609463304281234,0.9598538279533386,-0.2725188732147217,0.0,0.0,0.0,-1.350653507909675,1.436474461974523,-1.3668368982266976,57.101527512,-0.2244595799000313,0.2368913831088822,-0.0411329819308156,1.819278294050083,-24.1365587699691,50.975417209036834,-0.1031298637668315,0.0840916830128276,-2.592660629467153,-0.031633691589576,-0.0542667817840794,-0.0575972646997389,165.1035909993811,-71.52929777475288,156.56721094275446,-0.0001488710527953
16824,1724813453494880856,0.9504462480545044,-0.6169106960296631,0.1130525022745132,-0.0264904387295246,-0.0619165413081646,0.9593543410301208,-0.2740508913993835,0.0,0.0,0.0,0.4981848033279223,0.5399151518675807,0.4041659568510209,57.108165503,-0.2985723479449996,0.067463203477047,0.4770993905934961,-5.681159049660895,-15.015235031370752,35.405371536154696,-0.1048490041113836,0.0848658350397575,-2.589546198775574,-0.0364259862706006,-0.0504245727392316,-0.064745354600606,202.1796086803361,-104.4604012336102,212.66783390677813,-0.0004627598108037
16826,1724813453505107214,0.9502907991409302,-0.6173245906829834,0.1126127764582634,-0.0265543833374977,-0.0633309930562973,0.9590226411819458,-0.2748811244964599,0.0,0.0,0.0,1.3629797542637845,-0.0461756199621339,1.7261879698870288,57.118391861,-0.2702755554371771,0.0794728704619773,0.166995942525774,3.0759889492836603,5.227788558590338,-18.77196449301367,-0.1074749984866225,0.0858549337770794,-2.5879282612658123,-0.0121087322810282,-0.0455161513628006,-0.0372795781762889,-1.730428996142475,-46.33443224904872,17.10443883027579,-0.0003767544524059
16828,1724813453516591566,0.950191617012024,-0.6179123520851135,0.1122584119439125,-0.0272824428975582,-0.0648901984095573,0.9587493538856506,-0.2753990292549133,0.0,0.0,0.0,0.2301425309642421,-0.4367206305627134,0.4759345657837144,57.129876213,-0.230965334885331,0.1917877954310876,0.1003990311232352,-6.591278211729193,5.4570809767719055,-1.6726759284736747,-0.1100483588535369,0.0881696366731071,-2.587017698477127,-0.0095453154376627,-0.0528322962970406,-0.0298314164356749,-44.288490901185995,17.740837969318687,-54.6165774485424,-0.0002672433299807
16830,1724813453526203591,0.9500925540924072,-0.6184334754943848,0.11197991669178,-0.027788009494543,-0.0668792650103569,0.958447277545929,-0.2759237289428711,0.0,0.0,0.0,0.2417100907802624,0.150111112689486,0.3873910448076021,57.139488238,-0.3748847201737619,0.209465159073459,0.1175167019157544,-9.087850304397632,-2.2574884934631285,-1.1939142201335633,-0.1135714400666407,0.0902964912140594,-2.5861162812178207,-0.0072774040600052,-0.0554183994178885,-0.0266453935009005,44.090733334985174,1.744949545979285,39.59006382307125,-0.0001991536341127
16832,1724813453535292535,0.9500524401664734,-0.6189475059509277,0.1117577478289604,-0.0279720071703195,-0.0688340067863464,0.9582006335258484,-0.2762810885906219,0.0,0.0,0.0,1.0110357385079412,-0.3437319919324637,1.166641705631051,57.148577182,-0.4069060812240755,0.1537396439366689,0.0810990947953163,1.2266818423508337,-3.902687721869203,-1.6098169951929364,-0.1172176545148635,0.0917694123395831,-2.585542669242774,-0.0050309694076489,-0.0504516504222181,-0.0226437470920553,33.285500818215716,-56.826542450162954,14.749501179818791,-0.0001433386856317
16834,1724813453545737831,0.9499924778938292,-0.619401216506958,0.1115428358316421,-0.028218263760209,-0.070708729326725,0.9579228162765504,-0.2767452299594879,0.0,0.0,0.0,0.7422008421435388,-0.96721683257402,0.4685773157388535,57.159022478,-0.337076235516952,0.1397252889067462,0.0930576368914891,-4.689108831229781,8.523493763162708,-25.893397411008884,-0.1206649862254136,0.0933338941038855,-2.5847471901168855,0.0146991917525696,-0.0647279550403752,-0.0017384965857862,-104.43380749029222,14.605312203082011,-120.54964738428896,-0.000142976679962
16836,1724813453554930085,0.950292944908142,-0.6201684474945068,0.11167923361063,-0.028810815885663,-0.0732133984565734,0.9581888318061828,-0.2751071453094482,0.0,0.0,0.0,-0.8543980739673566,-0.2319429814495857,-1.0741082804235675,57.168214732,-0.4721932635204401,0.2978801114223979,-0.3636879478031648,1.0812953537813303,4.146074743014756,-6.218962194125141,-0.1253517934232348,0.0956412042973674,-2.5884173886566355,0.0122454011904267,-0.0703866703259343,-0.0098310568905075,-70.41016717769172,60.2547107500809,-35.401790464525575,0.0002500315423743
16838,1724813453565517568,0.950173318386078,-0.6207541823387146,0.111274316906929,-0.0293848365545272,-0.074824757874012,0.9579090476036072,-0.2755869328975677,0.0,0.0,0.0,-0.3404251146545957,0.1653603683430966,0.165902724138892,57.178802215,-0.2683123900981524,0.1825269735622156,0.1005525423368803,-3.84477442419076,-1.6130691337890417,9.157917244990518,-0.1281138378644919,0.097692773164206,-2.587601814025726,-0.0039642584644283,-0.0681639113685079,-0.0235657307533578,72.02704714023739,-24.0944087943978,94.75848903165334,-0.0003044303559692
