seq,stamp,px,py,pz,ox,oy,oz,ow,lx,ly,lz,ax,ay,az
8184,1724913982187759152,-0.024117588996887207,0.0913378968834877,0.11344419419765472,0.002308468334376812,-0.0929613932967186,-0.33637917041778564,0.9371242523193359,0.0,0.0,0.0,0.0,0.0,0.0
8186,1724913982197237486,-0.024133890867233276,0.09134449064731598,0.11341025680303574,0.0022597319912165403,-0.09283976256847382,-0.33625468611717224,0.9371811151504517,0.0,0.0,0.0,0.0,0.0,0.0
8188,1724913982206911736,-0.024043550714850426,0.09129445999860764,0.11344894021749496,0.0028385480400174856,-0.09321744740009308,-0.3360178768634796,0.9372270107269287,0.0,0.0,0.0,0.0,0.0,0.0
8190,1724913982217565451,-0.024135375395417213,0.09132000803947449,0.11344039440155029,0.0018215937307104468,-0.09298767149448395,-0.33633989095687866,0.9371368288993835,0.0,0.0,0.0,0.0,0.0,0.0
8192,1724913982227022705,-0.024047577753663063,0.09131281822919846,0.11345504224300385,0.0029342561028897762,-0.09311483055353165,-0.33615148067474365,0.937188982963562,0.0,0.0,0.0,0.0,0.0,0.0
8194,1724913982236963734,-0.024029633030295372,0.09128973633050919,0.113454669713974,0.002795926760882139,-0.0934782475233078,-0.3361356556415558,0.9371589422225952,0.0,0.0,0.0,0.0,0.0,0.0
8196,1724913982248840141,-0.02412036806344986,0.09133465588092804,0.11344724148511887,0.002344648353755474,-0.09296013414859772,-0.33632558584213257,0.9371435642242432,0.0,0.0,0.0,0.0,0.0,0.0
8198,1724913982257019727,-0.024041801691055298,0.09131455421447754,0.1134742796421051,0.0028206000570207834,-0.09305908530950546,-0.3361966609954834,0.9371787309646606,0.0,0.0,0.0,0.0,0.0,0.0
8200,1724913982267599899,-0.02411838434636593,0.0913466140627861,0.11346055567264557,0.0022978419438004494,-0.09277424961328506,-0.3364110291004181,0.937131404876709,0.0,0.0,0.0,0.0,0.0,0.0
8202,1724913982277136647,-0.024111108854413033,0.0913458839058876,0.11342336982488632,0.0023299013264477253,-0.09276380389928818,-0.3363138437271118,0.937167227268219,0.0,0.0,0.0,0.0,0.0,0.0
8204,1724913982286971281,-0.024118347093462944,0.0913439467549324,0.11339782178401947,0.0024529004003852606,-0.09272100031375885,-0.33624112606048584,0.9371972680091858,0.0,0.0,0.0,0.0,0.0,0.0
8206,1724913982298493001,-0.024124901741743088,0.09134098887443542,0.11342103779315948,0.002362647093832493,-0.09260807931423187,-0.33626455068588257,0.9372003078460693,0.0,0.0,0.0,0.0,0.0,0.0
8208,1724913982306811693,-0.024051109328866005,0.09130549430847168,0.11345633864402771,0.002659086836501956,-0.09311085939407349,-0.33620503544807434,0.9371709823608398,0.0,0.0,0.0,0.0,0.0,0.0
8210,1724913982318829219,-0.024114493280649185,0.09132926166057587,0.1134389191865921,0.0023115763906389475,-0.09303832799196243,-0.3363301753997803,0.9371342062950134,0.0,0.0,0.0,0.0,0.0,0.0
8212,1724913982328502845,-0.024011751636862755,0.0913003608584404,0.11345358937978745,0.0031515511218458414,-0.09318078309297562,-0.33628004789352417,0.9371355772018433,0.0,0.0,0.0,0.0,0.0,0.0
8214,1724913982336955129,-0.024033602327108383,0.0912775844335556,0.11345784366130829,0.0026666580233722925,-0.09346958249807358,-0.3361731469631195,0.937146782875061,0.0,0.0,0.0,0.0,0.0,0.0
8216,1724913982347547796,-0.024036668241024017,0.09128618985414505,0.11347533017396927,0.0026660035364329815,-0.09354035556316376,-0.3361928462982178,0.9371326565742493,0.0,0.0,0.0,0.0,0.0,0.0
8218,1724913982357712418,-0.02403026446700096,0.09130094200372696,0.11347300559282303,0.0027515648398548365,-0.09327606111764908,-0.33619046211242676,0.937159538269043,0.0,0.0,0.0,0.0,0.0,0.0
8220,1724913982367686002,-0.02411959506571293,0.09134508669376373,0.1134173572063446,0.0021047331392765045,-0.09267532080411911,-0.3362777531147003,0.937189519405365,0.0,0.0,0.0,0.0,0.0,0.0
8222,1724913982377142483,-0.02403195947408676,0.09132290631532669,0.11343174427747726,0.0030503389425575733,-0.0929095670580864,-0.33610597252845764,0.937225341796875,0.0,0.0,0.0,0.0,0.0,0.0
8224,1724913982388931115,-0.024118121713399887,0.09133364260196686,0.11342110484838486,0.0022099874913692474,-0.09287982434034348,-0.3363151252269745,0.9371556043624878,0.0,0.0,0.0,0.0,0.0,0.0
8226,1724913982397136624,-0.0241271760314703,0.09134785830974579,0.1134360134601593,0.0021701292134821415,-0.09273844212293625,-0.3363662660121918,0.937151312828064,0.0,0.0,0.0,0.0,0.0,0.0
8228,1724913982407007322,-0.02412077784538269,0.09134382009506226,0.11345520615577698,0.0022794525139033794,-0.09269009530544281,-0.3364351987838745,0.9371311068534851,0.0,0.0,0.0,0.0,0.0,0.0
8230,1724913982417516184,-0.024115590378642082,0.09133467823266983,0.11342408508062363,0.002321332460269332,-0.09276527166366577,-0.33628711104393005,0.9371767044067383,0.0,0.0,0.0,0.0,0.0,0.0
8232,1724913982427349861,-0.024030273780226707,0.09129486978054047,0.11345100402832031,0.0028874618001282215,-0.09328431636095047,-0.33611032366752625,0.9371870756149292,0.0,0.0,0.0,0.0,0.0,0.0
8234,1724913982437346798,-0.02412046678364277,0.09134338051080704,0.1134481132030487,0.002145779551938176,-0.09291278570890427,-0.3363160789012909,0.9371521472930908,0.0,0.0,0.0,0.0,0.0,0.0
8236,1724913982446941088,-0.024131760001182556,0.09134766459465027,0.11344490200281143,0.0021996512077748775,-0.0925901010632515,-0.3364576995372772,0.9371331930160522,0.0,0.0,0.0,0.0,0.0,0.0
8238,1724913982456945353,-0.024032821878790855,0.09129936993122101,0.11346283555030823,0.002726962324231863,-0.09309358149766922,-0.33622047305107117,0.9371669888496399,0.0,0.0,0.0,0.0,0.0,0.0
8240,1724913982468197265,-0.024005897343158722,0.09128348529338837,0.11346642673015594,0.002908676629886031,-0.09344207495450974,-0.3361327648162842,0.937163233757019,0.0,0.0,0.0,0.0,0.0,0.0
8242,1724913982477327873,-0.024114055559039116,0.09133392572402954,0.11344863474369049,0.002192768268287182,-0.09289192408323288,-0.3362705409526825,0.9371704459190369,0.0,0.0,0.0,0.0,0.0,0.0
8244,1724913982487064911,-0.024125169962644577,0.0913224071264267,0.1133963093161583,0.0024378665257245302,-0.09277431666851044,-0.33619171380996704,0.9372097253799438,0.0,0.0,0.0,0.0,0.0,0.0
8246,1724913982497664109,-0.02413325197994709,0.09134441614151001,0.11341612786054611,0.0021580560132861137,-0.09265463799238205,-0.3362419307231903,0.9372042417526245,0.0,0.0,0.0,0.0,0.0,0.0
8248,1724913982506711692,-0.02402825467288494,0.09130506217479706,0.11347364634275436,0.0029712128452956676,-0.09318403899669647,-0.33632105588912964,0.9371211528778076,0.0,0.0,0.0,0.0,0.0,0.0
8250,1724913982518476090,-0.024019967764616013,0.09129297733306885,0.11350466310977936,0.002640161197632551,-0.09340707957744598,-0.33626219630241394,0.9371210336685181,0.0,0.0,0.0,0.0,0.0,0.0
8252,1724913982527090653,-0.024016598239541054,0.09128689765930176,0.11350084841251373,0.002757370937615633,-0.09341850876808167,-0.3363112509250641,0.9371019601821899,0.0,0.0,0.0,0.0,0.0,0.0
8254,1724913982537489607,-0.024141328409314156,0.09133246541023254,0.11344637721776962,0.0019400627352297306,-0.0928666889667511,-0.3363974094390869,0.937127947807312,0.0,0.0,0.0,0.0,0.0,0.0
8256,1724913982548865706,-0.02413397841155529,0.09134316444396973,0.11344344913959503,0.0022102375514805317,-0.09265487641096115,-0.3364622890949249,0.937125027179718,0.0,0.0,0.0,0.0,0.0,0.0
8258,1724913982556709104,-0.0240505151450634,0.09129895269870758,0.1134546548128128,0.002696701791137457,-0.0930534079670906,-0.3361997604370117,0.9371784925460815,0.0,0.0,0.0,0.0,0.0,0.0
8260,1724913982567925846,-0.024114105850458145,0.09133801609277725,0.11344527453184128,0.0020458430517464876,-0.09279516339302063,-0.3363338112831116,0.9371576905250549,0.0,0.0,0.0,0.0,0.0,0.0
8262,1724913982577493834,-0.024044664576649666,0.09131374210119247,0.11346866935491562,0.0027514901012182236,-0.09306076914072037,-0.3362791836261749,0.9371491074562073,0.0,0.0,0.0,0.0,0.0,0.0
8264,1724913982586807280,-0.02400282211601734,0.09130515158176422,0.11347904056310654,0.0030155868735164404,-0.09329062700271606,-0.3361705243587494,0.9371644854545593,0.0,0.0,0.0,0.0,0.0,0.0
8266,1724913982598703583,-0.024117499589920044,0.09133359789848328,0.1134418249130249,0.0019807559438049793,-0.09291181713342667,-0.33639219403266907,0.9371253252029419,0.0,0.0,0.0,0.0,0.0,0.0
8268,1724913982606866429,-0.02410806715488434,0.09134469926357269,0.11343079805374146,0.0022151523735374212,-0.0926678255200386,-0.3363233208656311,0.93717360496521,0.0,0.0,0.0,0.0,0.0,0.0
8270,1724913982616901471,-0.02411482483148575,0.09134277701377869,0.11340717226266861,0.0024074551183730364,-0.09267428517341614,-0.3362436890602112,0.9372011423110962,0.0,0.0,0.0,0.0,0.0,0.0
8272,1724913982627416956,-0.024116583168506622,0.09133303910493851,0.11343786865472794,0.0021416028030216694,-0.09277240931987762,-0.33640599250793457,0.9371337890625,0.0,0.0,0.0,0.0,0.0,0.0
8274,1724913982637011342,-0.024114254862070084,0.09133833646774292,0.11344516277313232,0.0022239796817302704,-0.09268313646316528,-0.3364284038543701,0.937134325504303,0.0,0.0,0.0,0.0,0.0,0.0
8276,1724913982648712384,-0.02400691993534565,0.09128838032484055,0.11345086991786957,0.0032101692631840706,-0.093303382396698,-0.3361583948135376,0.9371668696403503,0.0,0.0,0.0,0.0,0.0,0.0
8278,1724913982657316942,-0.02412356622517109,0.09132282435894012,0.11342927813529968,0.0018342349212616682,-0.09289738535881042,-0.3363548815250397,0.9371404051780701,0.0,0.0,0.0,0.0,0.0,0.0
8280,1724913982667215378,-0.024055596441030502,0.09129777550697327,0.11346817016601562,0.0025683448184281588,-0.09303218126296997,-0.3363073766231537,0.9371423125267029,0.0,0.0,0.0,0.0,0.0,0.0
8282,1724913982677749602,-0.02411177195608616,0.0913226380944252,0.1134406104683876,0.0019097799668088555,-0.09284548461437225,-0.33638256788253784,0.9371354579925537,0.0,0.0,0.0,0.0,0.0,0.0
8284,1724913982687330332,-0.024017153307795525,0.09129227697849274,0.11343471705913544,0.002763307886198163,-0.0933261439204216,-0.33613380789756775,0.9371748566627502,0.0,0.0,0.0,0.0,0.0,0.0
8286,1724913982699720972,-0.024018868803977966,0.09124751389026642,0.11343415081501007,0.002741845091804862,-0.09356401115655899,-0.33582228422164917,0.9372628927230835,0.0,0.0,0.0,0.0,0.0,0.0
8288,1724913982706890539,-0.024108754470944405,0.0913030207157135,0.11352426558732986,0.002543751848861575,-0.09204466640949249,-0.33616364002227783,0.9372915029525757,0.0,0.0,0.0,0.0,0.0,0.0
8290,1724913982717627910,-0.02407868206501007,0.09152771532535553,0.11373210698366165,0.003438658080995083,-0.0902467742562294,-0.33760178089141846,0.9369465708732605,0.0,0.0,0.0,0.0,0.0,0.0
8292,1724913982727407766,-0.024068567901849747,0.09154823422431946,0.11374537646770477,0.003370931837707758,-0.09026100486516953,-0.33770766854286194,0.9369072914123535,0.0,0.0,0.0,0.0,0.0,0.0
8294,1724913982737670216,-0.02396785467863083,0.09152434021234512,0.11377871781587601,0.0036941443104296923,-0.0908081978559494,-0.33766481280326843,0.9368686079978943,0.0,0.0,0.0,0.0,0.0,0.0
8296,1724913982749513065,-0.024083836004137993,0.09162048250436783,0.11381375044584274,0.0023980869445949793,-0.0899440124630928,-0.3383673429489136,0.9367026686668396,0.0,0.0,0.0,0.0,0.0,0.0
8298,1724913982756811308,-0.024003513157367706,0.09153573960065842,0.11365237832069397,0.004472046624869108,-0.09091965854167938,-0.33762213587760925,0.936869740486145,0.0,0.0,0.0,0.0,0.0,0.0
8300,1724913982767800554,-0.023847265169024467,0.09138606488704681,0.11346961557865143,0.0070069595240056515,-0.09290584176778793,-0.3364374339580536,0.9370855689048767,0.0,0.0,0.0,0.0,0.0,0.0
8302,1724913982777525387,-0.023904381319880486,0.09144514054059982,0.11348035931587219,0.006560542155057192,-0.09244774281978607,-0.3368372619152069,0.9369903802871704,0.0,0.0,0.0,0.0,0.0,0.0
8304,1724913982787090774,-0.02381295897066593,0.09140437841415405,0.11345858126878738,0.0071441056206822395,-0.09305782616138458,-0.336704820394516,0.9369733333587646,0.0,0.0,0.0,0.0,0.0,0.0
8306,1724913982800082785,-0.023770233616232872,0.09139547497034073,0.1134667843580246,0.006908765062689781,-0.09332328289747238,-0.33694636821746826,0.9368618726730347,0.0,0.0,0.0,0.0,0.0,0.0
8308,1724913982806691256,-0.02374473214149475,0.0914212018251419,0.11350535601377487,0.006668443325906992,-0.0931282639503479,-0.3373180627822876,0.9367493391036987,0.0,0.0,0.0,0.0,0.0,0.0
8310,1724913982817799200,-0.024020442739129066,0.09134472906589508,0.11321042478084564,0.0036612004041671753,-0.09371469914913177,-0.3351266384124756,0.9374936819076538,0.0,0.0,0.0,0.0,0.0,0.0
8312,1724913982826939685,-0.024031490087509155,0.09130092710256577,0.11307767033576965,0.0028836505953222513,-0.09418335556983948,-0.3337348699569702,0.9379457235336304,0.0,0.0,0.0,0.0,0.0,0.0
8314,1724913982836753617,-0.02403542399406433,0.09123984724283218,0.11307060718536377,0.0032466936390846968,-0.09474407136440277,-0.3335278034210205,0.9379618167877197,0.0,0.0,0.0,0.0,0.0,0.0
8316,1724913982851882015,-0.023939747363328934,0.09148459136486053,0.11342941969633102,0.0034741973504424095,-0.09335420280694962,-0.33591556549072266,0.9372479319572449,0.0,0.0,0.0,0.0,0.0,0.0
8318,1724913982856809385,-0.023951884359121323,0.09144649654626846,0.11338121443986893,0.004786000121384859,-0.0947522446513176,-0.33675217628479004,0.9368014931678772,0.0,0.0,0.0,0.0,0.0,0.0
8320,1724913982867399506,-0.023978903889656067,0.09143780171871185,0.11336225271224976,0.005084051284939051,-0.09425260871648788,-0.3366682231426239,0.9368805289268494,0.0,0.0,0.0,0.0,0.0,0.0
8322,1724913982877299082,-0.024133125320076942,0.09142600744962692,0.11333128064870834,0.004064603243023157,-0.09401123225688934,-0.33684447407722473,0.9368464350700378,0.0,0.0,0.0,0.0,0.0,0.0
8324,1724913982887138856,-0.02412893995642662,0.09137550741434097,0.1132173165678978,0.004427464213222265,-0.09472960233688354,-0.33625808358192444,0.936983048915863,0.0,0.0,0.0,0.0,0.0,0.0
8326,1724913982896941408,-0.02414056472480297,0.09139253944158554,0.11322247982025146,0.00436586095020175,-0.09475641697645187,-0.3361811935901642,0.9370082020759583,0.0,0.0,0.0,0.0,0.0,0.0
8328,1724913982906790130,-0.024287594482302666,0.09135356545448303,0.11322251707315445,0.0018222715007141232,-0.09386135637760162,-0.33629342913627625,0.9370664358139038,0.0,0.0,0.0,0.0,0.0,0.0
8330,1724913982917299909,-0.024284793063998222,0.09128688275814056,0.11337869614362717,0.0015567562077194452,-0.09339054673910141,-0.3371469974517822,0.9368071556091309,0.0,0.0,0.0,0.0,0.0,0.0
8332,1724913982927891909,-0.0243263840675354,0.0912533849477768,0.11343392729759216,0.0011363759404048324,-0.09325147420167923,-0.3373580574989319,0.9367456436157227,0.0,0.0,0.0,0.0,0.0,0.0
8334,1724913982937108019,-0.0243648923933506,0.09126300364732742,0.11342085152864456,0.0006166951498016715,-0.09335987269878387,-0.3374179005622864,0.9367138743400574,0.0,0.0,0.0,0.0,0.0,0.0
8336,1724913982947534126,-0.02428029291331768,0.09128836542367935,0.11345046013593674,0.0034538223408162594,-0.0941539853811264,-0.33732572197914124,0.936661422252655,0.0,0.0,0.0,0.0,0.0,0.0
8338,1724913982957022946,-0.024296315386891365,0.09124359488487244,0.11343086510896683,0.0026786800008267164,-0.09422450512647629,-0.3373502194881439,0.9366479516029358,0.0,0.0,0.0,0.0,0.0,0.0
8340,1724913982968659819,-0.024327119812369347,0.09115177392959595,0.11318954825401306,0.001929916674271226,-0.09461857378482819,-0.3365824222564697,0.9368862509727478,0.0,0.0,0.0,0.0,0.0,0.0
8342,1724913982977372234,-0.024185920134186745,0.09123338013887405,0.11347753554582596,0.0021971191745251417,-0.09374383836984634,-0.33761757612228394,0.9366011023521423,0.0,0.0,0.0,0.0,0.0,0.0
8344,1724913982986917139,-0.024131551384925842,0.09134452044963837,0.1136142909526825,0.002234135987237096,-0.09300270676612854,-0.3382457196712494,0.9364482760429382,0.0,0.0,0.0,0.0,0.0,0.0
8346,1724913983000059047,-0.024133557453751564,0.09139354526996613,0.11359202861785889,0.002384838182479143,-0.09295058250427246,-0.3382683992385864,0.9364449381828308,0.0,0.0,0.0,0.0,0.0,0.0
8348,1724913983007387143,-0.02416621707379818,0.0914468765258789,0.11342227458953857,0.0023579741828143597,-0.09342464059591293,-0.337986022233963,0.9364997148513794,0.0,0.0,0.0,0.0,0.0,0.0
8350,1724913983018680009,-0.02410774677991867,0.09120520204305649,0.11318425834178925,0.0009702070965431631,-0.09603478014469147,-0.3356042206287384,0.9370946288108826,0.0,0.0,0.0,0.0,0.0,0.0
8352,1724913983027452283,-0.02422190085053444,0.09125057607889175,0.11337398737668991,0.0001483834203099832,-0.09405197948217392,-0.3376159369945526,0.9365734457969666,0.0,0.0,0.0,0.0,0.0,0.0
8354,1724913983037769537,-0.02421453222632408,0.09112329035997391,0.11306364834308624,0.0030625141225755215,-0.09540766477584839,-0.3358567953109741,0.9370636343955994,0.0,0.0,0.0,0.0,0.0,0.0
8356,1724913983051040257,-0.02423933334648609,0.09105807542800903,0.1129436045885086,0.004793186672031879,-0.0960533395409584,-0.3352896273136139,0.9371935725212097,0.0,0.0,0.0,0.0,0.0,0.0
8358,1724913983057414952,-0.024131398648023605,0.0910140797495842,0.11299525201320648,0.006573881953954697,-0.09679446369409561,-0.33545196056365967,0.9370483160018921,0.0,0.0,0.0,0.0,0.0,0.0
8360,1724913983069441250,-0.023987842723727226,0.09103149175643921,0.11301332712173462,0.0077149271965026855,-0.09709827601909637,-0.3355756103992462,0.9369639158248901,0.0,0.0,0.0,0.0,0.0,0.0
8362,1724913983078457154,-0.024218792095780373,0.09104055166244507,0.11291340738534927,0.005826991517096758,-0.09687543660402298,-0.33485502004623413,0.9372584223747253,0.0,0.0,0.0,0.0,0.0,0.0
8364,1724913983086933236,-0.024213729426264763,0.09105423092842102,0.11291058361530304,0.006087501998990774,-0.09687673300504684,-0.3347097635269165,0.9373084902763367,0.0,0.0,0.0,0.0,0.0,0.0
8366,1724913983101917305,-0.02432296611368656,0.09118012338876724,0.11312483251094818,0.0025110282003879547,-0.09532303363084793,-0.33600836992263794,0.9370195269584656,0.0,0.0,0.0,0.0,0.0,0.0
8368,1724913983106685771,-0.024193987250328064,0.09159106761217117,0.11358607560396194,-0.0008157425909303129,-0.09180991351604462,-0.33842337131500244,0.9365041255950928,0.0,0.0,0.0,0.0,0.0,0.0
8370,1724913983117249536,-0.02372158318758011,0.09149934351444244,0.11292751878499985,0.008973035961389542,-0.09592681378126144,-0.3356364071369171,0.9370515942573547,0.0,0.0,0.0,0.0,0.0,0.0
8372,1724913983127155872,-0.023959532380104065,0.09129993617534637,0.11293049156665802,0.007163644768297672,-0.09368500113487244,-0.3339956998825073,0.9378799200057983,0.0,0.0,0.0,0.0,0.0,0.0
8374,1724913983136658087,-0.023990323767066002,0.09124812483787537,0.11297125369310379,0.0073586092330515385,-0.09337545186281204,-0.33361297845840454,0.9380455017089844,0.0,0.0,0.0,0.0,0.0,0.0
8376,1724913983146775159,-0.024044759571552277,0.09109947085380554,0.1128312423825264,0.007572172675281763,-0.09367738664150238,-0.33305516839027405,0.9382119178771973,0.0,0.0,0.0,0.0,0.0,0.0
8378,1724913983156853650,-0.0240403413772583,0.09105346351861954,0.11287356913089752,0.008526165038347244,-0.0932655781507492,-0.33364373445510864,0.9380355477333069,0.0,0.0,0.0,0.0,0.0,0.0
8380,1724913983167273230,-0.023913994431495667,0.09167537838220596,0.11329628527164459,0.010640784166753292,-0.09024252742528915,-0.3379482626914978,0.9367678761482239,0.0,0.0,0.0,0.0,0.0,0.0
8382,1724913983178012562,-0.02382224053144455,0.09189310669898987,0.1138550192117691,0.011778081767261028,-0.08664204180240631,-0.33969882130622864,0.9364609718322754,0.0,0.0,0.0,0.0,0.0,0.0
8384,1724913983186956068,-0.02371959574520588,0.09238696843385696,0.11446402966976166,0.014899150468409061,-0.08233066648244858,-0.3427124321460724,0.935707151889801,0.0,0.0,0.0,0.0,0.0,0.0
8386,1724913983197066249,-0.023754717782139778,0.09237892180681229,0.11442626267671585,0.015036473982036114,-0.08145169913768768,-0.34263524413108826,0.9358101487159729,0.0,0.0,0.0,0.0,0.0,0.0
8388,1724913983206713241,-0.023681217804551125,0.09187875688076019,0.11372781544923782,0.012902024202048779,-0.08818540722131729,-0.33888646960258484,0.9365964531898499,0.0,0.0,0.0,0.0,0.0,0.0
8390,1724913983217763362,-0.023645758628845215,0.09213939309120178,0.1134941577911377,0.013102192431688309,-0.08997058123350143,-0.3399450480937958,0.9360400438308716,0.0,0.0,0.0,0.0,0.0,0.0
8392,1724913983226953967,-0.023668788373470306,0.09171854704618454,0.11346492916345596,0.01245983224362135,-0.09000883996486664,-0.3374001085758209,0.9369654655456543,0.0,0.0,0.0,0.0,0.0,0.0
8394,1724913983236758116,-0.023768946528434753,0.09153324365615845,0.11335235834121704,0.011807486414909363,-0.09010009467601776,-0.33671116828918457,0.9372129440307617,0.0,0.0,0.0,0.0,0.0,0.0
8396,1724913983247806429,-0.023547517135739326,0.09198657423257828,0.1135450154542923,0.012851649895310402,-0.08925793319940567,-0.33841779828071594,0.9366649985313416,0.0,0.0,0.0,0.0,0.0,0.0
8398,1724913983256325635,-0.023499207571148872,0.09170446544885635,0.11334307491779327,0.012036019936203957,-0.09073466062545776,-0.3362616300582886,0.9373102188110352,0.0,0.0,0.0,0.0,0.0,0.0
8400,1724913983267490177,-0.02352326549589634,0.09169353544712067,0.11331619322299957,0.011915047653019428,-0.09069313108921051,-0.3360326886177063,0.9373978972434998,0.0,0.0,0.0,0.0,0.0,0.0
8402,1724913983285677968,-0.023513738065958023,0.09166019409894943,0.1133311539888382,0.01223049871623516,-0.09054368734359741,-0.3360222280025482,0.9374120831489563,0.0,0.0,0.0,0.0,0.0,0.0
8404,1724913983286628032,-0.023506036028265953,0.09211242198944092,0.11352300643920898,0.013049202971160412,-0.08891557902097702,-0.33857059478759766,0.9366396069526672,0.0,0.0,0.0,0.0,0.0,0.0
8406,1724913983298325352,-0.023521073162555695,0.09169324487447739,0.11331866681575775,0.012619754299521446,-0.0904465913772583,-0.33600345253944397,0.9374229907989502,0.0,0.0,0.0,0.0,0.0,0.0
8408,1724913983306644851,-0.023534078150987625,0.09165795147418976,0.11330589652061462,0.012516911141574383,-0.09045561403036118,-0.33584874868392944,0.9374788999557495,0.0,0.0,0.0,0.0,0.0,0.0
8410,1724913983318176688,-0.023512791842222214,0.09179575741291046,0.1127181351184845,0.012575617991387844,-0.09504176676273346,-0.3363371789455414,0.9368491768836975,0.0,0.0,0.0,0.0,0.0,0.0
8412,1724913983326884679,-0.023463094606995583,0.09185360372066498,0.11268250644207001,0.012826577760279179,-0.09574029594659805,-0.3371157944202423,0.9364946484565735,0.0,0.0,0.0,0.0,0.0,0.0
8414,1724913983337633678,-0.02343868650496006,0.09183298051357269,0.11266572028398514,0.01257048174738884,-0.09620855748653412,-0.3370265066623688,0.9364822506904602,0.0,0.0,0.0,0.0,0.0,0.0
8416,1724913983347351693,-0.02359825000166893,0.09147809445858002,0.11262902617454529,0.01150057278573513,-0.09622981399297714,-0.3344268798828125,0.9374253749847412,0.0,0.0,0.0,0.0,0.0,0.0
8418,1724913983385493141,-0.023615015670657158,0.09145358949899673,0.11260302364826202,0.011602307669818401,-0.09607541561126709,-0.3342825770378113,0.9374913573265076,0.0,0.0,0.0,0.0,0.0,0.0
8420,1724913983385871431,-0.02365099824965,0.09145805984735489,0.11255111545324326,0.011823627166450024,-0.09602326154708862,-0.3340776264667511,0.9375669956207275,0.0,0.0,0.0,0.0,0.0,0.0
8422,1724913983386223012,-0.02363177016377449,0.09145887196063995,0.11256584525108337,0.011815744452178478,-0.09602413326501846,-0.3340696096420288,0.9375698566436768,0.0,0.0,0.0,0.0,0.0,0.0
8424,1724913983386826958,-0.023495040833950043,0.09179849922657013,0.11262541264295578,0.012992167845368385,-0.09562776237726212,-0.3365758955478668,0.9366980195045471,0.0,0.0,0.0,0.0,0.0,0.0
8426,1724913983405789526,-0.023602720350027084,0.09141096472740173,0.11254765093326569,0.011831545270979404,-0.09618765115737915,-0.3341767489910126,0.9375147819519043,0.0,0.0,0.0,0.0,0.0,0.0
8428,1724913983407194778,-0.02350841648876667,0.09172987937927246,0.11257487535476685,0.012864720076322556,-0.09582777321338654,-0.3364464044570923,0.936725914478302,0.0,0.0,0.0,0.0,0.0,0.0
8430,1724913983417048338,-0.02364872209727764,0.09136226773262024,0.11245795339345932,0.011942620389163494,-0.09646225720643997,-0.33383092284202576,0.9376083612442017,0.0,0.0,0.0,0.0,0.0,0.0
8432,1724913983427148723,-0.023700643330812454,0.09133385121822357,0.11247368901968002,0.011859601363539696,-0.09615053981542587,-0.3335418403148651,0.9377442598342896,0.0,0.0,0.0,0.0,0.0,0.0
8434,1724913983436635514,-0.023667898029088974,0.09133383631706238,0.11249468475580215,0.011983678676187992,-0.0962773784995079,-0.33355942368507385,0.9377233982086182,0.0,0.0,0.0,0.0,0.0,0.0
8436,1724913983446753677,-0.023681562393903732,0.0913350060582161,0.11249396950006485,0.012093103490769863,-0.0963895171880722,-0.3335934579372406,0.9376984238624573,0.0,0.0,0.0,0.0,0.0,0.0
8438,1724913983456522558,-0.023694781586527824,0.09134296327829361,0.11250780522823334,0.011631164699792862,-0.09650856256484985,-0.33352842926979065,0.9377151131629944,0.0,0.0,0.0,0.0,0.0,0.0
8440,1724913983467683966,-0.0237035620957613,0.09136344492435455,0.11258114874362946,0.011685121804475784,-0.09676112979650497,-0.3335249423980713,0.9376896023750305,0.0,0.0,0.0,0.0,0.0,0.0
8442,1724913983476807126,-0.0237650815397501,0.09135773777961731,0.11271556466817856,0.011767137795686722,-0.09671442955732346,-0.33326470851898193,0.9377859830856323,0.0,0.0,0.0,0.0,0.0,0.0
8444,1724913983488234850,-0.023718994110822678,0.09162081778049469,0.11345081031322479,0.01196096558123827,-0.09451896697282791,-0.33483028411865234,0.9374496340751648,0.0,0.0,0.0,0.0,0.0,0.0
8446,1724913983499109588,-0.02376391738653183,0.0915643498301506,0.11476334929466248,0.011100495234131813,-0.09232261776924133,-0.3346291184425354,0.9377508759498596,0.0,0.0,0.0,0.0,0.0,0.0
8448,1724913983506682768,-0.023665085434913635,0.09131132066249847,0.11700630187988281,0.010282116010785103,-0.08996739238500595,-0.3344934582710266,0.9380374550819397,0.0,0.0,0.0,0.0,0.0,0.0
8450,1724913983517516951,-0.023490116000175476,0.09090451151132584,0.12016934156417847,0.00952304806560278,-0.08644503355026245,-0.3348100483417511,0.9382637739181519,0.0,0.0,0.0,0.0,0.0,0.0
8452,1724913983532755761,-0.02316092886030674,0.09048004448413849,0.12384412437677383,0.009011268615722656,-0.08235099166631699,-0.33608847856521606,0.9381799697875977,0.0,0.0,0.0,0.0,0.0,0.0
8454,1724913983536668342,-0.02274748682975769,0.09012848883867264,0.1283847838640213,0.008132961578667164,-0.07545841485261917,-0.33679652214050293,0.9385137557983398,0.0,0.0,0.0,0.0,0.0,0.0
8456,1724913983547520713,-0.022074436768889427,0.08960076421499252,0.13348117470741272,0.008466127328574657,-0.07015839964151382,-0.33636000752449036,0.9390782713890076,0.0,0.0,0.0,0.0,0.0,0.0
8458,1724913983556461594,-0.021366991102695465,0.08892213553190231,0.1389121413230896,0.0059761726297438145,-0.06442929059267044,-0.33535611629486084,0.9398667216300964,0.0,0.0,0.0,0.0,0.0,0.0
8460,1724913983567615783,-0.0204200129956007,0.08836361765861511,0.14494383335113525,0.006815480068325996,-0.059208620339632034,-0.3344244360923767,0.9405362010002136,0.0,0.0,0.0,0.0,0.0,0.0
8462,1724913983577871403,-0.019480876624584198,0.08768291771411896,0.15114383399486542,0.008251321502029896,-0.05361580103635788,-0.3337922990322113,0.9410845637321472,0.0,0.0,0.0,0.0,0.0,0.0
8464,1724913983586762247,-0.018869707360863686,0.0869242325425148,0.15777811408042908,0.007702609058469534,-0.047215916216373444,-0.3326456844806671,0.9418376684188843,0.0,0.0,0.0,0.0,0.0,0.0
8466,1724913983596856932,-0.017871517688035965,0.08669257164001465,0.16507910192012787,0.004277750384062529,-0.03726668283343315,-0.3371042311191559,0.940719723701477,0.0,0.0,0.0,0.0,0.0,0.0
8468,1724913983611834940,-0.017189960926771164,0.08631386607885361,0.17270849645137787,-0.0042311870492994785,-0.02537437342107296,-0.33850228786468506,0.9406139254570007,0.0,0.0,0.0,0.0,0.0,0.0
8470,1724913983616852039,-0.01628342643380165,0.08579225838184357,0.17912812530994415,-0.006414258852601051,-0.0205723624676466,-0.3381958305835724,0.9408289790153503,0.0,0.0,0.0,0.0,0.0,0.0
8472,1724913983627106517,-0.015216821804642677,0.08534640073776245,0.18546371161937714,-0.006640791893005371,-0.014783424325287342,-0.3380640149116516,0.9409836530685425,0.0,0.0,0.0,0.0,0.0,0.0
8474,1724913983636844707,-0.01432797685265541,0.08463134616613388,0.19157300889492035,-0.00907171331346035,-0.009756116196513176,-0.3369066119194031,0.9414438605308533,0.0,0.0,0.0,0.0,0.0,0.0
8476,1724913983647110670,-0.013226792216300964,0.0841188132762909,0.19754891097545624,-0.009899291209876537,-0.0025134398601949215,-0.33719420433044434,0.941379725933075,0.0,0.0,0.0,0.0,0.0,0.0
8478,1724913983656763393,-0.012177521362900734,0.08346045017242432,0.2031216025352478,-0.012498521246016026,0.0050558713264763355,-0.33714932203292847,0.9413546323776245,0.0,0.0,0.0,0.0,0.0,0.0
8480,1724913983667004367,-0.011201197281479836,0.0829862430691719,0.2084730714559555,-0.01252182200551033,0.013359497301280499,-0.3378966152667999,0.9410051703453064,0.0,0.0,0.0,0.0,0.0,0.0
8482,1724913983677339328,-0.01048009842634201,0.08257433027029037,0.2133035510778427,-0.013623060658574104,0.019208483397960663,-0.33814260363578796,0.9408002495765686,0.0,0.0,0.0,0.0,0.0,0.0
8484,1724913983686907457,-0.009786391630768776,0.0820220559835434,0.21763652563095093,-0.012460815720260143,0.022311879321932793,-0.33748316764831543,0.9409846067428589,0.0,0.0,0.0,0.0,0.0,0.0
8486,1724913983697106638,-0.009318651631474495,0.08171229809522629,0.22201059758663177,-0.014519266784191132,0.027927840128540993,-0.33812063932418823,0.9405762553215027,0.0,0.0,0.0,0.0,0.0,0.0
8488,1724913983707267223,-0.008872047066688538,0.08131585270166397,0.22606094181537628,-0.014384095557034016,0.0311890859156847,-0.3381548225879669,0.9404635429382324,0.0,0.0,0.0,0.0,0.0,0.0
8490,1724913983718232443,-0.008634623140096664,0.08104307949542999,0.22965364158153534,-0.01282405387610197,0.0323716439306736,-0.33826959133148193,0.9404049515724182,0.0,0.0,0.0,0.0,0.0,0.0
8492,1724913983727183872,-0.008467327803373337,0.08093338459730148,0.23328588902950287,-0.013999680988490582,0.03465350344777107,-0.3391389846801758,0.9399935603141785,0.0,0.0,0.0,0.0,0.0,0.0
8494,1724913983738247932,-0.008671967312693596,0.08070371299982071,0.23628216981887817,-0.011737779714167118,0.033016137778759,-0.33865904808044434,0.9402565360069275,0.0,0.0,0.0,0.0,0.0,0.0
8496,1724913983747159452,-0.008748723194003105,0.08068682998418808,0.23942644894123077,-0.01326021645218134,0.03378408029675484,-0.33991727232933044,0.9397547841072083,0.0,0.0,0.0,0.0,0.0,0.0
8498,1724913983780517564,-0.009303461760282516,0.08072029054164886,0.24205850064754486,-0.013383663259446621,0.030609305948019028,-0.33991894125938416,0.9398611783981323,0.0,0.0,0.0,0.0,0.0,0.0
8500,1724913983781003181,-0.009815393015742302,0.08070813864469528,0.24470163881778717,-0.012733962386846542,0.027591485530138016,-0.3404374122619629,0.9397760033607483,0.0,0.0,0.0,0.0,0.0,0.0
8502,1724913983781287826,-0.010577328503131866,0.08067867904901505,0.24685972929000854,-0.011555647477507591,0.02154744789004326,-0.33958497643470764,0.9402576088905334,0.0,0.0,0.0,0.0,0.0,0.0
8504,1724913983786658279,-0.011283081024885178,0.08067692071199417,0.2491687834262848,-0.010320897214114666,0.01732795685529709,-0.3393790125846863,0.9404334425926208,0.0,0.0,0.0,0.0,0.0,0.0
8506,1724913983797027994,-0.011999912559986115,0.08076608180999756,0.251471608877182,-0.010328748263418674,0.012289398349821568,-0.33993273973464966,0.9403126835823059,0.0,0.0,0.0,0.0,0.0,0.0
8508,1724913983806976392,-0.01278173178434372,0.08086951822042465,0.2535385489463806,-0.009047472849488258,0.00618998147547245,-0.3398600220680237,0.9404122233390808,0.0,0.0,0.0,0.0,0.0,0.0
8510,1724913983817399243,-0.013415688648819923,0.08090949058532715,0.2555077075958252,-0.007438846863806248,6.498585571534932e-05,-0.34028124809265137,0.9402943253517151,0.0,0.0,0.0,0.0,0.0,0.0
8512,1724913983826823458,-0.01408417522907257,0.08091872185468674,0.2571600675582886,-0.0070683835074305534,-0.007243352942168713,-0.34000536799430847,0.9403690695762634,0.0,0.0,0.0,0.0,0.0,0.0
8514,1724913983836808118,-0.01468217745423317,0.08095311373472214,0.25884371995925903,-0.006008440628647804,-0.012971395626664162,-0.33961382508277893,0.9404563903808594,0.0,0.0,0.0,0.0,0.0,0.0
8516,1724913983849613443,-0.01519417017698288,0.08094754070043564,0.2605200409889221,-0.004584174603223801,-0.01903536729514599,-0.3391558825969696,0.9405264854431152,0.0,0.0,0.0,0.0,0.0,0.0
8518,1724913983857219993,-0.01571124605834484,0.08101776987314224,0.2619849741458893,-0.005238338839262724,-0.02428075112402439,-0.3396032154560089,0.9402408599853516,0.0,0.0,0.0,0.0,0.0,0.0
8520,1724913983867186660,-0.016148965805768967,0.08084718137979507,0.262893944978714,-0.0017459809314459562,-0.032100141048431396,-0.338085800409317,0.9405661225318909,0.0,0.0,0.0,0.0,0.0,0.0
8522,1724913983877652791,-0.0164339542388916,0.08073480427265167,0.263841450214386,0.00023382318613585085,-0.0378359779715538,-0.3375507891178131,0.9405466318130493,0.0,0.0,0.0,0.0,0.0,0.0
8524,1724913983887125187,-0.016511444002389908,0.08082864433526993,0.26485443115234375,0.000697396055329591,-0.04044888913631439,-0.33908724784851074,0.9398847222328186,0.0,0.0,0.0,0.0,0.0,0.0
8526,1724913983897098222,-0.016564499586820602,0.08092106878757477,0.2658303678035736,-0.003487246111035347,-0.042314279824495316,-0.3404970169067383,0.9392865300178528,0.0,0.0,0.0,0.0,0.0,0.0
8528,1724913983907347015,-0.01624167338013649,0.08072620630264282,0.2661987543106079,-0.0024956618435680866,-0.04560593515634537,-0.3395971655845642,0.9394614100456238,0.0,0.0,0.0,0.0,0.0,0.0
8530,1724913983917126133,-0.015763845294713974,0.08060663938522339,0.26638248562812805,-0.0012835629750043154,-0.04742954671382904,-0.33925366401672363,0.9394976496696472,0.0,0.0,0.0,0.0,0.0,0.0
8532,1724913983926785849,-0.015194578096270561,0.08045101910829544,0.26628896594047546,-0.0011155150132253766,-0.04847295954823494,-0.33877524733543396,0.9396172761917114,0.0,0.0,0.0,0.0,0.0,0.0
8534,1724913983939892485,-0.014491213485598564,0.08028203248977661,0.26605236530303955,-0.0009865234605967999,-0.048259180039167404,-0.33830636739730835,0.9397972822189331,0.0,0.0,0.0,0.0,0.0,0.0
8536,1724913983946981657,-0.013610152527689934,0.08004258573055267,0.2654278576374054,-0.0018194897565990686,-0.04754288122057915,-0.3380736708641052,0.9399162530899048,0.0,0.0,0.0,0.0,0.0,0.0
8538,1724913983956856734,-0.012605998665094376,0.07966200262308121,0.2643164098262787,-0.0024163422640413046,-0.0470840260386467,-0.3360458016395569,0.9406648874282837,0.0,0.0,0.0,0.0,0.0,0.0
8540,1724913983969442235,-0.011369405314326286,0.07954444736242294,0.263491153717041,-0.003042421769350767,-0.04293513298034668,-0.33623042702674866,0.9407956004142761,0.0,0.0,0.0,0.0,0.0,0.0
8542,1724913983976995252,-0.01002216711640358,0.07941003888845444,0.26258766651153564,-0.0037260791286826134,-0.03715641796588898,-0.33693182468414307,0.940788209438324,0.0,0.0,0.0,0.0,0.0,0.0
8544,1724913983987260308,-0.00872126966714859,0.07918477058410645,0.2611652612686157,-0.007326783146709204,-0.031104182824492455,-0.3372301161289215,0.9408797025680542,0.0,0.0,0.0,0.0,0.0,0.0
8546,1724913983998928158,-0.00739363394677639,0.0788949728012085,0.25927940011024475,-0.008928109891712666,-0.026344679296016693,-0.3361445367336273,0.9413995146751404,0.0,0.0,0.0,0.0,0.0,0.0
8548,1724913984006667628,-0.006014978513121605,0.07866048067808151,0.25722652673721313,-0.010674483142793179,-0.02049618773162365,-0.33585125207901,0.9416314959526062,0.0,0.0,0.0,0.0,0.0,0.0
8550,1724913984017449593,-0.004666382446885109,0.07831203192472458,0.2548508048057556,-0.010989815928041935,-0.015247774310410023,-0.3345867097377777,0.9421775341033936,0.0,0.0,0.0,0.0,0.0,0.0
8552,1724913984026879326,-0.0034622978419065475,0.07793072611093521,0.2522601783275604,-0.013370522297918797,-0.010034243576228619,-0.33362630009651184,0.9425572752952576,0.0,0.0,0.0,0.0,0.0,0.0
8554,1724913984036872896,-0.0023382771760225296,0.07777813076972961,0.24968068301677704,-0.014975734055042267,-0.002936300355941057,-0.33414801955223083,0.9423971176147461,0.0,0.0,0.0,0.0,0.0,0.0
8556,1724913984053941593,-0.0015239901840686798,0.0773872658610344,0.24666455388069153,-0.016996199265122414,0.0015819743275642395,-0.33333486318588257,0.9426539540290833,0.0,0.0,0.0,0.0,0.0,0.0
8558,1724913984056782862,-0.0008010268211364746,0.07722005993127823,0.243647038936615,-0.016546498984098434,0.0062903957441449165,-0.3339519202709198,0.9424238801002502,0.0,0.0,0.0,0.0,0.0,0.0
8560,1724913984067793706,-0.0005769375711679459,0.07680150866508484,0.2402723878622055,-0.01936069130897522,0.009582816623151302,-0.33298173546791077,0.9426858425140381,0.0,0.0,0.0,0.0,0.0,0.0
8562,1724913984077272025,-0.0005819778889417648,0.07656334340572357,0.23695257306098938,-0.018501492217183113,0.012365010567009449,-0.332500696182251,0.9428404569625854,0.0,0.0,0.0,0.0,0.0,0.0
8564,1724913984100429954,-0.0008076056838035583,0.07625630497932434,0.23335769772529602,-0.019757773727178574,0.01374675240367651,-0.33280912041664124,0.9426870346069336,0.0,0.0,0.0,0.0,0.0,0.0
8566,1724913984100815257,-0.0013856012374162674,0.07597734034061432,0.2297988384962082,-0.019521618261933327,0.01448401901870966,-0.33189940452575684,0.9430015683174133,0.0,0.0,0.0,0.0,0.0,0.0
8568,1724913984106859013,-0.002074558287858963,0.07572115957736969,0.22638393938541412,-0.020515406504273415,0.014462224207818508,-0.332428902387619,0.9427942633628845,0.0,0.0,0.0,0.0,0.0,0.0
8570,1724913984117858056,-0.003052094951272011,0.0753897875547409,0.2226627916097641,-0.01788279414176941,0.011995690874755383,-0.33137863874435425,0.9432520866394043,0.0,0.0,0.0,0.0,0.0,0.0
8572,1724913984126932299,-0.0041102878749370575,0.0755106508731842,0.21975062787532806,-0.01705506443977356,0.014175976626574993,-0.3338201940059662,0.9423759579658508,0.0,0.0,0.0,0.0,0.0,0.0
8574,1724913984137977619,-0.005592485889792442,0.07513321936130524,0.21596160531044006,-0.01660219207406044,0.010012555867433548,-0.3323931396007538,0.9429416656494141,0.0,0.0,0.0,0.0,0.0,0.0
8576,1724913984148523423,-0.007019786164164543,0.07465585321187973,0.21267950534820557,-0.014854363165795803,0.007338760420680046,-0.33213019371032715,0.9430880546569824,0.0,0.0,0.0,0.0,0.0,0.0
8578,1724913984156769171,-0.008128108456730843,0.07465189695358276,0.2107502669095993,-0.010158492252230644,0.011255434714257717,-0.3363244831562042,0.9416241645812988,0.0,0.0,0.0,0.0,0.0,0.0
8580,1724913984167411992,-0.009605472907423973,0.07341550290584564,0.20769758522510529,-0.007031146436929703,0.005727238021790981,-0.33338990807533264,0.9427455067634583,0.0,0.0,0.0,0.0,0.0,0.0
8582,1724913984177598080,-0.010997304692864418,0.07258282601833344,0.2055124193429947,-0.002849272917956114,0.006076172459870577,-0.3335346281528473,0.9427139759063721,0.0,0.0,0.0,0.0,0.0,0.0
8584,1724913984187340001,-0.012236876413226128,0.07175671309232712,0.2034822404384613,0.0015179902547970414,0.006378116551786661,-0.3335752487182617,0.9427006840705872,0.0,0.0,0.0,0.0,0.0,0.0
8586,1724913984196719861,-0.013797162100672722,0.07109043002128601,0.20141184329986572,0.009069985710084438,0.0005300755728967488,-0.33263805508613586,0.9430108666419983,0.0,0.0,0.0,0.0,0.0,0.0
8588,1724913984209991419,-0.01524890586733818,0.07079583406448364,0.20037737488746643,0.007147650700062513,0.0010885652154684067,-0.33481231331825256,0.9422571063041687,0.0,0.0,0.0,0.0,0.0,0.0
8590,1724913984217484969,-0.016561441123485565,0.07040604948997498,0.19917981326580048,0.008859537541866302,-0.0015976005233824253,-0.3361033499240875,0.9417821168899536,0.0,0.0,0.0,0.0,0.0,0.0
8592,1724913984226736555,-0.017820360139012337,0.06985663622617722,0.19808106124401093,0.01007408183068037,-0.0055444566532969475,-0.3353055715560913,0.9420392513275146,0.0,0.0,0.0,0.0,0.0,0.0
8594,1724913984237469754,-0.018959935754537582,0.06959861516952515,0.19765885174274445,0.010285845957696438,-0.006579261273145676,-0.33601856231689453,0.9417762160301208,0.0,0.0,0.0,0.0,0.0,0.0
8596,1724913984247002092,-0.0197945237159729,0.06935562938451767,0.19733648002147675,0.009996118023991585,-0.00655843410640955,-0.3361779749393463,0.9417226314544678,0.0,0.0,0.0,0.0,0.0,0.0
8598,1724913984256742887,-0.020438434556126595,0.06896323710680008,0.1970367133617401,0.009759984910488129,-0.0066238935105502605,-0.3357642590999603,0.941872239112854,0.0,0.0,0.0,0.0,0.0,0.0
8600,1724913984267695155,-0.020831897854804993,0.06869049370288849,0.19702190160751343,0.009328145533800125,-0.005854290444403887,-0.3353980779647827,0.9420121908187866,0.0,0.0,0.0,0.0,0.0,0.0
8602,1724913984277025598,-0.020913168787956238,0.06851038336753845,0.19697445631027222,0.008579988963901997,-0.00459453696385026,-0.3350394368171692,0.9421538710594177,0.0,0.0,0.0,0.0,0.0,0.0
8604,1724913984286808747,-0.02073010243475437,0.06840503960847855,0.19694186747074127,0.008270833641290665,-0.003537589916959405,-0.33431828022003174,0.9424173831939697,0.0,0.0,0.0,0.0,0.0,0.0
8606,1724913984297240537,-0.02040606364607811,0.06840597838163376,0.19703052937984467,0.007258028257638216,-0.0012431557988747954,-0.33409371972084045,0.9425110816955566,0.0,0.0,0.0,0.0,0.0,0.0
8608,1724913984306945313,-0.020018497481942177,0.0683591365814209,0.1970496028661728,0.005730908829718828,0.0006414674571715295,-0.33326417207717896,0.942815899848938,0.0,0.0,0.0,0.0,0.0,0.0
8610,1724913984317930121,-0.019599180668592453,0.06828010082244873,0.19699019193649292,0.004839389119297266,0.0018489918438717723,-0.3322913944721222,0.9431626200675964,0.0,0.0,0.0,0.0,0.0,0.0
8612,1724913984327179399,-0.019122349098324776,0.06829281151294708,0.19694392383098602,0.0038282889872789383,0.003412251127883792,-0.3320052921772003,0.943263590335846,0.0,0.0,0.0,0.0,0.0,0.0
8614,1724913984338178482,-0.018688036128878593,0.06834372878074646,0.19679807126522064,0.0024410400073975325,0.004618890583515167,-0.3317985534667969,0.9433358311653137,0.0,0.0,0.0,0.0,0.0,0.0
8616,1724913984346810502,-0.01812823861837387,0.06904225051403046,0.19750575721263885,0.003565671620890498,0.01174685638397932,-0.3358860909938812,0.9418227076530457,0.0,0.0,0.0,0.0,0.0,0.0
8618,1724913984356634083,-0.017687175422906876,0.06915651261806488,0.19745035469532013,0.003817882388830185,0.013306974433362484,-0.3364882171154022,0.9415859580039978,0.0,0.0,0.0,0.0,0.0,0.0
8620,1724913984367460235,-0.017416521906852722,0.06856338679790497,0.19612161815166473,0.0028079908806830645,0.006171753164380789,-0.3318555951118469,0.9433059096336365,0.0,0.0,0.0,0.0,0.0,0.0
8622,1724913984377664265,-0.01709238812327385,0.06867557018995285,0.1958732008934021,0.0021294993348419666,0.0062452261336147785,-0.33169475197792053,0.9433637261390686,0.0,0.0,0.0,0.0,0.0,0.0
8624,1724913984388761379,-0.016767602413892746,0.06883764266967773,0.1957421600818634,0.0014527328312397003,0.00634919386357069,-0.3318185806274414,0.9433207511901855,0.0,0.0,0.0,0.0,0.0,0.0
8626,1724913984397214341,-0.016489293426275253,0.06912105530500412,0.19570733606815338,0.0008634684490971267,0.007122870068997145,-0.33235597610473633,0.9431267380714417,0.0,0.0,0.0,0.0,0.0,0.0
8628,1724913984407222021,-0.01612366922199726,0.06943868100643158,0.1958998739719391,0.0009242226369678974,0.008675631135702133,-0.3341228663921356,0.9424892067909241,0.0,0.0,0.0,0.0,0.0,0.0
8630,1724913984418447604,-0.015844430774450302,0.0696110725402832,0.19590893387794495,0.0009570796391926706,0.008966999128460884,-0.33467480540275574,0.9422905445098877,0.0,0.0,0.0,0.0,0.0,0.0
8632,1724913984426849521,-0.01563531532883644,0.06975021958351135,0.19596688449382782,0.0007682224386371672,0.009506297297775745,-0.33515095710754395,0.9421161413192749,0.0,0.0,0.0,0.0,0.0,0.0
8634,1724913984438892204,-0.015521539375185966,0.06977186352014542,0.19596721231937408,0.0007999460212886333,0.009330994449555874,-0.3350466787815094,0.9421550035476685,0.0,0.0,0.0,0.0,0.0,0.0
8636,1724913984447446923,-0.015494506806135178,0.06981085985898972,0.19592568278312683,0.0012470404617488384,0.009276680648326874,-0.33490240573883057,0.9422063231468201,0.0,0.0,0.0,0.0,0.0,0.0
8638,1724913984456972336,-0.015526402741670609,0.06982643902301788,0.19593997299671173,0.0011754381703212857,0.00949836801737547,-0.3347971439361572,0.9422416687011719,0.0,0.0,0.0,0.0,0.0,0.0
8640,1724913984469969027,-0.015650549903512,0.06975726038217545,0.1958722621202469,0.0011893619084730744,0.00886240042746067,-0.33456897735595703,0.9423288702964783,0.0,0.0,0.0,0.0,0.0,0.0
8642,1724913984480476263,-0.015821214765310287,0.06946529448032379,0.19543376564979553,0.004938874393701553,0.006111640017479658,-0.332566499710083,0.943047046661377,0.0,0.0,0.0,0.0,0.0,0.0
8644,1724913984489826080,-0.016024533659219742,0.06941121816635132,0.1953732967376709,0.005060204770416021,0.0059629869647324085,-0.3323598802089691,0.9431203007698059,0.0,0.0,0.0,0.0,0.0,0.0
8646,1724913984496796968,-0.01629089005291462,0.0694551169872284,0.19557565450668335,0.001925759599544108,0.007585088722407818,-0.3332446217536926,0.9428079724311829,0.0,0.0,0.0,0.0,0.0,0.0
8648,1724913984508201457,-0.016494745388627052,0.06930453330278397,0.19536782801151276,0.0033764310646802187,0.006278492510318756,-0.3323802947998047,0.9431185722351074,0.0,0.0,0.0,0.0,0.0,0.0
8650,1724913984518082785,-0.016658052802085876,0.06924866884946823,0.19529889523983002,0.003528367495164275,0.00599362887442112,-0.3319905400276184,0.9432570934295654,0.0,0.0,0.0,0.0,0.0,0.0
8652,1724913984527007465,-0.016795961186289787,0.0691184476017952,0.19525665044784546,0.00335179315879941,0.0058706291019916534,-0.3315410912036896,0.9434166550636292,0.0,0.0,0.0,0.0,0.0,0.0
8654,1724913984536781027,-0.016859453171491623,0.06903381645679474,0.19515261054039001,0.004206635989248753,0.005168875679373741,-0.3313071131706238,0.9434995055198669,0.0,0.0,0.0,0.0,0.0,0.0
8656,1724913984547965751,-0.016874661669135094,0.06900249421596527,0.19514404237270355,0.004425445105880499,0.005033207591623068,-0.33128654956817627,0.9435064196586609,0.0,0.0,0.0,0.0,0.0,0.0
8658,1724913984556837361,-0.016845136880874634,0.06898044794797897,0.1951521784067154,0.004430542234331369,0.004925747402012348,-0.3311578035354614,0.9435521364212036,0.0,0.0,0.0,0.0,0.0,0.0
8660,1724913984567860883,-0.016813144087791443,0.0689859464764595,0.19512498378753662,0.004232663661241531,0.004889216274023056,-0.3310694098472595,0.9435843229293823,0.0,0.0,0.0,0.0,0.0,0.0
8662,1724913984576767425,-0.016727015376091003,0.06904708594083786,0.19516649842262268,0.00424673268571496,0.005048628896474838,-0.3312627971172333,0.943515419960022,0.0,0.0,0.0,0.0,0.0,0.0
8664,1724913984587017264,-0.016611162573099136,0.0690930187702179,0.1952226758003235,0.0040259393863379955,0.005245205480605364,-0.3315525949001312,0.9434135556221008,0.0,0.0,0.0,0.0,0.0,0.0
8666,1724913984596969849,-0.0164908766746521,0.06905339658260345,0.19518542289733887,0.0037551147397607565,0.004416648298501968,-0.33153849840164185,0.943423867225647,0.0,0.0,0.0,0.0,0.0,0.0
8668,1724913984606652800,-0.0165032297372818,0.06899961829185486,0.19498935341835022,0.0034615423064678907,0.003453250043094158,-0.3303167223930359,0.9438575506210327,0.0,0.0,0.0,0.0,0.0,0.0
8670,1724913984616860785,-0.016472220420837402,0.069167859852314,0.19524526596069336,0.000221667141886428,0.005435050465166569,-0.3311893045902252,0.9435486197471619,0.0,0.0,0.0,0.0,0.0,0.0
8672,1724913984627945815,-0.016469186171889305,0.06925344467163086,0.1954503208398819,-0.0026595713570713997,0.006843359209597111,-0.3319950997829437,0.9432526230812073,0.0,0.0,0.0,0.0,0.0,0.0
8674,1724913984636787206,-0.016460679471492767,0.06917376816272736,0.19535434246063232,-0.0009765076101757586,0.0059869675897061825,-0.3315049111843109,0.9434340596199036,0.0,0.0,0.0,0.0,0.0,0.0
8676,1724913984646832452,-0.016500581055879593,0.06913740932941437,0.19531014561653137,-0.00038993670023046434,0.005772970151156187,-0.33149123191833496,0.9434406161308289,0.0,0.0,0.0,0.0,0.0,0.0
8678,1724913984657495758,-0.016540229320526123,0.0691308081150055,0.19532597064971924,0.0002582868328318,0.005950831342488527,-0.3316408097743988,0.9433869123458862,0.0,0.0,0.0,0.0,0.0,0.0
8680,1724913984666881165,-0.016745224595069885,0.0688588097691536,0.1950634866952896,-0.000567805313039571,0.004292558878660202,-0.3297135829925537,0.9440711140632629,0.0,0.0,0.0,0.0,0.0,0.0
8682,1724913984677114430,-0.016813484951853752,0.06886540353298187,0.19510005414485931,-0.00035265134647488594,0.004577102605253458,-0.32979148626327515,0.9440426230430603,0.0,0.0,0.0,0.0,0.0,0.0
8684,1724913984693083343,-0.016862107440829277,0.06889435648918152,0.19510160386562347,-0.00029499977244995534,0.004841996822506189,-0.32968398928642273,0.9440788626670837,0.0,0.0,0.0,0.0,0.0,0.0
8686,1724913984696807014,-0.016907425597310066,0.06891985237598419,0.1951003074645996,-0.0003558008756954223,0.005199988838285208,-0.32978782057762146,0.9440407156944275,0.0,0.0,0.0,0.0,0.0,0.0
8688,1724913984706796262,-0.017037279903888702,0.06885750591754913,0.19501768052577972,-0.002993306377902627,0.005573678761720657,-0.3292338252067566,0.9442272782325745,0.0,0.0,0.0,0.0,0.0,0.0
8690,1724913984717120275,-0.017011944204568863,0.06888078153133392,0.1950386017560959,-0.0029377848841249943,0.005666755605489016,-0.32935547828674316,0.9441844820976257,0.0,0.0,0.0,0.0,0.0,0.0
8692,1724913984726864255,-0.01699734479188919,0.06885533034801483,0.19502697885036469,-0.0031661265529692173,0.005689115729182959,-0.3291890621185303,0.9442415833473206,0.0,0.0,0.0,0.0,0.0,0.0
8694,1724913984737794485,-0.016972627490758896,0.06886111199855804,0.19500236213207245,-0.003404298098757863,0.0056394003331661224,-0.3291004002094269,0.944271981716156,0.0,0.0,0.0,0.0,0.0,0.0
8696,1724913984748423778,-0.016889045014977455,0.06887627393007278,0.1949155628681183,-0.002714809263125062,0.005728201009333134,-0.32851642370224,0.9444770216941833,0.0,0.0,0.0,0.0,0.0,0.0
8698,1724913984756753516,-0.01685112901031971,0.06886903941631317,0.19483517110347748,-0.002992066089063883,0.005525795742869377,-0.3281722366809845,0.9445970058441162,0.0,0.0,0.0,0.0,0.0,0.0
8700,1724913984768102038,-0.01679278537631035,0.06890548020601273,0.19479389488697052,-0.0018990765092894435,0.005005115643143654,-0.3276326358318329,0.9447901248931885,0.0,0.0,0.0,0.0,0.0,0.0
8702,1724913984777132701,-0.016732312738895416,0.06894707679748535,0.19480493664741516,-0.0020421287044882774,0.005033314693719149,-0.32765230536460876,0.9447827339172363,0.0,0.0,0.0,0.0,0.0,0.0
8704,1724913984786662527,-0.016729122027754784,0.06895415484905243,0.1948101818561554,-0.002089649671688676,0.005027896724641323,-0.3276594281196594,0.9447802305221558,0.0,0.0,0.0,0.0,0.0,0.0
8706,1724913984837342684,-0.016713814809918404,0.06895241886377335,0.19486352801322937,-0.0020024385303258896,0.005121810361742973,-0.3279036283493042,0.9446951746940613,0.0,0.0,0.0,0.0,0.0,0.0
8708,1724913984837910467,-0.016733309254050255,0.06894948333501816,0.19488415122032166,-0.002363462932407856,0.005000396631658077,-0.32815733551979065,0.9446069002151489,0.0,0.0,0.0,0.0,0.0,0.0
8710,1724913984838347349,-0.016793280839920044,0.0689130574464798,0.19491487741470337,-0.0030078371055424213,0.004912426695227623,-0.3284674286842346,0.9444977641105652,0.0,0.0,0.0,0.0,0.0,0.0
8712,1724913984838871932,-0.016844529658555984,0.06891202926635742,0.19500556588172913,-0.0036055422388017178,0.00488560926169157,-0.328864723443985,0.9443575143814087,0.0,0.0,0.0,0.0,0.0,0.0
8714,1724913984839336709,-0.016850968822836876,0.0689060240983963,0.1951136589050293,-0.004116139840334654,0.004904383793473244,-0.32931745052337646,0.9441975355148315,0.0,0.0,0.0,0.0,0.0,0.0
8716,1724913984847483604,-0.016781223937869072,0.06888505816459656,0.1952180117368698,-0.004596598446369171,0.004373184405267239,-0.3294815421104431,0.9441406726837158,0.0,0.0,0.0,0.0,0.0,0.0
8718,1724913984857591282,-0.01659926027059555,0.06893403828144073,0.19541676342487335,-0.0047250003553926945,0.003970238845795393,-0.3303406834602356,0.9438415765762329,0.0,0.0,0.0,0.0,0.0,0.0
8720,1724913984867686931,-0.0163557268679142,0.06903447210788727,0.19545415043830872,-0.0007613773923367262,0.0028043105266988277,-0.33099380135536194,0.9436285495758057,0.0,0.0,0.0,0.0,0.0,0.0
8722,1724913984877417094,-0.016251251101493835,0.0691046342253685,0.19540943205356598,-0.00016143375250976533,0.0025367543566972017,-0.3309890627861023,0.9436312317848206,0.0,0.0,0.0,0.0,0.0,0.0
8724,1724913984888333904,-0.016175223514437675,0.06915796548128128,0.19546835124492645,0.0005703268689103425,0.002703203121200204,-0.33149343729019165,0.9434534907341003,0.0,0.0,0.0,0.0,0.0,0.0
8726,1724913984897022857,-0.016111772507429123,0.06915365904569626,0.19559837877750397,0.0010290297213941813,0.0029714254196733236,-0.3320092260837555,0.9432709813117981,0.0,0.0,0.0,0.0,0.0,0.0
8728,1724913984906923467,-0.016137219965457916,0.0690508708357811,0.19561757147312164,0.0002497705281712115,0.003413647413253784,-0.33215540647506714,0.943218469619751,0.0,0.0,0.0,0.0,0.0,0.0
8730,1724913984931009597,-0.016112856566905975,0.06902140378952026,0.19565977156162262,0.0010250877821817994,0.0029992188792675734,-0.3324136435985565,0.9431283473968506,0.0,0.0,0.0,0.0,0.0,0.0
8732,1724913984931272880,-0.016150418668985367,0.06900891661643982,0.19560463726520538,0.0009282190003432333,0.002944439649581909,-0.3320627808570862,0.9432522058486938,0.0,0.0,0.0,0.0,0.0,0.0
8734,1724913984937791601,-0.016225257888436317,0.06900722533464432,0.19556169211864471,0.0004863198846578598,0.0029643720481544733,-0.33160340785980225,0.9434140920639038,0.0,0.0,0.0,0.0,0.0,0.0
8736,1724913984946853030,-0.016300015151500702,0.06910446286201477,0.19572272896766663,-0.0021172992419451475,0.004102986305952072,-0.33202120661735535,0.9432606101036072,0.0,0.0,0.0,0.0,0.0,0.0
8738,1724913984956703234,-0.016298774629831314,0.06907636672258377,0.1957041472196579,-0.0017215980915352702,0.003938315436244011,-0.3320830464363098,0.9432404637336731,0.0,0.0,0.0,0.0,0.0,0.0
8740,1724913984967645548,-0.016301700845360756,0.06908772885799408,0.1957564502954483,-0.001626988174393773,0.004013048484921455,-0.33216723799705505,0.9432105422019958,0.0,0.0,0.0,0.0,0.0,0.0
8742,1724913984977100114,-0.01632317528128624,0.0690905973315239,0.19576679170131683,-0.0014296174049377441,0.0042832521721720695,-0.3323174715042114,0.9431567788124084,0.0,0.0,0.0,0.0,0.0,0.0
8744,1724913984986814077,-0.016368184238672256,0.06908493489027023,0.19579195976257324,-0.0017279499443247914,0.004258154891431332,-0.332434743642807,0.9431151151657104,0.0,0.0,0.0,0.0,0.0,0.0
8746,1724913984999520878,-0.016354132443666458,0.06908644735813141,0.1957881897687912,-0.0014665108174085617,0.004115124698728323,-0.33234354853630066,0.9431483149528503,0.0,0.0,0.0,0.0,0.0,0.0
8748,1724913985006752166,-0.016343338415026665,0.06910973787307739,0.19579406082630157,-0.0011752333957701921,0.004027268383651972,-0.33239179849624634,0.9431320428848267,0.0,0.0,0.0,0.0,0.0,0.0
8750,1724913985017449709,-0.016276858747005463,0.069119393825531,0.19577865302562714,-0.000499087618663907,0.0039330096915364265,-0.332462877035141,0.9431080222129822,0.0,0.0,0.0,0.0,0.0,0.0
8752,1724913985026679738,-0.016278695315122604,0.06908178329467773,0.1956992894411087,-0.0005707540549337864,0.003710314864292741,-0.33219414949417114,0.9432035684585571,0.0,0.0,0.0,0.0,0.0,0.0
8754,1724913985037009210,-0.01622757874429226,0.0690799281001091,0.195648193359375,-0.0005355480243451893,0.0034266291186213493,-0.332013338804245,0.943268358707428,0.0,0.0,0.0,0.0,0.0,0.0
8756,1724913985052095929,-0.01625884883105755,0.06899578869342804,0.19556784629821777,-0.0015363669954240322,0.003225737251341343,-0.3314923346042633,0.9434511065483093,0.0,0.0,0.0,0.0,0.0,0.0
8758,1724913985056522230,-0.01624690368771553,0.06890502572059631,0.19557833671569824,-0.002076884265989065,0.002983259502798319,-0.33172696828842163,0.9433684945106506,0.0,0.0,0.0,0.0,0.0,0.0
8760,1724913985067577831,-0.016420617699623108,0.06879131495952606,0.1954185664653778,-0.0012571098050102592,0.0034809212666004896,-0.3309638798236847,0.9436362385749817,0.0,0.0,0.0,0.0,0.0,0.0
8762,1724913985078388596,-0.016498859971761703,0.06884467601776123,0.1954420506954193,-0.0005260651814751327,0.004330964758992195,-0.33104562759399414,0.9436047077178955,0.0,0.0,0.0,0.0,0.0,0.0
8764,1724913985087815286,-0.016663972288370132,0.06875114142894745,0.19525381922721863,-0.0010581208625808358,0.0042053088545799255,-0.3299082815647125,0.9440031051635742,0.0,0.0,0.0,0.0,0.0,0.0
8766,1724913985097483497,-0.016738541424274445,0.0686955526471138,0.19517114758491516,-0.0016446552472189069,0.003866607788950205,-0.3290608525276184,0.9442993998527527,0.0,0.0,0.0,0.0,0.0,0.0
8768,1724913985108718573,-0.016847187653183937,0.06867536157369614,0.19505321979522705,-0.002082976046949625,0.0036811160389333963,-0.3282494843006134,0.9445815682411194,0.0,0.0,0.0,0.0,0.0,0.0
8770,1724913985117341243,-0.016841724514961243,0.06865714490413666,0.19514326751232147,-0.003146343631669879,0.003384878160431981,-0.3283390700817108,0.9445486068725586,0.0,0.0,0.0,0.0,0.0,0.0
8772,1724913985126849677,-0.01677558943629265,0.06870009750127792,0.19514839351177216,-0.0025428193621337414,0.003207751549780369,-0.32802891731262207,0.9446588158607483,0.0,0.0,0.0,0.0,0.0,0.0
8774,1724913985136953479,-0.016781967133283615,0.06870049238204956,0.19504277408123016,-0.0012739097001031041,0.0033932984806597233,-0.32782214879989624,0.9447325468063354,0.0,0.0,0.0,0.0,0.0,0.0
8776,1724913985146820570,-0.01689469814300537,0.0686848908662796,0.1948508769273758,-0.001693372498266399,0.0033863591961562634,-0.3270902633666992,0.9449855089187622,0.0,0.0,0.0,0.0,0.0,0.0
8778,1724913985157178816,-0.016869153827428818,0.06866396963596344,0.1948675960302353,-0.001954500563442707,0.0034330091439187527,-0.3270896077156067,0.9449850916862488,0.0,0.0,0.0,0.0,0.0,0.0
8780,1724913985167300547,-0.016759872436523438,0.06868001818656921,0.1949516236782074,-0.00205458072014153,0.0036997401621192694,-0.3277592360973358,0.9447517991065979,0.0,0.0,0.0,0.0,0.0,0.0
8782,1724913985177307574,-0.016648199409246445,0.06866296380758286,0.19493059813976288,-0.0003036657872144133,0.0034580689389258623,-0.328359454870224,0.9445464611053467,0.0,0.0,0.0,0.0,0.0,0.0
8784,1724913985187091126,-0.016709476709365845,0.06874572485685349,0.19493916630744934,-0.001266784849576652,0.004156013950705528,-0.3283042013645172,0.9445621371269226,0.0,0.0,0.0,0.0,0.0,0.0
8786,1724913985196948115,-0.016825325787067413,0.06876728683710098,0.19499678909778595,-0.003830290399491787,0.005209577735513449,-0.3281201124191284,0.9446138739585876,0.0,0.0,0.0,0.0,0.0,0.0
8788,1724913985207051975,-0.01685621589422226,0.06870081275701523,0.19507335126399994,-0.004233282990753651,0.0051446822471916676,-0.32796382904052734,0.9446668028831482,0.0,0.0,0.0,0.0,0.0,0.0
8790,1724913985217761221,-0.016827862709760666,0.06860937923192978,0.195173442363739,-0.004550525452941656,0.00476993340998888,-0.3280729353427887,0.9446294903755188,0.0,0.0,0.0,0.0,0.0,0.0
8792,1724913985227107666,-0.016819296404719353,0.06875421851873398,0.1951627880334854,-0.004542127717286348,0.004716761875897646,-0.3275747299194336,0.9448026418685913,0.0,0.0,0.0,0.0,0.0,0.0
8794,1724913985237118911,-0.016773609444499016,0.0688108503818512,0.19516000151634216,-0.0029441642109304667,0.0041370270773768425,-0.3274339437484741,0.9448603987693787,0.0,0.0,0.0,0.0,0.0,0.0
8796,1724913985247585634,-0.01678558625280857,0.06884369254112244,0.19521692395210266,-0.002253239741548896,0.004075468052178621,-0.32756146788597107,0.944818377494812,0.0,0.0,0.0,0.0,0.0,0.0
8798,1724913985256961874,-0.0168500617146492,0.06879067420959473,0.19523245096206665,-0.0028249009046703577,0.004186911974102259,-0.32751956582069397,0.9448309540748596,0.0,0.0,0.0,0.0,0.0,0.0
8800,1724913985267666050,-0.016881240531802177,0.0687357559800148,0.19520635902881622,-0.002582370536401868,0.0039254967123270035,-0.32746070623397827,0.9448531270027161,0.0,0.0,0.0,0.0,0.0,0.0
8802,1724913985277779230,-0.016925688832998276,0.06877653300762177,0.19505521655082703,-0.0029491842724382877,0.0029234816320240498,-0.32677406072616577,0.9450933337211609,0.0,0.0,0.0,0.0,0.0,0.0
8804,1724913985286841609,-0.016895387321710587,0.06882470846176147,0.19508202373981476,-0.003274396527558565,0.0030265008099377155,-0.32697996497154236,0.9450207352638245,0.0,0.0,0.0,0.0,0.0,0.0
8806,1724913985298615295,-0.016869084909558296,0.06880836933851242,0.1950683444738388,-0.002192608779296279,0.0027939658612012863,-0.32719969749450684,0.9449485540390015,0.0,0.0,0.0,0.0,0.0,0.0
8808,1724913985306951509,-0.016866033896803856,0.06880951672792435,0.19507859647274017,-0.0022052263375371695,0.0028931982815265656,-0.32717815041542053,0.9449557065963745,0.0,0.0,0.0,0.0,0.0,0.0
8810,1724913985317786419,-0.016866909340023994,0.06882963329553604,0.19505426287651062,-0.002028306480497122,0.0028988986741751432,-0.3271125555038452,0.9449787735939026,0.0,0.0,0.0,0.0,0.0,0.0
8812,1724913985328016066,-0.016860317438840866,0.06885505467653275,0.19509553909301758,-0.0028135187458246946,0.0032344108913093805,-0.32715708017349243,0.9449602961540222,0.0,0.0,0.0,0.0,0.0,0.0
8814,1724913985337147551,-0.016814205795526505,0.06883646547794342,0.19514568150043488,-0.001770450733602047,0.0027847434394061565,-0.3276236355304718,0.9448026418685913,0.0,0.0,0.0,0.0,0.0,0.0
8816,1724913985347335071,-0.01679324358701706,0.06885584443807602,0.19511227309703827,-0.0013309014029800892,0.0025717872194945812,-0.327565997838974,0.9448238611221313,0.0,0.0,0.0,0.0,0.0,0.0
8818,1724913985357619077,-0.016794174909591675,0.06885189563035965,0.195108562707901,-0.0014607894700020552,0.0025332521181553602,-0.3275904655456543,0.9448153376579285,0.0,0.0,0.0,0.0,0.0,0.0
8820,1724913985367419922,-0.016778605058789253,0.06885205954313278,0.19501657783985138,0.0003154657897539437,0.0028706779703497887,-0.32786425948143005,0.944720447063446,0.0,0.0,0.0,0.0,0.0,0.0
8822,1724913985377560120,-0.016810808330774307,0.068830706179142,0.19506214559078217,-0.0010622437112033367,0.0026239831931889057,-0.3275608718395233,0.9448258876800537,0.0,0.0,0.0,0.0,0.0,0.0
8824,1724913985389949470,-0.016858451068401337,0.06879131495952606,0.1950462907552719,-0.0014763559447601438,0.0023365512024611235,-0.3268827795982361,0.9450609087944031,0.0,0.0,0.0,0.0,0.0,0.0
8826,1724913985396888700,-0.016876880079507828,0.06880681961774826,0.19506068527698517,-0.0017983665456995368,0.0024268704000860453,-0.32698190212249756,0.9450257420539856,0.0,0.0,0.0,0.0,0.0,0.0
8828,1724913985407339203,-0.01684213988482952,0.06882604956626892,0.19500629603862762,0.0006835645181126893,0.0028129592537879944,-0.3274690508842468,0.9448574781417847,0.0,0.0,0.0,0.0,0.0,0.0
8830,1724913985417555565,-0.016858942806720734,0.06883049756288528,0.1950494796037674,-0.0007333445828408003,0.0025583531241863966,-0.3272054195404053,0.9449495673179626,0.0,0.0,0.0,0.0,0.0,0.0
8832,1724913985427060762,-0.01690485328435898,0.06879317760467529,0.1950659453868866,-0.0015913019888103008,0.0023663353640586138,-0.3270835876464844,0.9449911713600159,0.0,0.0,0.0,0.0,0.0,0.0
8834,1724913985437481548,-0.01689610630273819,0.06880892068147659,0.1950637847185135,-0.0015402137069031596,0.002402110490947962,-0.32700902223587036,0.9450169205665588,0.0,0.0,0.0,0.0,0.0,0.0
8836,1724913985447109950,-0.016866866499185562,0.0688188299536705,0.19508256018161774,-0.0012771781766787171,0.0024372462648898363,-0.327176958322525,0.9449591040611267,0.0,0.0,0.0,0.0,0.0,0.0
8838,1724913985479529886,-0.016871990635991096,0.0688183531165123,0.19508329033851624,-0.0015104382764548063,0.0025613766629248857,-0.32707643508911133,0.9449931979179382,0.0,0.0,0.0,0.0,0.0,0.0
8840,1724913985479944840,-0.01686115190386772,0.06880922615528107,0.19505028426647186,-0.000993404071778059,0.002391186775639653,-0.32705312967300415,0.9450024366378784,0.0,0.0,0.0,0.0,0.0,0.0
8842,1724913985480960057,-0.016867563128471375,0.06882163882255554,0.19507043063640594,-0.0014054724015295506,0.002462204545736313,-0.32708773016929626,0.9449897408485413,0.0,0.0,0.0,0.0,0.0,0.0
8844,1724913985488086918,-0.016806891188025475,0.06881657987833023,0.19502118229866028,0.0007380194729194045,0.002671916503459215,-0.3275122344493866,0.9448429942131042,0.0,0.0,0.0,0.0,0.0,0.0
8846,1724913985499517787,-0.016878589987754822,0.06880065053701401,0.19507132470607758,-0.0016152141615748405,0.0026929457671940327,-0.3272121250629425,0.9449456930160522,0.0,0.0,0.0,0.0,0.0,0.0
8848,1724913985507084037,-0.016832096502184868,0.06880741566419601,0.19502054154872894,0.0004822120536118746,0.0026857529301196337,-0.3275321125984192,0.9448361396789551,0.0,0.0,0.0,0.0,0.0,0.0
8850,1724913985518379306,-0.016851702705025673,0.06882079690694809,0.1950438916683197,-0.0007677149842493236,0.002423767698928714,-0.327147901058197,0.9449697732925415,0.0,0.0,0.0,0.0,0.0,0.0
8852,1724913985526991577,-0.01687421277165413,0.06882631033658981,0.19506552815437317,-0.0012968729715794325,0.0025034891441464424,-0.32706522941589355,0.9449975490570068,0.0,0.0,0.0,0.0,0.0,0.0
8854,1724913985536892079,-0.016880333423614502,0.06879834085702896,0.195067897439003,-0.001291804714128375,0.0023566605523228645,-0.32712891697883606,0.9449759125709534,0.0,0.0,0.0,0.0,0.0,0.0
8856,1724913985549231485,-0.016858847811818123,0.068812295794487,0.19508376717567444,-0.0013073120499029756,0.0024928285274654627,-0.3272113800048828,0.9449470639228821,0.0,0.0,0.0,0.0,0.0,0.0
8858,1724913985556675782,-0.016883064061403275,0.06881392747163773,0.19507470726966858,-0.001591424341313541,0.0024859230034053326,-0.32713958621025085,0.9449714422225952,0.0,0.0,0.0,0.0,0.0,0.0
8860,1724913985567473693,-0.016886461526155472,0.06881001591682434,0.1950535923242569,-0.0012681566877290606,0.002317216480150819,-0.32710984349250793,0.944982647895813,0.0,0.0,0.0,0.0,0.0,0.0
8862,1724913985578562758,-0.016875218600034714,0.0688404068350792,0.19503220915794373,-0.0010734704555943608,0.002659889869391918,-0.326954185962677,0.9450358748435974,0.0,0.0,0.0,0.0,0.0,0.0
8864,1724913985587129083,-0.01689014583826065,0.06879618763923645,0.1951218694448471,-0.0022285173181444407,0.0021210217382758856,-0.3270606994628906,0.9449983835220337,0.0,0.0,0.0,0.0,0.0,0.0
8866,1724913985598754600,-0.01685052365064621,0.06876994669437408,0.19518941640853882,-0.0023038829676806927,0.0017548449104651809,-0.32720834016799927,0.9449478387832642,0.0,0.0,0.0,0.0,0.0,0.0
8868,1724913985607832298,-0.016856033354997635,0.0687272697687149,0.1952299177646637,-0.002917410107329488,0.0018076207488775253,-0.32747530937194824,0.9448535442352295,0.0,0.0,0.0,0.0,0.0,0.0
8870,1724913985616835185,-0.016818031668663025,0.06881991028785706,0.19541515409946442,-0.004382442217320204,0.002759713213890791,-0.3279063105583191,0.9446960687637329,0.0,0.0,0.0,0.0,0.0,0.0
8872,1724913985627300902,-0.01680641993880272,0.06883812695741653,0.19541244208812714,-0.004430854693055153,0.0027489084750413895,-0.32771456241607666,0.9447624087333679,0.0,0.0,0.0,0.0,0.0,0.0
8874,1724913985636801777,-0.016771839931607246,0.06884182244539261,0.1953849494457245,-0.004384293220937252,0.002899539191275835,-0.3276219964027405,0.9447943568229675,0.0,0.0,0.0,0.0,0.0,0.0
8876,1724913985646883987,-0.016803711652755737,0.06873878091573715,0.19534073770046234,-0.003929181955754757,0.003043324686586857,-0.32861122488975525,0.9444522857666016,0.0,0.0,0.0,0.0,0.0,0.0
8878,1724913985657191991,-0.016802700236439705,0.06879785656929016,0.19528187811374664,-0.0031109419651329517,0.0038798367604613304,-0.32881808280944824,0.9443801641464233,0.0,0.0,0.0,0.0,0.0,0.0
8880,1724913985666976946,-0.016761362552642822,0.06883880496025085,0.19543024897575378,-0.0036560443695634604,0.005044662393629551,-0.32927998900413513,0.9442117810249329,0.0,0.0,0.0,0.0,0.0,0.0
8882,1724913985677260966,-0.016877073794603348,0.06866885721683502,0.19511261582374573,-0.004825688432902098,0.004658963531255722,-0.3278673589229584,0.9447000622749329,0.0,0.0,0.0,0.0,0.0,0.0
8884,1724913985688147926,-0.016820520162582397,0.06856986880302429,0.1949554830789566,-0.0022936128079891205,0.0036426414735615253,-0.3273656368255615,0.9448879957199097,0.0,0.0,0.0,0.0,0.0,0.0
8886,1724913985697671744,-0.016820453107357025,0.06862912327051163,0.19496943056583405,-0.0021935091353952885,0.003549338784068823,-0.3273519277572632,0.9448933005332947,0.0,0.0,0.0,0.0,0.0,0.0
8888,1724913985707028573,-0.016830606386065483,0.06872200965881348,0.1949402093887329,-0.0017181097064167261,0.003591415472328663,-0.32706114649772644,0.9449947476387024,0.0,0.0,0.0,0.0,0.0,0.0
8890,1724913985718129559,-0.016848105937242508,0.06875228881835938,0.19495844841003418,-0.0018687112024053931,0.003551929257810116,-0.32699859142303467,0.9450163841247559,0.0,0.0,0.0,0.0,0.0,0.0
8892,1724913985727073934,-0.016728322952985764,0.06873124837875366,0.19522766768932343,-0.0015527885407209396,0.003996275365352631,-0.3282259404659271,0.9445895552635193,0.0,0.0,0.0,0.0,0.0,0.0
8894,1724913985737190707,-0.01670609787106514,0.06873881816864014,0.19520071148872375,-0.0004204619617667049,0.0032309452071785927,-0.328057199716568,0.9446523189544678,0.0,0.0,0.0,0.0,0.0,0.0
8896,1724913985748319149,-0.016861718147993088,0.06881750375032425,0.1951504498720169,-0.002090060617774725,0.004185548983514309,-0.3277975022792816,0.9447364807128906,0.0,0.0,0.0,0.0,0.0,0.0
8898,1724913985757001863,-0.016908658668398857,0.06883509457111359,0.19515442848205566,-0.002604403533041477,0.0038382518105208874,-0.32725846767425537,0.944923460483551,0.0,0.0,0.0,0.0,0.0,0.0
8900,1724913985768679441,-0.016916321590542793,0.06880001723766327,0.19517487287521362,-0.002742490731179714,0.003484069835394621,-0.3269634544849396,0.9450265765190125,0.0,0.0,0.0,0.0,0.0,0.0
8902,1724913985777372446,-0.01691533997654915,0.06879627704620361,0.19519385695457458,-0.0028855744749307632,0.0035453750751912594,-0.3269420862197876,0.9450333118438721,0.0,0.0,0.0,0.0,0.0,0.0
8904,1724913985786959241,-0.016917377710342407,0.06879422068595886,0.19519080221652985,-0.003015717724338174,0.003483855165541172,-0.3269903063774109,0.9450165033340454,0.0,0.0,0.0,0.0,0.0,0.0
8906,1724913985800706158,-0.016912130638957024,0.06872225552797318,0.19522754848003387,-0.00254486664198339,0.003245083848014474,-0.3271735608577728,0.9449552893638611,0.0,0.0,0.0,0.0,0.0,0.0
8908,1724913985806869646,-0.016921861097216606,0.06879168748855591,0.1950870007276535,-0.0027086196932941675,0.002796322340145707,-0.3270176649093628,0.9450101852416992,0.0,0.0,0.0,0.0,0.0,0.0
8910,1724913985817546419,-0.016911625862121582,0.06886505335569382,0.1951221078634262,-0.0031297544483095407,0.002938169753178954,-0.32742634415626526,0.944866955280304,0.0,0.0,0.0,0.0,0.0,0.0
8912,1724913985828102654,-0.01690363883972168,0.06887707114219666,0.19511201977729797,-0.0029295205604285,0.002941007958725095,-0.327507346868515,0.944839596748352,0.0,0.0,0.0,0.0,0.0,0.0
8914,1724913985836977100,-0.01692213863134384,0.0688771903514862,0.19510573148727417,-0.003082145005464554,0.003021478420123458,-0.3274594247341156,0.9448554515838623,0.0,0.0,0.0,0.0,0.0,0.0
8916,1724913985847075230,-0.016917157918214798,0.06887531280517578,0.19509683549404144,-0.0030036817770451307,0.0028875875286757946,-0.32743996381759644,0.9448629021644592,0.0,0.0,0.0,0.0,0.0,0.0
8918,1724913985860388587,-0.01688053272664547,0.06888264417648315,0.19507744908332825,-0.0013694933149963617,0.003549960209056735,-0.32796499133110046,0.944682240486145,0.0,0.0,0.0,0.0,0.0,0.0
8920,1724913985867545417,-0.0169090423732996,0.06888139247894287,0.19509531557559967,-0.0030949944630265236,0.003221305785700679,-0.3276396095752716,0.9447922110557556,0.0,0.0,0.0,0.0,0.0,0.0
8922,1724913985878436172,-0.016903063282370567,0.0688825398683548,0.1951247602701187,-0.0030526788905262947,0.002965533174574375,-0.3275367319583893,0.9448289275169373,0.0,0.0,0.0,0.0,0.0,0.0
8924,1724913985887065461,-0.016917238011956215,0.0688856765627861,0.19513536989688873,-0.0031960513442754745,0.0030768124852329493,-0.32752978801727295,0.9448304176330566,0.0,0.0,0.0,0.0,0.0,0.0
8926,1724913985897543213,-0.016910236328840256,0.06888286769390106,0.19512072205543518,-0.0031650911550968885,0.0031974760349839926,-0.3275219202041626,0.9448328614234924,0.0,0.0,0.0,0.0,0.0,0.0
8928,1724913985907367324,-0.01691194251179695,0.06888320297002792,0.19512823224067688,-0.003251771442592144,0.0032185812015086412,-0.327578067779541,0.944813072681427,0.0,0.0,0.0,0.0,0.0,0.0
8930,1724913985917430194,-0.016920002177357674,0.06885639578104019,0.19512775540351868,-0.0030588714871555567,0.00314338319003582,-0.32755184173583984,0.9448230862617493,0.0,0.0,0.0,0.0,0.0,0.0
8932,1724913985927928014,-0.016905851662158966,0.06887876242399216,0.195133775472641,-0.00289108301512897,0.003162873676046729,-0.32756900787353516,0.9448175430297852,0.0,0.0,0.0,0.0,0.0,0.0
8934,1724913985938263765,-0.016907446086406708,0.06889746338129044,0.19513265788555145,-0.0031060283072292805,0.003238487057387829,-0.32760220766067505,0.9448050856590271,0.0,0.0,0.0,0.0,0.0,0.0
8936,1724913985946997082,-0.016894353553652763,0.06889231503009796,0.1950746774673462,-0.0012600161135196686,0.003452692646533251,-0.32793208956718445,0.9446942210197449,0.0,0.0,0.0,0.0,0.0,0.0
8938,1724913985957261642,-0.016920587047934532,0.06889654695987701,0.19511093199253082,-0.002644249703735113,0.003209271002560854,-0.3276144862174988,0.9448023438453674,0.0,0.0,0.0,0.0,0.0,0.0
8940,1724913985967525539,-0.016868989914655685,0.06889939308166504,0.19507451355457306,-0.00099810806568712,0.0035874592140316963,-0.32796239852905273,0.9446834921836853,0.0,0.0,0.0,0.0,0.0,0.0
8942,1724913985977826614,-0.016910212114453316,0.06889359652996063,0.19509939849376678,-0.002597290324047208,0.003153132274746895,-0.3276391625404358,0.9447941780090332,0.0,0.0,0.0,0.0,0.0,0.0
8944,1724913985987554792,-0.0169181227684021,0.0688876360654831,0.19513054192066193,-0.0031578061170876026,0.003134325612336397,-0.32759469747543335,0.9448078870773315,0.0,0.0,0.0,0.0,0.0,0.0
8946,1724913985996856760,-0.01687104068696499,0.06888746470212936,0.19509121775627136,-0.0009301156387664378,0.003514240961521864,-0.32797154784202576,0.9446806311607361,0.0,0.0,0.0,0.0,0.0,0.0
8948,1724913986007739122,-0.016907867044210434,0.0689026415348053,0.19510404765605927,-0.0023453151807188988,0.0033712289296090603,-0.32762232422828674,0.9447998404502869,0.0,0.0,0.0,0.0,0.0,0.0
8950,1724913986018291551,-0.01692594587802887,0.06888774782419205,0.19513002038002014,-0.0032862902153283358,0.003308876184746623,-0.32748404145240784,0.9448451995849609,0.0,0.0,0.0,0.0,0.0,0.0
8952,1724913986049532007,-0.016924450173974037,0.06889127194881439,0.1951431781053543,-0.003274192800745368,0.003313985886052251,-0.3275855779647827,0.9448100924491882,0.0,0.0,0.0,0.0,0.0,0.0
8954,1724913986049947617,-0.016920629888772964,0.06887711584568024,0.19508600234985352,-0.0029600111301988363,0.0030768474098294973,-0.32745715975761414,0.9448564052581787,0.0,0.0,0.0,0.0,0.0,0.0
8956,1724913986051006585,-0.016901711001992226,0.06889553368091583,0.19511966407299042,-0.0028902150224894285,0.0031450646929442883,-0.3275589644908905,0.9448210597038269,0.0,0.0,0.0,0.0,0.0,0.0
8958,1724913986056832176,-0.01687081903219223,0.06888468563556671,0.1950642317533493,-0.0013066813116893172,0.0035187616012990475,-0.32794925570487976,0.9446879029273987,0.0,0.0,0.0,0.0,0.0,0.0
8960,1724913986067882788,-0.016901478171348572,0.06888533383607864,0.1950538456439972,-0.0016022197669371963,0.0035906932316720486,-0.3278729021549225,0.9447137117385864,0.0,0.0,0.0,0.0,0.0,0.0
8962,1724913986077930706,-0.01691392809152603,0.06889333575963974,0.19508497416973114,-0.0028187711723148823,0.0032284606713801622,-0.32761725783348083,0.944800853729248,0.0,0.0,0.0,0.0,0.0,0.0
8964,1724913986086963825,-0.01690182276070118,0.06890612840652466,0.19512711465358734,-0.002944276435300708,0.0031662285327911377,-0.3276345431804657,0.9447946548461914,0.0,0.0,0.0,0.0,0.0,0.0
8966,1724913986100066587,-0.016909904778003693,0.06888863444328308,0.19512784481048584,-0.0031423538457602262,0.0031188519205898046,-0.32753536105155945,0.9448286294937134,0.0,0.0,0.0,0.0,0.0,0.0
8968,1724913986107061102,-0.01690579764544964,0.068897545337677,0.19511066377162933,-0.002633111784234643,0.0031876235734671354,-0.32760217785835266,0.944806694984436,0.0,0.0,0.0,0.0,0.0,0.0
8970,1724913986117436709,-0.016898611560463905,0.06888726353645325,0.19512809813022614,-0.0029611941426992416,0.0032725271303206682,-0.3276222348213196,0.9447985291481018,0.0,0.0,0.0,0.0,0.0,0.0
8972,1724913986127326692,-0.01689242012798786,0.06889396905899048,0.1950935423374176,-0.0028057650197297335,0.0030865236185491085,-0.3275699317455292,0.9448177814483643,0.0,0.0,0.0,0.0,0.0,0.0
8974,1724913986150765249,-0.0168965682387352,0.0688953623175621,0.19510403275489807,-0.0024320948868989944,0.0031084734946489334,-0.32753509283065796,0.9448307752609253,0.0,0.0,0.0,0.0,0.0,0.0
8976,1724913986151067315,-0.016893140971660614,0.06890296190977097,0.19508177042007446,-0.0027097458951175213,0.0031564824748784304,-0.327505499124527,0.944840133190155,0.0,0.0,0.0,0.0,0.0,0.0
8978,1724913986157094072,-0.01690392754971981,0.06888783723115921,0.19507858157157898,-0.002667035674676299,0.0030603064224123955,-0.32743537425994873,0.9448649287223816,0.0,0.0,0.0,0.0,0.0,0.0
8980,1724913986167525209,-0.016905009746551514,0.06890377402305603,0.19509375095367432,-0.0027244938537478447,0.0033042600844055414,-0.327562153339386,0.944819986820221,0.0,0.0,0.0,0.0,0.0,0.0
8982,1724913986178130477,-0.016872422769665718,0.06889332830905914,0.19505812227725983,-0.0012297419598326087,0.0034950878471136093,-0.32790428400039673,0.9447036981582642,0.0,0.0,0.0,0.0,0.0,0.0
8984,1724913986187086509,-0.016893910244107246,0.06890489161014557,0.19506384432315826,-0.0024254333693534136,0.0032195791136473417,-0.3275114893913269,0.9448386430740356,0.0,0.0,0.0,0.0,0.0,0.0
8986,1724913986197231330,-0.016886696219444275,0.06889080256223679,0.19507238268852234,-0.0027216181624680758,0.0030447090975940228,-0.32744723558425903,0.9448606371879578,0.0,0.0,0.0,0.0,0.0,0.0
8988,1724913986206949749,-0.016908977180719376,0.06889210641384125,0.1950918436050415,-0.0028751364443451166,0.0030533894896507263,-0.3275250494480133,0.9448332190513611,0.0,0.0,0.0,0.0,0.0,0.0
8990,1724913986217604038,-0.016932746395468712,0.06888649612665176,0.19512012600898743,-0.0030576076824218035,0.0031208349391818047,-0.3275499939918518,0.9448237419128418,0.0,0.0,0.0,0.0,0.0,0.0
8992,1724913986227105582,-0.016910294070839882,0.06887869536876678,0.19507312774658203,-0.0017198214773088694,0.003532922361046076,-0.327909916639328,0.9447008967399597,0.0,0.0,0.0,0.0,0.0,0.0
8994,1724913986237304466,-0.016920411959290504,0.06890125572681427,0.1951141208410263,-0.002803986193612218,0.0032586692832410336,-0.32762566208839417,0.9447978734970093,0.0,0.0,0.0,0.0,0.0,0.0
8996,1724913986250920453,-0.016924578696489334,0.0688929408788681,0.19512121379375458,-0.002767764963209629,0.0032174130901694298,-0.327544629573822,0.9448261857032776,0.0,0.0,0.0,0.0,0.0,0.0
8998,1724913986256806798,-0.016902871429920197,0.06889242678880692,0.19510483741760254,-0.002636269899085164,0.003044723067432642,-0.3274722993373871,0.9448522329330444,0.0,0.0,0.0,0.0,0.0,0.0
9000,1724913986267508477,-0.016917329281568527,0.0688772201538086,0.1951076239347458,-0.003292884910479188,0.0029786303639411926,-0.3275465667247772,0.9448245763778687,0.0,0.0,0.0,0.0,0.0,0.0
9002,1724913986277375496,-0.016882559284567833,0.06889837980270386,0.19504782557487488,-0.001112279831431806,0.0034462905023247004,-0.32786887884140015,0.9447163343429565,0.0,0.0,0.0,0.0,0.0,0.0
9004,1724913986286938557,-0.01689564809203148,0.06888698786497116,0.19506657123565674,-0.002197008579969406,0.003183047752827406,-0.3275541365146637,0.9448245763778687,0.0,0.0,0.0,0.0,0.0,0.0
9006,1724913986297350264,-0.01689891889691353,0.06890624016523361,0.19508510828018188,-0.002709590131416917,0.0031132285948842764,-0.32750898599624634,0.9448390603065491,0.0,0.0,0.0,0.0,0.0,0.0
9008,1724913986307435146,-0.016892708837985992,0.06888550519943237,0.1951037049293518,-0.002735142596065998,0.00315117253921926,-0.3275752663612366,0.9448158740997314,0.0,0.0,0.0,0.0,0.0,0.0
9010,1724913986317411792,-0.016908615827560425,0.06887952238321304,0.1951003074645996,-0.002991695189848542,0.003230898641049862,-0.3275494873523712,0.9448238611221313,0.0,0.0,0.0,0.0,0.0,0.0
9012,1724913986329105211,-0.016896503046154976,0.06887941807508469,0.19509299099445343,-0.002647440880537033,0.003035229630768299,-0.327446311712265,0.9448611736297607,0.0,0.0,0.0,0.0,0.0,0.0
9014,1724913986337497002,-0.01689939573407173,0.06888940930366516,0.19509300589561462,-0.00276632490567863,0.0031284429132938385,-0.32753756642341614,0.9448289275169373,0.0,0.0,0.0,0.0,0.0,0.0
9016,1724913986347221662,-0.016880277544260025,0.06887688487768173,0.1950685977935791,-0.001146735274232924,0.0033065639436244965,-0.3279199004173279,0.9446991086006165,0.0,0.0,0.0,0.0,0.0,0.0
9018,1724913986356950056,-0.016942007467150688,0.06888145208358765,0.19508042931556702,-0.003248980501666665,0.0031705338042229414,-0.3275873064994812,0.9448100328445435,0.0,0.0,0.0,0.0,0.0,0.0
9020,1724913986367573080,-0.01692814938724041,0.06885381788015366,0.19510994851589203,-0.0034031018149107695,0.003169613890349865,-0.327526330947876,0.9448306560516357,0.0,0.0,0.0,0.0,0.0,0.0
9022,1724913986377645212,-0.016886115074157715,0.0688568502664566,0.19504396617412567,-0.0015194598818197846,0.0034026335924863815,-0.3277530372142792,0.9447561502456665,0.0,0.0,0.0,0.0,0.0,0.0
9024,1724913986386909364,-0.016883784905076027,0.06887905299663544,0.19504176080226898,-0.0013155154883861542,0.003384385257959366,-0.32785412669181824,0.9447214603424072,0.0,0.0,0.0,0.0,0.0,0.0
9026,1724913986398534408,-0.01691592112183571,0.06889709830284119,0.1950920671224594,-0.0028269952163100243,0.0032067797146737576,-0.327639102935791,0.9447933435440063,0.0,0.0,0.0,0.0,0.0,0.0
9028,1724913986407477483,-0.016881613060832024,0.06887707859277725,0.195064976811409,-0.0016765730688348413,0.003512469120323658,-0.32786887884140015,0.9447153210639954,0.0,0.0,0.0,0.0,0.0,0.0
9030,1724913986417445841,-0.01689665950834751,0.06890363246202469,0.19509483873844147,-0.0023870111908763647,0.003244579304009676,-0.3276028633117676,0.9448069334030151,0.0,0.0,0.0,0.0,0.0,0.0
9032,1724913986427135626,-0.01689743809401989,0.06888903677463531,0.1950448602437973,-0.0016134176403284073,0.0034563536755740643,-0.3278212249279022,0.944732129573822,0.0,0.0,0.0,0.0,0.0,0.0
9034,1724913986437917779,-0.016925612464547157,0.06889334321022034,0.1950882077217102,-0.0028087531682103872,0.0031738304533064365,-0.32759231328964233,0.9448096752166748,0.0,0.0,0.0,0.0,0.0,0.0
9036,1724913986469394170,-0.01690240204334259,0.06889163702726364,0.1951000988483429,-0.003160591470077634,0.003035625908523798,-0.3275429308414459,0.9448261857032776,0.0,0.0,0.0,0.0,0.0,0.0
9038,1724913986469679318,-0.016915157437324524,0.06889963150024414,0.1951124370098114,-0.003201089333742857,0.0031698066741228104,-0.3275623023509979,0.9448188543319702,0.0,0.0,0.0,0.0,0.0,0.0
9040,1724913986471661680,-0.016896134242415428,0.0688851922750473,0.1951007843017578,-0.002707470441237092,0.0030598014127463102,-0.3274858295917511,0.9448473453521729,0.0,0.0,0.0,0.0,0.0,0.0
9042,1724913986477830222,-0.01691099815070629,0.06888405233621597,0.19511041045188904,-0.0030617807060480118,0.0032318050507456064,-0.3275509774684906,0.9448230862617493,0.0,0.0,0.0,0.0,0.0,0.0
9044,1724913986487486559,-0.016918912529945374,0.06889096647500992,0.1950969398021698,-0.00302081648260355,0.0031565637327730656,-0.3275180459022522,0.9448348879814148,0.0,0.0,0.0,0.0,0.0,0.0
9046,1724913986497123841,-0.01691538468003273,0.06889542192220688,0.1951049268245697,-0.003074154956266284,0.0032415937166661024,-0.3276069462299347,0.9448035359382629,0.0,0.0,0.0,0.0,0.0,0.0
9048,1724913986507050817,-0.016901670023798943,0.06887493282556534,0.1950610876083374,-0.0018400155240669847,0.0033680612687021494,-0.32777732610702515,0.9447472095489502,0.0,0.0,0.0,0.0,0.0,0.0
9050,1724913986518475161,-0.016915442422032356,0.0688987523317337,0.19509640336036682,-0.002636093646287918,0.0032001857180148363,-0.3275943100452423,0.9448093771934509,0.0,0.0,0.0,0.0,0.0,0.0
9052,1724913986527249561,-0.01691911369562149,0.06889842450618744,0.19508610665798187,-0.003095050808042288,0.0031240759417414665,-0.32756897807121277,0.9448171257972717,0.0,0.0,0.0,0.0,0.0,0.0
9054,1724913986538006452,-0.016901139169931412,0.06888150423765182,0.19507849216461182,-0.00268122018314898,0.0029288192745298147,-0.32747882604599,0.9448502063751221,0.0,0.0,0.0,0.0,0.0,0.0
9056,1724913986547463560,-0.01690513640642166,0.068888820707798,0.19508734345436096,-0.002759467111900449,0.0029739548917859793,-0.32758626341819763,0.944812536239624,0.0,0.0,0.0,0.0,0.0,0.0
9058,1724913986557042974,-0.016909515485167503,0.06888540089130402,0.19509653747081757,-0.002781426999717951,0.003072714665904641,-0.3275047838687897,0.9448404312133789,0.0,0.0,0.0,0.0,0.0,0.0
9060,1724913986567530781,-0.016914064064621925,0.06890564411878586,0.19507768750190735,-0.00309206685051322,0.0032506315037608147,-0.32756343483924866,0.9448186159133911,0.0,0.0,0.0,0.0,0.0,0.0
9062,1724913986578560106,-0.016883786767721176,0.06889466941356659,0.19503816962242126,-0.001549580949358642,0.0034648363944143057,-0.3278450071811676,0.944723904132843,0.0,0.0,0.0,0.0,0.0,0.0
9064,1724913986586970190,-0.016877034679055214,0.06890299916267395,0.19504405558109283,-0.0010626350995153189,0.003506407141685486,-0.3278723955154419,0.9447149634361267,0.0,0.0,0.0,0.0,0.0,0.0
9066,1724913986596936681,-0.01692078821361065,0.0688929408788681,0.19508223235607147,-0.0030843785498291254,0.0031572978477925062,-0.3276432156562805,0.9447912573814392,0.0,0.0,0.0,0.0,0.0,0.0
9068,1724913986607249254,-0.016924388706684113,0.06888878345489502,0.19510959088802338,-0.003325832774862647,0.003166654845699668,-0.3275599479675293,0.9448192715644836,0.0,0.0,0.0,0.0,0.0,0.0
9070,1724913986617059906,-0.016907352954149246,0.06889000535011292,0.1951044797897339,-0.0028211367316544056,0.0032086207065731287,-0.32749858498573303,0.9448420405387878,0.0,0.0,0.0,0.0,0.0,0.0
9072,1724913986627241240,-0.016877084970474243,0.06890621781349182,0.19505460560321808,-0.001179638784378767,0.0035397473257035017,-0.3278363347053528,0.9447271823883057,0.0,0.0,0.0,0.0,0.0,0.0
9074,1724913986636990311,-0.01691867597401142,0.06889738142490387,0.1950421929359436,-0.002390821697190404,0.0031846805941313505,-0.3275221586227417,0.9448351263999939,0.0,0.0,0.0,0.0,0.0,0.0
9076,1724913986655788203,-0.016908079385757446,0.06888498365879059,0.1950746476650238,-0.0028323931619524956,0.0029958251398056746,-0.3275805115699768,0.9448142647743225,0.0,0.0,0.0,0.0,0.0,0.0
9078,1724913986658771008,-0.016901586204767227,0.0688905194401741,0.1950865387916565,-0.0028326446190476418,0.002986150560900569,-0.32749712467193604,0.9448432922363281,0.0,0.0,0.0,0.0,0.0,0.0
9080,1724913986675770137,-0.016864651814103127,0.06888069212436676,0.19504030048847198,-0.0010780205484479666,0.0033189686946570873,-0.3278561234474182,0.9447212815284729,0.0,0.0,0.0,0.0,0.0,0.0
9082,1724913986677042282,-0.016918303444981575,0.06889790296554565,0.19507825374603271,-0.0029330954421311617,0.003223635256290436,-0.3275722563266754,0.9448161721229553,0.0,0.0,0.0,0.0,0.0,0.0
9084,1724913986686902251,-0.01687261462211609,0.06890809535980225,0.1950845569372177,-0.001205809530802071,0.0036980961449444294,-0.3279499113559723,0.9446871280670166,0.0,0.0,0.0,0.0,0.0,0.0
9086,1724913986697164944,-0.016903363168239594,0.06889013200998306,0.1951003521680832,-0.002763833850622177,0.0031905907671898603,-0.32759058475494385,0.9448103904724121,0.0,0.0,0.0,0.0,0.0,0.0
9088,1724913986707120088,-0.016910821199417114,0.06890178471803665,0.1950864940881729,-0.0031291970517486334,0.0030257082544267178,-0.3275476098060608,0.9448246955871582,0.0,0.0,0.0,0.0,0.0,0.0
9090,1724913986719890042,-0.01692696288228035,0.06888151913881302,0.19509640336036682,-0.0030780648812651634,0.0030430126935243607,-0.32741010189056396,0.9448724389076233,0.0,0.0,0.0,0.0,0.0,0.0
9092,1724913986727325149,-0.016918977722525597,0.0688919872045517,0.19507859647274017,-0.002871615346521139,0.0030164739582687616,-0.32748547196388245,0.944847047328949,0.0,0.0,0.0,0.0,0.0,0.0
9094,1724913986738051834,-0.016919080168008804,0.06888997554779053,0.19508583843708038,-0.0030350249726325274,0.0031864356715232134,-0.32747942209243774,0.9448481202125549,0.0,0.0,0.0,0.0,0.0,0.0
9096,1724913986782760963,-0.01690753735601902,0.06890128552913666,0.19509021937847137,-0.002852614037692547,0.0031576917972415686,-0.3275216817855835,0.9448341727256775,0.0,0.0,0.0,0.0,0.0,0.0
9098,1724913986783877890,-0.016899846494197845,0.06890305131673813,0.19507867097854614,-0.002596860518679023,0.0030902253929525614,-0.3274379372596741,0.94486403465271,0.0,0.0,0.0,0.0,0.0,0.0
9100,1724913986784327765,-0.016907747834920883,0.06891140341758728,0.19509252905845642,-0.002790528815239668,0.0032956311479210854,-0.32747629284858704,0.9448494911193848,0.0,0.0,0.0,0.0,0.0,0.0
9102,1724913986784928100,-0.016908416524529457,0.06889071315526962,0.1950700581073761,-0.0017933864146471024,0.003545308019965887,-0.32786694169044495,0.9447156190872192,0.0,0.0,0.0,0.0,0.0,0.0
9104,1724913986787022291,-0.01689550280570984,0.06889323145151138,0.19505207240581512,-0.001398957334458828,0.0035335442516952753,-0.32795193791389465,0.944686770439148,0.0,0.0,0.0,0.0,0.0,0.0
9106,1724913986799256458,-0.01689286157488823,0.068904347717762,0.19504092633724213,-0.0016175691271200776,0.0034817312844097614,-0.3278748095035553,0.9447134137153625,0.0,0.0,0.0,0.0,0.0,0.0
9108,1724913986806949976,-0.01692073419690132,0.06889510154724121,0.19506439566612244,-0.002913743956014514,0.0032052993774414062,-0.3275589644908905,0.9448208808898926,0.0,0.0,0.0,0.0,0.0,0.0
9110,1724913986820029446,-0.016910001635551453,0.068898506462574,0.19508479535579681,-0.002757370239123702,0.0030814213678240776,-0.3275470435619354,0.9448258280754089,0.0,0.0,0.0,0.0,0.0,0.0
9112,1724913986828202517,-0.016910066828131676,0.06888358294963837,0.1950717568397522,-0.002929829293861985,0.0030984156765043736,-0.327456533908844,0.9448567032814026,0.0,0.0,0.0,0.0,0.0,0.0
9114,1724913986837119529,-0.016910327598452568,0.06888807564973831,0.19511209428310394,-0.002992254449054599,0.0031529180705547333,-0.3275400698184967,0.9448273181915283,0.0,0.0,0.0,0.0,0.0,0.0
9116,1724913986847706437,-0.016906142234802246,0.06887207180261612,0.19511009752750397,-0.0031802761368453503,0.003140027867630124,-0.32749152183532715,0.9448435306549072,0.0,0.0,0.0,0.0,0.0,0.0
9118,1724913986857914472,-0.01689673587679863,0.06888693571090698,0.19508062303066254,-0.0031062974594533443,0.0030214963480830193,-0.32749083638191223,0.9448444843292236,0.0,0.0,0.0,0.0,0.0,0.0
9120,1724913986867442738,-0.016912255436182022,0.06889265775680542,0.19506454467773438,-0.0030877706594765186,0.0029867468401789665,-0.3275102376937866,0.9448378682136536,0.0,0.0,0.0,0.0,0.0,0.0
9122,1724913986877624239,-0.016903545707464218,0.06888344138860703,0.19508083164691925,-0.0028777816332876682,0.0030417018570005894,-0.3274751305580139,0.9448505640029907,0.0,0.0,0.0,0.0,0.0,0.0
9124,1724913986887217453,-0.016897987574338913,0.06888781487941742,0.19506359100341797,-0.002967192092910409,0.0030401477124542,-0.3274511694908142,0.9448585510253906,0.0,0.0,0.0,0.0,0.0,0.0
9126,1724913986897123634,-0.016908228397369385,0.06888872385025024,0.1951090693473816,-0.0031936445739120245,0.0030537238344550133,-0.32756102085113525,0.9448196887969971,0.0,0.0,0.0,0.0,0.0,0.0
9128,1724913986907235736,-0.01692875474691391,0.06888731569051743,0.19511936604976654,-0.0034815813414752483,0.0030472709331661463,-0.32753342390060425,0.9448282718658447,0.0,0.0,0.0,0.0,0.0,0.0
9130,1724913986917724697,-0.01690351590514183,0.06888841092586517,0.19506138563156128,-0.0020354429725557566,0.0034317299723625183,-0.32787030935287476,0.9447143077850342,0.0,0.0,0.0,0.0,0.0,0.0
9132,1724913986927032977,-0.016927877441048622,0.06888073682785034,0.19508828222751617,-0.002695480827242136,0.0030902759172022343,-0.32755863666534424,0.9448220133781433,0.0,0.0,0.0,0.0,0.0,0.0
9134,1724913986937823119,-0.01691598817706108,0.0689048022031784,0.19508682191371918,-0.0027786074206233025,0.0031186521518975496,-0.32751256227493286,0.9448376893997192,0.0,0.0,0.0,0.0,0.0,0.0
9136,1724913986948299229,-0.016921542584896088,0.06890098005533218,0.19507411122322083,-0.003284383798018098,0.0031453040428459644,-0.3275114893913269,0.9448362588882446,0.0,0.0,0.0,0.0,0.0,0.0
9138,1724913986958659846,-0.016920240595936775,0.06888248771429062,0.19509568810462952,-0.0030541089363396168,0.0030884956941008568,-0.3274669349193573,0.9448526501655579,0.0,0.0,0.0,0.0,0.0,0.0
9140,1724913986967865130,-0.016931859776377678,0.06888855993747711,0.19508838653564453,-0.002972764428704977,0.0030975695699453354,-0.3274568021297455,0.9448564052581787,0.0,0.0,0.0,0.0,0.0,0.0
9142,1724913986978502228,-0.016909610480070114,0.06887620687484741,0.19509322941303253,-0.0026965406723320484,0.0030027274042367935,-0.32756751775741577,0.9448191523551941,0.0,0.0,0.0,0.0,0.0,0.0
9144,1724913986987194255,-0.01691192016005516,0.068875752389431,0.19509106874465942,-0.0030429307371377945,0.0030539799481630325,-0.3275516927242279,0.9448235034942627,0.0,0.0,0.0,0.0,0.0,0.0
9146,1724913986997485682,-0.016914859414100647,0.06887590140104294,0.1950979232788086,-0.003011551918461919,0.002967323176562786,-0.3274776339530945,0.9448494911193848,0.0,0.0,0.0,0.0,0.0,0.0
9148,1724913987007221292,-0.01692870259284973,0.06889354437589645,0.19509771466255188,-0.003418118227273226,0.003195358905941248,-0.32754096388816833,0.9448254108428955,0.0,0.0,0.0,0.0,0.0,0.0
9150,1724913987017879720,-0.016918970271945,0.06890857219696045,0.1950918734073639,-0.002973776776343584,0.0031483019702136517,-0.3274914622306824,0.9448442459106445,0.0,0.0,0.0,0.0,0.0,0.0
9152,1724913987027092733,-0.016907062381505966,0.06889450550079346,0.19507744908332825,-0.002889851341024041,0.003143555484712124,-0.327504962682724,0.9448397755622864,0.0,0.0,0.0,0.0,0.0,0.0
9154,1724913987037033264,-0.016905196011066437,0.06889449805021286,0.19507847726345062,-0.002634416101500392,0.0031194062903523445,-0.327555388212204,0.9448232054710388,0.0,0.0,0.0,0.0,0.0,0.0
9156,1724913987048947565,-0.016890086233615875,0.06889782100915909,0.1950424611568451,-0.0016412818804383278,0.0035633197985589504,-0.3278619349002838,0.944717526435852,0.0,0.0,0.0,0.0,0.0,0.0
9158,1724913987056926427,-0.016895553097128868,0.06889159232378006,0.1950293928384781,-0.0013282024301588535,0.0035259018186479807,-0.3278639018535614,0.9447174072265625,0.0,0.0,0.0,0.0,0.0,0.0
9160,1724913987068458648,-0.01691913604736328,0.06889915466308594,0.195077583193779,-0.0028792237862944603,0.0032589936163276434,-0.3275621235370636,0.9448196291923523,0.0,0.0,0.0,0.0,0.0,0.0
9162,1724913987078684838,-0.016913214698433876,0.06889860332012177,0.1950896680355072,-0.0028443546034395695,0.003021450713276863,-0.32750898599624634,0.9448389410972595,0.0,0.0,0.0,0.0,0.0,0.0
9164,1724913987087044760,-0.016924578696489334,0.06888188421726227,0.19509488344192505,-0.0032720044255256653,0.002955506555736065,-0.3273521959781647,0.944892168045044,0.0,0.0,0.0,0.0,0.0,0.0
9166,1724913987097501473,-0.01692432537674904,0.06888166815042496,0.19508056342601776,-0.0031672685872763395,0.002978196367621422,-0.32747140526771545,0.9448511004447937,0.0,0.0,0.0,0.0,0.0,0.0
9168,1724913987107808636,-0.01688995584845543,0.06888978183269501,0.19504399597644806,-0.0015984768979251385,0.003429210977628827,-0.32786476612091064,0.9447171688079834,0.0,0.0,0.0,0.0,0.0,0.0
9170,1724913987117625341,-0.016933664679527283,0.06886819005012512,0.19505539536476135,-0.0030489980708807707,0.0030964678153395653,-0.3275027275085449,0.9448402523994446,0.0,0.0,0.0,0.0,0.0,0.0
9172,1724913987127453949,-0.01690569519996643,0.06889697909355164,0.1950782984495163,-0.0028838806319981813,0.0030139039736241102,-0.3274764120578766,0.9448501467704773,0.0,0.0,0.0,0.0,0.0,0.0
9174,1724913987138673239,-0.016924913972616196,0.06889087706804276,0.19508962333202362,-0.003375411033630371,0.0031771576032042503,-0.3274522125720978,0.9448564052581787,0.0,0.0,0.0,0.0,0.0,0.0
9176,1724913987147302096,-0.01690436527132988,0.068894162774086,0.19508236646652222,-0.003126847092062235,0.0031058730091899633,-0.32745155692100525,0.9448577761650085,0.0,0.0,0.0,0.0,0.0,0.0
9178,1724913987158535138,-0.016903351992368698,0.06890352070331573,0.19508635997772217,-0.002941262209787965,0.0031363063026219606,-0.32752934098243713,0.9448311924934387,0.0,0.0,0.0,0.0,0.0,0.0
9180,1724913987171295182,-0.016918059438467026,0.0688960924744606,0.1951010376214981,-0.0033252860885113478,0.0030409004539251328,-0.3275521993637085,0.944822371006012,0.0,0.0,0.0,0.0,0.0,0.0
9182,1724913987179348393,-0.01693342998623848,0.06887137144804001,0.19510208070278168,-0.0032982812263071537,0.003030071035027504,-0.3275395333766937,0.9448268413543701,0.0,0.0,0.0,0.0,0.0,0.0
9184,1724913987203697774,-0.01691466011106968,0.06888718903064728,0.19507475197315216,-0.002857839222997427,0.002919440623372793,-0.3274705111980438,0.9448525905609131,0.0,0.0,0.0,0.0,0.0,0.0
9186,1724913987204277750,-0.01687156781554222,0.06888730078935623,0.19504354894161224,-0.0009446624317206442,0.0033893692307174206,-0.32790419459342957,0.9447044730186462,0.0,0.0,0.0,0.0,0.0,0.0
9188,1724913987207343729,-0.016912121325731277,0.06889083236455917,0.19505801796913147,-0.002730903448536992,0.003149354597553611,-0.3274993598461151,0.9448422193527222,0.0,0.0,0.0,0.0,0.0,0.0
9190,1724913987218620991,-0.016912508755922318,0.0689002275466919,0.19508080184459686,-0.003085535019636154,0.003121843794360757,-0.327542781829834,0.9448261857032776,0.0,0.0,0.0,0.0,0.0,0.0
9192,1724913987228679297,-0.01693912036716938,0.06888698041439056,0.19508415460586548,-0.003382080001756549,0.0031757422257214785,-0.3275139629840851,0.9448350071907043,0.0,0.0,0.0,0.0,0.0,0.0
9194,1724913987237588520,-0.016917046159505844,0.06887984275817871,0.19508585333824158,-0.0029808259569108486,0.0030469095800071955,-0.32753148674964905,0.9448306560516357,0.0,0.0,0.0,0.0,0.0,0.0
9196,1724913987247915635,-0.01689061149954796,0.06890465319156647,0.19504320621490479,-0.0015589427202939987,0.0035316746216267347,-0.3279244005680084,0.9446960687637329,0.0,0.0,0.0,0.0,0.0,0.0
9198,1724913987257616199,-0.016890864819288254,0.06889939308166504,0.1950317621231079,-0.0014982942957431078,0.0035779078025370836,-0.3279028534889221,0.9447035193443298,0.0,0.0,0.0,0.0,0.0,0.0
9200,1724913987268310505,-0.01690869778394699,0.06890757381916046,0.1950819045305252,-0.002598413499072194,0.003291865810751915,-0.3276292085647583,0.9447970986366272,0.0,0.0,0.0,0.0,0.0,0.0
9202,1724913987278227013,-0.016919417306780815,0.06886697560548782,0.1950724869966507,-0.003189908806234598,0.0029266183264553547,-0.32748711109161377,0.9448457360267639,0.0,0.0,0.0,0.0,0.0,0.0
9204,1724913987287063602,-0.01691531017422676,0.06886224448680878,0.1950845718383789,-0.0031216368079185486,0.002939144615083933,-0.3275330364704132,0.9448300004005432,0.0,0.0,0.0,0.0,0.0,0.0
9206,1724913987314796638,-0.01691635511815548,0.06886939704418182,0.19509418308734894,-0.0029859282076358795,0.0030104632023721933,-0.32751360535621643,0.9448370337486267,0.0,0.0,0.0,0.0,0.0,0.0
9208,1724913987315627148,-0.01691487617790699,0.06890412420034409,0.19509582221508026,-0.0029851330909878016,0.0031628012657165527,-0.32761234045028687,0.9448022246360779,0.0,0.0,0.0,0.0,0.0,0.0
9210,1724913987317531511,-0.01687590405344963,0.06890474259853363,0.19503311812877655,-0.0012979640159755945,0.0035217395052313805,-0.3279059827327728,0.9447029829025269,0.0,0.0,0.0,0.0,0.0,0.0
9212,1724913987327877018,-0.01690036989748478,0.06891300529241562,0.1950588971376419,-0.002445679157972336,0.003318706527352333,-0.32756900787353516,0.9448183178901672,0.0,0.0,0.0,0.0,0.0,0.0
9214,1724913987336970662,-0.016900498420000076,0.06889944523572922,0.19506140053272247,-0.0024942660238593817,0.002982041798532009,-0.3274570405483246,0.9448580741882324,0.0,0.0,0.0,0.0,0.0,0.0
9216,1724913987347111066,-0.016860853880643845,0.06892119348049164,0.19503964483737946,-0.0009256473276764154,0.0035308238584548235,-0.3279636800289154,0.9446833729743958,0.0,0.0,0.0,0.0,0.0,0.0
9218,1724913987375997892,-0.0169228482991457,0.06891294568777084,0.1950690597295761,-0.0030046356841921806,0.0032756102737039328,-0.32768774032592773,0.9447757005691528,0.0,0.0,0.0,0.0,0.0,0.0
9220,1724913987376327184,-0.016873368993401527,0.06888344883918762,0.19505229592323303,-0.0016422460321336985,0.00342732691206038,-0.3278779089450836,0.9447125196456909,0.0,0.0,0.0,0.0,0.0,0.0
9222,1724913987377299057,-0.016880368813872337,0.0688927099108696,0.19504870474338531,-0.001383651397190988,0.0034806986805051565,-0.32797884941101074,0.9446776509284973,0.0,0.0,0.0,0.0,0.0,0.0
9224,1724913987389000997,-0.016910148784518242,0.06890159845352173,0.1950799524784088,-0.002766773570328951,0.0031219820957630873,-0.3275485634803772,0.9448251724243164,0.0,0.0,0.0,0.0,0.0,0.0
9226,1724913987397443676,-0.016923878341913223,0.06889443099498749,0.19510428607463837,-0.0034692015033215284,0.0031396951526403427,-0.3275446891784668,0.9448241591453552,0.0,0.0,0.0,0.0,0.0,0.0
9228,1724913987407374256,-0.016896933317184448,0.0688953697681427,0.19506007432937622,-0.001709262141957879,0.0034621350932866335,-0.3279263973236084,0.9446954131126404,0.0,0.0,0.0,0.0,0.0,0.0
9230,1724913987417798668,-0.01691571995615959,0.06890133768320084,0.19507171213626862,-0.002472558291628957,0.0031563162337988615,-0.3275270164012909,0.9448333978652954,0.0,0.0,0.0,0.0,0.0,0.0
9232,1724913987426919122,-0.016879502683877945,0.06889862567186356,0.19502957165241241,-0.0012728471774607897,0.003388431388884783,-0.32781437039375305,0.9447352886199951,0.0,0.0,0.0,0.0,0.0,0.0
9234,1724913987438039441,-0.016919538378715515,0.06889776885509491,0.19504860043525696,-0.003010570304468274,0.0030831557232886553,-0.32757046818733215,0.9448170065879822,0.0,0.0,0.0,0.0,0.0,0.0
9236,1724913987447108577,-0.016916781663894653,0.06890154629945755,0.1950705498456955,-0.0032001433428376913,0.0030473859515041113,-0.32755520939826965,0.9448217153549194,0.0,0.0,0.0,0.0,0.0,0.0
9238,1724913987457758198,-0.016870610415935516,0.06890284270048141,0.195041686296463,-0.0014359279302880168,0.0034217508509755135,-0.3278937041759491,0.9447073340415955,0.0,0.0,0.0,0.0,0.0,0.0
9240,1724913987468205221,-0.016903143376111984,0.06890634447336197,0.19509249925613403,-0.002866985509172082,0.003258746350184083,-0.3276510238647461,0.944788932800293,0.0,0.0,0.0,0.0,0.0,0.0
9242,1724913987478655032,-0.01689811423420906,0.0688878744840622,0.19509051740169525,-0.00316873867996037,0.003027796046808362,-0.32747718691825867,0.9448489546775818,0.0,0.0,0.0,0.0,0.0,0.0
9244,1724913987487344697,-0.016870977357029915,0.06890053302049637,0.19504863023757935,-0.0012640329077839851,0.0034381903242319822,-0.32785502076148987,0.944720983505249,0.0,0.0,0.0,0.0,0.0,0.0
9246,1724913987497938014,-0.016898516565561295,0.06890369951725006,0.19505570828914642,-0.0024396791122853756,0.0031989016570150852,-0.32760754227638245,0.9448054432868958,0.0,0.0,0.0,0.0,0.0,0.0
9248,1724913987506995981,-0.016901226714253426,0.06889023631811142,0.1950792670249939,-0.0028057778254151344,0.0030701642390340567,-0.32750511169433594,0.9448403120040894,0.0,0.0,0.0,0.0,0.0,0.0
9250,1724913987520270657,-0.016912346705794334,0.06890171021223068,0.19508972764015198,-0.0028350159991532564,0.003208667039871216,-0.32749125361442566,0.9448446035385132,0.0,0.0,0.0,0.0,0.0,0.0
9252,1724913987526979486,-0.01690460368990898,0.06889975070953369,0.19509021937847137,-0.0031213636975735426,0.003166850423440337,-0.3275635540485382,0.9448187351226807,0.0,0.0,0.0,0.0,0.0,0.0
9254,1724913987537363400,-0.01689053885638714,0.06889137625694275,0.19503755867481232,-0.001730229239910841,0.003438082290813327,-0.32784268260002136,0.9447245597839355,0.0,0.0,0.0,0.0,0.0,0.0
9256,1724913987547371325,-0.016903018578886986,0.06889928877353668,0.19506241381168365,-0.002563689136877656,0.003198521211743355,-0.32761672139167786,0.9448018074035645,0.0,0.0,0.0,0.0,0.0,0.0
9258,1724913987557106813,-0.016917970031499863,0.06888019293546677,0.19507254660129547,-0.002924936357885599,0.002972289687022567,-0.32753169536590576,0.9448310732841492,0.0,0.0,0.0,0.0,0.0,0.0
9260,1724913987567901484,-0.016909543424844742,0.06889864057302475,0.1951005458831787,-0.003207323607057333,0.0032572238706052303,-0.3275841176509857,0.9448110461235046,0.0,0.0,0.0,0.0,0.0,0.0
9262,1724913987578039842,-0.016912665218114853,0.06889332085847855,0.19508139789104462,-0.003029595362022519,0.003061506897211075,-0.3274928033351898,0.9448438286781311,0.0,0.0,0.0,0.0,0.0,0.0
9264,1724913987587736090,-0.016873687505722046,0.06890586018562317,0.19502976536750793,-0.0014481960097327828,0.0034805298782885075,-0.3278578519821167,0.9447196125984192,0.0,0.0,0.0,0.0,0.0,0.0
9266,1724913987597233235,-0.01690847985446453,0.0688997432589531,0.19503705203533173,-0.0024407559540122747,0.003131114412099123,-0.32749059796333313,0.9448460936546326,0.0,0.0,0.0,0.0,0.0,0.0
9268,1724913987607887920,-0.016868242993950844,0.06891980767250061,0.19503581523895264,-0.0011139711132273078,0.003608936443924904,-0.3279156982898712,0.9446995258331299,0.0,0.0,0.0,0.0,0.0,0.0
9270,1724913987617121245,-0.016885831952095032,0.06890750676393509,0.19499798119068146,-0.0011673306580632925,0.0034788893535733223,-0.3278714120388031,0.9447153210639954,0.0,0.0,0.0,0.0,0.0,0.0
9272,1724913987627182227,-0.01691494509577751,0.06889692693948746,0.19504080712795258,-0.0026552097406238317,0.003068189835175872,-0.32743990421295166,0.9448633193969727,0.0,0.0,0.0,0.0,0.0,0.0
9274,1724913987638620123,-0.016909345984458923,0.06889240443706512,0.19508688151836395,-0.0028878492303192616,0.0029695958364754915,-0.32749247550964355,0.9448447823524475,0.0,0.0,0.0,0.0,0.0,0.0
9276,1724913987646884262,-0.01690625585615635,0.06889287382364273,0.1950976550579071,-0.0029271829407662153,0.00302364444360137,-0.3274777829647064,0.9448494911193848,0.0,0.0,0.0,0.0,0.0,0.0
9278,1724913987657290653,-0.016911501064896584,0.06890819221735,0.19509261846542358,-0.002705807564780116,0.003270186949521303,-0.32754796743392944,0.9448249936103821,0.0,0.0,0.0,0.0,0.0,0.0
9280,1724913987676926082,-0.016918905079364777,0.06888478994369507,0.19507291913032532,-0.002842024201527238,0.0032520387321710587,-0.32755985856056213,0.9448205232620239,0.0,0.0,0.0,0.0,0.0,0.0
9282,1724913987678152575,-0.01691649854183197,0.06888440251350403,0.1950821429491043,-0.002764770993962884,0.0031374574173241854,-0.3275127410888672,0.9448375701904297,0.0,0.0,0.0,0.0,0.0,0.0
9284,1724913987687376616,-0.016904260963201523,0.06888461112976074,0.19508014619350433,-0.002914175856858492,0.003033007262274623,-0.32755860686302185,0.9448214769363403,0.0,0.0,0.0,0.0,0.0,0.0
9286,1724913987697358120,-0.01686694286763668,0.06889867782592773,0.19503557682037354,-0.0008805415709502995,0.003395753912627697,-0.32792675495147705,0.9446966648101807,0.0,0.0,0.0,0.0,0.0,0.0
9288,1724913987707111124,-0.016903799027204514,0.06890786439180374,0.1950627565383911,-0.0025749634951353073,0.0032692980021238327,-0.3276234269142151,0.9447993040084839,0.0,0.0,0.0,0.0,0.0,0.0
9290,1724913987718509247,-0.016902374103665352,0.06891139596700668,0.19507254660129547,-0.0029333552811294794,0.0032013673335313797,-0.32752442359924316,0.9448327422142029,0.0,0.0,0.0,0.0,0.0,0.0
9292,1724913987727551862,-0.016878865659236908,0.06889674812555313,0.19503331184387207,-0.001349873491562903,0.003545793704688549,-0.32784655690193176,0.9447234272956848,0.0,0.0,0.0,0.0,0.0,0.0
9294,1724913987741407554,-0.016875531524419785,0.06890183687210083,0.19502569735050201,-0.0009126231889240444,0.0036243880167603493,-0.32795655727386475,0.9446853995323181,0.0,0.0,0.0,0.0,0.0,0.0
9296,1724913987747522111,-0.01691061072051525,0.06886415183544159,0.19498896598815918,-0.0016787915956228971,0.0032373941503465176,-0.327822744846344,0.9447321891784668,0.0,0.0,0.0,0.0,0.0,0.0
9298,1724913987757035343,-0.016892878338694572,0.06889496743679047,0.19503207504749298,-0.0012787000741809607,0.003331324551254511,-0.32784131169319153,0.9447260499000549,0.0,0.0,0.0,0.0,0.0,0.0
9300,1724913987767820590,-0.016902107745409012,0.06890880316495895,0.19505661725997925,-0.002488670637831092,0.0031102183274924755,-0.3275770843029022,0.9448160529136658,0.0,0.0,0.0,0.0,0.0,0.0
9302,1724913987777837952,-0.016902629286050797,0.06891169399023056,0.19507846236228943,-0.0027502309530973434,0.003162313485518098,-0.3275642693042755,0.9448196887969971,0.0,0.0,0.0,0.0,0.0,0.0
9304,1724913987786996942,-0.016895027831196785,0.06889733672142029,0.1950196772813797,-0.001528678578324616,0.0035062902607023716,-0.32783085107803345,0.9447287321090698,0.0,0.0,0.0,0.0,0.0,0.0
9306,1724913987798793587,-0.01690986007452011,0.06889217346906662,0.19501695036888123,-0.0015696410555392504,0.00344050582498312,-0.3278425931930542,0.9447248578071594,0.0,0.0,0.0,0.0,0.0,0.0
9308,1724913987807494872,-0.016882451251149178,0.0689077228307724,0.19501382112503052,-0.0011111710919067264,0.003470148891210556,-0.3278368413448334,0.9447274208068848,0.0,0.0,0.0,0.0,0.0,0.0
9310,1724913987817484836,-0.016911284998059273,0.06891287863254547,0.19506943225860596,-0.0026733148843050003,0.0032683282624930143,-0.3275807201862335,0.9448137879371643,0.0,0.0,0.0,0.0,0.0,0.0
9312,1724913987828227675,-0.016920028254389763,0.06890387088060379,0.19508826732635498,-0.0031451943796128035,0.0031605728436261415,-0.32758522033691406,0.9448111653327942,0.0,0.0,0.0,0.0,0.0,0.0
9314,1724913987837293445,-0.01690325140953064,0.06890355795621872,0.1950916051864624,-0.0028352830559015274,0.0031669880263507366,-0.32762131094932556,0.944799542427063,0.0,0.0,0.0,0.0,0.0,0.0
9316,1724913987848052628,-0.016888434067368507,0.0689130499958992,0.19503982365131378,-0.0016598443035036325,0.0036218164023011923,-0.32794061303138733,0.9446899890899658,0.0,0.0,0.0,0.0,0.0,0.0
9318,1724913987858152448,-0.016911908984184265,0.06890571117401123,0.19503383338451385,-0.0019945974927395582,0.0035360439214855433,-0.32790398597717285,0.9447023272514343,0.0,0.0,0.0,0.0,0.0,0.0
9320,1724913987868055860,-0.01690521277487278,0.0688924640417099,0.19505837559700012,-0.0025868304073810577,0.003088666358962655,-0.32753482460975647,0.9448305368423462,0.0,0.0,0.0,0.0,0.0,0.0
9322,1724913987884226930,-0.01690666377544403,0.06889275461435318,0.19509856402873993,-0.00302424980327487,0.0031277041416615248,-0.3275220990180969,0.944833517074585,0.0,0.0,0.0,0.0,0.0,0.0
9324,1724913987887846049,-0.01689288206398487,0.06889194250106812,0.19508062303066254,-0.0028195129707455635,0.0030677136965095997,-0.3274971544742584,0.9448429942131042,0.0,0.0,0.0,0.0,0.0,0.0
9326,1724913987900832233,-0.016920730471611023,0.06889814138412476,0.19508536159992218,-0.0031075833830982447,0.0031119296327233315,-0.32757121324539185,0.9448162913322449,0.0,0.0,0.0,0.0,0.0,0.0
9328,1724913987907336850,-0.01692233420908451,0.06888235360383987,0.19504575431346893,-0.002883908338844776,0.0029465649276971817,-0.3274011015892029,0.9448765516281128,0.0,0.0,0.0,0.0,0.0,0.0
9330,1724913987917527251,-0.01691070757806301,0.06889115273952484,0.19506488740444183,-0.0029429099522531033,0.003023916156962514,-0.3273942470550537,0.9448783993721008,0.0,0.0,0.0,0.0,0.0,0.0
9332,1724913987927017860,-0.01691482774913311,0.0688999593257904,0.19508205354213715,-0.0028599053621292114,0.0031295777298510075,-0.32749128341674805,0.944844663143158,0.0,0.0,0.0,0.0,0.0,0.0
9334,1724913987937059906,-0.016917424276471138,0.06890536844730377,0.195089191198349,-0.003002185607329011,0.003047493053600192,-0.32759690284729004,0.9448078870773315,0.0,0.0,0.0,0.0,0.0,0.0
9336,1724913987947063248,-0.016865532845258713,0.06891614943742752,0.19503460824489594,-0.0012727014254778624,0.003522134618833661,-0.32794907689094543,0.944688081741333,0.0,0.0,0.0,0.0,0.0,0.0
9338,1724913987957194931,-0.0169219970703125,0.06892509758472443,0.19504734873771667,-0.002596818143501878,0.0031924103386700153,-0.3275242745876312,0.9448338150978088,0.0,0.0,0.0,0.0,0.0,0.0
9340,1724913987967242056,-0.016865715384483337,0.06890351325273514,0.1950322985649109,-0.0013274331577122211,0.0034209592267870903,-0.32773178815841675,0.944763720035553,0.0,0.0,0.0,0.0,0.0,0.0
9342,1724913987992553675,-0.01691395789384842,0.06889083981513977,0.19507020711898804,-0.00271420506760478,0.0031372022349387407,-0.3274851143360138,0.9448472857475281,0.0,0.0,0.0,0.0,0.0,0.0
9344,1724913987992886137,-0.016882412135601044,0.06891219317913055,0.19501884281635284,-0.0014590246137231588,0.0036694593727588654,-0.327879399061203,0.9447113871574402,0.0,0.0,0.0,0.0,0.0,0.0
9346,1724913987996854516,-0.01689653843641281,0.06889031082391739,0.19500809907913208,-0.0015383366262540221,0.0035092823673039675,-0.3278801441192627,0.9447115659713745,0.0,0.0,0.0,0.0,0.0,0.0
9348,1724913988017661998,-0.01689450442790985,0.0688873827457428,0.19501297175884247,-0.00179478048812598,0.0035004441160708666,-0.3279637396335602,0.9446821212768555,0.0,0.0,0.0,0.0,0.0,0.0
9350,1724913988017974261,-0.01689586229622364,0.06888432800769806,0.19500964879989624,-0.0017256668070331216,0.0033768941648304462,-0.3278610408306122,0.9447183609008789,0.0,0.0,0.0,0.0,0.0,0.0
9352,1724913988027412558,-0.016870178282260895,0.06889178603887558,0.19503499567508698,-0.000987319741398096,0.003553571179509163,-0.3279890716075897,0.9446743130683899,0.0,0.0,0.0,0.0,0.0,0.0
9354,1724913988036935625,-0.016879085451364517,0.06888782232999802,0.19500726461410522,-0.0010719336569309235,0.003401881316676736,-0.3279431164264679,0.9446908235549927,0.0,0.0,0.0,0.0,0.0,0.0
9356,1724913988047944698,-0.01691596955060959,0.06889215111732483,0.19504861533641815,-0.002757744863629341,0.003132852027192712,-0.32753172516822815,0.9448310136795044,0.0,0.0,0.0,0.0,0.0,0.0
9358,1724913988057956513,-0.016874592751264572,0.06889346241950989,0.19500821828842163,-0.0011172018712386489,0.003397956257686019,-0.3277868330478668,0.9447450041770935,0.0,0.0,0.0,0.0,0.0,0.0
9360,1724913988067535415,-0.01686479151248932,0.06890009343624115,0.19500009715557098,-0.0007358992588706315,0.0034764346200972795,-0.32786428928375244,0.9447181820869446,0.0,0.0,0.0,0.0,0.0,0.0
9362,1724913988085557143,-0.016907230019569397,0.06890152394771576,0.19500629603862762,-0.0014050956815481186,0.003614085493609309,-0.3278673589229584,0.9447158575057983,0.0,0.0,0.0,0.0,0.0,0.0
9364,1724913988086933295,-0.016916409134864807,0.06889207661151886,0.19499889016151428,-0.00165793695487082,0.0033323699608445168,-0.3277405798435211,0.9447605013847351,0.0,0.0,0.0,0.0,0.0,0.0
9366,1724913988097095515,-0.016892865300178528,0.06888797134160995,0.19499976933002472,-0.0012730866437777877,0.0033308183774352074,-0.32783618569374084,0.9447278380393982,0.0,0.0,0.0,0.0,0.0,0.0
9368,1724913988107961574,-0.016887318342924118,0.06888365745544434,0.19500015676021576,-0.0009688267018646002,0.0033763539977371693,-0.3278377056121826,0.9447275400161743,0.0,0.0,0.0,0.0,0.0,0.0
9370,1724913988117747671,-0.01692526787519455,0.06890666484832764,0.19507262110710144,-0.0026177577674388885,0.003374177496880293,-0.3275551199913025,0.9448224902153015,0.0,0.0,0.0,0.0,0.0,0.0
9372,1724913988131615679,-0.0168662928044796,0.06889527291059494,0.19500865042209625,-0.0010076864855363965,0.003346771700307727,-0.32781344652175903,0.9447360634803772,0.0,0.0,0.0,0.0,0.0,0.0
9374,1724913988137051871,-0.01692061685025692,0.06889669597148895,0.19503556191921234,-0.0028090670239180326,0.00312780006788671,-0.3274820148944855,0.9448481202125549,0.0,0.0,0.0,0.0,0.0,0.0
9376,1724913988147085623,-0.01688266173005104,0.06891226768493652,0.19500960409641266,-0.0010461267083883286,0.003621257608756423,-0.32790690660476685,0.9447025060653687,0.0,0.0,0.0,0.0,0.0,0.0
9378,1724913988157353003,-0.016916250810027122,0.0688999593257904,0.19499969482421875,-0.0014010320883244276,0.003631025552749634,-0.3278527557849884,0.9447208046913147,0.0,0.0,0.0,0.0,0.0,0.0
9380,1724913988170974314,-0.016910521313548088,0.0689026489853859,0.19500423967838287,-0.0013899841578677297,0.0036691694986075163,-0.32787710428237915,0.944712221622467,0.0,0.0,0.0,0.0,0.0,0.0
9382,1724913988180674948,-0.016903411597013474,0.06889938563108444,0.1950111836194992,-0.0014666573842987418,0.0035181588027626276,-0.3278660774230957,0.9447165727615356,0.0,0.0,0.0,0.0,0.0,0.0
9384,1724913988187280257,-0.016916144639253616,0.06888564676046371,0.19503968954086304,-0.0017903876723721623,0.003503074636682868,-0.327946275472641,0.9446882605552673,0.0,0.0,0.0,0.0,0.0,0.0
9386,1724913988197148392,-0.016925262287259102,0.06889773160219193,0.19501739740371704,-0.001913603744469583,0.003489084541797638,-0.32786306738853455,0.9447168707847595,0.0,0.0,0.0,0.0,0.0,0.0
9388,1724913988211730009,-0.016918674111366272,0.06889840215444565,0.19506865739822388,-0.0029832145664840937,0.0031537236645817757,-0.32762080430984497,0.9447993636131287,0.0,0.0,0.0,0.0,0.0,0.0
9390,1724913988218494170,-0.016919242218136787,0.06889605522155762,0.19506554305553436,-0.003269533859565854,0.0030916640534996986,-0.32757726311683655,0.9448137283325195,0.0,0.0,0.0,0.0,0.0,0.0
9392,1724913988228054332,-0.016928210854530334,0.06889087706804276,0.19505466520786285,-0.0033905270975083113,0.0031196412164717913,-0.3275855779647827,0.9448103308677673,0.0,0.0,0.0,0.0,0.0,0.0
9394,1724913988236979328,-0.01691325381398201,0.06889982521533966,0.19505026936531067,-0.003032648703083396,0.003074673470109701,-0.3274707496166229,0.9448515176773071,0.0,0.0,0.0,0.0,0.0,0.0
9396,1724913988247459034,-0.016922567039728165,0.06889753043651581,0.19507497549057007,-0.0031085992231965065,0.003198439022526145,-0.32758423686027527,0.9448114633560181,0.0,0.0,0.0,0.0,0.0,0.0
9398,1724913988257121347,-0.016905957832932472,0.06889965385198593,0.19508042931556702,-0.0027564780320972204,0.0031524370424449444,-0.3275440037250519,0.9448267221450806,0.0,0.0,0.0,0.0,0.0,0.0
9400,1724913988267527283,-0.01690048538148403,0.06889896839857101,0.19502998888492584,-0.0017846932169049978,0.0034222376998513937,-0.3278403878211975,0.9447253346443176,0.0,0.0,0.0,0.0,0.0,0.0
9402,1724913988277509787,-0.016924085095524788,0.0689028725028038,0.19504854083061218,-0.0026872935704886913,0.0031651256140321493,-0.32751691341400146,0.9448361992835999,0.0,0.0,0.0,0.0,0.0,0.0
9404,1724913988287347781,-0.01690376177430153,0.06892457604408264,0.1950625628232956,-0.0027619805186986923,0.0030799300875514746,-0.3275226056575775,0.9448343515396118,0.0,0.0,0.0,0.0,0.0,0.0
9406,1724913988301679898,-0.016914598643779755,0.0689103901386261,0.195064514875412,-0.003230753354728222,0.0031325719319283962,-0.3275150656700134,0.9448352456092834,0.0,0.0,0.0,0.0,0.0,0.0
9408,1724913988306868232,-0.016916068270802498,0.06888397783041,0.19506828486919403,-0.0030764632392674685,0.0031203345861285925,-0.32754600048065186,0.9448251128196716,0.0,0.0,0.0,0.0,0.0,0.0
9410,1724913988317758811,-0.01688212901353836,0.06889272481203079,0.19502981007099152,-0.0014638436259701848,0.003446999005973339,-0.3278663754463196,0.94471675157547,0.0,0.0,0.0,0.0,0.0,0.0
9412,1724913988328519639,-0.016922255977988243,0.06890947371721268,0.19505205750465393,-0.0026674503460526466,0.0033598237205296755,-0.3276323974132538,0.944795548915863,0.0,0.0,0.0,0.0,0.0,0.0
9414,1724913988336964410,-0.016930783167481422,0.0688842236995697,0.19506236910820007,-0.003444722620770335,0.003026071470230818,-0.3274286687374115,0.944864809513092,0.0,0.0,0.0,0.0,0.0,0.0
9416,1724913988347643368,-0.016888828948140144,0.06887558102607727,0.1950269341468811,-0.0016682217828929424,0.003344459692016244,-0.3278806805610657,0.9447118043899536,0.0,0.0,0.0,0.0,0.0,0.0
9418,1724913988359404852,-0.016922231763601303,0.06887703388929367,0.19501414895057678,-0.001717482227832079,0.0033822893165051937,-0.32786235213279724,0.9447179436683655,0.0,0.0,0.0,0.0,0.0,0.0
