seq,stamp,px,py,pz,ox,oy,oz,ow,lx,ly,lz,ax,ay,az
264,1724557860888807366,-1.990222692489624,-0.008396228775382042,0.17282703518867493,-0.017212068662047386,-0.005566136445850134,0.36192449927330017,-0.9320319294929504,0.0,0.0,0.0,0.0,0.0,0.0
266,1724557860899256464,-1.9899773597717285,-0.008070063777267933,0.17341509461402893,-0.01640203408896923,-0.00808631256222725,0.3627651035785675,-0.9317011833190918,0.0,0.0,0.0,0.0,0.0,0.0
268,1724557860908722787,-1.9897886514663696,-0.007852509617805481,0.1738874763250351,-0.014579808339476585,-0.010271220467984676,0.3636397123336792,-0.9313690066337585,0.0,0.0,0.0,0.0,0.0,0.0
270,1724557860918641214,-1.9895926713943481,-0.007740753702819347,0.17432591319084167,-0.013261294923722744,-0.01236581802368164,0.364304780960083,-0.9311032295227051,0.0,0.0,0.0,0.0,0.0,0.0
272,1724557860929053266,-1.9894448518753052,-0.007754242978990078,0.1746620088815689,-0.012435372918844223,-0.013448100537061691,0.3644358515739441,-0.9310483932495117,0.0,0.0,0.0,0.0,0.0,0.0
274,1724557860938641756,-1.9893101453781128,-0.00783535372465849,0.17493827641010284,-0.012391846626996994,-0.014095819555222988,0.3644532263278961,-0.9310325384140015,0.0,0.0,0.0,0.0,0.0,0.0
276,1724557860949920164,-1.9891672134399414,-0.007963019423186779,0.17522002756595612,-0.012887714430689812,-0.014339206740260124,0.36432909965515137,-0.9310706853866577,0.0,0.0,0.0,0.0,0.0,0.0
278,1724557860958932951,-1.9890207052230835,-0.008087819442152977,0.17544826865196228,-0.013464521616697311,-0.01426941342651844,0.3639023005962372,-0.9312304854393005,0.0,0.0,0.0,0.0,0.0,0.0
280,1724557860970107748,-1.988790512084961,-0.00817378330975771,0.17569853365421295,-0.014458301477134228,-0.014199279248714447,0.36354517936706543,-0.9313561320304871,0.0,0.0,0.0,0.0,0.0,0.0
282,1724557860978973723,-1.9885694980621338,-0.008403308689594269,0.17568330466747284,-0.01572340354323387,-0.012859941460192204,0.36303481459617615,-0.9315541982650757,0.0,0.0,0.0,0.0,0.0,0.0
284,1724557861008003070,-1.9883254766464233,-0.008497677743434906,0.17583751678466797,-0.015760034322738647,-0.012668038718402386,0.3625980317592621,-0.9317262172698975,0.0,0.0,0.0,0.0,0.0,0.0
286,1724557861009553888,-1.98799729347229,-0.008269187062978745,0.17659281194210052,-0.014859671704471111,-0.01478244923055172,0.3633345067501068,-0.931423008441925,0.0,0.0,0.0,0.0,0.0,0.0
288,1724557861009902716,-1.9876446723937988,-0.008150079287588596,0.17714489996433258,-0.014967276714742184,-0.01635473594069481,0.3639174997806549,-0.9311674237251282,0.0,0.0,0.0,0.0,0.0,0.0
290,1724557861019396481,-1.98728346824646,-0.008279477246105671,0.17683552205562592,-0.016142304986715317,-0.014068737626075745,0.3629460632801056,-0.9315640330314636,0.0,0.0,0.0,0.0,0.0,0.0
292,1724557861029552179,-1.9868495464324951,-0.00802299752831459,0.17750580608844757,-0.016818393021821976,-0.015495490282773972,0.3639979958534241,-0.9311190247535706,0.0,0.0,0.0,0.0,0.0,0.0
294,1724557861038788440,-1.9864346981048584,-0.00806773267686367,0.1776048243045807,-0.016893232241272926,-0.0146951237693429,0.36396822333335876,-0.9311422109603882,0.0,0.0,0.0,0.0,0.0,0.0
296,1724557861048938414,-1.9860191345214844,-0.008086564019322395,0.17771515250205994,-0.01791486330330372,-0.014251796528697014,0.36413586139678955,-0.9310644865036011,0.0,0.0,0.0,0.0,0.0,0.0
298,1724557861058634275,-1.9855806827545166,-0.008025441318750381,0.17802493274211884,-0.018171964213252068,-0.015111611224710941,0.3646222651004791,-0.9308555722236633,0.0,0.0,0.0,0.0,0.0,0.0
300,1724557861068982257,-1.9851832389831543,-0.008107741363346577,0.17800280451774597,-0.017499685287475586,-0.013022725470364094,0.36420539021492004,-0.9310632348060608,0.0,0.0,0.0,0.0,0.0,0.0
302,1724557861081838386,-1.9847280979156494,-0.007974071428179741,0.1783592700958252,-0.01718257926404476,-0.0136771434918046,0.3649897575378418,-0.9307525157928467,0.0,0.0,0.0,0.0,0.0,0.0
304,1724557861089248602,-1.9842097759246826,-0.0077398791909217834,0.17877154052257538,-0.018915383145213127,-0.015339200384914875,0.36637768149375916,-0.9301474690437317,0.0,0.0,0.0,0.0,0.0,0.0
306,1724557861111298350,-1.9838032722473145,-0.007655356079339981,0.1788034290075302,-0.019115397706627846,-0.014869259670376778,0.3666670322418213,-0.9300370812416077,0.0,0.0,0.0,0.0,0.0,0.0
308,1724557861111991941,-1.9833636283874512,-0.007520290091633797,0.1789879947900772,-0.019845107570290565,-0.01526468526571989,0.36734071373939514,-0.9297493696212769,0.0,0.0,0.0,0.0,0.0,0.0
310,1724557861118512202,-1.982957124710083,-0.007440682500600815,0.17905443906784058,-0.01996961422264576,-0.01512124016880989,0.3679075837135315,-0.9295248985290527,0.0,0.0,0.0,0.0,0.0,0.0
312,1724557861128504015,-1.9825423955917358,-0.00736982561647892,0.17908667027950287,-0.02000419609248638,-0.014973240904510021,0.36827677488327026,-0.9293804168701172,0.0,0.0,0.0,0.0,0.0,0.0
314,1724557861138893828,-1.982102394104004,-0.007397687062621117,0.17892193794250488,-0.02039048634469509,-0.013352079316973686,0.3682192265987396,-0.9294194579124451,0.0,0.0,0.0,0.0,0.0,0.0
316,1724557861149198003,-1.981676697731018,-0.007364567369222641,0.17897750437259674,-0.020806850865483284,-0.013388201594352722,0.3686496913433075,-0.9292391538619995,0.0,0.0,0.0,0.0,0.0,0.0
318,1724557861159279142,-1.9812060594558716,-0.0073409900069236755,0.179207444190979,-0.02119140326976776,-0.014421251602470875,0.3692474365234375,-0.9289775490760803,0.0,0.0,0.0,0.0,0.0,0.0
320,1724557861168671550,-1.9807660579681396,-0.007180153392255306,0.1795959323644638,-0.021414997056126595,-0.015918517485260963,0.36996039748191833,-0.9286643266677856,0.0,0.0,0.0,0.0,0.0,0.0
322,1724557861180978167,-1.9803950786590576,-0.007087835110723972,0.17978186905384064,-0.021846827119588852,-0.01590864360332489,0.37051329016685486,-0.928433895111084,0.0,0.0,0.0,0.0,0.0,0.0
324,1724557861193362632,-1.9800708293914795,-0.007048739120364189,0.1798953413963318,-0.02231431007385254,-0.01566394418478012,0.3708140254020691,-0.9283068776130676,0.0,0.0,0.0,0.0,0.0,0.0
326,1724557861202167920,-1.9798016548156738,-0.006946895271539688,0.18007150292396545,-0.022016888484358788,-0.015629496425390244,0.3707922399044037,-0.9283233284950256,0.0,0.0,0.0,0.0,0.0,0.0
328,1724557861209158004,-1.9795331954956055,-0.006827135570347309,0.1803586781024933,-0.021865922957658768,-0.01601441018283367,0.37091541290283203,-0.9282710552215576,0.0,0.0,0.0,0.0,0.0,0.0
330,1724557861218934696,-1.9792704582214355,-0.006727948784828186,0.18062211573123932,-0.022375574335455894,-0.016235461458563805,0.3711388111114502,-0.928165853023529,0.0,0.0,0.0,0.0,0.0,0.0
332,1724557861230134390,-1.979012131690979,-0.0066874828189611435,0.1807498335838318,-0.023255469277501106,-0.016292624175548553,0.3710249662399292,-0.928188681602478,0.0,0.0,0.0,0.0,0.0,0.0
334,1724557861239605700,-1.9787393808364868,-0.006583202630281448,0.18110781908035278,-0.022841637954115868,-0.017155682668089867,0.37147778272628784,-0.9280022978782654,0.0,0.0,0.0,0.0,0.0,0.0
336,1724557861249929136,-1.978440523147583,-0.006526602432131767,0.181555837392807,-0.02326727658510208,-0.018066493794322014,0.3720780313014984,-0.9277338981628418,0.0,0.0,0.0,0.0,0.0,0.0
338,1724557861261104826,-1.9781522750854492,-0.006400425918400288,0.18198728561401367,-0.0237236600369215,-0.019351370632648468,0.37299278378486633,-0.9273290038108826,0.0,0.0,0.0,0.0,0.0,0.0
340,1724557861269968815,-1.9778879880905151,-0.006370714865624905,0.1820875108242035,-0.02347758412361145,-0.019402505829930305,0.373413622379303,-0.9271647930145264,0.0,0.0,0.0,0.0,0.0,0.0
342,1724557861282843224,-1.9775747060775757,-0.00641334243118763,0.1820356845855713,-0.024167543277144432,-0.018816696479916573,0.373477578163147,-0.9271333813667297,0.0,0.0,0.0,0.0,0.0,0.0
344,1724557861288611722,-1.9773293733596802,-0.0067824553698301315,0.18130815029144287,-0.025229565799236298,-0.015073471702635288,0.37263962626457214,-0.927510678768158,0.0,0.0,0.0,0.0,0.0,0.0
346,1724557861299268632,-1.9770581722259521,-0.006869204342365265,0.1810925304889679,-0.02548072673380375,-0.013612061738967896,0.37237030267715454,-0.9276345372200012,0.0,0.0,0.0,0.0,0.0,0.0
348,1724557861309623208,-1.9768388271331787,-0.006935193203389645,0.18089117109775543,-0.025851689279079437,-0.011116334237158298,0.3715462386608124,-0.9279878735542297,0.0,0.0,0.0,0.0,0.0,0.0
350,1724557861318593852,-1.976671814918518,-0.006770515814423561,0.18118928372859955,-0.02555868774652481,-0.012322898022830486,0.37220293283462524,-0.9277176260948181,0.0,0.0,0.0,0.0,0.0,0.0
352,1724557861328646345,-1.976503610610962,-0.00664347130805254,0.1813412755727768,-0.025698978453874588,-0.013124660588800907,0.37254980206489563,-0.927563488483429,0.0,0.0,0.0,0.0,0.0,0.0
354,1724557861339501348,-1.9763613939285278,-0.0066999392583966255,0.1812555491924286,-0.025603720918297768,-0.012658399529755116,0.3723754584789276,-0.9276425838470459,0.0,0.0,0.0,0.0,0.0,0.0
356,1724557861349619233,-1.9762351512908936,-0.006656568497419357,0.1813308596611023,-0.025611698627471924,-0.012457527220249176,0.3725566565990448,-0.9275723099708557,0.0,0.0,0.0,0.0,0.0,0.0
358,1724557861363524056,-1.9760875701904297,-0.006687778048217297,0.18142150342464447,-0.026120970025658607,-0.012424366548657417,0.372776597738266,-0.9274702072143555,0.0,0.0,0.0,0.0,0.0,0.0
360,1724557861368339637,-1.9759293794631958,-0.00653870590031147,0.1817992776632309,-0.026593254879117012,-0.014562283642590046,0.37393075227737427,-0.9269609451293945,0.0,0.0,0.0,0.0,0.0,0.0
362,1724557861379611120,-1.975854516029358,-0.00672035850584507,0.1816491186618805,-0.026444701477885246,-0.012160314247012138,0.37305742502212524,-0.9273515939712524,0.0,0.0,0.0,0.0,0.0,0.0
364,1724557861388927125,-1.9757505655288696,-0.006669667549431324,0.18193094432353973,-0.027117928490042686,-0.014031335711479187,0.3740072548389435,-0.9269230365753174,0.0,0.0,0.0,0.0,0.0,0.0
366,1724557861399203371,-1.9756863117218018,-0.006704774685204029,0.18209050595760345,-0.027611833065748215,-0.01427461113780737,0.3742292821407318,-0.9268150925636292,0.0,0.0,0.0,0.0,0.0,0.0
368,1724557861408723170,-1.9756604433059692,-0.006803063675761223,0.1820770502090454,-0.027420401573181152,-0.013762780465185642,0.3740069568157196,-0.9269183278083801,0.0,0.0,0.0,0.0,0.0,0.0
370,1724557861418344870,-1.9756181240081787,-0.00686431210488081,0.1821165382862091,-0.027267353609204292,-0.013787230476737022,0.37387794256210327,-0.9269744753837585,0.0,0.0,0.0,0.0,0.0,0.0
372,1724557861429678776,-1.975589394569397,-0.006868245080113411,0.18217778205871582,-0.027903907001018524,-0.01371586974710226,0.37396302819252014,-0.9269223213195801,0.0,0.0,0.0,0.0,0.0,0.0
374,1724557861439137949,-1.9755929708480835,-0.006886200979351997,0.18228325247764587,-0.02835136279463768,-0.013915950432419777,0.3739165663719177,-0.926924467086792,0.0,0.0,0.0,0.0,0.0,0.0
376,1724557861449532390,-1.9755831956863403,-0.006924932822585106,0.18241830170154572,-0.02823825366795063,-0.014079279266297817,0.3738194406032562,-0.9269646406173706,0.0,0.0,0.0,0.0,0.0,0.0
378,1724557861458830051,-1.9755847454071045,-0.0069106221199035645,0.1825624257326126,-0.027978988364338875,-0.014258704148232937,0.37393271923065186,-0.9269240498542786,0.0,0.0,0.0,0.0,0.0,0.0
380,1724557861470038177,-1.975544810295105,-0.006967168301343918,0.18263030052185059,-0.02870495617389679,-0.013961972668766975,0.3740313649177551,-0.9268665909767151,0.0,0.0,0.0,0.0,0.0,0.0
382,1724557861482736435,-1.975528359413147,-0.007007807493209839,0.1827089637517929,-0.028547564521431923,-0.014236501418054104,0.37407392263412476,-0.9268501400947571,0.0,0.0,0.0,0.0,0.0,0.0
384,1724557861489139503,-1.9754964113235474,-0.007071570493280888,0.18268275260925293,-0.028478067368268967,-0.014022694900631905,0.37392422556877136,-0.9269158840179443,0.0,0.0,0.0,0.0,0.0,0.0
386,1724557861499143207,-1.975435733795166,-0.007100921124219894,0.18269109725952148,-0.028254155069589615,-0.013993591070175171,0.3738236129283905,-0.9269638061523438,0.0,0.0,0.0,0.0,0.0,0.0
388,1724557861511711353,-1.9753880500793457,-0.00709410198032856,0.18273796141147614,-0.028727559372782707,-0.014300490729510784,0.37408366799354553,-0.9268395900726318,0.0,0.0,0.0,0.0,0.0,0.0
390,1724557861518862512,-1.9753804206848145,-0.0070278942584991455,0.18282216787338257,-0.02874007448554039,-0.014665503986179829,0.3741447329521179,-0.9268088340759277,0.0,0.0,0.0,0.0,0.0,0.0
392,1724557861528723593,-1.975373387336731,-0.007095457054674625,0.18269579112529755,-0.029120219871401787,-0.013862758874893188,0.373977929353714,-0.9268766641616821,0.0,0.0,0.0,0.0,0.0,0.0
394,1724557861540605235,-1.9753657579421997,-0.00708609726279974,0.1827227622270584,-0.02888854220509529,-0.014071475714445114,0.3739713430404663,-0.9268833994865417,0.0,0.0,0.0,0.0,0.0,0.0
396,1724557861549789168,-1.97537100315094,-0.007067505270242691,0.18277956545352936,-0.028954751789569855,-0.014466815628111362,0.37404391169548035,-0.9268460273742676,0.0,0.0,0.0,0.0,0.0,0.0
398,1724557861559582682,-1.9753649234771729,-0.007118874229490757,0.18274366855621338,-0.029102886095643044,-0.014047439210116863,0.37394386529922485,-0.9268882274627686,0.0,0.0,0.0,0.0,0.0,0.0
400,1724557861568642877,-1.9753509759902954,-0.007102023810148239,0.18277430534362793,-0.028950514271855354,-0.014089219272136688,0.3741471469402313,-0.9268102645874023,0.0,0.0,0.0,0.0,0.0,0.0
402,1724557861578630813,-1.9753291606903076,-0.007147539407014847,0.18273773789405823,-0.029187800362706184,-0.013826420530676842,0.37410664558410645,-0.9268231987953186,0.0,0.0,0.0,0.0,0.0,0.0
404,1724557861588825240,-1.9753174781799316,-0.007145672105252743,0.1827903538942337,-0.028954099863767624,-0.014066769741475582,0.37410324811935425,-0.9268282055854797,0.0,0.0,0.0,0.0,0.0,0.0
406,1724557861599519560,-1.9753097295761108,-0.00714469887316227,0.1828298717737198,-0.028771113604307175,-0.014292865991592407,0.37411391735076904,-0.9268261194229126,0.0,0.0,0.0,0.0,0.0,0.0
408,1724557861609412338,-1.9752957820892334,-0.007178361527621746,0.1828337162733078,-0.029034622013568878,-0.014352025464177132,0.3740708529949188,-0.9268344640731812,0.0,0.0,0.0,0.0,0.0,0.0
410,1724557861620596483,-1.9753087759017944,-0.007210324518382549,0.18285776674747467,-0.02923753298819065,-0.013987087644636631,0.3741499185562134,-0.9268016815185547,0.0,0.0,0.0,0.0,0.0,0.0
412,1724557861629833684,-1.9753241539001465,-0.007207393646240234,0.18303057551383972,-0.030043473467230797,-0.013873756863176823,0.37425073981285095,-0.9267368912696838,0.0,0.0,0.0,0.0,0.0,0.0
414,1724557861639144701,-1.9753386974334717,-0.007308949716389179,0.1831289529800415,-0.03029736876487732,-0.013262714259326458,0.37408447265625,-0.9268047213554382,0.0,0.0,0.0,0.0,0.0,0.0
416,1724557861648626268,-1.9753655195236206,-0.007405559532344341,0.18334372341632843,-0.030822942033410072,-0.013052685186266899,0.37413427233695984,-0.9267703294754028,0.0,0.0,0.0,0.0,0.0,0.0
418,1724557861659577174,-1.9753985404968262,-0.007517242804169655,0.1835220605134964,-0.030803894624114037,-0.012815659865736961,0.37393397092819214,-0.9268550276756287,0.0,0.0,0.0,0.0,0.0,0.0
420,1724557861670749698,-1.9753344058990479,-0.007393982261419296,0.1842193305492401,-0.03114745207130909,-0.015360011719167233,0.3747484087944031,-0.9264759421348572,0.0,0.0,0.0,0.0,0.0,0.0
422,1724557861679818405,-1.9753062725067139,-0.007351228967308998,0.18446429073810577,-0.029420441016554832,-0.014494798146188259,0.37473222613334656,-0.9265527725219727,0.0,0.0,0.0,0.0,0.0,0.0
424,1724557861689288749,-1.975096344947815,-0.007235975936055183,0.18495172262191772,-0.03173767775297165,-0.017414212226867676,0.37586769461631775,-0.9259659647941589,0.0,0.0,0.0,0.0,0.0,0.0
426,1724557861702486035,-1.9749196767807007,-0.007495330646634102,0.1841670274734497,-0.033525917679071426,-0.012991230003535748,0.37491902709007263,-0.9263601303100586,0.0,0.0,0.0,0.0,0.0,0.0
428,1724557861723684888,-1.9746791124343872,-0.007184578105807304,0.18474635481834412,-0.031894829124212265,-0.013599816709756851,0.3755175471305847,-0.9261664748191833,0.0,0.0,0.0,0.0,0.0,0.0
430,1724557861724420506,-1.9743140935897827,-0.006922202184796333,0.1854226440191269,-0.03332371264696121,-0.017101259902119637,0.3769834637641907,-0.9254624247550964,0.0,0.0,0.0,0.0,0.0,0.0
432,1724557861735370841,-1.9740042686462402,-0.007017936557531357,0.18527650833129883,-0.0332951545715332,-0.01622775010764599,0.37709710001945496,-0.9254328012466431,0.0,0.0,0.0,0.0,0.0,0.0
434,1724557861739562343,-1.9737135171890259,-0.007203720510005951,0.18497119843959808,-0.033541399985551834,-0.013219453394412994,0.3765901029109955,-0.9256782531738281,0.0,0.0,0.0,0.0,0.0,0.0
436,1724557861749964934,-1.9733458757400513,-0.007003656588494778,0.18565085530281067,-0.03466564416885376,-0.014978309161961079,0.37789103388786316,-0.9250797033309937,0.0,0.0,0.0,0.0,0.0,0.0
438,1724557861758433483,-1.9731241464614868,-0.006976563949137926,0.1858793944120407,-0.03332262486219406,-0.013444626703858376,0.3787553012371063,-0.9247990250587463,0.0,0.0,0.0,0.0,0.0,0.0
440,1724557861769524807,-1.972813606262207,-0.006833556108176708,0.18619444966316223,-0.03399329632520676,-0.014585651457309723,0.3793891966342926,-0.9244974851608276,0.0,0.0,0.0,0.0,0.0,0.0
442,1724557861780754303,-1.972580909729004,-0.006819869391620159,0.18608631193637848,-0.03417466580867767,-0.012797069735825062,0.3790443539619446,-0.9246587157249451,0.0,0.0,0.0,0.0,0.0,0.0
444,1724557861788454844,-1.972294807434082,-0.006728830747306347,0.18615703284740448,-0.03553382679820061,-0.01294975820928812,0.379252552986145,-0.924519956111908,0.0,0.0,0.0,0.0,0.0,0.0
446,1724557861800379593,-1.9718760251998901,-0.006960761733353138,0.18525978922843933,-0.0380631722509861,-0.011847198940813541,0.37793514132499695,-0.9249734878540039,0.0,0.0,0.0,0.0,0.0,0.0
448,1724557861808855121,-1.971563696861267,-0.0069672828540205956,0.18495596945285797,-0.04033597186207771,-0.010177761316299438,0.3777628242969513,-0.9249674677848816,0.0,0.0,0.0,0.0,0.0,0.0
450,1724557861818587398,-1.9712995290756226,-0.00673734862357378,0.18523897230625153,-0.04101147875189781,-0.011056127957999706,0.37828347086906433,-0.9247148633003235,0.0,0.0,0.0,0.0,0.0,0.0
452,1724557861830447903,-1.971114993095398,-0.006737123243510723,0.18482744693756104,-0.04207544028759003,-0.009621502831578255,0.3781284987926483,-0.9247464537620544,0.0,0.0,0.0,0.0,0.0,0.0
454,1724557861839431445,-1.9709330797195435,-0.0066476548090577126,0.1846628487110138,-0.04364847391843796,-0.009281089529395103,0.37838923931121826,-0.9245703220367432,0.0,0.0,0.0,0.0,0.0,0.0
456,1724557861849962744,-1.9707669019699097,-0.0065129660069942474,0.18452304601669312,-0.04507274553179741,-0.008973096497356892,0.37836071848869324,-0.9245166778564453,0.0,0.0,0.0,0.0,0.0,0.0
458,1724557861858856489,-1.9706003665924072,-0.006417416967451572,0.1842479407787323,-0.04648014158010483,-0.008178554475307465,0.3780002295970917,-0.9246019124984741,0.0,0.0,0.0,0.0,0.0,0.0
460,1724557861869088256,-1.9704455137252808,-0.006329556927084923,0.18407011032104492,-0.048617780208587646,-0.007304898928850889,0.37783247232437134,-0.9245677590370178,0.0,0.0,0.0,0.0,0.0,0.0
462,1724557861880979692,-1.9702949523925781,-0.00616203248500824,0.18394938111305237,-0.05003957822918892,-0.007185924798250198,0.3778451085090637,-0.9244877099990845,0.0,0.0,0.0,0.0,0.0,0.0
464,1724557861889072288,-1.970157504081726,-0.006070935167372227,0.1837378442287445,-0.051616597920656204,-0.007170237135142088,0.37807410955429077,-0.9243074655532837,0.0,0.0,0.0,0.0,0.0,0.0
466,1724557861899301020,-1.969992756843567,-0.00593358650803566,0.18349581956863403,-0.05345526710152626,-0.006172905210405588,0.3780483305454254,-0.9242208003997803,0.0,0.0,0.0,0.0,0.0,0.0
468,1724557861909273603,-1.9698456525802612,-0.0058208368718624115,0.18333753943443298,-0.05398321896791458,-0.004663574974983931,0.3777921795845032,-0.9243036508560181,0.0,0.0,0.0,0.0,0.0,0.0
470,1724557861918642268,-1.969709873199463,-0.005632754415273666,0.18343694508075714,-0.0550377294421196,-0.005476159509271383,0.3783206045627594,-0.9240208268165588,0.0,0.0,0.0,0.0,0.0,0.0
472,1724557861936688470,-1.9695897102355957,-0.005561667028814554,0.18343636393547058,-0.05604524910449982,-0.005152844823896885,0.37858718633651733,-0.9238528609275818,0.0,0.0,0.0,0.0,0.0,0.0
474,1724557861941022136,-1.9694920778274536,-0.005179304629564285,0.18395602703094482,-0.05698075890541077,-0.00861656665802002,0.3804069757461548,-0.9230219125747681,0.0,0.0,0.0,0.0,0.0,0.0
476,1724557861950227724,-1.9693914651870728,-0.0051319655030965805,0.18366700410842896,-0.05760407820343971,-0.006239042151719332,0.3805427849292755,-0.9229464530944824,0.0,0.0,0.0,0.0,0.0,0.0
478,1724557861958841058,-1.9693121910095215,-0.005022606812417507,0.18361014127731323,-0.05897674337029457,-0.006013566628098488,0.3812827169895172,-0.9225558042526245,0.0,0.0,0.0,0.0,0.0,0.0
480,1724557861968729976,-1.969307780265808,-0.004514218308031559,0.18428583443164825,-0.05874447897076607,-0.008687167428433895,0.38295114040374756,-0.9218579530715942,0.0,0.0,0.0,0.0,0.0,0.0
482,1724557861979126456,-1.9693574905395508,-0.0041971514001488686,0.1846078783273697,-0.05842216685414314,-0.00905295554548502,0.3847338855266571,-0.9211322665214539,0.0,0.0,0.0,0.0,0.0,0.0
484,1724557861989692374,-1.9693331718444824,-0.003982361406087875,0.18455877900123596,-0.0592736192047596,-0.008880374021828175,0.38549089431762695,-0.9207630157470703,0.0,0.0,0.0,0.0,0.0,0.0
486,1724557862000200793,-1.9693204164505005,-0.003799262922257185,0.1843874305486679,-0.05986796319484711,-0.008079770021140575,0.38601410388946533,-0.9205126762390137,0.0,0.0,0.0,0.0,0.0,0.0
488,1724557862010465190,-1.9693280458450317,-0.0036143390461802483,0.18422822654247284,-0.06044214218854904,-0.0076245032250881195,0.3865295350551605,-0.9202627539634705,0.0,0.0,0.0,0.0,0.0,0.0
490,1724557862018425829,-1.969187617301941,-0.0038053845055401325,0.18329228460788727,-0.06340475380420685,-0.00613046670332551,0.3856147229671478,-0.9204583764076233,0.0,0.0,0.0,0.0,0.0,0.0
492,1724557862029085243,-1.9691654443740845,-0.0036076540127396584,0.18310514092445374,-0.06361888349056244,-0.005408282391726971,0.3860187828540802,-0.920278787612915,0.0,0.0,0.0,0.0,0.0,0.0
494,1724557862038860438,-1.9691492319107056,-0.00339579489082098,0.18308332562446594,-0.06436879932880402,-0.00541809294372797,0.386802077293396,-0.9198974967002869,0.0,0.0,0.0,0.0,0.0,0.0
496,1724557862049137302,-1.9691170454025269,-0.0036479849368333817,0.18198035657405853,-0.06437455862760544,-0.000627772300504148,0.3857327997684479,-0.9203617572784424,0.0,0.0,0.0,0.0,0.0,0.0
498,1724557862058450125,-1.9690178632736206,-0.0034749475307762623,0.181818425655365,-0.06660179048776627,0.0004265008319634944,0.3860805332660675,-0.9200575351715088,0.0,0.0,0.0,0.0,0.0,0.0
500,1724557862069592920,-1.9689213037490845,-0.003303312696516514,0.18182043731212616,-0.06647060811519623,5.997571861371398e-05,0.38681560754776,-0.9197583198547363,0.0,0.0,0.0,0.0,0.0,0.0
502,1724557862079885278,-1.9687800407409668,-0.0032237153500318527,0.1815548688173294,-0.06622044742107391,0.0010043137008324265,0.3869766294956207,-0.9197081327438354,0.0,0.0,0.0,0.0,0.0,0.0
504,1724557862090091720,-1.968637466430664,-0.003054508939385414,0.18149910867214203,-0.06616395711898804,0.000806947413366288,0.38743895292282104,-0.9195176959037781,0.0,0.0,0.0,0.0,0.0,0.0
506,1724557862098958697,-1.9684408903121948,-0.002974029164761305,0.18136803805828094,-0.06629769504070282,0.0010190109023824334,0.38777440786361694,-0.9193664193153381,0.0,0.0,0.0,0.0,0.0,0.0
508,1724557862110020798,-1.9682722091674805,-0.002984700258821249,0.18109053373336792,-0.06534307450056076,0.003076303983107209,0.38709723949432373,-0.9197154641151428,0.0,0.0,0.0,0.0,0.0,0.0
510,1724557862118715795,-1.9680942296981812,-0.0027487818151712418,0.18115027248859406,-0.06523594260215759,0.0021907491609454155,0.38793718814849854,-0.9193716645240784,0.0,0.0,0.0,0.0,0.0,0.0
512,1724557862129567648,-1.967854619026184,-0.002282571978867054,0.18146398663520813,-0.06510918587446213,0.0010958696948364377,0.38958248496055603,-0.9186866283416748,0.0,0.0,0.0,0.0,0.0,0.0
514,1724557862139623569,-1.9676339626312256,-0.0022196643985807896,0.18117418885231018,-0.06549179553985596,0.0022180250380188227,0.38973468542099,-0.9185928106307983,0.0,0.0,0.0,0.0,0.0,0.0
516,1724557862150778589,-1.9674131870269775,-0.0020396593026816845,0.1812659502029419,-0.0659887045621872,0.0015388666652143002,0.39040347933769226,-0.9182746410369873,0.0,0.0,0.0,0.0,0.0,0.0
518,1724557862160828856,-1.967158555984497,-0.002109433291479945,0.18074491620063782,-0.06638317555189133,0.004306259099394083,0.3900400400161743,-0.9183918833732605,0.0,0.0,0.0,0.0,0.0,0.0
520,1724557862168549965,-1.9670528173446655,-0.0016006635269150138,0.1817585825920105,-0.06434609740972519,0.001059028902091086,0.3915291726589203,-0.9179125428199768,0.0,0.0,0.0,0.0,0.0,0.0
522,1724557862178741439,-1.966963768005371,-0.00134551664814353,0.1820710003376007,-0.06296847015619278,0.0012092131655663252,0.39302730560302734,-0.9173675179481506,0.0,0.0,0.0,0.0,0.0,0.0
524,1724557862189722480,-1.9667686223983765,-0.0009684390388429165,0.1823607236146927,-0.06394539028406143,-0.0016542024677619338,0.39419642090797424,-0.916797399520874,0.0,0.0,0.0,0.0,0.0,0.0
526,1724557862200050200,-1.9665921926498413,-0.0007941825315356255,0.18226678669452667,-0.06396695971488953,-0.0006992007838562131,0.39445820450782776,-0.9166845679283142,0.0,0.0,0.0,0.0,0.0,0.0
528,1724557862209316813,-1.9663676023483276,-0.000545963179320097,0.1822885423898697,-0.06413157284259796,-0.0013592697214335203,0.39491888880729675,-0.9164738655090332,0.0,0.0,0.0,0.0,0.0,0.0
530,1724557862244697322,-1.9661431312561035,-0.0003821873106062412,0.1822318434715271,-0.06496454775333405,-0.0009612581343390048,0.39531245827674866,-0.9162459969520569,0.0,0.0,0.0,0.0,0.0,0.0
532,1724557862245054578,-1.9659351110458374,-0.00019299238920211792,0.18216116726398468,-0.06529560685157776,-0.0011179735884070396,0.3955633342266083,-0.9161140322685242,0.0,0.0,0.0,0.0,0.0,0.0
534,1724557862245334161,-1.965611219406128,-0.0003261202946305275,0.18121646344661713,-0.06740464270114899,-2.6863346647587605e-05,0.3944598138332367,-0.9164378046989441,0.0,0.0,0.0,0.0,0.0,0.0
536,1724557862252735795,-1.9653955698013306,-0.00019763316959142685,0.1810983270406723,-0.06794366985559464,0.0006781462579965591,0.39456069469451904,-0.916354238986969,0.0,0.0,0.0,0.0,0.0,0.0
538,1724557862261088784,-1.965223789215088,1.398380845785141e-05,0.18122856318950653,-0.067060686647892,-0.000193527273950167,0.3949566185474396,-0.9162489175796509,0.0,0.0,0.0,0.0,0.0,0.0
540,1724557862276583027,-1.9650274515151978,8.694035932421684e-05,0.18115614354610443,-0.06724260002374649,0.000325241795508191,0.3952423930168152,-0.9161123633384705,0.0,0.0,0.0,0.0,0.0,0.0
542,1724557862278736295,-1.9648419618606567,0.00022923573851585388,0.18122553825378418,-0.06737791746854782,-0.0001655340165598318,0.3957866430282593,-0.9158673882484436,0.0,0.0,0.0,0.0,0.0,0.0
544,1724557862289360939,-1.9645949602127075,0.0003082873299717903,0.18115361034870148,-0.06817703694105148,0.0003397142281755805,0.39611056447029114,-0.915668249130249,0.0,0.0,0.0,0.0,0.0,0.0
546,1724557862302527084,-1.9643670320510864,0.0004003634676337242,0.18139159679412842,-0.06790047883987427,-0.0011981517309322953,0.3965302109718323,-0.9155064821243286,0.0,0.0,0.0,0.0,0.0,0.0
548,1724557862309055276,-1.9641435146331787,0.00045764120295643806,0.18136189877986908,-0.06780553609132767,-0.0015162163181230426,0.396710067987442,-0.9154350161552429,0.0,0.0,0.0,0.0,0.0,0.0
550,1724557862319116359,-1.9639109373092651,0.0005012208130210638,0.1812453716993332,-0.06805691123008728,-0.001282304059714079,0.39678317308425903,-0.9153850674629211,0.0,0.0,0.0,0.0,0.0,0.0
552,1724557862328865932,-1.9637030363082886,0.0005340029019862413,0.18112832307815552,-0.06804032623767853,-0.0011703531490638852,0.39696836471557617,-0.9153061509132385,0.0,0.0,0.0,0.0,0.0,0.0
554,1724557862341085225,-1.9635099172592163,0.0005490055773407221,0.18096503615379333,-0.06807437539100647,-0.0007616944494657218,0.39706841111183167,-0.9152606129646301,0.0,0.0,0.0,0.0,0.0,0.0
556,1724557862350132409,-1.9633426666259766,0.00048664462519809604,0.18072058260440826,-0.06850726157426834,0.0001079995054169558,0.3971119225025177,-0.9152097105979919,0.0,0.0,0.0,0.0,0.0,0.0
558,1724557862359024654,-1.9632230997085571,0.0005319302435964346,0.18069036304950714,-0.06839842349290848,0.000281407090369612,0.39733970165252686,-0.9151190519332886,0.0,0.0,0.0,0.0,0.0,0.0
560,1724557862368819814,-1.9631390571594238,0.00033310637809336185,0.18017342686653137,-0.06952972710132599,0.0037212471943348646,0.39647334814071655,-0.9154018759727478,0.0,0.0,0.0,0.0,0.0,0.0
562,1724557862378739049,-1.9630765914916992,0.0003093401901423931,0.17994600534439087,-0.06883962452411652,0.00473757553845644,0.3960583806037903,-0.915628969669342,0.0,0.0,0.0,0.0,0.0,0.0
564,1724557862389007980,-1.9630343914031982,0.0003654113970696926,0.17984655499458313,-0.0674804076552391,0.004704620223492384,0.39588430523872375,-0.9158056974411011,0.0,0.0,0.0,0.0,0.0,0.0
566,1724557862405511109,-1.9629417657852173,0.00042933091754093766,0.17996561527252197,-0.06813903898000717,0.00413817772641778,0.3963441252708435,-0.9155606031417847,0.0,0.0,0.0,0.0,0.0,0.0
568,1724557862409931233,-1.96288001537323,0.0004547201097011566,0.17985719442367554,-0.06764201819896698,0.004003778100013733,0.3963732123374939,-0.9155855178833008,0.0,0.0,0.0,0.0,0.0,0.0
570,1724557862419214573,-1.9627890586853027,0.0005004026461392641,0.17982825636863708,-0.0671328753232956,0.0038820100016891956,0.39640697836875916,-0.9156088829040527,0.0,0.0,0.0,0.0,0.0,0.0
572,1724557862432484124,-1.9626998901367188,0.0005191606469452381,0.17970147728919983,-0.06603295356035233,0.00410358514636755,0.3964053988456726,-0.9156886339187622,0.0,0.0,0.0,0.0,0.0,0.0
574,1724557862438794172,-1.9625802040100098,0.0005960401613265276,0.17965076863765717,-0.06660804897546768,0.004010501783341169,0.39646801352500916,-0.9156202673912048,0.0,0.0,0.0,0.0,0.0,0.0
576,1724557862449327149,-1.9624974727630615,0.0006249283906072378,0.17981700599193573,-0.06553524732589722,0.0037235261406749487,0.39636048674583435,-0.9157454371452332,0.0,0.0,0.0,0.0,0.0,0.0
578,1724557862458667580,-1.9623481035232544,0.0007226085290312767,0.17977593839168549,-0.06603890657424927,0.0023039807565510273,0.3967970907688141,-0.9155247807502747,0.0,0.0,0.0,0.0,0.0,0.0
580,1724557862468729888,-1.9621610641479492,0.0006999577162787318,0.17968806624412537,-0.06664565205574036,0.0025026940274983644,0.396658718585968,-0.9155402183532715,0.0,0.0,0.0,0.0,0.0,0.0
582,1724557862570496093,-1.962062954902649,0.0010081900982186198,0.18032056093215942,-0.06530890613794327,0.00100691185798496,0.39712798595428467,-0.9154359698295593,0.0,0.0,0.0,0.0,0.0,0.0
584,1724557862570776725,-1.9619219303131104,0.0008272944251075387,0.17943093180656433,-0.06628773361444473,0.00290162512101233,0.39692163467407227,-0.915451169013977,0.0,0.0,0.0,0.0,0.0,0.0
586,1724557862571036040,-1.9618278741836548,0.0009681152878329158,0.17941871285438538,-0.06499125808477402,0.004193433560431004,0.3967946767807007,-0.9155940413475037,0.0,0.0,0.0,0.0,0.0,0.0
588,1724557862571438522,-1.9617784023284912,0.0012395603116601706,0.17992672324180603,-0.06444983929395676,0.001948775490745902,0.39794468879699707,-0.9151408076286316,0.0,0.0,0.0,0.0,0.0,0.0
590,1724557862571923408,-1.96172297000885,0.0014189735520631075,0.1804637610912323,-0.06448519974946976,0.00029264448676258326,0.39892083406448364,-0.9147151112556458,0.0,0.0,0.0,0.0,0.0,0.0
592,1724557862572933733,-1.9617518186569214,0.0014558038674294949,0.18052485585212708,-0.06315713375806808,0.0012427399633452296,0.3995558023452759,-0.9145298600196838,0.0,0.0,0.0,0.0,0.0,0.0
594,1724557862573220883,-1.961692452430725,0.0016249725595116615,0.1807837337255478,-0.0632438212633133,-0.0005198834696784616,0.400306761264801,-0.9141961932182312,0.0,0.0,0.0,0.0,0.0,0.0
596,1724557862573582928,-1.9616025686264038,0.0016800547018647194,0.18073715269565582,-0.06328029185533524,-0.000512012979015708,0.4003356993198395,-0.9141808748245239,0.0,0.0,0.0,0.0,0.0,0.0
598,1724557862573863396,-1.9614924192428589,0.0017077545635402203,0.18064124882221222,-0.06349905580282211,-0.00028240229585208,0.40035751461982727,-0.9141563177108765,0.0,0.0,0.0,0.0,0.0,0.0
600,1724557862574135417,-1.9613714218139648,0.001732037402689457,0.18056124448776245,-0.06337770074605942,-3.786689921980724e-05,0.4003164768218994,-0.9141827821731567,0.0,0.0,0.0,0.0,0.0,0.0
602,1724557862578926611,-1.9610763788223267,0.0013793195830658078,0.17922502756118774,-0.06643706560134888,0.003025613259524107,0.3986299932003021,-0.9146972894668579,0.0,0.0,0.0,0.0,0.0,0.0
604,1724557862589635194,-1.9608955383300781,0.001588325249031186,0.17966829240322113,-0.06623107194900513,0.0015779683599248528,0.39906182885169983,-0.9145275354385376,0.0,0.0,0.0,0.0,0.0,0.0
606,1724557862599272342,-1.9607337713241577,0.0016495485324412584,0.17958343029022217,-0.06570681929588318,0.0017777977045625448,0.3994077146053314,-0.9144139885902405,0.0,0.0,0.0,0.0,0.0,0.0
608,1724557862608720148,-1.9605804681777954,0.0017398439813405275,0.1796010136604309,-0.06523817032575607,0.0015230962308123708,0.3997828960418701,-0.9142841100692749,0.0,0.0,0.0,0.0,0.0,0.0
610,1724557862619309197,-1.9604582786560059,0.0016990473959594965,0.1792130023241043,-0.0647956058382988,0.0044791619293391705,0.3995230197906494,-0.9144194722175598,0.0,0.0,0.0,0.0,0.0,0.0
612,1724557862643452661,-1.960263967514038,0.0022060489282011986,0.18020732700824738,-0.06507647782564163,0.00040267501026391983,0.4011686444282532,-0.9136896729469299,0.0,0.0,0.0,0.0,0.0,0.0
614,1724557862643829682,-1.9601305723190308,0.002479156479239464,0.1805788278579712,-0.06335960328578949,3.793562427745201e-05,0.40246880054473877,-0.9132384061813354,0.0,0.0,0.0,0.0,0.0,0.0
616,1724557862648660628,-1.9598431587219238,0.0028691389597952366,0.1810549795627594,-0.06377298384904861,-0.002658628858625889,0.403243750333786,-0.9128638505935669,0.0,0.0,0.0,0.0,0.0,0.0
618,1724557862658712136,-1.9594106674194336,0.0027026149909943342,0.17994481325149536,-0.06650587916374207,0.00025858409935608506,0.4018132984638214,-0.9133033156394958,0.0,0.0,0.0,0.0,0.0,0.0
620,1724557862668634422,-1.9590816497802734,0.002787484787404537,0.17960800230503082,-0.06650850176811218,0.002817231696099043,0.4008442759513855,-0.9137245416641235,0.0,0.0,0.0,0.0,0.0,0.0
622,1724557862679053111,-1.958778738975525,0.0030833131168037653,0.17953631281852722,-0.06837271898984909,0.0018908068304881454,0.40156763792037964,-0.9132716655731201,0.0,0.0,0.0,0.0,0.0,0.0
624,1724557862688813131,-1.9585566520690918,0.003177175996825099,0.1796298772096634,-0.06892237067222595,0.001609209575690329,0.4013745188713074,-0.9133157730102539,0.0,0.0,0.0,0.0,0.0,0.0
626,1724557862703298925,-1.958402156829834,0.003336803987622261,0.17910000681877136,-0.06745462119579315,0.004445631522685289,0.40051183104515076,-0.9137945771217346,0.0,0.0,0.0,0.0,0.0,0.0
628,1724557862709503324,-1.958207368850708,0.003562924452126026,0.17896029353141785,-0.06805168092250824,0.0042032357305288315,0.40086376667022705,-0.913597047328949,0.0,0.0,0.0,0.0,0.0,0.0
630,1724557862718743868,-1.9580035209655762,0.00382787361741066,0.17892977595329285,-0.06839773058891296,0.003974032122641802,0.4013291895389557,-0.9133678674697876,0.0,0.0,0.0,0.0,0.0,0.0
632,1724557862728810999,-1.9577745199203491,0.004345979541540146,0.17935681343078613,-0.06847663968801498,0.0016834023408591747,0.4033021330833435,-0.9124996662139893,0.0,0.0,0.0,0.0,0.0,0.0
634,1724557862738866448,-1.9575752019882202,0.004611181560903788,0.17942972481250763,-0.06775101274251938,0.0014890528982505202,0.40379106998443604,-0.9123378396034241,0.0,0.0,0.0,0.0,0.0,0.0
636,1724557862749502349,-1.9573465585708618,0.0047926269471645355,0.17923548817634583,-0.06794098764657974,0.0017236298881471157,0.4039829969406128,-0.912238359451294,0.0,0.0,0.0,0.0,0.0,0.0
638,1724557862759125746,-1.9571573734283447,0.005171537399291992,0.1796649992465973,-0.06657654047012329,-0.0004540982481557876,0.40461158752441406,-0.9120619297027588,0.0,0.0,0.0,0.0,0.0,0.0
640,1724557862769763296,-1.9569236040115356,0.005378509406000376,0.1795542985200882,-0.06761614978313446,-5.8408710174262524e-05,0.4048619568347931,-0.9118744134902954,0.0,0.0,0.0,0.0,0.0,0.0
642,1724557862780053330,-1.9567375183105469,0.00551180262118578,0.1798490434885025,-0.06849125772714615,-0.0018684517126530409,0.4049642086029053,-0.9117617011070251,0.0,0.0,0.0,0.0,0.0,0.0
644,1724557862789309382,-1.956585168838501,0.005977140739560127,0.1805821657180786,-0.06874452531337738,-0.00440979702398181,0.405549556016922,-0.9114736914634705,0.0,0.0,0.0,0.0,0.0,0.0
646,1724557862802081387,-1.9565340280532837,0.006242049857974052,0.18053317070007324,-0.06827995926141739,-0.002724891761317849,0.40525028109550476,-0.9116483926773071,0.0,0.0,0.0,0.0,0.0,0.0
648,1724557862808718486,-1.9566353559494019,0.006737104617059231,0.18113157153129578,-0.06526298075914383,-0.0026845678221434355,0.4067600965499878,-0.9111968874931335,0.0,0.0,0.0,0.0,0.0,0.0
650,1724557862818962429,-1.9565913677215576,0.0070700980722904205,0.1812310367822647,-0.064984992146492,-0.0028126828838139772,0.4070545434951782,-0.9110848903656006,0.0,0.0,0.0,0.0,0.0,0.0
652,1724557862828992157,-1.956485629081726,0.007329348474740982,0.18113869428634644,-0.06493885815143585,-0.0022111255675554276,0.4070691168308258,-0.9110832810401917,0.0,0.0,0.0,0.0,0.0,0.0
654,1724557862839102208,-1.95624840259552,0.007448862306773663,0.18084022402763367,-0.06836241483688354,-0.004114682786166668,0.40617021918296814,-0.9112274646759033,0.0,0.0,0.0,0.0,0.0,0.0
656,1724557862850512719,-1.9560856819152832,0.007746972609311342,0.18099461495876312,-0.06878795474767685,-0.004758052062243223,0.4063848555088043,-0.9110965132713318,0.0,0.0,0.0,0.0,0.0,0.0
658,1724557862861181880,-1.9559383392333984,0.00801718421280384,0.1811017394065857,-0.0681961253285408,-0.005222479812800884,0.40682488679885864,-0.9109421968460083,0.0,0.0,0.0,0.0,0.0,0.0
660,1724557862902856394,-1.9557383060455322,0.008247564546763897,0.18106447160243988,-0.06828385591506958,-0.005022711120545864,0.407047837972641,-0.9108370542526245,0.0,0.0,0.0,0.0,0.0,0.0
662,1724557862903152843,-1.955501675605774,0.008523518219590187,0.1812620609998703,-0.06817257404327393,-0.006083026994019747,0.40780436992645264,-0.9105005264282227,0.0,0.0,0.0,0.0,0.0,0.0
664,1724557862903512157,-1.9552677869796753,0.008755580522119999,0.1813289225101471,-0.06838095188140869,-0.0065533374436199665,0.4083252251148224,-0.9102481007575989,0.0,0.0,0.0,0.0,0.0,0.0
666,1724557862903834466,-1.9550187587738037,0.008971700444817543,0.18144115805625916,-0.06851880252361298,-0.00684404605999589,0.40896084904670715,-0.9099501967430115,0.0,0.0,0.0,0.0,0.0,0.0
668,1724557862908602991,-1.9547544717788696,0.009068993851542473,0.18116804957389832,-0.06926919519901276,-0.005680361296981573,0.40886616706848145,-0.9099439978599548,0.0,0.0,0.0,0.0,0.0,0.0
670,1724557862919210335,-1.9545174837112427,0.009215540252625942,0.1810768097639084,-0.06928248703479767,-0.00511701125651598,0.40897783637046814,-0.9098961353302002,0.0,0.0,0.0,0.0,0.0,0.0
672,1724557862929022103,-1.954240322113037,0.009240797720849514,0.180841326713562,-0.06964188814163208,-0.003971721511334181,0.4089995324611664,-0.9098646640777588,0.0,0.0,0.0,0.0,0.0,0.0
674,1724557862939986783,-1.954026699066162,0.009222793392837048,0.18080298602581024,-0.0680231899023056,-0.0023101491387933493,0.40871527791023254,-0.9101206064224243,0.0,0.0,0.0,0.0,0.0,0.0
676,1724557862951808295,-1.953621506690979,0.008963501080870628,0.1798533946275711,-0.07198835909366608,-0.0020504347048699856,0.408078134059906,-0.9101020097732544,0.0,0.0,0.0,0.0,0.0,0.0
678,1724557862958943330,-1.9532551765441895,0.009048822335898876,0.18009480834007263,-0.07207754999399185,-0.002899424871429801,0.40859508514404297,-0.9098606705665588,0.0,0.0,0.0,0.0,0.0,0.0
680,1724557862968834190,-1.952775478363037,0.009314388036727905,0.17977046966552734,-0.07031551748514175,-0.0002171503147110343,0.4101616442203522,-0.9092981815338135,0.0,0.0,0.0,0.0,0.0,0.0
682,1724557862978983257,-1.9523175954818726,0.00942146498709917,0.1799062043428421,-0.06951884180307388,-3.995800216216594e-05,0.41076475381851196,-0.9090871214866638,0.0,0.0,0.0,0.0,0.0,0.0
684,1724557862989141928,-1.951833963394165,0.009489201940596104,0.1800110787153244,-0.06940725445747375,-0.00019683135906234384,0.4114321172237396,-0.9087938666343689,0.0,0.0,0.0,0.0,0.0,0.0
686,1724557862999155635,-1.9512689113616943,0.009622070007026196,0.18013079464435577,-0.06956005096435547,-0.00043416096013970673,0.4121188223361969,-0.9084708094596863,0.0,0.0,0.0,0.0,0.0,0.0
688,1724557863009171953,-1.9506778717041016,0.009935043752193451,0.18131892383098602,-0.06952007859945297,-0.005194722209125757,0.41358596086502075,-0.9077922701835632,0.0,0.0,0.0,0.0,0.0,0.0
690,1724557863018716613,-1.9501206874847412,0.010135391727089882,0.181721493601799,-0.06929660588502884,-0.006576512940227985,0.41471636295318604,-0.9072844386100769,0.0,0.0,0.0,0.0,0.0,0.0
692,1724557863030095651,-1.9495731592178345,0.01009835209697485,0.18141035735607147,-0.06827059388160706,-0.003877067007124424,0.41451260447502136,-0.9074708819389343,0.0,0.0,0.0,0.0,0.0,0.0
694,1724557863062923903,-1.9489731788635254,0.010310905985534191,0.18184025585651398,-0.06782863289117813,-0.006023260299116373,0.4155579209327698,-0.9070141315460205,0.0,0.0,0.0,0.0,0.0,0.0
696,1724557863063722161,-1.9484188556671143,0.010339628905057907,0.1817641407251358,-0.06526142358779907,-0.0030414971988648176,0.41647109389305115,-0.9067984819412231,0.0,0.0,0.0,0.0,0.0,0.0
698,1724557863063996334,-1.9477189779281616,0.010619143024086952,0.1820637434720993,-0.06491430103778839,-0.004021383356302977,0.4181867241859436,-0.9060296416282654,0.0,0.0,0.0,0.0,0.0,0.0
700,1724557863068474909,-1.9470250606536865,0.010730758309364319,0.18189892172813416,-0.06502027064561844,-0.0031209238804876804,0.41890183091163635,-0.9056951999664307,0.0,0.0,0.0,0.0,0.0,0.0
702,1724557863079176482,-1.9463591575622559,0.010877976194024086,0.1819785237312317,-0.06473439186811447,-0.0032195313833653927,0.4197998642921448,-0.9052994847297668,0.0,0.0,0.0,0.0,0.0,0.0
704,1724557863089825156,-1.9455785751342773,0.010770159773528576,0.18151836097240448,-0.06842656433582306,-0.003149069380015135,0.4192601442337036,-0.9052784442901611,0.0,0.0,0.0,0.0,0.0,0.0
706,1724557863099862127,-1.9449360370635986,0.010928859002888203,0.18172825872898102,-0.0680488646030426,-0.0043702018447220325,0.4202944040298462,-0.904822051525116,0.0,0.0,0.0,0.0,0.0,0.0
708,1724557863173006474,-1.9442356824874878,0.011174420826137066,0.18239499628543854,-0.06724696606397629,-0.005781804211437702,0.4210614562034607,-0.9045174717903137,0.0,0.0,0.0,0.0,0.0,0.0
710,1724557863174064740,-1.9435632228851318,0.011102018877863884,0.1821213662624359,-0.06717722117900848,-0.005202985368669033,0.42130377888679504,-0.9044132232666016,0.0,0.0,0.0,0.0,0.0,0.0
712,1724557863176559251,-1.9427953958511353,0.011358012445271015,0.1821722686290741,-0.0678381696343422,-0.004765394609421492,0.4220975935459137,-0.9039961695671082,0.0,0.0,0.0,0.0,0.0,0.0
714,1724557863177338543,-1.942081093788147,0.011415697634220123,0.1819601207971573,-0.06909167766571045,-0.005301057361066341,0.4230254888534546,-0.9034642577171326,0.0,0.0,0.0,0.0,0.0,0.0
716,1724557863178174720,-1.9413506984710693,0.011308370158076286,0.1814294159412384,-0.0700884535908699,-0.0029348349198698997,0.4231199324131012,-0.9033540487289429,0.0,0.0,0.0,0.0,0.0,0.0
718,1724557863179186511,-1.9406712055206299,0.011538416147232056,0.18187159299850464,-0.0694766715168953,-0.0030095416586846113,0.4239066541194916,-0.9030321836471558,0.0,0.0,0.0,0.0,0.0,0.0
720,1724557863180426938,-1.9400256872177124,0.011623854748904705,0.18170829117298126,-0.06960292160511017,-0.0031734933145344257,0.4244808852672577,-0.9027521014213562,0.0,0.0,0.0,0.0,0.0,0.0
722,1724557863182495778,-1.9392404556274414,0.012043772265315056,0.1825147271156311,-0.06826024502515793,-0.007259275298565626,0.4263567626476288,-0.9019466638565063,0.0,0.0,0.0,0.0,0.0,0.0
724,1724557863189670526,-1.9386179447174072,0.01216215081512928,0.18257395923137665,-0.06519854813814163,-0.00495507288724184,0.4275382459163666,-0.9016295671463013,0.0,0.0,0.0,0.0,0.0,0.0
726,1724557863199365049,-1.9378228187561035,0.01248893328011036,0.18311604857444763,-0.06571080535650253,-0.00751112075522542,0.42963722348213196,-0.9005762338638306,0.0,0.0,0.0,0.0,0.0,0.0
728,1724557863214124635,-1.9370373487472534,0.012625832110643387,0.18310631811618805,-0.06594442576169968,-0.007281220518052578,0.43022844195365906,-0.9002788066864014,0.0,0.0,0.0,0.0,0.0,0.0
730,1724557863218607923,-1.9363664388656616,0.012651586905121803,0.18286655843257904,-0.06468913704156876,-0.005022272001951933,0.43044713139533997,-0.9002807140350342,0.0,0.0,0.0,0.0,0.0,0.0
732,1724557863228829838,-1.935667634010315,0.012750530615448952,0.18302159011363983,-0.06514708697795868,-0.005674511659890413,0.43117350339889526,-0.8998961448669434,0.0,0.0,0.0,0.0,0.0,0.0
734,1724557863238904995,-1.9349552392959595,0.01283581554889679,0.18320219218730927,-0.06543125212192535,-0.0059615233913064,0.43199068307876587,-0.8994816541671753,0.0,0.0,0.0,0.0,0.0,0.0
736,1724557863249501203,-1.9343111515045166,0.01277128979563713,0.1828738898038864,-0.06539026647806168,-0.0037983611691743135,0.4316767752170563,-0.899647057056427,0.0,0.0,0.0,0.0,0.0,0.0
738,1724557863259805818,-1.933542251586914,0.013072526082396507,0.1832159459590912,-0.06634736806154251,-0.0059206727892160416,0.4335575997829437,-0.8986606001853943,0.0,0.0,0.0,0.0,0.0,0.0
740,1724557863268706920,-1.9327665567398071,0.013255213387310505,0.1833239197731018,-0.06715533137321472,-0.006981517653912306,0.43460580706596375,-0.8980864882469177,0.0,0.0,0.0,0.0,0.0,0.0
742,1724557863281041824,-1.9320579767227173,0.013395717367529869,0.18325108289718628,-0.06619902700185776,-0.006707384251058102,0.4353608191013336,-0.8977937698364258,0.0,0.0,0.0,0.0,0.0,0.0
744,1724557863288935506,-1.9312567710876465,0.013069365173578262,0.1820802539587021,-0.06895299255847931,-0.0027745100669562817,0.4339171051979065,-0.8983060717582703,0.0,0.0,0.0,0.0,0.0,0.0
746,1724557863300249660,-1.9305384159088135,0.013168958947062492,0.18189400434494019,-0.06891100853681564,-0.0025444957427680492,0.43454763293266296,-0.8980051279067993,0.0,0.0,0.0,0.0,0.0,0.0
748,1724557863309275081,-1.9298068284988403,0.013582482933998108,0.18281082808971405,-0.06707032769918442,-0.007065655663609505,0.43622633814811707,-0.8973062038421631,0.0,0.0,0.0,0.0,0.0,0.0
750,1724557863318889804,-1.929120659828186,0.013786181807518005,0.18311655521392822,-0.06736493855714798,-0.008172206580638885,0.43729719519615173,-0.896753191947937,0.0,0.0,0.0,0.0,0.0,0.0
752,1724557863331695393,-1.9284902811050415,0.013973277062177658,0.1833057999610901,-0.0668490082025528,-0.00876415241509676,0.4383244812488556,-0.8962846398353577,0.0,0.0,0.0,0.0,0.0,0.0
754,1724557863338711505,-1.9278099536895752,0.014226555824279785,0.18358810245990753,-0.06673632562160492,-0.009936715476214886,0.43961068987846375,-0.8956505656242371,0.0,0.0,0.0,0.0,0.0,0.0
756,1724557863349472329,-1.9271494150161743,0.01443776860833168,0.18367336690425873,-0.06643737852573395,-0.010718288831412792,0.4407569169998169,-0.8951002955436707,0.0,0.0,0.0,0.0,0.0,0.0
758,1724557863359257072,-1.926468849182129,0.01446075551211834,0.1832861602306366,-0.06742974370718002,-0.009384608827531338,0.44053876399993896,-0.8951485753059387,0.0,0.0,0.0,0.0,0.0,0.0
760,1724557863369389027,-1.9259051084518433,0.014515012502670288,0.18348374962806702,-0.06677743792533875,-0.009173346683382988,0.4412970244884491,-0.8948259949684143,0.0,0.0,0.0,0.0,0.0,0.0
762,1724557863384021449,-1.9252221584320068,0.01442756224423647,0.1829623281955719,-0.06858459860086441,-0.0077862865291535854,0.4414856731891632,-0.8946093916893005,0.0,0.0,0.0,0.0,0.0,0.0
764,1724557863388910626,-1.9247063398361206,0.01448516733944416,0.1827482283115387,-0.06516227126121521,-0.003642868949100375,0.4416598379611969,-0.8948057293891907,0.0,0.0,0.0,0.0,0.0,0.0
766,1724557863400079865,-1.9241889715194702,0.014626603573560715,0.18275153636932373,-0.06436673551797867,-0.0033977513667196035,0.4425213634967804,-0.8944385051727295,0.0,0.0,0.0,0.0,0.0,0.0
768,1724557863412269031,-1.9235867261886597,0.014854829758405685,0.18304790556430817,-0.06461936980485916,-0.005607385188341141,0.4434961676597595,-0.893926203250885,0.0,0.0,0.0,0.0,0.0,0.0
770,1724557863419360357,-1.9229915142059326,0.01501372829079628,0.18312522768974304,-0.06457554548978806,-0.006433903705328703,0.44454917311668396,-0.8934006690979004,0.0,0.0,0.0,0.0,0.0,0.0
772,1724557863429150895,-1.9223753213882446,0.015115048736333847,0.18318793177604675,-0.06618106365203857,-0.008173170499503613,0.44490325450897217,-0.8930925726890564,0.0,0.0,0.0,0.0,0.0,0.0
774,1724557863439082670,-1.921834111213684,0.014943873509764671,0.18213962018489838,-0.06840422004461288,-0.003481723368167877,0.4446186423301697,-0.8930974006652832,0.0,0.0,0.0,0.0,0.0,0.0
776,1724557863451702017,-1.9213169813156128,0.01490156352519989,0.18164891004562378,-0.06935011595487595,-0.0016060778871178627,0.44488802552223206,-0.8928956985473633,0.0,0.0,0.0,0.0,0.0,0.0
778,1724557863460676418,-1.9208632707595825,0.014904970303177834,0.18162566423416138,-0.06799165159463882,-0.0006601705681532621,0.4450732469558716,-0.892909049987793,0.0,0.0,0.0,0.0,0.0,0.0
780,1724557863469544866,-1.9203637838363647,0.015101710334420204,0.1821516901254654,-0.06801344454288483,-0.002624097280204296,0.4460943937301636,-0.8923940062522888,0.0,0.0,0.0,0.0,0.0,0.0
782,1724557863479565095,-1.9198960065841675,0.015254409052431583,0.18258866667747498,-0.06753912568092346,-0.005221278872340918,0.44717416167259216,-0.891878068447113,0.0,0.0,0.0,0.0,0.0,0.0
784,1724557863489939894,-1.9193872213363647,0.015443766489624977,0.18310391902923584,-0.06730885803699493,-0.007364427205175161,0.44838935136795044,-0.891270101070404,0.0,0.0,0.0,0.0,0.0,0.0
786,1724557863500142333,-1.918954849243164,0.015524018555879593,0.18324466049671173,-0.06599000841379166,-0.006501297932118177,0.4494459629058838,-0.8908431529998779,0.0,0.0,0.0,0.0,0.0,0.0
788,1724557863510788304,-1.9185172319412231,0.01566467061638832,0.183253213763237,-0.0652589499950409,-0.006167050451040268,0.4502992033958435,-0.8904683589935303,0.0,0.0,0.0,0.0,0.0,0.0
790,1724557863518851754,-1.9180587530136108,0.01575729064643383,0.1832440197467804,-0.06562203168869019,-0.005727679003030062,0.4508405029773712,-0.890170693397522,0.0,0.0,0.0,0.0,0.0,0.0
792,1724557863532045903,-1.917631983757019,0.015884850174188614,0.18328602612018585,-0.06570649147033691,-0.0063754781149327755,0.4514358937740326,-0.8898582458496094,0.0,0.0,0.0,0.0,0.0,0.0
794,1724557863539813216,-1.9171727895736694,0.01598934829235077,0.18326698243618011,-0.06617717444896698,-0.006254020147025585,0.4518624246120453,-0.8896076679229736,0.0,0.0,0.0,0.0,0.0,0.0
796,1724557863549330825,-1.9166514873504639,0.01592133194208145,0.18283070623874664,-0.06891147047281265,-0.006632918957620859,0.45091602206230164,-0.8898774981498718,0.0,0.0,0.0,0.0,0.0,0.0
798,1724557863564908012,-1.9161851406097412,0.016016220673918724,0.18274623155593872,-0.06877056509256363,-0.006197079084813595,0.4512072205543518,-0.8897439241409302,0.0,0.0,0.0,0.0,0.0,0.0
800,1724557863568995929,-1.9157414436340332,0.016224244609475136,0.18300101161003113,-0.06826688349246979,-0.0070167845115065575,0.45255422592163086,-0.8890923261642456,0.0,0.0,0.0,0.0,0.0,0.0
802,1724557863578943425,-1.9153987169265747,0.01622256636619568,0.18286222219467163,-0.0671013668179512,-0.005178548861294985,0.45313122868537903,-0.8888997435569763,0.0,0.0,0.0,0.0,0.0,0.0
804,1724557863588870809,-1.9150245189666748,0.01646224968135357,0.18330994248390198,-0.06588646024465561,-0.006918738130480051,0.45513197779655457,-0.8879560828208923,0.0,0.0,0.0,0.0,0.0,0.0
806,1724557863598650824,-1.9146068096160889,0.016524679958820343,0.1831800937652588,-0.06449705362319946,-0.005319754593074322,0.4563008248806,-0.8874690532684326,0.0,0.0,0.0,0.0,0.0,0.0
808,1724557863608869117,-1.914172649383545,0.016573935747146606,0.1830812245607376,-0.0641547217965126,-0.00406259810552001,0.4572664797306061,-0.887003481388092,0.0,0.0,0.0,0.0,0.0,0.0
810,1724557863618612074,-1.9136848449707031,0.016564173623919487,0.18330487608909607,-0.06685604155063629,-0.006352371536195278,0.45794877409935,-0.8864384293556213,0.0,0.0,0.0,0.0,0.0,0.0
812,1724557863630332222,-1.913346529006958,0.016505036503076553,0.18343283236026764,-0.06646950542926788,-0.005652598105370998,0.45862266421318054,-0.8861235976219177,0.0,0.0,0.0,0.0,0.0,0.0
814,1724557863639966096,-1.9130287170410156,0.016371551901102066,0.18351587653160095,-0.06690007448196411,-0.004619506653398275,0.45927032828330994,-0.8857617974281311,0.0,0.0,0.0,0.0,0.0,0.0
816,1724557863650742177,-1.9127739667892456,0.016209106892347336,0.1834602952003479,-0.06633175164461136,-0.0027241851203143597,0.45946168899536133,-0.8857131600379944,0.0,0.0,0.0,0.0,0.0,0.0
818,1724557863659214022,-1.9124081134796143,0.01620805263519287,0.18361812829971313,-0.06693128496408463,-0.00324723357334733,0.46044716238975525,-0.8851543068885803,0.0,0.0,0.0,0.0,0.0,0.0
820,1724557863669523493,-1.9119112491607666,0.01601630449295044,0.18349355459213257,-0.06904838234186172,-0.0038548442535102367,0.4602844715118408,-0.8850738406181335,0.0,0.0,0.0,0.0,0.0,0.0
822,1724557863681551871,-1.911500096321106,0.01606050878763199,0.18357019126415253,-0.06822185218334198,-0.0033181849867105484,0.4614698886871338,-0.8845226764678955,0.0,0.0,0.0,0.0,0.0,0.0
824,1724557863700626403,-1.911162257194519,0.015969350934028625,0.18325363099575043,-0.06599350273609161,0.00022345359320752323,0.4620437026023865,-0.8843984007835388,0.0,0.0,0.0,0.0,0.0,0.0
826,1724557863700933222,-1.9107319116592407,0.01609770581126213,0.1834142506122589,-0.06599946320056915,-0.0009252849849872291,0.4632095396518707,-0.8837874531745911,0.0,0.0,0.0,0.0,0.0,0.0
828,1724557863710549380,-1.9102976322174072,0.016155123710632324,0.18352869153022766,-0.06641823053359985,-0.0017199793364852667,0.4639686942100525,-0.883356511592865,0.0,0.0,0.0,0.0,0.0,0.0
830,1724557863719241188,-1.9098916053771973,0.01611725613474846,0.18356896936893463,-0.06663794070482254,-0.0014200378209352493,0.4644415080547333,-0.8830919861793518,0.0,0.0,0.0,0.0,0.0,0.0
832,1724557863729645783,-1.909529209136963,0.015994621440768242,0.18347762525081635,-0.06589052826166153,9.652227890910581e-05,0.46470916271209717,-0.8830084204673767,0.0,0.0,0.0,0.0,0.0,0.0
834,1724557863740542059,-1.9090746641159058,0.015904473140835762,0.18321390450000763,-0.06698629260063171,0.0004744722682517022,0.4647166430950165,-0.8829218745231628,0.0,0.0,0.0,0.0,0.0,0.0
836,1724557863749587700,-1.9086533784866333,0.015827126801013947,0.1831890195608139,-0.0666326954960823,0.0008931811316870153,0.4649840295314789,-0.8828075528144836,0.0,0.0,0.0,0.0,0.0,0.0
838,1724557863759016528,-1.9080289602279663,0.015833377838134766,0.18318629264831543,-0.06933635473251343,-0.0006859850836917758,0.465738445520401,-0.882201611995697,0.0,0.0,0.0,0.0,0.0,0.0
840,1724557863769351406,-1.9075467586517334,0.015566561371088028,0.18285208940505981,-0.07027970999479294,0.0013308858033269644,0.4658668637275696,-0.8820584416389465,0.0,0.0,0.0,0.0,0.0,0.0
842,1724557863782296044,-1.9070380926132202,0.015475264750421047,0.18308117985725403,-0.06999818980693817,0.0009417552500963211,0.4668026268482208,-0.8815864324569702,0.0,0.0,0.0,0.0,0.0,0.0
844,1724557863790149831,-1.9065288305282593,0.015480793081223965,0.18352057039737701,-0.06899604201316833,-0.0012140977196395397,0.46828147768974304,-0.8808806538581848,0.0,0.0,0.0,0.0,0.0,0.0
846,1724557863801188984,-1.9060677289962769,0.015283545479178429,0.18320266902446747,-0.06675145030021667,0.002086083870381117,0.46864962577819824,-0.8808560967445374,0.0,0.0,0.0,0.0,0.0,0.0
848,1724557863809936633,-1.9054762125015259,0.01518014445900917,0.1832430213689804,-0.06622156500816345,0.0021797791123390198,0.4693430960178375,-0.8805265426635742,0.0,0.0,0.0,0.0,0.0,0.0
850,1724557863823489072,-1.9048551321029663,0.015080523677170277,0.18338331580162048,-0.0658872053027153,0.0016680026892572641,0.47017157077789307,-0.8801106810569763,0.0,0.0,0.0,0.0,0.0,0.0
852,1724557863828885751,-1.9041997194290161,0.015046494081616402,0.18356849253177643,-0.06638243049383163,0.00041058738133870065,0.47123613953590393,-0.879505455493927,0.0,0.0,0.0,0.0,0.0,0.0
854,1724557863839370382,-1.90351402759552,0.014901346527040005,0.18362249433994293,-0.06806277483701706,-0.0012050778605043888,0.47143247723579407,-0.8792709112167358,0.0,0.0,0.0,0.0,0.0,0.0
856,1724557863849133785,-1.9029194116592407,0.01480660680681467,0.18378566205501556,-0.06802088767290115,-0.0018990758107975125,0.47222793102264404,-0.8788459897041321,0.0,0.0,0.0,0.0,0.0,0.0
858,1724557863859501968,-1.9023041725158691,0.01470617949962616,0.18392138183116913,-0.06819553673267365,-0.0024864154402166605,0.47285979986190796,-0.878491222858429,0.0,0.0,0.0,0.0,0.0,0.0
860,1724557863869502241,-1.901654839515686,0.014629117213189602,0.18393899500370026,-0.06795473396778107,-0.002516917185857892,0.4733739197254181,-0.8782329559326172,0.0,0.0,0.0,0.0,0.0,0.0
862,1724557863880204425,-1.9009352922439575,0.014561809599399567,0.18399716913700104,-0.06793083995580673,-0.0023828409612178802,0.4738112986087799,-0.8779991865158081,0.0,0.0,0.0,0.0,0.0,0.0
864,1724557863891686500,-1.9001975059509277,0.014515160582959652,0.1841295063495636,-0.06770536303520203,-0.0025092086289077997,0.47438082098960876,-0.8777087330818176,0.0,0.0,0.0,0.0,0.0,0.0
866,1724557863899614739,-1.8995178937911987,0.014576373621821404,0.18463902175426483,-0.06634301692247391,-0.004927606787532568,0.4760877788066864,-0.8768778443336487,0.0,0.0,0.0,0.0,0.0,0.0
868,1724557863909702091,-1.89882230758667,0.014589997008442879,0.18495924770832062,-0.06564443558454514,-0.005903205834329128,0.4769062101840973,-0.8764796257019043,0.0,0.0,0.0,0.0,0.0,0.0
870,1724557863919109745,-1.8980809450149536,0.014493970200419426,0.18503832817077637,-0.06513237208127975,-0.006120723206549883,0.4774228632450104,-0.8762349486351013,0.0,0.0,0.0,0.0,0.0,0.0
872,1724557863929106943,-1.8973649740219116,0.014424281194806099,0.1849418729543686,-0.06339024752378464,-0.00483104819431901,0.4778921902179718,-0.8761149644851685,0.0,0.0,0.0,0.0,0.0,0.0
874,1724557863938837291,-1.896630048751831,0.014259863644838333,0.18458291888237,-0.06274411827325821,-0.0031403247267007828,0.4781888723373413,-0.8760073184967041,0.0,0.0,0.0,0.0,0.0,0.0
876,1724557863950085183,-1.8958097696304321,0.014240159653127193,0.1845836490392685,-0.06272256374359131,-0.0030785566195845604,0.4789593815803528,-0.875588059425354,0.0,0.0,0.0,0.0,0.0,0.0
878,1724557863964455335,-1.8950523138046265,0.014096704311668873,0.1844339817762375,-0.06166922673583031,-0.0015616046730428934,0.4791394770145416,-0.8755683898925781,0.0,0.0,0.0,0.0,0.0,0.0
880,1724557863968844195,-1.894248127937317,0.014073851518332958,0.184624582529068,-0.061291564255952835,-0.003001472447067499,0.4802756607532501,-0.8749683499336243,0.0,0.0,0.0,0.0,0.0,0.0
882,1724557863983140633,-1.893357753753662,0.014062565751373768,0.18492501974105835,-0.06269247829914093,-0.004946862813085318,0.48134952783584595,-0.8742699027061462,0.0,0.0,0.0,0.0,0.0,0.0
884,1724557863989267346,-1.8925237655639648,0.01394321583211422,0.18494169414043427,-0.06278963387012482,-0.005054050125181675,0.4814968705177307,-0.8741811513900757,0.0,0.0,0.0,0.0,0.0,0.0
886,1724557864000795996,-1.891638994216919,0.013849346898496151,0.18508939445018768,-0.06253493577241898,-0.005781332962214947,0.48240238428115845,-0.8736955523490906,0.0,0.0,0.0,0.0,0.0,0.0
888,1724557864013494285,-1.890798807144165,0.013893811963498592,0.18571853637695312,-0.06019163131713867,-0.008158397860825062,0.484199196100235,-0.8728468418121338,0.0,0.0,0.0,0.0,0.0,0.0
890,1724557864018851342,-1.8898894786834717,0.013755902647972107,0.18580234050750732,-0.06133851781487465,-0.01053895428776741,0.48462429642677307,-0.8725054860115051,0.0,0.0,0.0,0.0,0.0,0.0
892,1724557864030506724,-1.8888424634933472,0.01374085247516632,0.18580278754234314,-0.061666008085012436,-0.01191003993153572,0.48563849925994873,-0.871900737285614,0.0,0.0,0.0,0.0,0.0,0.0
894,1724557864039576350,-1.8878204822540283,0.013648648746311665,0.18567515909671783,-0.06146792694926262,-0.011566586792469025,0.48626968264579773,-0.87156742811203,0.0,0.0,0.0,0.0,0.0,0.0
896,1724557864049973316,-1.8869407176971436,0.013584615662693977,0.18580837547779083,-0.058959174901247025,-0.011049342341721058,0.48753535747528076,-0.8710401654243469,0.0,0.0,0.0,0.0,0.0,0.0
898,1724557864063484904,-1.8859893083572388,0.013562746345996857,0.1860969066619873,-0.05868127942085266,-0.0123735461384058,0.48876067996025085,-0.8703542351722717,0.0,0.0,0.0,0.0,0.0,0.0
900,1724557864093866301,-1.885022521018982,0.013519838452339172,0.1863551288843155,-0.058731913566589355,-0.013414446264505386,0.4897345304489136,-0.8697878122329712,0.0,0.0,0.0,0.0,0.0,0.0
902,1724557864094588112,-1.8841321468353271,0.013384567573666573,0.1864030659198761,-0.05656810477375984,-0.013109203428030014,0.49030742049217224,-0.8696131110191345,0.0,0.0,0.0,0.0,0.0,0.0
904,1724557864095083125,-1.8831170797348022,0.01312769204378128,0.18615736067295074,-0.057458747178316116,-0.013108892366290092,0.49055397510528564,-0.8694155216217041,0.0,0.0,0.0,0.0,0.0,0.0
906,1724557864100492486,-1.882022738456726,0.013169626705348492,0.18668417632579803,-0.05668306723237038,-0.016193244606256485,0.4922471344470978,-0.8684569597244263,0.0,0.0,0.0,0.0,0.0,0.0
908,1724557864109727169,-1.8809810876846313,0.013064639642834663,0.1866094470024109,-0.05665161460638046,-0.01687314361333847,0.49303197860717773,-0.8680008053779602,0.0,0.0,0.0,0.0,0.0,0.0
910,1724557864119611200,-1.8799351453781128,0.012915880419313908,0.18666096031665802,-0.057327669113874435,-0.018544642254710197,0.49346208572387695,-0.8676778078079224,0.0,0.0,0.0,0.0,0.0,0.0
912,1724557864128851075,-1.878982424736023,0.012692744843661785,0.18658891320228577,-0.05662846192717552,-0.01726703532040119,0.4935157299041748,-0.8677196502685547,0.0,0.0,0.0,0.0,0.0,0.0
914,1724557864140730539,-1.8779654502868652,0.012538507580757141,0.18678328394889832,-0.05724656209349632,-0.019298193976283073,0.49400433897972107,-0.8673582077026367,0.0,0.0,0.0,0.0,0.0,0.0
916,1724557864149066383,-1.8768527507781982,0.012549042701721191,0.18725986778736115,-0.05695750191807747,-0.02253808081150055,0.4957368075847626,-0.8663099408149719,0.0,0.0,0.0,0.0,0.0,0.0
918,1724557864159097453,-1.8757362365722656,0.012244810350239277,0.1870838701725006,-0.05634085834026337,-0.021943436935544014,0.49590378999710083,-0.8662699460983276,0.0,0.0,0.0,0.0,0.0,0.0
920,1724557864169582982,-1.8747466802597046,0.011888517066836357,0.1870245337486267,-0.05317617580294609,-0.020908193662762642,0.4954948127269745,-0.8667295575141907,0.0,0.0,0.0,0.0,0.0,0.0
922,1724557864182466830,-1.8736045360565186,0.011755961924791336,0.18708623945713043,-0.05158326029777527,-0.0216869805008173,0.49654150009155273,-0.866207480430603,0.0,0.0,0.0,0.0,0.0,0.0
924,1724557864189701287,-1.8722631931304932,0.011766066774725914,0.18736176192760468,-0.05195341259241104,-0.02389620803296566,0.4982186555862427,-0.8651635646820068,0.0,0.0,0.0,0.0,0.0,0.0
926,1724557864199134392,-1.8709090948104858,0.011514988727867603,0.18711279332637787,-0.05480264127254486,-0.025666270405054092,0.4980497360229492,-0.8650343418121338,0.0,0.0,0.0,0.0,0.0,0.0
928,1724557864214389525,-1.8696333169937134,0.011231672950088978,0.1870478242635727,-0.05299558863043785,-0.024245785549283028,0.49871307611465454,-0.8648057579994202,0.0,0.0,0.0,0.0,0.0,0.0
930,1724557864218914870,-1.8682008981704712,0.011305103078484535,0.18761438131332397,-0.051019273698329926,-0.02694893255829811,0.5011857151985168,-0.8634139895439148,0.0,0.0,0.0,0.0,0.0,0.0
932,1724557864230397438,-1.8667773008346558,0.011442005634307861,0.18827107548713684,-0.04715924337506294,-0.030889254063367844,0.503196656703949,-0.8623311519622803,0.0,0.0,0.0,0.0,0.0,0.0
934,1724557864242117768,-1.8652918338775635,0.011232741177082062,0.18807175755500793,-0.046103641390800476,-0.031642183661460876,0.5035470724105835,-0.862156331539154,0.0,0.0,0.0,0.0,0.0,0.0
936,1724557864252431751,-1.8637337684631348,0.011074861511588097,0.1882767677307129,-0.04564029723405838,-0.03290713578462601,0.5045772790908813,-0.8615311980247498,0.0,0.0,0.0,0.0,0.0,0.0
938,1724557864259194098,-1.8621468544006348,0.010722088627517223,0.188368558883667,-0.04775049164891243,-0.03570124879479408,0.5045490860939026,-0.8613220453262329,0.0,0.0,0.0,0.0,0.0,0.0
940,1724557864269401548,-1.8604241609573364,0.010605941526591778,0.18830204010009766,-0.04607367143034935,-0.03725246340036392,0.5057327151298523,-0.8606532216072083,0.0,0.0,0.0,0.0,0.0,0.0
942,1724557864295547478,-1.8586170673370361,0.010639234445989132,0.18853440880775452,-0.04361237213015556,-0.03909525275230408,0.5079505443572998,-0.8593927025794983,0.0,0.0,0.0,0.0,0.0,0.0
944,1724557864296473388,-1.856837272644043,0.01057408470660448,0.1885688751935959,-0.0435246042907238,-0.040955010801553726,0.5094500780105591,-0.8584224581718445,0.0,0.0,0.0,0.0,0.0,0.0
946,1724557864300239716,-1.8551714420318604,0.010333912447094917,0.1883014589548111,-0.04229283332824707,-0.04057517275214195,0.5098378658294678,-0.8582717180252075,0.0,0.0,0.0,0.0,0.0,0.0
948,1724557864309360820,-1.853253960609436,0.010249395854771137,0.18825240433216095,-0.042960792779922485,-0.04330380633473396,0.5112426280975342,-0.8572690486907959,0.0,0.0,0.0,0.0,0.0,0.0
950,1724557864318851916,-1.8513332605361938,0.010206061415374279,0.18847420811653137,-0.04161955416202545,-0.046626269817352295,0.5129156708717346,-0.8561608195304871,0.0,0.0,0.0,0.0,0.0,0.0
952,1724557864329925686,-1.8493951559066772,0.010024811141192913,0.1882219761610031,-0.0420808270573616,-0.04815211147069931,0.513547420501709,-0.8556750416755676,0.0,0.0,0.0,0.0,0.0,0.0
954,1724557864339650103,-1.8475115299224854,0.01002530287951231,0.18842986226081848,-0.040296874940395355,-0.050954122096300125,0.5152425169944763,-0.8545788526535034,0.0,0.0,0.0,0.0,0.0,0.0
956,1724557864349921064,-1.845581293106079,0.009960358031094074,0.18847689032554626,-0.037555575370788574,-0.053105976432561874,0.5161852240562439,-0.8540036678314209,0.0,0.0,0.0,0.0,0.0,0.0
958,1724557864365503901,-1.8438071012496948,0.00966437067836523,0.18807452917099,-0.035491254180669785,-0.05260170251131058,0.516291618347168,-0.8540588021278381,0.0,0.0,0.0,0.0,0.0,0.0
960,1724557864368693221,-1.8417606353759766,0.009558269754052162,0.18803907930850983,-0.03612412139773369,-0.05518053099513054,0.5177826285362244,-0.8529662489891052,0.0,0.0,0.0,0.0,0.0,0.0
962,1724557864385420291,-1.8397114276885986,0.009282063692808151,0.18761608004570007,-0.0343637652695179,-0.05504221096634865,0.5184493064880371,-0.8526428937911987,0.0,0.0,0.0,0.0,0.0,0.0
964,1724557864389787695,-1.8377448320388794,0.009195812977850437,0.18757468461990356,-0.034046076238155365,-0.05837589129805565,0.5196510553359985,-0.8517018556594849,0.0,0.0,0.0,0.0,0.0,0.0
966,1724557864400124111,-1.8357770442962646,0.008901863358914852,0.18746919929981232,-0.03224605321884155,-0.058660585433244705,0.5196450352668762,-0.8517559766769409,0.0,0.0,0.0,0.0,0.0,0.0
968,1724557864413580741,-1.8336342573165894,0.008792736567556858,0.18760398030281067,-0.03240952640771866,-0.06288731098175049,0.5208430886268616,-0.8507158756256104,0.0,0.0,0.0,0.0,0.0,0.0
970,1724557864419367510,-1.83186936378479,0.008362922817468643,0.18708296120166779,-0.02859666384756565,-0.06189773604273796,0.5202634930610657,-0.8512795567512512,0.0,0.0,0.0,0.0,0.0,0.0
972,1724557864429048812,-1.8297446966171265,0.008178728632628918,0.18710118532180786,-0.030292188748717308,-0.06574692577123642,0.5217676758766174,-0.8500108122825623,0.0,0.0,0.0,0.0,0.0,0.0
974,1724557864444868260,-1.82772696018219,0.007724772207438946,0.1864572912454605,-0.02886052243411541,-0.06467506289482117,0.5216030478477478,-0.8502438068389893,0.0,0.0,0.0,0.0,0.0,0.0
976,1724557864449527150,-1.8254414796829224,0.007795121520757675,0.1866655796766281,-0.028224578127264977,-0.0708969235420227,0.5232610106468201,-0.8487489819526672,0.0,0.0,0.0,0.0,0.0,0.0
978,1724557864459039234,-1.8236349821090698,0.007270054891705513,0.18588556349277496,-0.026063647121191025,-0.06880182772874832,0.522302508354187,-0.8495805263519287,0.0,0.0,0.0,0.0,0.0,0.0
980,1724557864469080229,-1.8215028047561646,0.00712359044700861,0.18634940683841705,-0.02464918978512287,-0.07327999919652939,0.5239555835723877,-0.8482294082641602,0.0,0.0,0.0,0.0,0.0,0.0
982,1724557864478822018,-1.8197875022888184,0.006568159442394972,0.1854988932609558,-0.023877035826444626,-0.07074864208698273,0.522425651550293,-0.8494092226028442,0.0,0.0,0.0,0.0,0.0,0.0
984,1724557864489915088,-1.8177918195724487,0.006358732469379902,0.1856343299150467,-0.026870355010032654,-0.07409355789422989,0.5231205224990845,-0.8486065864562988,0.0,0.0,0.0,0.0,0.0,0.0
986,1724557864499407126,-1.8162603378295898,0.005945289973169565,0.18561393022537231,-0.02641446515917778,-0.07218115776777267,0.5233535170555115,-0.8486420512199402,0.0,0.0,0.0,0.0,0.0,0.0
988,1724557864510327821,-1.8148376941680908,0.005807512439787388,0.18584059178829193,-0.0263822041451931,-0.07324587553739548,0.5241701006889343,-0.84804767370224,0.0,0.0,0.0,0.0,0.0,0.0
990,1724557864519262965,-1.8134108781814575,0.005447366740554571,0.18572354316711426,-0.026314904913306236,-0.07161908596754074,0.5249627232551575,-0.8476983308792114,0.0,0.0,0.0,0.0,0.0,0.0
992,1724557864529031807,-1.8121607303619385,0.005035318434238434,0.18538345396518707,-0.025328975170850754,-0.07022272050380707,0.5257795453071594,-0.847338855266571,0.0,0.0,0.0,0.0,0.0,0.0
994,1724557864539911472,-1.8109889030456543,0.0045866710133850574,0.18509289622306824,-0.02424377202987671,-0.07100138068199158,0.5257677435874939,-0.8473129868507385,0.0,0.0,0.0,0.0,0.0,0.0
996,1724557864549243899,-1.809887409210205,0.004282329231500626,0.1849689781665802,-0.023598594591021538,-0.07251404225826263,0.5263773202896118,-0.8468245267868042,0.0,0.0,0.0,0.0,0.0,0.0
998,1724557864559893264,-1.808851957321167,0.003968685399740934,0.18481819331645966,-0.02523115463554859,-0.07371077686548233,0.5273275375366211,-0.8460826277732849,0.0,0.0,0.0,0.0,0.0,0.0
1000,1724557864569106389,-1.8081341981887817,0.0033637811429798603,0.18444515764713287,-0.02668471448123455,-0.07283708453178406,0.526800274848938,-0.8464420437812805,0.0,0.0,0.0,0.0,0.0,0.0
1002,1724557864578979661,-1.8074640035629272,0.003068109741434455,0.18464817106723785,-0.02411894127726555,-0.07348986715078354,0.5278998017311096,-0.8457773923873901,0.0,0.0,0.0,0.0,0.0,0.0
1004,1724557864596474361,-1.8071253299713135,0.0025001028552651405,0.18423843383789062,-0.0223171915858984,-0.07090973109006882,0.5270796418190002,-0.8465582132339478,0.0,0.0,0.0,0.0,0.0,0.0
1006,1724557864599675200,-1.8067718744277954,0.0022165493573993444,0.18442608416080475,-0.0210270993411541,-0.07228494435548782,0.5273361802101135,-0.8463151454925537,0.0,0.0,0.0,0.0,0.0,0.0
1008,1724557864609609726,-1.8065545558929443,0.0018051289953291416,0.18447574973106384,-0.021340012550354004,-0.0720980316400528,0.5275039076805115,-0.8462186455726624,0.0,0.0,0.0,0.0,0.0,0.0
1010,1724557864643652448,-1.8064852952957153,0.0014467285946011543,0.1845707893371582,-0.021476376801729202,-0.0723438486456871,0.527203381061554,-0.8463816046714783,0.0,0.0,0.0,0.0,0.0,0.0
1012,1724557864644201388,-1.8064790964126587,0.0011440282687544823,0.18458813428878784,-0.02255930006504059,-0.07320023328065872,0.5268826484680176,-0.8464794754981995,0.0,0.0,0.0,0.0,0.0,0.0
1014,1724557864644779353,-1.806515097618103,0.0008925115689635277,0.18460243940353394,-0.022947654128074646,-0.07352890074253082,0.526728630065918,-0.8465364575386047,0.0,0.0,0.0,0.0,0.0,0.0
1016,1724557864649047246,-1.806540608406067,0.0006758226081728935,0.18474605679512024,-0.02286839298903942,-0.0741753801703453,0.5273586511611938,-0.846089780330658,0.0,0.0,0.0,0.0,0.0,0.0
1018,1724557864662025873,-1.8066999912261963,0.0003876001574099064,0.18461447954177856,-0.02263004519045353,-0.07345470041036606,0.5270577073097229,-0.8463465571403503,0.0,0.0,0.0,0.0,0.0,0.0
1020,1724557864668853701,-1.8068335056304932,0.000120493583381176,0.18456289172172546,-0.02166229672729969,-0.07370101660490036,0.5270284414291382,-0.846368670463562,0.0,0.0,0.0,0.0,0.0,0.0
1022,1724557864682733298,-1.8068922758102417,-4.1185412555933e-05,0.18478761613368988,-0.02011236734688282,-0.07462833821773529,0.5275296568870544,-0.8460133075714111,0.0,0.0,0.0,0.0,0.0,0.0
1024,1724557864692080219,-1.8070158958435059,-0.0002975892275571823,0.18467268347740173,-0.01987277716398239,-0.07437334954738617,0.5271345973014832,-0.8462876677513123,0.0,0.0,0.0,0.0,0.0,0.0
1026,1724557864699217351,-1.8070237636566162,-0.0004937592893838882,0.18470856547355652,-0.020350473001599312,-0.07437906414270401,0.5272320508956909,-0.8462150692939758,0.0,0.0,0.0,0.0,0.0,0.0
1028,1724557864708997967,-1.8070166110992432,-0.0007712985388934612,0.1848386526107788,-0.021602757275104523,-0.07406123727560043,0.527379035949707,-0.8461203575134277,0.0,0.0,0.0,0.0,0.0,0.0
1030,1724557864720165990,-1.8069674968719482,-0.001026129350066185,0.1850619614124298,-0.02236458659172058,-0.07461455464363098,0.527681827545166,-0.8458631038665771,0.0,0.0,0.0,0.0,0.0,0.0
1032,1724557864729520577,-1.8068885803222656,-0.0012932918034493923,0.18521124124526978,-0.023224398493766785,-0.07523460686206818,0.5280319452285767,-0.8455665707588196,0.0,0.0,0.0,0.0,0.0,0.0
1034,1724557864739481222,-1.8068554401397705,-0.0016664210706949234,0.1852286159992218,-0.023922914639115334,-0.07485727220773697,0.5281141400337219,-0.8455291390419006,0.0,0.0,0.0,0.0,0.0,0.0
1036,1724557864756683952,-1.8068630695343018,-0.002110361121594906,0.18523181974887848,-0.02364477701485157,-0.07389280200004578,0.5279422402381897,-0.8457291126251221,0.0,0.0,0.0,0.0,0.0,0.0
1038,1724557864764251305,-1.806875467300415,-0.0025584138929843903,0.18540513515472412,-0.02219034731388092,-0.07363326102495193,0.5281157493591309,-0.8456828594207764,0.0,0.0,0.0,0.0,0.0,0.0
1040,1724557864769702458,-1.806937336921692,-0.003016006201505661,0.18540701270103455,-0.02050299569964409,-0.07353733479976654,0.527483344078064,-0.8461283445358276,0.0,0.0,0.0,0.0,0.0,0.0
1042,1724557864778920419,-1.8069736957550049,-0.0035444432869553566,0.18528294563293457,-0.02019398845732212,-0.072725310921669,0.5269893407821655,-0.8465136885643005,0.0,0.0,0.0,0.0,0.0,0.0
1044,1724557864790390242,-1.8068735599517822,-0.004001295194029808,0.1853141188621521,-0.021554961800575256,-0.07242315262556076,0.5271949768066406,-0.8463780879974365,0.0,0.0,0.0,0.0,0.0,0.0
1046,1724557864799976029,-1.806716799736023,-0.004512365907430649,0.18528161942958832,-0.022822193801403046,-0.07121282070875168,0.5276768803596497,-0.8461472392082214,0.0,0.0,0.0,0.0,0.0,0.0
1048,1724557864809488867,-1.80653977394104,-0.004925617948174477,0.1854485422372818,-0.022662978619337082,-0.07102254778146744,0.5280961394309998,-0.8459058403968811,0.0,0.0,0.0,0.0,0.0,0.0
1050,1724557864819343467,-1.806357979774475,-0.005339545197784901,0.18556377291679382,-0.021769823506474495,-0.07147997617721558,0.5286325216293335,-0.8455556631088257,0.0,0.0,0.0,0.0,0.0,0.0
1052,1724557864829266303,-1.8062714338302612,-0.0058092642575502396,0.18541686236858368,-0.021693972870707512,-0.07067704945802689,0.5282780528068542,-0.8458465337753296,0.0,0.0,0.0,0.0,0.0,0.0
1054,1724557864842142568,-1.8061530590057373,-0.006092441268265247,0.18557843565940857,-0.020411888137459755,-0.07127872854471207,0.528295636177063,-0.8458170890808105,0.0,0.0,0.0,0.0,0.0,0.0
1056,1724557864849853686,-1.8059711456298828,-0.006404604762792587,0.18588897585868835,-0.020352648571133614,-0.0716157779097557,0.5288657546043396,-0.8454336524009705,0.0,0.0,0.0,0.0,0.0,0.0
1058,1724557864864690663,-1.805703043937683,-0.0066921282559633255,0.1864892542362213,-0.021120157092809677,-0.07278032600879669,0.5297244191169739,-0.844777524471283,0.0,0.0,0.0,0.0,0.0,0.0
1060,1724557864869099326,-1.8055506944656372,-0.007023178972303867,0.1868799924850464,-0.021597810089588165,-0.07325658202171326,0.5302238464355469,-0.8444108366966248,0.0,0.0,0.0,0.0,0.0,0.0
1062,1724557864879279393,-1.8054355382919312,-0.007368093356490135,0.1870535910129547,-0.02172856219112873,-0.07284462451934814,0.5301999449729919,-0.8444581031799316,0.0,0.0,0.0,0.0,0.0,0.0
1064,1724557864917275312,-1.8053287267684937,-0.0077391862869262695,0.18732814490795135,-0.021082524210214615,-0.07255645096302032,0.5301080942153931,-0.844556987285614,0.0,0.0,0.0,0.0,0.0,0.0
1066,1724557864917637150,-1.8053033351898193,-0.00824791006743908,0.18722309172153473,-0.021361619234085083,-0.06987407058477402,0.5299417972564697,-0.8448805212974548,0.0,0.0,0.0,0.0,0.0,0.0
1068,1724557864917927961,-1.8050519227981567,-0.008593611419200897,0.18747904896736145,-0.023776939138770103,-0.07041308283805847,0.5303856730461121,-0.844492495059967,0.0,0.0,0.0,0.0,0.0,0.0
1070,1724557864919632439,-1.8048694133758545,-0.008957665413618088,0.18783563375473022,-0.02409791573882103,-0.07021795213222504,0.5309792160987854,-0.8441266417503357,0.0,0.0,0.0,0.0,0.0,0.0
1072,1724557864929682494,-1.8048255443572998,-0.009510567411780357,0.18770921230316162,-0.023235149681568146,-0.06703376024961472,0.5303622484207153,-0.8447973132133484,0.0,0.0,0.0,0.0,0.0,0.0
1074,1724557864939135456,-1.8048917055130005,-0.010064984671771526,0.18752184510231018,-0.02032688446342945,-0.06327606737613678,0.5292088985443115,-0.8458846807479858,0.0,0.0,0.0,0.0,0.0,0.0
1076,1724557864949978112,-1.804512619972229,-0.010264646261930466,0.18801140785217285,-0.020966757088899612,-0.0652402937412262,0.5304633378982544,-0.8449335694313049,0.0,0.0,0.0,0.0,0.0,0.0
1078,1724557864958787346,-1.8043131828308105,-0.010835127905011177,0.18781821429729462,-0.021154869347810745,-0.06290976703166962,0.5307268500328064,-0.8449401259422302,0.0,0.0,0.0,0.0,0.0,0.0
1080,1724557864969942535,-1.8041149377822876,-0.011342547833919525,0.18795336782932281,-0.01943443901836872,-0.06089648976922035,0.5308348536491394,-0.8450611233711243,0.0,0.0,0.0,0.0,0.0,0.0
1082,1724557864983258138,-1.803817868232727,-0.01168910227715969,0.18843209743499756,-0.018989741802215576,-0.061246052384376526,0.5316781997680664,-0.8445156216621399,0.0,0.0,0.0,0.0,0.0,0.0
1084,1724557864988799145,-1.803613305091858,-0.012136325240135193,0.1884894222021103,-0.019082697108387947,-0.06033012643456459,0.5317643284797668,-0.8445252180099487,0.0,0.0,0.0,0.0,0.0,0.0
1086,1724557864999819462,-1.8033161163330078,-0.01260351948440075,0.18868553638458252,-0.019687924534082413,-0.05958164855837822,0.5322156548500061,-0.8442801237106323,0.0,0.0,0.0,0.0,0.0,0.0
1088,1724557865010237503,-1.802999496459961,-0.01305481232702732,0.18897464871406555,-0.019582528620958328,-0.05943698063492775,0.5326430201530457,-0.8440232872962952,0.0,0.0,0.0,0.0,0.0,0.0
1090,1724557865019275123,-1.8026750087738037,-0.013500986620783806,0.18936163187026978,-0.018509462475776672,-0.05979859456419945,0.5331330895423889,-0.8437123894691467,0.0,0.0,0.0,0.0,0.0,0.0
1092,1724557865028943493,-1.802365779876709,-0.01401401124894619,0.18956467509269714,-0.018279889598488808,-0.059224192053079605,0.5334284901618958,-0.8435712456703186,0.0,0.0,0.0,0.0,0.0,0.0
1094,1724557865039863303,-1.8019533157348633,-0.014460865408182144,0.1899159550666809,-0.018720410764217377,-0.05977226421236992,0.5343095064163208,-0.8429651260375977,0.0,0.0,0.0,0.0,0.0,0.0
1096,1724557865049605393,-1.801604151725769,-0.014931063167750835,0.19022147357463837,-0.01751742511987686,-0.05991606041789055,0.5344939827919006,-0.8428637981414795,0.0,0.0,0.0,0.0,0.0,0.0
1098,1724557865059761683,-1.8014311790466309,-0.015784116461873055,0.18979597091674805,-0.01659824326634407,-0.05576751381158829,0.5336571335792542,-0.8436969518661499,0.0,0.0,0.0,0.0,0.0,0.0
1100,1724557865070987310,-1.8010156154632568,-0.016411712393164635,0.18975643813610077,-0.01828712411224842,-0.05416811630129814,0.5337218642234802,-0.843725323677063,0.0,0.0,0.0,0.0,0.0,0.0
1102,1724557865079300331,-1.800611138343811,-0.01696641929447651,0.18991437554359436,-0.0184656772762537,-0.05346241593360901,0.5340570211410522,-0.8435543179512024,0.0,0.0,0.0,0.0,0.0,0.0
1104,1724557865089828352,-1.800177812576294,-0.01744946464896202,0.19022567570209503,-0.018373405560851097,-0.053964223712682724,0.5345172882080078,-0.8432328104972839,0.0,0.0,0.0,0.0,0.0,0.0
1106,1724557865099974859,-1.7997610569000244,-0.017919575795531273,0.1905638575553894,-0.017564311623573303,-0.054578494280576706,0.5349523425102234,-0.8429345488548279,0.0,0.0,0.0,0.0,0.0,0.0
1108,1724557865110094346,-1.7992669343948364,-0.01826244778931141,0.19113388657569885,-0.01714279316365719,-0.05696212500333786,0.5361447334289551,-0.8420275449752808,0.0,0.0,0.0,0.0,0.0,0.0
1110,1724557865119696837,-1.798928141593933,-0.018744420260190964,0.1913263350725174,-0.01677289977669716,-0.05650556832551956,0.5366017818450928,-0.8417745232582092,0.0,0.0,0.0,0.0,0.0,0.0
1112,1724557865130797051,-1.7987078428268433,-0.019297447055578232,0.19116947054862976,-0.016657384112477303,-0.0541580393910408,0.5363993048667908,-0.8420601487159729,0.0,0.0,0.0,0.0,0.0,0.0
1114,1724557865139631184,-1.7984744310379028,-0.01986044831573963,0.19100351631641388,-0.017293591052293777,-0.05225776508450508,0.5361008048057556,-0.8423575162887573,0.0,0.0,0.0,0.0,0.0,0.0
1116,1724557865149966305,-1.7982025146484375,-0.020391445606946945,0.1909814178943634,-0.016247307881712914,-0.051225002855062485,0.535763144493103,-0.8426564335823059,0.0,0.0,0.0,0.0,0.0,0.0
1118,1724557865159518566,-1.7979408502578735,-0.020927736535668373,0.1910349726676941,-0.01418154314160347,-0.05100930109620094,0.5361033082008362,-0.842490553855896,0.0,0.0,0.0,0.0,0.0,0.0
1120,1724557865169009459,-1.7974556684494019,-0.021229621022939682,0.1914271116256714,-0.015119270421564579,-0.054686419665813446,0.537189245223999,-0.8415513634681702,0.0,0.0,0.0,0.0,0.0,0.0
1122,1724557865184584734,-1.797308325767517,-0.021726377308368683,0.1911645531654358,-0.01274470891803503,-0.05249500647187233,0.5364956855773926,-0.842172384262085,0.0,0.0,0.0,0.0,0.0,0.0
1124,1724557865189965422,-1.7969913482666016,-0.022080009803175926,0.19136883318424225,-0.012076415121555328,-0.05278940126299858,0.5366790294647217,-0.8420469164848328,0.0,0.0,0.0,0.0,0.0,0.0
1126,1724557865199798450,-1.7967448234558105,-0.022475160658359528,0.191427081823349,-0.011442015878856182,-0.05203946307301521,0.5365016460418701,-0.8422155380249023,0.0,0.0,0.0,0.0,0.0,0.0
1128,1724557865212193078,-1.7964661121368408,-0.022858209908008575,0.19157584011554718,-0.011531202122569084,-0.05155232176184654,0.5367750525474548,-0.8420701026916504,0.0,0.0,0.0,0.0,0.0,0.0
1130,1724557865219385911,-1.7962188720703125,-0.023249510675668716,0.19155244529247284,-0.011892962269484997,-0.05081795156002045,0.5366479158401489,-0.842190682888031,0.0,0.0,0.0,0.0,0.0,0.0
1132,1724557865229246718,-1.7959564924240112,-0.023559315130114555,0.19156013429164886,-0.01179956179112196,-0.050239354372024536,0.5364117622375488,-0.8423771262168884,0.0,0.0,0.0,0.0,0.0,0.0
1134,1724557865239493464,-1.7957435846328735,-0.023866599425673485,0.19156575202941895,-0.011139021255075932,-0.049555741250514984,0.5361177325248718,-0.842613697052002,0.0,0.0,0.0,0.0,0.0,0.0
1136,1724557865249421365,-1.7956302165985107,-0.024256639182567596,0.19134651124477386,-0.010727334767580032,-0.04771918058395386,0.5353894829750061,-0.8431879878044128,0.0,0.0,0.0,0.0,0.0,0.0
1138,1724557865261689524,-1.7954164743423462,-0.02454633265733719,0.19135206937789917,-0.011045943945646286,-0.04724302142858505,0.535197377204895,-0.8433325886726379,0.0,0.0,0.0,0.0,0.0,0.0
1140,1724557865269082929,-1.7951693534851074,-0.02479940839111805,0.19145487248897552,-0.01127015519887209,-0.04742734506726265,0.5355153679847717,-0.843117356300354,0.0,0.0,0.0,0.0,0.0,0.0
1142,1724557865279364845,-1.7950093746185303,-0.025124428793787956,0.1912604719400406,-0.01098712906241417,-0.046224117279052734,0.5349860191345215,-0.8435239195823669,0.0,0.0,0.0,0.0,0.0,0.0
1144,1724557865290217542,-1.7948276996612549,-0.02538338117301464,0.19119460880756378,-0.011090151034295559,-0.04601714760065079,0.534778356552124,-0.8436655402183533,0.0,0.0,0.0,0.0,0.0,0.0
1146,1724557865299242735,-1.7944899797439575,-0.02548963576555252,0.1915946751832962,-0.012035669758915901,-0.0480915904045105,0.5359655022621155,-0.8427830338478088,0.0,0.0,0.0,0.0,0.0,0.0
1148,1724557865314233233,-1.7943671941757202,-0.02577059715986252,0.1914106011390686,-0.012502607889473438,-0.04737737402319908,0.535790741443634,-0.8429278135299683,0.0,0.0,0.0,0.0,0.0,0.0
1150,1724557865319277636,-1.794248342514038,-0.026036186143755913,0.19132830202579498,-0.01215492282062769,-0.04674713686108589,0.5356209874153137,-0.8430759906768799,0.0,0.0,0.0,0.0,0.0,0.0
1152,1724557865331163327,-1.7940566539764404,-0.02614985778927803,0.19162660837173462,-0.011594191193580627,-0.04843950271606445,0.5360998511314392,-0.8426838517189026,0.0,0.0,0.0,0.0,0.0,0.0
1154,1724557865339502016,-1.7939746379852295,-0.02644525282084942,0.19142819941043854,-0.009976696223020554,-0.047624267637729645,0.5357145667076111,-0.8429960012435913,0.0,0.0,0.0,0.0,0.0,0.0
1156,1724557865349500415,-1.7937625646591187,-0.026587294414639473,0.19153670966625214,-0.008931980468332767,-0.048693377524614334,0.5359695553779602,-0.8427845239639282,0.0,0.0,0.0,0.0,0.0,0.0
1158,1724557865359556618,-1.7935770750045776,-0.02674390934407711,0.19150075316429138,-0.007930833846330643,-0.04879054054617882,0.535757303237915,-0.8429238796234131,0.0,0.0,0.0,0.0,0.0,0.0
1160,1724557865369129263,-1.793337106704712,-0.02684839442372322,0.19153721630573273,-0.007256568409502506,-0.04914943128824234,0.5356274843215942,-0.8429916501045227,0.0,0.0,0.0,0.0,0.0,0.0
1162,1724557865379869305,-1.7929456233978271,-0.02692834474146366,0.19196440279483795,-0.007925967685878277,-0.05025767907500267,0.5360180139541626,-0.8426720499992371,0.0,0.0,0.0,0.0,0.0,0.0
1164,1724557865389478414,-1.7925684452056885,-0.02704741805791855,0.19221825897693634,-0.008451742120087147,-0.0504295751452446,0.5358576774597168,-0.8427585363388062,0.0,0.0,0.0,0.0,0.0,0.0
1166,1724557865399631551,-1.792170524597168,-0.027245333418250084,0.19220726191997528,-0.0087435282766819,-0.049128495156764984,0.5351054668426514,-0.8433102369308472,0.0,0.0,0.0,0.0,0.0,0.0
1168,1724557865409524773,-1.791650414466858,-0.02737184800207615,0.19235755503177643,-0.01008419506251812,-0.049811698496341705,0.5347772240638733,-0.8434633016586304,0.0,0.0,0.0,0.0,0.0,0.0
1170,1724557865418901374,-1.7912819385528564,-0.02752266824245453,0.1921589970588684,-0.008569740690290928,-0.04717828705906868,0.5338327884674072,-0.844229519367218,0.0,0.0,0.0,0.0,0.0,0.0
1172,1724557865432203846,-1.7908334732055664,-0.027664417400956154,0.19204363226890564,-0.00794354360550642,-0.04559190198779106,0.5329504609107971,-0.8448799252510071,0.0,0.0,0.0,0.0,0.0,0.0
1174,1724557865439946988,-1.7903176546096802,-0.027866685763001442,0.19210001826286316,-0.00786003191024065,-0.04360170289874077,0.5321985483169556,-0.845459520816803,0.0,0.0,0.0,0.0,0.0,0.0
1176,1724557865450289639,-1.7897461652755737,-0.028035227209329605,0.19214658439159393,-0.009199060499668121,-0.04303823411464691,0.5317675471305847,-0.8457459807395935,0.0,0.0,0.0,0.0,0.0,0.0
1178,1724557865459239595,-1.78912353515625,-0.028108898550271988,0.1923637092113495,-0.00987832061946392,-0.0435369499027729,0.5316547155380249,-0.8457837700843811,0.0,0.0,0.0,0.0,0.0,0.0
1180,1724557865468859768,-1.788509726524353,-0.02810010313987732,0.1926746964454651,-0.009177974425256252,-0.04464389383792877,0.531507670879364,-0.8458263278007507,0.0,0.0,0.0,0.0,0.0,0.0
1182,1724557865481866204,-1.7879263162612915,-0.028182178735733032,0.19287115335464478,-0.009063098579645157,-0.04477221891283989,0.5313178896903992,-0.8459400534629822,0.0,0.0,0.0,0.0,0.0,0.0
1184,1724557865492187012,-1.7873268127441406,-0.02828298695385456,0.19308920204639435,-0.008876834064722061,-0.04518020525574684,0.531262993812561,-0.8459548354148865,0.0,0.0,0.0,0.0,0.0,0.0
1186,1724557865500060615,-1.7867088317871094,-0.028470760211348534,0.19317969679832458,-0.00751088559627533,-0.044860612601041794,0.5310134291648865,-0.8461418151855469,0.0,0.0,0.0,0.0,0.0,0.0
1188,1724557865509197486,-1.7859776020050049,-0.028625667095184326,0.1932818442583084,-0.007438065949827433,-0.045391831547021866,0.5307786464691162,-0.8462613821029663,0.0,0.0,0.0,0.0,0.0,0.0
1190,1724557865519345098,-1.785374641418457,-0.028855912387371063,0.19337093830108643,-0.006788019090890884,-0.04499746114015579,0.5301132798194885,-0.8467048406600952,0.0,0.0,0.0,0.0,0.0,0.0
1192,1724557865529231141,-1.784881830215454,-0.029044872149825096,0.19352522492408752,-0.006501504685729742,-0.045362602919340134,0.5292693376541138,-0.847215473651886,0.0,0.0,0.0,0.0,0.0,0.0
1194,1724557865539922963,-1.7845035791397095,-0.02920481748878956,0.19363777339458466,-0.006035147700458765,-0.04578423872590065,0.5286274552345276,-0.8475968241691589,0.0,0.0,0.0,0.0,0.0,0.0
1196,1724557865552706303,-1.7841882705688477,-0.02957378327846527,0.19355030357837677,-0.005804602988064289,-0.04418962821364403,0.527481198310852,-0.8483967781066895,0.0,0.0,0.0,0.0,0.0,0.0
1198,1724557865559284451,-1.783766269683838,-0.029962461441755295,0.19347643852233887,-0.006196127273142338,-0.04341752827167511,0.5267572402954102,-0.8488835692405701,0.0,0.0,0.0,0.0,0.0,0.0
1200,1724557865569884647,-1.7833820581436157,-0.03041406162083149,0.1932148039340973,-0.006646652705967426,-0.04252117499709129,0.5258262157440186,-0.8495025634765625,0.0,0.0,0.0,0.0,0.0,0.0
1202,1724557865579071169,-1.7830277681350708,-0.030971243977546692,0.19282059371471405,-0.007178328465670347,-0.04082657769322395,0.5246419310569763,-0.8503131866455078,0.0,0.0,0.0,0.0,0.0,0.0
1204,1724557865591575826,-1.7824262380599976,-0.031243907287716866,0.19321958720684052,-0.007323617115616798,-0.043598685413599014,0.5255283117294312,-0.8496267795562744,0.0,0.0,0.0,0.0,0.0,0.0
1206,1724557865599468424,-1.782015323638916,-0.03181968629360199,0.19322708249092102,-0.0062527828849852085,-0.04320560395717621,0.5250800848007202,-0.8499323725700378,0.0,0.0,0.0,0.0,0.0,0.0
1208,1724557865609730112,-1.7814910411834717,-0.0324183851480484,0.19339217245578766,-0.007009818218648434,-0.044020894914865494,0.5249634385108948,-0.849956750869751,0.0,0.0,0.0,0.0,0.0,0.0
1210,1724557865619387710,-1.781098484992981,-0.03325148671865463,0.1933472454547882,-0.006127208471298218,-0.04424603655934334,0.5232933759689331,-0.8509811162948608,0.0,0.0,0.0,0.0,0.0,0.0
1212,1724557865636587675,-1.7806280851364136,-0.03412214666604996,0.19301484525203705,-0.007110859267413616,-0.04309476166963577,0.522113025188446,-0.8517572283744812,0.0,0.0,0.0,0.0,0.0,0.0
1214,1724557865640038134,-1.7801095247268677,-0.0351538322865963,0.19247397780418396,-0.008677502162754536,-0.03938756883144379,0.5215442180633545,-0.8522704839706421,0.0,0.0,0.0,0.0,0.0,0.0
1216,1724557865652018524,-1.779392957687378,-0.03598623722791672,0.19263416528701782,-0.008683756925165653,-0.03961952030658722,0.5221084952354431,-0.85191410779953,0.0,0.0,0.0,0.0,0.0,0.0
1218,1724557865664133660,-1.7786760330200195,-0.03678317740559578,0.19325079023838043,-0.0072148446924984455,-0.042886000126600266,0.5223317742347717,-0.8516327738761902,0.0,0.0,0.0,0.0,0.0,0.0
1220,1724557865669719473,-1.7780147790908813,-0.03792581707239151,0.19295376539230347,-0.005750738084316254,-0.04331958666443825,0.5211334228515625,-0.8523557186126709,0.0,0.0,0.0,0.0,0.0,0.0
1222,1724557865681990759,-1.7774378061294556,-0.03926911950111389,0.1922493577003479,-0.004740002565085888,-0.04045715555548668,0.5194172263145447,-0.8535493016242981,0.0,0.0,0.0,0.0,0.0,0.0
1224,1724557865689746472,-1.7767210006713867,-0.040338966995477676,0.19211958348751068,-0.0046718125231564045,-0.040433503687381744,0.5191382169723511,-0.8537205457687378,0.0,0.0,0.0,0.0,0.0,0.0
1226,1724557865699168845,-1.7759382724761963,-0.04151758551597595,0.19223825633525848,-0.0040711830370128155,-0.04036913067102432,0.5192402601242065,-0.8536646366119385,0.0,0.0,0.0,0.0,0.0,0.0
1228,1724557865710905657,-1.7750787734985352,-0.042823173105716705,0.1923583298921585,-0.0052929529920220375,-0.040026575326919556,0.5190625786781311,-0.8537821173667908,0.0,0.0,0.0,0.0,0.0,0.0
1230,1724557865719065859,-1.7743258476257324,-0.044209208339452744,0.1922592967748642,-0.005991926416754723,-0.038710106164216995,0.5179998874664307,-0.8544833064079285,0.0,0.0,0.0,0.0,0.0,0.0
1232,1724557865733001094,-1.7735764980316162,-0.04558728635311127,0.19271306693553925,-0.004322311840951443,-0.03813425451517105,0.517436683177948,-0.8548604846000671,0.0,0.0,0.0,0.0,0.0,0.0
1234,1724557865739861400,-1.772869348526001,-0.047197774052619934,0.19244886934757233,-0.0034790365025401115,-0.034847307950258255,0.5161344408988953,-0.8557913303375244,0.0,0.0,0.0,0.0,0.0,0.0
1236,1724557865750624869,-1.7718963623046875,-0.0486011803150177,0.19267675280570984,-0.0023816446773707867,-0.03474115952849388,0.5163524150848389,-0.8556680083274841,0.0,0.0,0.0,0.0,0.0,0.0
1238,1724557865761242785,-1.7709404230117798,-0.050049833953380585,0.1925392597913742,-0.0019236813532188535,-0.03298937529325485,0.5163795948028564,-0.8557220697402954,0.0,0.0,0.0,0.0,0.0,0.0
1240,1724557865769097140,-1.7699247598648071,-0.05142772197723389,0.19279806315898895,-0.001853747060522437,-0.033414993435144424,0.5172523856163025,-0.8551782965660095,0.0,0.0,0.0,0.0,0.0,0.0
1242,1724557865779306161,-1.7690610885620117,-0.05312131345272064,0.1928466558456421,-0.0009561284095980227,-0.032168708741664886,0.5172533392906189,-0.8552270531654358,0.0,0.0,0.0,0.0,0.0,0.0
1244,1724557865789574624,-1.7680766582489014,-0.054730214178562164,0.1930290013551712,4.428077318152646e-06,-0.03196919709444046,0.5180559754371643,-0.8547490239143372,0.0,0.0,0.0,0.0,0.0,0.0
1246,1724557865801489958,-1.767073154449463,-0.0562485009431839,0.19330309331417084,0.001442631590180099,-0.032819949090480804,0.5184534192085266,-0.8544746041297913,0.0,0.0,0.0,0.0,0.0,0.0
1248,1724557865809761976,-1.7660536766052246,-0.05802050977945328,0.19325922429561615,0.001238457509316504,-0.03249086067080498,0.5187254548072815,-0.8543224334716797,0.0,0.0,0.0,0.0,0.0,0.0
1250,1724557865819187192,-1.7650593519210815,-0.0599086731672287,0.1930890679359436,0.0020771704148501158,-0.029215628281235695,0.5186065435409546,-0.8545112013816833,0.0,0.0,0.0,0.0,0.0,0.0
1252,1724557865830707614,-1.7640401124954224,-0.061748526990413666,0.19329124689102173,0.001824249979108572,-0.028680622577667236,0.5191184878349304,-0.8542189598083496,0.0,0.0,0.0,0.0,0.0,0.0
1254,1724557865839271345,-1.7630594968795776,-0.06363321840763092,0.19329729676246643,0.0020331963896751404,-0.0282151997089386,0.5190368294715881,-0.8542836308479309,0.0,0.0,0.0,0.0,0.0,0.0
1256,1724557865849660853,-1.7620068788528442,-0.06561952084302902,0.19331897795200348,0.002408723346889019,-0.02735598385334015,0.5191377997398376,-0.8542492389678955,0.0,0.0,0.0,0.0,0.0,0.0
1258,1724557865859605794,-1.760901689529419,-0.06737108528614044,0.1935247927904129,0.003959523513913155,-0.028189076110720634,0.5200966000556946,-0.8536329865455627,0.0,0.0,0.0,0.0,0.0,0.0
1260,1724557865870041227,-1.7596968412399292,-0.0692516565322876,0.19361087679862976,0.004951024428009987,-0.02751113474369049,0.5210809111595154,-0.8530493974685669,0.0,0.0,0.0,0.0,0.0,0.0
1262,1724557865880999944,-1.7584304809570312,-0.07107903808355331,0.19370758533477783,0.004966433625668287,-0.029106510803103447,0.5226218700408936,-0.852053165435791,0.0,0.0,0.0,0.0,0.0,0.0
1264,1724557865889061827,-1.7573703527450562,-0.07328596711158752,0.19348305463790894,0.004462817683815956,-0.0258642565459013,0.5218282341957092,-0.8526467084884644,0.0,0.0,0.0,0.0,0.0,0.0
1266,1724557865901056640,-1.7561872005462646,-0.07524608820676804,0.19356001913547516,0.004847339820116758,-0.0263763889670372,0.5226095914840698,-0.8521502614021301,0.0,0.0,0.0,0.0,0.0,0.0
1268,1724557865909620486,-1.7548731565475464,-0.07718217372894287,0.19383753836154938,0.00334045197814703,-0.02788308821618557,0.5241880416870117,-0.851139485836029,0.0,0.0,0.0,0.0,0.0,0.0
1270,1724557865918955762,-1.7536180019378662,-0.07936318963766098,0.1935732513666153,0.0019908761605620384,-0.02705271728336811,0.524732232093811,-0.8508350253105164,0.0,0.0,0.0,0.0,0.0,0.0
1272,1724557865935440558,-1.7523200511932373,-0.08119409531354904,0.1936514973640442,0.003455786732956767,-0.029195835813879967,0.526253342628479,-0.8498194813728333,0.0,0.0,0.0,0.0,0.0,0.0
1274,1724557865939722122,-1.7509753704071045,-0.08346450328826904,0.19374699890613556,0.0020399820059537888,-0.028050405904650688,0.527329683303833,-0.8491951823234558,0.0,0.0,0.0,0.0,0.0,0.0
1276,1724557865950003049,-1.7496185302734375,-0.08567225933074951,0.19335632026195526,0.0026835950557142496,-0.02898947149515152,0.5283797383308411,-0.8485087752342224,0.0,0.0,0.0,0.0,0.0,0.0
1278,1724557865963331627,-1.7482337951660156,-0.08806423097848892,0.19298313558101654,0.00028514809673652053,-0.02863151580095291,0.5285322666168213,-0.8484302163124084,0.0,0.0,0.0,0.0,0.0,0.0
1280,1724557865971355598,-1.7466151714324951,-0.09020689129829407,0.19315381348133087,-0.000529168639332056,-0.03080725483596325,0.530747652053833,-0.846969723701477,0.0,0.0,0.0,0.0,0.0,0.0
1282,1724557865979442414,-1.7451419830322266,-0.0926213264465332,0.19274529814720154,-0.0016148663125932217,-0.030513308942317963,0.5324214100837708,-0.8459277749061584,0.0,0.0,0.0,0.0,0.0,0.0
1284,1724557865989020228,-1.7435352802276611,-0.09485780447721481,0.19260169565677643,-0.0016762290615588427,-0.03108781948685646,0.5339199304580688,-0.8449617028236389,0.0,0.0,0.0,0.0,0.0,0.0
1286,1724557866000039295,-1.7419970035552979,-0.09737813472747803,0.19207270443439484,-0.0016623605042696,-0.031139668077230453,0.5347537994384766,-0.8444322943687439,0.0,0.0,0.0,0.0,0.0,0.0
1288,1724557866013652038,-1.7404356002807617,-0.10006866604089737,0.19150933623313904,-0.002552733989432454,-0.03150143101811409,0.5351496338844299,-0.8441658616065979,0.0,0.0,0.0,0.0,0.0,0.0
1290,1724557866019501703,-1.7388781309127808,-0.10260440409183502,0.19109484553337097,-0.0032328933011740446,-0.032747216522693634,0.5356640815734863,-0.84378981590271,0.0,0.0,0.0,0.0,0.0,0.0
1292,1724557866030175894,-1.7372636795043945,-0.10545323044061661,0.19065265357494354,-0.006308149546384811,-0.03209978714585304,0.5363960266113281,-0.8433322310447693,0.0,0.0,0.0,0.0,0.0,0.0
1294,1724557866041573101,-1.7353758811950684,-0.10784707963466644,0.1908007264137268,-0.008404829539358616,-0.037468764930963516,0.5395412445068359,-0.8410830497741699,0.0,0.0,0.0,0.0,0.0,0.0
1296,1724557866052998227,-1.7340110540390015,-0.11089957505464554,0.18959137797355652,-0.006179757881909609,-0.03632194548845291,0.5389823317527771,-0.8415108919143677,0.0,0.0,0.0,0.0,0.0,0.0
1298,1724557866065752648,-1.7323710918426514,-0.11376363039016724,0.18888795375823975,-0.008183186873793602,-0.03757098317146301,0.5394539833068848,-0.841136634349823,0.0,0.0,0.0,0.0,0.0,0.0
1300,1724557866069385458,-1.730704665184021,-0.11677892506122589,0.1882646381855011,-0.010230724699795246,-0.038991183042526245,0.5402172207832336,-0.8405596017837524,0.0,0.0,0.0,0.0,0.0,0.0
1302,1724557866081169535,-1.7289694547653198,-0.11979255080223083,0.18772368133068085,-0.012425857596099377,-0.04200248420238495,0.5417383313179016,-0.8394051790237427,0.0,0.0,0.0,0.0,0.0,0.0
1304,1724557866089964901,-1.7271085977554321,-0.12286357581615448,0.1872713267803192,-0.016491452232003212,-0.04519755020737648,0.5426493287086487,-0.838580310344696,0.0,0.0,0.0,0.0,0.0,0.0
1306,1724557866105872333,-1.7253779172897339,-0.12626391649246216,0.18592935800552368,-0.01865028217434883,-0.04702051728963852,0.5423887372016907,-0.8386034965515137,0.0,0.0,0.0,0.0,0.0,0.0
1308,1724557866111572131,-1.7235617637634277,-0.1296730488538742,0.18470773100852966,-0.02059076353907585,-0.04922446981072426,0.5426744222640991,-0.8382466435432434,0.0,0.0,0.0,0.0,0.0,0.0
1310,1724557866120653108,-1.7216510772705078,-0.1330297291278839,0.18387827277183533,-0.024708915501832962,-0.0534987673163414,0.5441760420799255,-0.8368988633155823,0.0,0.0,0.0,0.0,0.0,0.0
1312,1724557866130583675,-1.7199344635009766,-0.13683578372001648,0.1820761114358902,-0.02576051466166973,-0.054835110902786255,0.5432851910591125,-0.8373593688011169,0.0,0.0,0.0,0.0,0.0,0.0
1314,1724557866139890505,-1.718151569366455,-0.1404775083065033,0.1804533302783966,-0.027781492099165916,-0.058923445641994476,0.5427945256233215,-0.8373352885246277,0.0,0.0,0.0,0.0,0.0,0.0
1316,1724557866151555052,-1.7162381410598755,-0.14433033764362335,0.17864260077476501,-0.03215508535504341,-0.06298277527093887,0.5428922772407532,-0.8368197679519653,0.0,0.0,0.0,0.0,0.0,0.0
1318,1724557866165020284,-1.7141984701156616,-0.14824026823043823,0.17687569558620453,-0.036364126950502396,-0.0683668851852417,0.5438632965087891,-0.8355934023857117,0.0,0.0,0.0,0.0,0.0,0.0
1320,1724557866169142622,-1.7122807502746582,-0.15238036215305328,0.17457233369350433,-0.041185565292835236,-0.07277815788984299,0.5431944131851196,-0.8354321718215942,0.0,0.0,0.0,0.0,0.0,0.0
1322,1724557866182225002,-1.7104276418685913,-0.15668925642967224,0.17198696732521057,-0.04653530940413475,-0.07603984326124191,0.5416269898414612,-0.8358784317970276,0.0,0.0,0.0,0.0,0.0,0.0
1324,1724557866189948886,-1.7082586288452148,-0.1607455462217331,0.1700896918773651,-0.05248871073126793,-0.08228453248739243,0.5425322651863098,-0.8343458771705627,0.0,0.0,0.0,0.0,0.0,0.0
1326,1724557866201297635,-1.7062817811965942,-0.164786234498024,0.16801859438419342,-0.0565204881131649,-0.08757448196411133,0.5431025624275208,-0.8331722021102905,0.0,0.0,0.0,0.0,0.0,0.0
1328,1724557866214440701,-1.7044931650161743,-0.16843633353710175,0.16595223546028137,-0.0598498098552227,-0.0905519425868988,0.5425980091094971,-0.8329501152038574,0.0,0.0,0.0,0.0,0.0,0.0
1330,1724557866230010183,-1.7027732133865356,-0.17147380113601685,0.16453704237937927,-0.06176266819238663,-0.09051555395126343,0.5426827669143677,-0.8327591419219971,0.0,0.0,0.0,0.0,0.0,0.0
1332,1724557866230627633,-1.7013325691223145,-0.17395305633544922,0.1644362211227417,-0.06123770773410797,-0.0890844464302063,0.5448019504547119,-0.8315677046775818,0.0,0.0,0.0,0.0,0.0,0.0
1334,1724557866239398805,-1.6998592615127563,-0.17630651593208313,0.1649409830570221,-0.05802209675312042,-0.08836684376001358,0.5468509793281555,-0.8305292129516602,0.0,0.0,0.0,0.0,0.0,0.0
1336,1724557866251203407,-1.6985212564468384,-0.17859423160552979,0.16467809677124023,-0.05742663890123367,-0.08765117824077606,0.546808123588562,-0.8306746482849121,0.0,0.0,0.0,0.0,0.0,0.0
1338,1724557866260459363,-1.6971499919891357,-0.18062706291675568,0.16423454880714417,-0.05846254527568817,-0.08739914745092392,0.5477283596992493,-0.830022394657135,0.0,0.0,0.0,0.0,0.0,0.0
1340,1724557866269489048,-1.6956826448440552,-0.18220870196819305,0.16402827203273773,-0.057607147842645645,-0.08742713183164597,0.5491786599159241,-0.8291205167770386,0.0,0.0,0.0,0.0,0.0,0.0
1342,1724557866280055915,-1.6945240497589111,-0.18363748490810394,0.16316193342208862,-0.0569654181599617,-0.08459636569023132,0.5498403310775757,-0.8290199041366577,0.0,0.0,0.0,0.0,0.0,0.0
1344,1724557866289328696,-1.693298578262329,-0.1849226951599121,0.1621991991996765,-0.055602747946977615,-0.08244018256664276,0.5512714385986328,-0.8283790349960327,0.0,0.0,0.0,0.0,0.0,0.0
1346,1724557866299783573,-1.6921708583831787,-0.18601775169372559,0.1615058034658432,-0.05291115865111351,-0.08107049763202667,0.5526286959648132,-0.8277859091758728,0.0,0.0,0.0,0.0,0.0,0.0
1348,1724557866310202516,-1.6910980939865112,-0.1870146095752716,0.16109178960323334,-0.0523238331079483,-0.07977631688117981,0.5541210770606995,-0.8269508481025696,0.0,0.0,0.0,0.0,0.0,0.0
1350,1724557866331971424,-1.6902480125427246,-0.1880720555782318,0.16047264635562897,-0.05272241681814194,-0.07710279524326324,0.5539400577545166,-0.8273003101348877,0.0,0.0,0.0,0.0,0.0,0.0
1352,1724557866332423375,-1.6895536184310913,-0.1889192759990692,0.1600247621536255,-0.050385188311338425,-0.07706787437200546,0.5540573000907898,-0.8273707032203674,0.0,0.0,0.0,0.0,0.0,0.0
1354,1724557866339370199,-1.6888548135757446,-0.1897221803665161,0.15955735743045807,-0.05079197138547897,-0.07664824277162552,0.5541344881057739,-0.8273331522941589,0.0,0.0,0.0,0.0,0.0,0.0
1356,1724557866349664097,-1.6883147954940796,-0.19047190248966217,0.15915751457214355,-0.04984791576862335,-0.07637675106525421,0.5544782876968384,-0.827185332775116,0.0,0.0,0.0,0.0,0.0,0.0
1358,1724557866365569352,-1.6878536939620972,-0.1912960559129715,0.15881335735321045,-0.049264248460531235,-0.07481736689805984,0.5538906455039978,-0.827756404876709,0.0,0.0,0.0,0.0,0.0,0.0
1360,1724557866368938740,-1.6873300075531006,-0.1919727921485901,0.15892501175403595,-0.048814959824085236,-0.07478411495685577,0.5546258091926575,-0.8272935748100281,0.0,0.0,0.0,0.0,0.0,0.0
1362,1724557866380907557,-1.6868895292282104,-0.19250372052192688,0.1589442640542984,-0.04835205525159836,-0.07522646337747574,0.5551663637161255,-0.8269180655479431,0.0,0.0,0.0,0.0,0.0,0.0
1364,1724557866389352510,-1.686597466468811,-0.1929265260696411,0.15895865857601166,-0.04838643595576286,-0.07563651353120804,0.5548232793807983,-0.8271088004112244,0.0,0.0,0.0,0.0,0.0,0.0
1366,1724557866401007728,-1.6863563060760498,-0.19332291185855865,0.15894106030464172,-0.049226563423871994,-0.075689397752285,0.554266631603241,-0.8274275660514832,0.0,0.0,0.0,0.0,0.0,0.0
1368,1724557866409531544,-1.6860461235046387,-0.19356250762939453,0.15922600030899048,-0.04977266862988472,-0.07609953731298447,0.5548047423362732,-0.8269965648651123,0.0,0.0,0.0,0.0,0.0,0.0
1370,1724557866419434804,-1.6859372854232788,-0.1937997043132782,0.15896010398864746,-0.04955188184976578,-0.07517138868570328,0.5540972948074341,-0.827568769454956,0.0,0.0,0.0,0.0,0.0,0.0
1372,1724557866429428529,-1.6858277320861816,-0.19385522603988647,0.15903647243976593,-0.04886852577328682,-0.07528593391180038,0.5544813275337219,-0.8273417353630066,0.0,0.0,0.0,0.0,0.0,0.0
1374,1724557866442746972,-1.685801386833191,-0.19398754835128784,0.15894873440265656,-0.04858024790883064,-0.07467323541641235,0.5542886853218079,-0.827543318271637,0.0,0.0,0.0,0.0,0.0,0.0
1376,1724557866450066770,-1.6857672929763794,-0.19403305649757385,0.15892964601516724,-0.04829314723610878,-0.07456545531749725,0.5543631911277771,-0.827519953250885,0.0,0.0,0.0,0.0,0.0,0.0
1378,1724557866461679170,-1.6857681274414062,-0.19408246874809265,0.15885213017463684,-0.04840995371341705,-0.07439171522855759,0.553955078125,-0.8278020024299622,0.0,0.0,0.0,0.0,0.0,0.0
1380,1724557866470019636,-1.6857672929763794,-0.19414421916007996,0.1587401032447815,-0.04903452843427658,-0.07343212515115738,0.5530080795288086,-0.8284838199615479,0.0,0.0,0.0,0.0,0.0,0.0
1382,1724557866479410183,-1.6857441663742065,-0.19417285919189453,0.1587984263896942,-0.04840447008609772,-0.07402975112199783,0.5531228184700012,-0.8283910751342773,0.0,0.0,0.0,0.0,0.0,0.0
1384,1724557866489019354,-1.6857281923294067,-0.19434253871440887,0.1586146503686905,-0.048236165195703506,-0.07321806997060776,0.5523058176040649,-0.8290178775787354,0.0,0.0,0.0,0.0,0.0,0.0
1386,1724557866499834965,-1.685625672340393,-0.1944320946931839,0.15855102241039276,-0.048230111598968506,-0.07325194776058197,0.5516448616981506,-0.8294551968574524,0.0,0.0,0.0,0.0,0.0,0.0
1388,1724557866509548854,-1.6854908466339111,-0.1945561319589615,0.15846341848373413,-0.048925433307886124,-0.07262641191482544,0.5508404970169067,-0.8300039172172546,0.0,0.0,0.0,0.0,0.0,0.0
1390,1724557866519985016,-1.6852807998657227,-0.19466246664524078,0.15846525132656097,-0.04938727989792824,-0.07284805178642273,0.5505696535110474,-0.8301368355751038,0.0,0.0,0.0,0.0,0.0,0.0
1392,1724557866529581420,-1.6850488185882568,-0.19480666518211365,0.15837466716766357,-0.049678951501846313,-0.07300261408090591,0.5499354004859924,-0.8305262327194214,0.0,0.0,0.0,0.0,0.0,0.0
1394,1724557866540323070,-1.6848176717758179,-0.19504770636558533,0.15814316272735596,-0.0502716563642025,-0.0721728503704071,0.5491447448730469,-0.8310859799385071,0.0,0.0,0.0,0.0,0.0,0.0
1396,1724557866549630657,-1.6845793724060059,-0.19526158273220062,0.1579871028661728,-0.05012710765004158,-0.07129527628421783,0.5485033988952637,-0.8315938115119934,0.0,0.0,0.0,0.0,0.0,0.0
1398,1724557866560091262,-1.6842916011810303,-0.1955001950263977,0.15780429542064667,-0.05017780140042305,-0.07004879415035248,0.5476483106613159,-0.832260012626648,0.0,0.0,0.0,0.0,0.0,0.0
1400,1724557866569786449,-1.6839300394058228,-0.19567203521728516,0.15768176317214966,-0.04990416020154953,-0.06949788331985474,0.5470128059387207,-0.8327404260635376,0.0,0.0,0.0,0.0,0.0,0.0
1402,1724557866581638726,-1.68356454372406,-0.19585107266902924,0.15736660361289978,-0.049498070031404495,-0.06867556273937225,0.546148955821991,-0.8333996534347534,0.0,0.0,0.0,0.0,0.0,0.0
1404,1724557866589629648,-1.6830759048461914,-0.1959484964609146,0.15722252428531647,-0.04854665696620941,-0.06900887191295624,0.5455210208892822,-0.8338391780853271,0.0,0.0,0.0,0.0,0.0,0.0
1406,1724557866599263081,-1.6825025081634521,-0.19606782495975494,0.15717092156410217,-0.04886123910546303,-0.06887365877628326,0.5451524257659912,-0.8340730667114258,0.0,0.0,0.0,0.0,0.0,0.0
1408,1724557866614832482,-1.6820071935653687,-0.19613713026046753,0.1570335328578949,-0.0490233413875103,-0.06831267476081848,0.5443857908248901,-0.8346102237701416,0.0,0.0,0.0,0.0,0.0,0.0
1410,1724557866619105188,-1.6814887523651123,-0.19623994827270508,0.15682126581668854,-0.049589596688747406,-0.06702964752912521,0.5434321165084839,-0.8353019952774048,0.0,0.0,0.0,0.0,0.0,0.0
1412,1724557866629674002,-1.6809425354003906,-0.19634167850017548,0.15664030611515045,-0.04974352568387985,-0.06631108373403549,0.5424731969833374,-0.8359732031822205,0.0,0.0,0.0,0.0,0.0,0.0
1414,1724557866640251881,-1.6803697347640991,-0.19643576443195343,0.15646924078464508,-0.05070207640528679,-0.06497600674629211,0.5416917204856873,-0.8365271687507629,0.0,0.0,0.0,0.0,0.0,0.0
1416,1724557866649239475,-1.679839015007019,-0.19646267592906952,0.15639925003051758,-0.04907616972923279,-0.06491291522979736,0.5412307977676392,-0.8369271755218506,0.0,0.0,0.0,0.0,0.0,0.0
1418,1724557866661503904,-1.6792712211608887,-0.19649477303028107,0.1562735140323639,-0.04860810190439224,-0.06428266316652298,0.5407552719116211,-0.8373103737831116,0.0,0.0,0.0,0.0,0.0,0.0
1420,1724557866669070874,-1.6786919832229614,-0.1965598165988922,0.15604381263256073,-0.048742733895778656,-0.06360136717557907,0.5400862693786621,-0.8377862572669983,0.0,0.0,0.0,0.0,0.0,0.0
1422,1724557866681482435,-1.6780871152877808,-0.19661828875541687,0.15587976574897766,-0.04789555072784424,-0.06332448124885559,0.5396512150764465,-0.8381363749504089,0.0,0.0,0.0,0.0,0.0,0.0
1424,1724557866689630898,-1.6775126457214355,-0.1966383159160614,0.1557142585515976,-0.04809604212641716,-0.0627080500125885,0.5388296842575073,-0.8386996984481812,0.0,0.0,0.0,0.0,0.0,0.0
1426,1724557866699207094,-1.6769758462905884,-0.19666489958763123,0.1555165797472,-0.04874247685074806,-0.06201470270752907,0.5379665493965149,-0.8392677903175354,0.0,0.0,0.0,0.0,0.0,0.0
1428,1724557866709772911,-1.6763845682144165,-0.1966286152601242,0.155483677983284,-0.04955674707889557,-0.06222556531429291,0.5377780795097351,-0.8393253087997437,0.0,0.0,0.0,0.0,0.0,0.0
1430,1724557866718938567,-1.6757726669311523,-0.19652478396892548,0.1557035744190216,-0.04993900656700134,-0.06199442595243454,0.5377632975578308,-0.8393291234970093,0.0,0.0,0.0,0.0,0.0,0.0
1432,1724557866729419436,-1.6752465963363647,-0.19652371108531952,0.1555999517440796,-0.05057583749294281,-0.06076345220208168,0.5371856689453125,-0.8397508859634399,0.0,0.0,0.0,0.0,0.0,0.0
1434,1724557866739612095,-1.6747684478759766,-0.19654874503612518,0.1552533060312271,-0.05022997036576271,-0.059719447046518326,0.5364286303520203,-0.8403302431106567,0.0,0.0,0.0,0.0,0.0,0.0
1436,1724557866750575221,-1.6742771863937378,-0.19652235507965088,0.1550455093383789,-0.05005607008934021,-0.058948319405317307,0.5357568860054016,-0.8408234715461731,0.0,0.0,0.0,0.0,0.0,0.0
1438,1724557866759474989,-1.6738313436508179,-0.19647592306137085,0.15491163730621338,-0.04972616583108902,-0.058550458401441574,0.5353564023971558,-0.8411258459091187,0.0,0.0,0.0,0.0,0.0,0.0
1440,1724557866769543430,-1.6734305620193481,-0.19639131426811218,0.1548464596271515,-0.049472626298666,-0.05848941206932068,0.5351137518882751,-0.8412994146347046,0.0,0.0,0.0,0.0,0.0,0.0
1442,1724557866783094944,-1.673068881034851,-0.19626466929912567,0.15493567287921906,-0.04875529557466507,-0.058441951870918274,0.5347940921783447,-0.8415478467941284,0.0,0.0,0.0,0.0,0.0,0.0
1444,1724557866790712253,-1.6727440357208252,-0.19623003900051117,0.15478675067424774,-0.04873878136277199,-0.05819106847047806,0.5344526171684265,-0.8417830467224121,0.0,0.0,0.0,0.0,0.0,0.0
1446,1724557866799863972,-1.6723936796188354,-0.19615507125854492,0.15465041995048523,-0.04927569627761841,-0.058247316628694534,0.5342308878898621,-0.8418886661529541,0.0,0.0,0.0,0.0,0.0,0.0
1448,1724557866810935953,-1.6720662117004395,-0.19603689014911652,0.1545712798833847,-0.04979976266622543,-0.05804724246263504,0.5339963436126709,-0.8420205116271973,0.0,0.0,0.0,0.0,0.0,0.0
1450,1724557866819661867,-1.671804428100586,-0.19592683017253876,0.15449091792106628,-0.04981862008571625,-0.05773656442761421,0.5338492393493652,-0.8421339392662048,0.0,0.0,0.0,0.0,0.0,0.0
1452,1724557866829367081,-1.671578288078308,-0.19581709802150726,0.15441679954528809,-0.04971926659345627,-0.05735402926802635,0.5336787104606628,-0.842274010181427,0.0,0.0,0.0,0.0,0.0,0.0
1454,1724557866839819687,-1.6713817119598389,-0.1957257241010666,0.15430594980716705,-0.04993283748626709,-0.05696232616901398,0.5333520770072937,-0.8424948453903198,0.0,0.0,0.0,0.0,0.0,0.0
1456,1724557866849909173,-1.6711872816085815,-0.19562499225139618,0.154271200299263,-0.04970606416463852,-0.05666165053844452,0.5333907008171082,-0.8425041437149048,0.0,0.0,0.0,0.0,0.0,0.0
1458,1724557866859262004,-1.6710617542266846,-0.1955428123474121,0.15415291488170624,-0.04964734986424446,-0.056330882012844086,0.5331679582595825,-0.8426706790924072,0.0,0.0,0.0,0.0,0.0,0.0
1460,1724557866869664761,-1.6709038019180298,-0.19545115530490875,0.15412424504756927,-0.05033145844936371,-0.05565675348043442,0.5328997373580933,-0.8428444862365723,0.0,0.0,0.0,0.0,0.0,0.0
1462,1724557866879414769,-1.670780062675476,-0.19535233080387115,0.1541639119386673,-0.05016777664422989,-0.05574813485145569,0.5329859852790833,-0.8427937626838684,0.0,0.0,0.0,0.0,0.0,0.0
1464,1724557866890577514,-1.6706762313842773,-0.19525876641273499,0.1541736125946045,-0.050024811178445816,-0.05596162751317024,0.5330018997192383,-0.8427780270576477,0.0,0.0,0.0,0.0,0.0,0.0
1466,1724557866901959989,-1.6706218719482422,-0.19521351158618927,0.15410690009593964,-0.050605807453393936,-0.055590901523828506,0.5327714681625366,-0.8429135084152222,0.0,0.0,0.0,0.0,0.0,0.0
1468,1724557866909719100,-1.6705890893936157,-0.19519923627376556,0.15404021739959717,-0.05077727511525154,-0.05512474104762077,0.5325605273246765,-0.8430672287940979,0.0,0.0,0.0,0.0,0.0,0.0
1470,1724557866919845994,-1.6705642938613892,-0.195147305727005,0.1540573537349701,-0.050003986805677414,-0.05555417388677597,0.5326778292655945,-0.8430111408233643,0.0,0.0,0.0,0.0,0.0,0.0
1472,1724557866929466974,-1.6705516576766968,-0.19508998095989227,0.1540304273366928,-0.04953158646821976,-0.0554783008992672,0.5325502753257751,-0.8431245684623718,0.0,0.0,0.0,0.0,0.0,0.0
1474,1724557866952966422,-1.670535683631897,-0.19506031274795532,0.15394394099712372,-0.049495380371809006,-0.05536101758480072,0.5323906540870667,-0.843235194683075,0.0,0.0,0.0,0.0,0.0,0.0
1476,1724557866953791361,-1.6704689264297485,-0.19493602216243744,0.15413925051689148,-0.0500233918428421,-0.05524630844593048,0.5326083302497864,-0.8430740833282471,0.0,0.0,0.0,0.0,0.0,0.0
1478,1724557866959424926,-1.6703734397888184,-0.19485008716583252,0.15422962605953217,-0.050557635724544525,-0.05548076704144478,0.5327713489532471,-0.8429237604141235,0.0,0.0,0.0,0.0,0.0,0.0
1480,1724557866969741204,-1.670319676399231,-0.1947445124387741,0.15425148606300354,-0.0503835454583168,-0.055780403316020966,0.5328218936920166,-0.842882513999939,0.0,0.0,0.0,0.0,0.0,0.0
1482,1724557866979486190,-1.6702872514724731,-0.1946309506893158,0.15420763194561005,-0.05017642676830292,-0.05556073039770126,0.5326969027519226,-0.8429883122444153,0.0,0.0,0.0,0.0,0.0,0.0
1484,1724557866990780152,-1.670215129852295,-0.194524884223938,0.1541927009820938,-0.05038297548890114,-0.05530828237533569,0.5326030254364014,-0.8430519700050354,0.0,0.0,0.0,0.0,0.0,0.0
1486,1724557867000033372,-1.670141577720642,-0.19437064230442047,0.1542300432920456,-0.05001521110534668,-0.05540534481406212,0.5328264236450195,-0.8429263234138489,0.0,0.0,0.0,0.0,0.0,0.0
1488,1724557867009669403,-1.6701209545135498,-0.19427703320980072,0.15411518514156342,-0.050207026302814484,-0.0550234317779541,0.5325599908828735,-0.8431082963943481,0.0,0.0,0.0,0.0,0.0,0.0
1490,1724557867019160111,-1.6700795888900757,-0.1941498965024948,0.15408653020858765,-0.05009795352816582,-0.05503261461853981,0.5325239300727844,-0.8431369662284851,0.0,0.0,0.0,0.0,0.0,0.0
1492,1724557867031388099,-1.6700232028961182,-0.19401545822620392,0.15407179296016693,-0.05030988156795502,-0.05501433089375496,0.5324364304542542,-0.843180775642395,0.0,0.0,0.0,0.0,0.0,0.0
1494,1724557867039856395,-1.669968843460083,-0.19388894736766815,0.15403662621974945,-0.05024639889597893,-0.0550822913646698,0.5320614576339722,-0.8434167504310608,0.0,0.0,0.0,0.0,0.0,0.0
1496,1724557867054689023,-1.6699105501174927,-0.19379286468029022,0.1540013700723648,-0.050549790263175964,-0.054956547915935516,0.5316997170448303,-0.8436349034309387,0.0,0.0,0.0,0.0,0.0,0.0
1498,1724557867060431483,-1.6698817014694214,-0.19373394548892975,0.15398374199867249,-0.05066299811005592,-0.05484205484390259,0.5315742492675781,-0.843714714050293,0.0,0.0,0.0,0.0,0.0,0.0
1500,1724557867070396146,-1.6698530912399292,-0.19368836283683777,0.1539706438779831,-0.050474341958761215,-0.054744720458984375,0.5315053462982178,-0.8437756896018982,0.0,0.0,0.0,0.0,0.0,0.0
1502,1724557867079006952,-1.669840931892395,-0.19365191459655762,0.15394696593284607,-0.0504412017762661,-0.05450969934463501,0.5313574075698853,-0.8438860774040222,0.0,0.0,0.0,0.0,0.0,0.0
1504,1724557867089400408,-1.6698390245437622,-0.19364163279533386,0.15391655266284943,-0.050384752452373505,-0.054298002272844315,0.5312955379486084,-0.8439419865608215,0.0,0.0,0.0,0.0,0.0,0.0
1506,1724557867102569830,-1.6698431968688965,-0.19359233975410461,0.1539258509874344,-0.05066325142979622,-0.054348982870578766,0.5309315919876099,-0.8441510796546936,0.0,0.0,0.0,0.0,0.0,0.0
1508,1724557867109937990,-1.6698611974716187,-0.19355452060699463,0.15392133593559265,-0.050991546362638474,-0.054427649825811386,0.5307118892669678,-0.8442644476890564,0.0,0.0,0.0,0.0,0.0,0.0
1510,1724557867119665358,-1.669866919517517,-0.19351015985012054,0.15393514931201935,-0.05119863152503967,-0.05453348904848099,0.530529797077179,-0.8443595170974731,0.0,0.0,0.0,0.0,0.0,0.0
