seq,stamp,px,py,pz,ox,oy,oz,ow,lx,ly,lz,ax,ay,az
28,1724915677145244265,-0.0685136690735817,-0.12527935206890106,0.1908513605594635,-0.026871614158153534,-0.043443210422992706,-0.3997691869735718,0.9151914119720459,0.0,0.0,0.0,0.0,0.0,0.0
30,1724915677155083466,-0.06772661209106445,-0.12562038004398346,0.1908055990934372,-0.02682134322822094,-0.04437235742807388,-0.39874905347824097,0.9155932068824768,0.0,0.0,0.0,0.0,0.0,0.0
32,1724915677165050900,-0.06667692214250565,-0.12590424716472626,0.19075636565685272,-0.02485165372490883,-0.04369097575545311,-0.3988984227180481,0.9156165719032288,0.0,0.0,0.0,0.0,0.0,0.0
34,1724915677221504865,-0.06590104848146439,-0.126092791557312,0.19067008793354034,-0.025204701349139214,-0.04303349554538727,-0.3989085555076599,0.9156335592269897,0.0,0.0,0.0,0.0,0.0,0.0
36,1724915677221798222,-0.06509292870759964,-0.1264762133359909,0.19069163501262665,-0.02579645626246929,-0.04365400969982147,-0.399041086435318,0.9155299067497253,0.0,0.0,0.0,0.0,0.0,0.0
38,1724915677222655000,-0.06434332579374313,-0.12692272663116455,0.19066928327083588,-0.02682059444487095,-0.045239146798849106,-0.39803069829940796,0.9158633351325989,0.0,0.0,0.0,0.0,0.0,0.0
40,1724915677223520482,-0.06352361291646957,-0.12727665901184082,0.1906440109014511,-0.02915753237903118,-0.045362360775470734,-0.39780470728874207,0.9158840179443359,0.0,0.0,0.0,0.0,0.0,0.0
42,1724915677224168075,-0.06260403245687485,-0.12752242386341095,0.1905481070280075,-0.02885865420103073,-0.04459080845117569,-0.39714500308036804,0.9162176251411438,0.0,0.0,0.0,0.0,0.0,0.0
44,1724915677225821759,-0.06180368736386299,-0.12786613404750824,0.19040916860103607,-0.028626423329114914,-0.044521454721689224,-0.39729684591293335,0.9161624908447266,0.0,0.0,0.0,0.0,0.0,0.0
46,1724915677237457367,-0.06086651235818863,-0.12826694548130035,0.1905180811882019,-0.026591289788484573,-0.04294339939951897,-0.3987661898136139,0.9156606793403625,0.0,0.0,0.0,0.0,0.0,0.0
48,1724915677246792413,-0.059986501932144165,-0.12884388864040375,0.19069887697696686,-0.02645459957420826,-0.04303200542926788,-0.39886122941970825,0.9156189560890198,0.0,0.0,0.0,0.0,0.0,0.0
50,1724915677255369810,-0.0591907724738121,-0.12921932339668274,0.19078730046749115,-0.024496646597981453,-0.044504307210445404,-0.3981493413448334,0.915912926197052,0.0,0.0,0.0,0.0,0.0,0.0
52,1724915677265278820,-0.058370403945446014,-0.12948033213615417,0.19067835807800293,-0.023839935660362244,-0.044841088354587555,-0.3974095582962036,0.9162350296974182,0.0,0.0,0.0,0.0,0.0,0.0
54,1724915677276754687,-0.05760859325528145,-0.12984368205070496,0.19062365591526031,-0.025554604828357697,-0.04493245109915733,-0.39720526337623596,0.9162729382514954,0.0,0.0,0.0,0.0,0.0,0.0
56,1724915677285864709,-0.05676666274666786,-0.13015836477279663,0.19073699414730072,-0.02589450031518936,-0.04506880044937134,-0.39880701899528503,0.9155606627464294,0.0,0.0,0.0,0.0,0.0,0.0
58,1724915677296032782,-0.055878233164548874,-0.13060809671878815,0.1906982958316803,-0.025123097002506256,-0.044911667704582214,-0.39991408586502075,0.9151068925857544,0.0,0.0,0.0,0.0,0.0,0.0
60,1724915677304952634,-0.055023618042469025,-0.13108651340007782,0.19046032428741455,-0.024845412001013756,-0.04544057697057724,-0.40000298619270325,0.9150494933128357,0.0,0.0,0.0,0.0,0.0,0.0
62,1724915677315068797,-0.054069921374320984,-0.13131870329380035,0.19036245346069336,-0.02326206862926483,-0.045060738921165466,-0.4001416862010956,0.9150491952896118,0.0,0.0,0.0,0.0,0.0,0.0
64,1724915677326198713,-0.053234994411468506,-0.13162638247013092,0.19041478633880615,-0.023977722972631454,-0.04464099183678627,-0.39995771646499634,0.9151317477226257,0.0,0.0,0.0,0.0,0.0,0.0
66,1724915677335557806,-0.05246158689260483,-0.13197796046733856,0.1907760351896286,-0.025615964084863663,-0.044111911207437515,-0.40153035521507263,0.9144241213798523,0.0,0.0,0.0,0.0,0.0,0.0
68,1724915677345332295,-0.051722344011068344,-0.13248127698898315,0.19104044139385223,-0.02560379169881344,-0.0451519712805748,-0.4030354619026184,0.9137112498283386,0.0,0.0,0.0,0.0,0.0,0.0
70,1724915677356548429,-0.05095534026622772,-0.13278748095035553,0.19102394580841064,-0.026450878009200096,-0.04606008157134056,-0.4026167094707489,0.9138263463973999,0.0,0.0,0.0,0.0,0.0,0.0
72,1724915677365510057,-0.05002128332853317,-0.13301444053649902,0.19088010489940643,-0.02452406845986843,-0.04564538598060608,-0.4018709361553192,0.914229154586792,0.0,0.0,0.0,0.0,0.0,0.0
74,1724915677375666606,-0.04899916052818298,-0.13323485851287842,0.19081264734268188,-0.022975895553827286,-0.04456682875752449,-0.40138813853263855,0.9145345687866211,0.0,0.0,0.0,0.0,0.0,0.0
76,1724915677386988818,-0.04810600355267525,-0.13335901498794556,0.19049470126628876,-0.022338293492794037,-0.04440416395664215,-0.4007032513618469,0.9148585796356201,0.0,0.0,0.0,0.0,0.0,0.0
78,1724915677395455424,-0.047305550426244736,-0.1337398737668991,0.1904272735118866,-0.023834915831685066,-0.04477888345718384,-0.40256553888320923,0.9139845967292786,0.0,0.0,0.0,0.0,0.0,0.0
80,1724915677405489557,-0.04655659943819046,-0.13418851792812347,0.1902213990688324,-0.023164955899119377,-0.04603390023112297,-0.4035368263721466,0.9135110378265381,0.0,0.0,0.0,0.0,0.0,0.0
82,1724915677415831603,-0.0459706112742424,-0.1344677358865738,0.1901581585407257,-0.024454627186059952,-0.046427056193351746,-0.40434297919273376,0.9131010174751282,0.0,0.0,0.0,0.0,0.0,0.0
84,1724915677425935938,-0.045324936509132385,-0.13483384251594543,0.1900399923324585,-0.023740850389003754,-0.04641297459602356,-0.4041048288345337,0.9132258892059326,0.0,0.0,0.0,0.0,0.0,0.0
86,1724915677435837066,-0.044769786298274994,-0.1352599561214447,0.1898442804813385,-0.022668888792395592,-0.046636197715997696,-0.4035877287387848,0.9134703874588013,0.0,0.0,0.0,0.0,0.0,0.0
88,1724915677445664306,-0.04440222680568695,-0.1356988549232483,0.189487487077713,-0.021196691319346428,-0.04615994542837143,-0.4036475718021393,0.9135034680366516,0.0,0.0,0.0,0.0,0.0,0.0
90,1724915677455451029,-0.04380863532423973,-0.13643254339694977,0.18919602036476135,-0.019684074446558952,-0.04491978883743286,-0.4052339196205139,0.9128966331481934,0.0,0.0,0.0,0.0,0.0,0.0
92,1724915677465559969,-0.043397992849349976,-0.13685442507266998,0.18834447860717773,-0.020184848457574844,-0.045284368097782135,-0.40452322363853455,0.9131828546524048,0.0,0.0,0.0,0.0,0.0,0.0
94,1724915677475803697,-0.04290252923965454,-0.13738209009170532,0.18739834427833557,-0.020346563309431076,-0.04642638936638832,-0.40341150760650635,0.9136136174201965,0.0,0.0,0.0,0.0,0.0,0.0
96,1724915677485245363,-0.042296893894672394,-0.13787409663200378,0.1864006668329239,-0.019281188026070595,-0.04611537978053093,-0.40128883719444275,0.9145867824554443,0.0,0.0,0.0,0.0,0.0,0.0
98,1724915677495997492,-0.041319821029901505,-0.1384284347295761,0.18581891059875488,-0.01732882857322693,-0.0433616116642952,-0.4015423059463501,0.914649248123169,0.0,0.0,0.0,0.0,0.0,0.0
100,1724915677505152111,-0.0406193733215332,-0.13885797560214996,0.1851055771112442,-0.01580517552793026,-0.041301172226667404,-0.40206179022789,0.9145440459251404,0.0,0.0,0.0,0.0,0.0,0.0
102,1724915677515170810,-0.04004025086760521,-0.13908419013023376,0.1844293475151062,-0.015112419612705708,-0.040712468326091766,-0.40236300230026245,0.9144496917724609,0.0,0.0,0.0,0.0,0.0,0.0
104,1724915677526687932,-0.03943472355604172,-0.1392088681459427,0.18383167684078217,-0.01478790957480669,-0.039591629058122635,-0.40241625905036926,0.9144807457923889,0.0,0.0,0.0,0.0,0.0,0.0
106,1724915677535327093,-0.03878980129957199,-0.13942024111747742,0.18305015563964844,-0.014935881830751896,-0.03816405311226845,-0.40156763792037964,0.9149119257926941,0.0,0.0,0.0,0.0,0.0,0.0
108,1724915677545485760,-0.03807509317994118,-0.13975085318088531,0.18201693892478943,-0.013633672147989273,-0.03527187183499336,-0.4002147614955902,0.9156408905982971,0.0,0.0,0.0,0.0,0.0,0.0
110,1724915677557235078,-0.03723509609699249,-0.1400599330663681,0.18137840926647186,-0.012590508908033371,-0.03204633668065071,-0.3998163342475891,0.9159483909606934,0.0,0.0,0.0,0.0,0.0,0.0
112,1724915677565295947,-0.03675229102373123,-0.14030304551124573,0.18075138330459595,-0.01142035610973835,-0.03172783926129341,-0.39868539571762085,0.9164676666259766,0.0,0.0,0.0,0.0,0.0,0.0
114,1724915677608893210,-0.03625154867768288,-0.14060238003730774,0.18030886352062225,-0.008942736312747002,-0.031145628541707993,-0.3975445032119751,0.9170106649398804,0.0,0.0,0.0,0.0,0.0,0.0
116,1724915677609147425,-0.03592270612716675,-0.14102628827095032,0.18008820712566376,-0.006027322728186846,-0.03118167817592621,-0.39651748538017273,0.9174777269363403,0.0,0.0,0.0,0.0,0.0,0.0
118,1724915677609381515,-0.035661473870277405,-0.14147594571113586,0.18028314411640167,-0.0015625690575689077,-0.02932737208902836,-0.39724186062812805,0.9172438979148865,0.0,0.0,0.0,0.0,0.0,0.0
120,1724915677609614542,-0.03561876341700554,-0.14210142195224762,0.18014171719551086,0.00028756115352734923,-0.028585970401763916,-0.39729243516921997,0.9172466993331909,0.0,0.0,0.0,0.0,0.0,0.0
122,1724915677615281987,-0.03570665419101715,-0.1426403820514679,0.17974533140659332,0.0027487571351230145,-0.02846788614988327,-0.39647138118743896,0.917601466178894,0.0,0.0,0.0,0.0,0.0,0.0
124,1724915677625458182,-0.03620363026857376,-0.14325089752674103,0.17945562303066254,0.0020661570597440004,-0.028821898624300957,-0.39557766914367676,0.9179778099060059,0.0,0.0,0.0,0.0,0.0,0.0
126,1724915677635786231,-0.03666844218969345,-0.1438138782978058,0.1792987883090973,0.0010779169388115406,-0.027606278657913208,-0.39556536078453064,0.9180222749710083,0.0,0.0,0.0,0.0,0.0,0.0
128,1724915677645463659,-0.03718544915318489,-0.1446625143289566,0.17893637716770172,0.004209763836115599,-0.0268689151853323,-0.393856406211853,0.9187695384025574,0.0,0.0,0.0,0.0,0.0,0.0
130,1724915677655214504,-0.03776722773909569,-0.1454516500234604,0.17842979729175568,0.007175950799137354,-0.025939157232642174,-0.3919948935508728,0.9195736646652222,0.0,0.0,0.0,0.0,0.0,0.0
132,1724915677665987032,-0.038712453097105026,-0.14616763591766357,0.1779351532459259,0.0088000213727355,-0.024461396038532257,-0.3909645080566406,0.920038640499115,0.0,0.0,0.0,0.0,0.0,0.0
134,1724915677675118278,-0.03975055366754532,-0.14707352221012115,0.1776490956544876,0.011649715714156628,-0.02360917069017887,-0.3900250196456909,0.9204277992248535,0.0,0.0,0.0,0.0,0.0,0.0
136,1724915677685312853,-0.04107316955924034,-0.14820918440818787,0.17762887477874756,0.012007506564259529,-0.023795858025550842,-0.39005613327026367,0.9204052090644836,0.0,0.0,0.0,0.0,0.0,0.0
138,1724915677695522173,-0.042046986520290375,-0.14940865337848663,0.17754347622394562,0.012991468422114849,-0.023625759407877922,-0.3900453448295593,0.920400857925415,0.0,0.0,0.0,0.0,0.0,0.0
140,1724915677705363114,-0.04295504093170166,-0.1505097895860672,0.17702296376228333,0.017208633944392204,-0.02232140488922596,-0.3901178538799286,0.9203335046768188,0.0,0.0,0.0,0.0,0.0,0.0
142,1724915677715788233,-0.04393273591995239,-0.15163077414035797,0.17646126449108124,0.01909857615828514,-0.02267618291079998,-0.3893909752368927,0.9205953478813171,0.0,0.0,0.0,0.0,0.0,0.0
144,1724915677725725397,-0.04480823501944542,-0.15271608531475067,0.17575755715370178,0.018698452040553093,-0.023034777492284775,-0.3883325457572937,0.9210416674613953,0.0,0.0,0.0,0.0,0.0,0.0
146,1724915677735430915,-0.04556607827544212,-0.15388774871826172,0.1750500500202179,0.021955974400043488,-0.023792872205376625,-0.38756251335144043,0.921274721622467,0.0,0.0,0.0,0.0,0.0,0.0
148,1724915677746374094,-0.046144600957632065,-0.1548902839422226,0.17418913543224335,0.025410914793610573,-0.023128462955355644,-0.3864724636077881,0.9216606616973877,0.0,0.0,0.0,0.0,0.0,0.0
150,1724915677755669801,-0.046721164137125015,-0.1558375060558319,0.17355528473854065,0.024170322343707085,-0.022195709869265556,-0.3862687945365906,0.9218023419380188,0.0,0.0,0.0,0.0,0.0,0.0
152,1724915677765939241,-0.04709301143884659,-0.15674149990081787,0.17283356189727783,0.024888508021831512,-0.02213141694664955,-0.3861888647079468,0.9218182563781738,0.0,0.0,0.0,0.0,0.0,0.0
154,1724915677783355010,-0.047355443239212036,-0.1575811207294464,0.17212620377540588,0.027422919869422913,-0.022326039150357246,-0.386581152677536,0.9215772747993469,0.0,0.0,0.0,0.0,0.0,0.0
156,1724915677784960216,-0.047503575682640076,-0.15824365615844727,0.17170199751853943,0.028074679896235466,-0.021767456084489822,-0.3882381021976471,0.9208741784095764,0.0,0.0,0.0,0.0,0.0,0.0
158,1724915677797410534,-0.047565653920173645,-0.15886056423187256,0.17117391526699066,0.02831048145890236,-0.02082882821559906,-0.38945651054382324,0.9203740954399109,0.0,0.0,0.0,0.0,0.0,0.0
160,1724915677805329078,-0.04749432951211929,-0.1594897359609604,0.1705523580312729,0.030532343313097954,-0.02145320177078247,-0.38984331488609314,0.9201248288154602,0.0,0.0,0.0,0.0,0.0,0.0
162,1724915677815146187,-0.04752793908119202,-0.16004785895347595,0.16970205307006836,0.03278833255171776,-0.02072751335799694,-0.3904849588871002,0.9197916984558105,0.0,0.0,0.0,0.0,0.0,0.0
164,1724915677827723571,-0.047613680362701416,-0.16061964631080627,0.16909044981002808,0.032506830990314484,-0.0210043266415596,-0.39038512110710144,0.9198377728462219,0.0,0.0,0.0,0.0,0.0,0.0
166,1724915677835044130,-0.0476384311914444,-0.1611877977848053,0.1688530594110489,0.03236852586269379,-0.020834118127822876,-0.3920161724090576,0.9191526174545288,0.0,0.0,0.0,0.0,0.0,0.0
168,1724915677848120897,-0.04763370007276535,-0.1616268754005432,0.16847702860832214,0.032089345157146454,-0.020534520968794823,-0.3932764530181885,0.9186307191848755,0.0,0.0,0.0,0.0,0.0,0.0
170,1724915677856185094,-0.04773075878620148,-0.16208654642105103,0.1678384393453598,0.03243781998753548,-0.02059200592339039,-0.39371049404144287,0.9184312224388123,0.0,0.0,0.0,0.0,0.0,0.0
172,1724915677865115517,-0.04778821021318436,-0.16246344149112701,0.16717030107975006,0.035006746649742126,-0.019867366179823875,-0.394333153963089,0.9180856347084045,0.0,0.0,0.0,0.0,0.0,0.0
174,1724915677878670408,-0.04789825156331062,-0.16287793219089508,0.16655251383781433,0.03590536117553711,-0.01940380595624447,-0.3949531018733978,0.9177943468093872,0.0,0.0,0.0,0.0,0.0,0.0
176,1724915677885396438,-0.04789068549871445,-0.16328655183315277,0.16605623066425323,0.037663716822862625,-0.019250858575105667,-0.3952500522136688,0.9175992012023926,0.0,0.0,0.0,0.0,0.0,0.0
178,1724915677895206145,-0.04793553054332733,-0.1636497676372528,0.16566456854343414,0.03795256093144417,-0.018784616142511368,-0.39647677540779114,0.9170676469802856,0.0,0.0,0.0,0.0,0.0,0.0
180,1724915677905251068,-0.04811081290245056,-0.1640462726354599,0.16507844626903534,0.03954737260937691,-0.01843702234327793,-0.397765576839447,0.9164488911628723,0.0,0.0,0.0,0.0,0.0,0.0
182,1724915677916068528,-0.04829525202512741,-0.16447655856609344,0.16470888257026672,0.04008915647864342,-0.01769704930484295,-0.40004295110702515,0.9154481291770935,0.0,0.0,0.0,0.0,0.0,0.0
184,1724915677928175112,-0.04840981960296631,-0.16486191749572754,0.16436342895030975,0.041066646575927734,-0.01800237037241459,-0.4012604355812073,0.9148658514022827,0.0,0.0,0.0,0.0,0.0,0.0
186,1724915677934982831,-0.048563167452812195,-0.1651844084262848,0.16420702636241913,0.04038842022418976,-0.017595481127500534,-0.4028739631175995,0.9141945838928223,0.0,0.0,0.0,0.0,0.0,0.0
188,1724915677946953326,-0.04873447120189667,-0.1654842495918274,0.1640268862247467,0.04012656956911087,-0.017977669835090637,-0.4036494791507721,0.9138565063476562,0.0,0.0,0.0,0.0,0.0,0.0
190,1724915677955229243,-0.04879128560423851,-0.16579830646514893,0.1638226956129074,0.04018719866871834,-0.017693324014544487,-0.4048800766468048,0.9133149981498718,0.0,0.0,0.0,0.0,0.0,0.0
192,1724915677965787991,-0.048928141593933105,-0.16615188121795654,0.16361558437347412,0.039138779044151306,-0.017696961760520935,-0.4061666429042816,0.9127890467643738,0.0,0.0,0.0,0.0,0.0,0.0
194,1724915677982143608,-0.04890011250972748,-0.16653107106685638,0.16344420611858368,0.03843614086508751,-0.01732586696743965,-0.4079335331916809,0.91203773021698,0.0,0.0,0.0,0.0,0.0,0.0
196,1724915677985197711,-0.04891129210591316,-0.16686655580997467,0.16319862008094788,0.039642028510570526,-0.0170160923153162,-0.4092654287815094,0.9113950729370117,0.0,0.0,0.0,0.0,0.0,0.0
198,1724915677996496199,-0.048970356583595276,-0.16724705696105957,0.16312502324581146,0.039536766707897186,-0.017061257734894753,-0.4113450348377228,0.9104620218276978,0.0,0.0,0.0,0.0,0.0,0.0
200,1724915678005299383,-0.048979438841342926,-0.16754969954490662,0.16287794709205627,0.0411585196852684,-0.017157036811113358,-0.4120156168937683,0.9100849628448486,0.0,0.0,0.0,0.0,0.0,0.0
202,1724915678015853298,-0.049004022032022476,-0.1678466498851776,0.16268788278102875,0.0423365980386734,-0.016703598201274872,-0.4134642481803894,0.909382164478302,0.0,0.0,0.0,0.0,0.0,0.0
204,1724915678027077191,-0.04896818473935127,-0.16813087463378906,0.16260994970798492,0.042330969125032425,-0.016321592032909393,-0.4148653745651245,0.9087511301040649,0.0,0.0,0.0,0.0,0.0,0.0
206,1724915678034980393,-0.0489329993724823,-0.1683763712644577,0.16252054274082184,0.04195057973265648,-0.016127532348036766,-0.416098028421402,0.908208429813385,0.0,0.0,0.0,0.0,0.0,0.0
208,1724915678045425327,-0.04883260279893875,-0.1685842126607895,0.1625005155801773,0.0421714223921299,-0.016395825892686844,-0.41731300950050354,0.9076358079910278,0.0,0.0,0.0,0.0,0.0,0.0
210,1724915678056431624,-0.04876559600234032,-0.1687997430562973,0.16247990727424622,0.043147917836904526,-0.01636727899312973,-0.41896846890449524,0.9068273305892944,0.0,0.0,0.0,0.0,0.0,0.0
212,1724915678065144221,-0.04883858188986778,-0.16896206140518188,0.16257640719413757,0.04144426807761192,-0.014896178618073463,-0.42136314511299133,0.9058220982551575,0.0,0.0,0.0,0.0,0.0,0.0
214,1724915678077358000,-0.04875219613313675,-0.16913694143295288,0.16266529262065887,0.04132077097892761,-0.014996184967458248,-0.42314818501472473,0.9049935340881348,0.0,0.0,0.0,0.0,0.0,0.0
216,1724915678085708331,-0.04867520183324814,-0.1692492514848709,0.16265633702278137,0.04094677418470383,-0.015278707258403301,-0.42451074719429016,0.9043675065040588,0.0,0.0,0.0,0.0,0.0,0.0
218,1724915678096462780,-0.048495516180992126,-0.16935989260673523,0.16273212432861328,0.040737301111221313,-0.014702633023262024,-0.4267430007457733,0.9033353924751282,0.0,0.0,0.0,0.0,0.0,0.0
220,1724915678105522148,-0.04841364547610283,-0.16942977905273438,0.16274988651275635,0.04017017409205437,-0.014224081300199032,-0.4286828637123108,0.9024494886398315,0.0,0.0,0.0,0.0,0.0,0.0
222,1724915678115266953,-0.048272691667079926,-0.16947369277477264,0.1627618670463562,0.04082541912794113,-0.014275850728154182,-0.43013373017311096,0.901728630065918,0.0,0.0,0.0,0.0,0.0,0.0
224,1724915678125782095,-0.04819370061159134,-0.1695169061422348,0.16278459131717682,0.04064742103219032,-0.013953308574855328,-0.43141400814056396,0.9011299014091492,0.0,0.0,0.0,0.0,0.0,0.0
226,1724915678136086424,-0.04811286926269531,-0.16955868899822235,0.16283296048641205,0.04076657071709633,-0.013754635117948055,-0.4328377842903137,0.9004445672035217,0.0,0.0,0.0,0.0,0.0,0.0
228,1724915678146375242,-0.04803848639130592,-0.16963663697242737,0.16285403072834015,0.040618836879730225,-0.013753771781921387,-0.434293270111084,0.8997501134872437,0.0,0.0,0.0,0.0,0.0,0.0
230,1724915678155286038,-0.047937698662281036,-0.16974163055419922,0.1628379076719284,0.040754929184913635,-0.013796387240290642,-0.43586528301239014,0.8989829421043396,0.0,0.0,0.0,0.0,0.0,0.0
232,1724915678165773794,-0.04785852134227753,-0.16988444328308105,0.16283920407295227,0.04126959666609764,-0.013722611591219902,-0.43731194734573364,0.8982576131820679,0.0,0.0,0.0,0.0,0.0,0.0
234,1724915678175770158,-0.04778159037232399,-0.16999106109142303,0.16287845373153687,0.040795814245939255,-0.013312834315001965,-0.438747763633728,0.8975850343704224,0.0,0.0,0.0,0.0,0.0,0.0
236,1724915678185124488,-0.047718241810798645,-0.17010655999183655,0.1628514975309372,0.04040832817554474,-0.013424500823020935,-0.43975332379341125,0.8971086144447327,0.0,0.0,0.0,0.0,0.0,0.0
238,1724915678196361829,-0.04773502051830292,-0.17021940648555756,0.1627998799085617,0.040830448269844055,-0.014082899317145348,-0.44038745760917664,0.8967683911323547,0.0,0.0,0.0,0.0,0.0,0.0
240,1724915678204936004,-0.047662362456321716,-0.1703914999961853,0.16279035806655884,0.04211805388331413,-0.013914259150624275,-0.44214993715286255,0.8958437442779541,0.0,0.0,0.0,0.0,0.0,0.0
242,1724915678215564064,-0.04764185845851898,-0.1705133616924286,0.16281509399414062,0.04150126501917839,-0.014104329980909824,-0.44373640418052673,0.8950847387313843,0.0,0.0,0.0,0.0,0.0,0.0
244,1724915678367118333,-0.047635115683078766,-0.17061066627502441,0.16279301047325134,0.04065675288438797,-0.014159910380840302,-0.4450363218784332,0.8944770693778992,0.0,0.0,0.0,0.0,0.0,0.0
246,1724915678367518542,-0.04756208509206772,-0.17065775394439697,0.16280992329120636,0.040332917124032974,-0.014128616079688072,-0.44621384143829346,0.8939054608345032,0.0,0.0,0.0,0.0,0.0,0.0
248,1724915678367881631,-0.04747460037469864,-0.1706981360912323,0.16293016076087952,0.041931990534067154,-0.014285261742770672,-0.44800999760627747,0.8929303884506226,0.0,0.0,0.0,0.0,0.0,0.0
250,1724915678368227979,-0.047370586544275284,-0.17062830924987793,0.1633327454328537,0.04112536832690239,-0.013492871075868607,-0.45027264952659607,0.891841471195221,0.0,0.0,0.0,0.0,0.0,0.0
252,1724915678368640828,-0.047372616827487946,-0.17055237293243408,0.16363993287086487,0.041025593876838684,-0.01334065105766058,-0.451494038105011,0.8912307024002075,0.0,0.0,0.0,0.0,0.0,0.0
254,1724915678369204513,-0.04741424322128296,-0.1704796999692917,0.1639769971370697,0.04102512449026108,-0.013034015893936157,-0.4523872137069702,0.8907821774482727,0.0,0.0,0.0,0.0,0.0,0.0
256,1724915678369513410,-0.04753290116786957,-0.17037519812583923,0.16429373621940613,0.04067402705550194,-0.01264809351414442,-0.45387324690818787,0.8900476098060608,0.0,0.0,0.0,0.0,0.0,0.0
258,1724915678369766750,-0.04757366701960564,-0.17019620537757874,0.1646687388420105,0.039126086980104446,-0.012760289013385773,-0.45486223697662354,0.8896103501319885,0.0,0.0,0.0,0.0,0.0,0.0
260,1724915678370020538,-0.04764978960156441,-0.16994790732860565,0.16517627239227295,0.03853440284729004,-0.012627792544662952,-0.4563611149787903,0.8888702392578125,0.0,0.0,0.0,0.0,0.0,0.0
262,1724915678370308895,-0.04773152247071266,-0.16963107883930206,0.16588807106018066,0.03543255105614662,-0.01293046586215496,-0.4574660658836365,0.8884267807006836,0.0,0.0,0.0,0.0,0.0,0.0
264,1724915678370634814,-0.04774664714932442,-0.1692400723695755,0.16656051576137543,0.032556451857089996,-0.012757155112922192,-0.4583328366279602,0.8880925178527832,0.0,0.0,0.0,0.0,0.0,0.0
266,1724915678371013420,-0.04769538715481758,-0.16883425414562225,0.16719937324523926,0.03111996501684189,-0.012332364916801453,-0.4602140784263611,0.8871766924858093,0.0,0.0,0.0,0.0,0.0,0.0
268,1724915678371348100,-0.04763830453157425,-0.16834813356399536,0.1678062230348587,0.03035913035273552,-0.012543081305921078,-0.46148616075515747,0.8865390419960022,0.0,0.0,0.0,0.0,0.0,0.0
270,1724915678371624569,-0.04755749925971031,-0.16771264374256134,0.16845987737178802,0.029976382851600647,-0.012880643829703331,-0.4622288644313812,0.8861603140830994,0.0,0.0,0.0,0.0,0.0,0.0
272,1724915678371888399,-0.04748798534274101,-0.16717033088207245,0.16901960968971252,0.030034057796001434,-0.013919454999268055,-0.461669921875,0.8864339590072632,0.0,0.0,0.0,0.0,0.0,0.0
274,1724915678376201644,-0.04735554754734039,-0.1666000932455063,0.1697937399148941,0.029282722622156143,-0.014255917631089687,-0.4621191620826721,0.8862195611000061,0.0,0.0,0.0,0.0,0.0,0.0
276,1724915678386566309,-0.047135524451732635,-0.1660049557685852,0.17055334150791168,0.026923684403300285,-0.013656715862452984,-0.46374407410621643,0.8854547739028931,0.0,0.0,0.0,0.0,0.0,0.0
278,1724915678395468853,-0.046752508729696274,-0.16529902815818787,0.17119096219539642,0.0251882616430521,-0.013652271591126919,-0.4651489555835724,0.8847687244415283,0.0,0.0,0.0,0.0,0.0,0.0
280,1724915678405068998,-0.04637431353330612,-0.16452845931053162,0.1717829704284668,0.024754798039793968,-0.014338700100779533,-0.4656313955783844,0.8845162391662598,0.0,0.0,0.0,0.0,0.0,0.0
282,1724915678417038750,-0.04590846598148346,-0.1638496071100235,0.17234811186790466,0.02622964046895504,-0.015713190659880638,-0.4658852219581604,0.8843166828155518,0.0,0.0,0.0,0.0,0.0,0.0
284,1724915678426108714,-0.04550151526927948,-0.1630849689245224,0.17303244769573212,0.023606978356838226,-0.016503596678376198,-0.46574667096138,0.8844492435455322,0.0,0.0,0.0,0.0,0.0,0.0
286,1724915678435206941,-0.04503990337252617,-0.1622183620929718,0.17371779680252075,0.021631944924592972,-0.01561107486486435,-0.4671002924442291,0.8838018774986267,0.0,0.0,0.0,0.0,0.0,0.0
288,1724915678445356916,-0.04453102871775627,-0.16113537549972534,0.1743239462375641,0.018712321296334267,-0.01575327292084694,-0.4681839048862457,0.8832924962043762,0.0,0.0,0.0,0.0,0.0,0.0
290,1724915678455559326,-0.043895021080970764,-0.1600509136915207,0.17469258606433868,0.015508174896240234,-0.016431434080004692,-0.4688694179058075,0.8829784989356995,0.0,0.0,0.0,0.0,0.0,0.0
292,1724915678465552700,-0.04327994957566261,-0.15902213752269745,0.17502151429653168,0.012689713388681412,-0.017582273110747337,-0.46923187375068665,0.8828088045120239,0.0,0.0,0.0,0.0,0.0,0.0
294,1724915678481822914,-0.04266730323433876,-0.15792612731456757,0.17538006603717804,0.010700136423110962,-0.017829377204179764,-0.4705565571784973,0.8821247816085815,0.0,0.0,0.0,0.0,0.0,0.0
296,1724915678485648818,-0.04202183336019516,-0.15682345628738403,0.17546238005161285,0.011393049731850624,-0.01805792935192585,-0.4714890420436859,0.8816134333610535,0.0,0.0,0.0,0.0,0.0,0.0
298,1724915678496810032,-0.041515130549669266,-0.15565615892410278,0.17555345594882965,0.009211459197103977,-0.01919652335345745,-0.47147250175476074,0.8816238045692444,0.0,0.0,0.0,0.0,0.0,0.0
300,1724915678505302827,-0.04114775359630585,-0.15436036884784698,0.1758386492729187,0.0030532577075064182,-0.01968609355390072,-0.47212743759155273,0.8813051581382751,0.0,0.0,0.0,0.0,0.0,0.0
302,1724915678514968627,-0.04046874865889549,-0.153097003698349,0.17593573033809662,0.000740511401090771,-0.019180461764335632,-0.4730595052242279,0.8808213472366333,0.0,0.0,0.0,0.0,0.0,0.0
304,1724915678528050977,-0.04006994888186455,-0.15207232534885406,0.1760425865650177,0.0007206929149106145,-0.019795207306742668,-0.47359123826026917,0.8805220127105713,0.0,0.0,0.0,0.0,0.0,0.0
306,1724915678535456826,-0.03999947011470795,-0.1511034071445465,0.17635266482830048,-0.0012581009650602937,-0.021059390157461166,-0.47338929772377014,0.88060063123703,0.0,0.0,0.0,0.0,0.0,0.0
308,1724915678548180131,-0.0396542102098465,-0.14981764554977417,0.17680837213993073,-0.003163181943818927,-0.021315425634384155,-0.4745674729347229,0.8799553513526917,0.0,0.0,0.0,0.0,0.0,0.0
310,1724915678554951284,-0.0392763614654541,-0.1486348956823349,0.1769230216741562,-0.005719787906855345,-0.021980054676532745,-0.4741390645503998,0.8801569938659668,0.0,0.0,0.0,0.0,0.0,0.0
312,1724915678565323620,-0.0390167310833931,-0.1477004587650299,0.17719314992427826,-0.0070411586202681065,-0.023623237386345863,-0.47281521558761597,0.8808167576789856,0.0,0.0,0.0,0.0,0.0,0.0
314,1724915678576715598,-0.03899969533085823,-0.14687944948673248,0.17784655094146729,-0.0078030480071902275,-0.025320548564195633,-0.47328346967697144,0.8805115818977356,0.0,0.0,0.0,0.0,0.0,0.0
316,1724915678585025994,-0.03901328891515732,-0.14619003236293793,0.17854942381381989,-0.007799495942890644,-0.02573479898273945,-0.4740809202194214,0.8800705671310425,0.0,0.0,0.0,0.0,0.0,0.0
318,1724915678595147148,-0.03920799493789673,-0.14548653364181519,0.1791573166847229,-0.008165520615875721,-0.025374507531523705,-0.4750005900859833,0.87958163022995,0.0,0.0,0.0,0.0,0.0,0.0
320,1724915678606049228,-0.03951741009950638,-0.14490509033203125,0.179828479886055,-0.013211174868047237,-0.02614866942167282,-0.47524338960647583,0.8793665170669556,0.0,0.0,0.0,0.0,0.0,0.0
322,1724915678615097419,-0.03965512290596962,-0.14449501037597656,0.18065673112869263,-0.014873592182993889,-0.026845544576644897,-0.4758138954639435,0.8790103197097778,0.0,0.0,0.0,0.0,0.0,0.0
324,1724915678625227621,-0.039922185242176056,-0.14417871832847595,0.1814277470111847,-0.017582353204488754,-0.027891434729099274,-0.475536048412323,0.879078209400177,0.0,0.0,0.0,0.0,0.0,0.0
326,1724915678637767893,-0.04013906419277191,-0.14390070736408234,0.18188245594501495,-0.018215974792838097,-0.02850416488945484,-0.4746261537075043,0.8795372247695923,0.0,0.0,0.0,0.0,0.0,0.0
328,1724915678645219473,-0.04025180637836456,-0.14348116517066956,0.18224108219146729,-0.017701203003525734,-0.029153017327189445,-0.47363078594207764,0.8800628781318665,0.0,0.0,0.0,0.0,0.0,0.0
330,1724915678655325163,-0.040257424116134644,-0.14307421445846558,0.18278831243515015,-0.01555904746055603,-0.030170833691954613,-0.4731804430484772,0.8803112506866455,0.0,0.0,0.0,0.0,0.0,0.0
332,1724915678665079364,-0.04029898717999458,-0.14269813895225525,0.18338623642921448,-0.01807330921292305,-0.030352933332324028,-0.47253695130348206,0.8806026577949524,0.0,0.0,0.0,0.0,0.0,0.0
334,1724915678674920815,-0.04024329036474228,-0.14239075779914856,0.18397317826747894,-0.019888220354914665,-0.030118145048618317,-0.47276052832603455,0.8804515600204468,0.0,0.0,0.0,0.0,0.0,0.0
336,1724915678684976093,-0.04047686234116554,-0.14206206798553467,0.1845032274723053,-0.02390165813267231,-0.03061530366539955,-0.47311872243881226,0.880142092704773,0.0,0.0,0.0,0.0,0.0,0.0
338,1724915678695126086,-0.04063273221254349,-0.14159183204174042,0.18503013253211975,-0.025514960289001465,-0.030795997008681297,-0.4733015298843384,0.8799921870231628,0.0,0.0,0.0,0.0,0.0,0.0
340,1724915678705320040,-0.04092716425657272,-0.1411692202091217,0.18556633591651917,-0.027349358424544334,-0.03146335482597351,-0.47304657101631165,0.8800506591796875,0.0,0.0,0.0,0.0,0.0,0.0
342,1724915678715512636,-0.04127766937017441,-0.14080694317817688,0.18587608635425568,-0.025787055492401123,-0.03314219042658806,-0.47175005078315735,0.8807318806648254,0.0,0.0,0.0,0.0,0.0,0.0
344,1724915678725815402,-0.04180385172367096,-0.14050455391407013,0.18622711300849915,-0.025579670444130898,-0.03406321257352829,-0.470717191696167,0.8812552094459534,0.0,0.0,0.0,0.0,0.0,0.0
346,1724915678735566756,-0.04244474321603775,-0.1402462124824524,0.1864808052778244,-0.027743257582187653,-0.033857859671115875,-0.46989837288856506,0.881634533405304,0.0,0.0,0.0,0.0,0.0,0.0
348,1724915678747585080,-0.04290984570980072,-0.14013627171516418,0.18672172725200653,-0.027018669992685318,-0.033855140209198,-0.469597727060318,0.8818172812461853,0.0,0.0,0.0,0.0,0.0,0.0
350,1724915678755295627,-0.043687593191862106,-0.1400597095489502,0.1869286745786667,-0.02908245101571083,-0.03445909172296524,-0.46951502561569214,0.8817723989486694,0.0,0.0,0.0,0.0,0.0,0.0
352,1724915678765196476,-0.04427438974380493,-0.14005273580551147,0.18720729649066925,-0.02951103448867798,-0.03526579216122627,-0.4693548083305359,0.8818114399909973,0.0,0.0,0.0,0.0,0.0,0.0
354,1724915678778076757,-0.04473398998379707,-0.14002235233783722,0.1874457448720932,-0.030536316335201263,-0.0351288840174675,-0.46900051832199097,0.8819705247879028,0.0,0.0,0.0,0.0,0.0,0.0
356,1724915678785758645,-0.0452289804816246,-0.1399567872285843,0.1875998079776764,-0.029524341225624084,-0.03616481274366379,-0.46831369400024414,0.8823280334472656,0.0,0.0,0.0,0.0,0.0,0.0
358,1724915678795553022,-0.045585617423057556,-0.1398676633834839,0.18762211501598358,-0.02924778312444687,-0.03651620075106621,-0.4676465392112732,0.8826764822006226,0.0,0.0,0.0,0.0,0.0,0.0
360,1724915678805247145,-0.04587163031101227,-0.13989172875881195,0.1876874566078186,-0.028963400050997734,-0.036745812743902206,-0.4668845236301422,0.8830797076225281,0.0,0.0,0.0,0.0,0.0,0.0
362,1724915678844260455,-0.046153366565704346,-0.13995756208896637,0.187681183218956,-0.02833424136042595,-0.03806859254837036,-0.4657447934150696,0.88364577293396,0.0,0.0,0.0,0.0,0.0,0.0
364,1724915678845183999,-0.04625708982348442,-0.14000482857227325,0.18776413798332214,-0.028051797300577164,-0.038636114448308945,-0.46508193016052246,0.8839792013168335,0.0,0.0,0.0,0.0,0.0,0.0
366,1724915678846302546,-0.046196743845939636,-0.13998278975486755,0.18789324164390564,-0.027632061392068863,-0.0385361984372139,-0.46459028124809265,0.8842551708221436,0.0,0.0,0.0,0.0,0.0,0.0
368,1724915678846946674,-0.04604610800743103,-0.13987062871456146,0.18799565732479095,-0.029649000614881516,-0.03692052513360977,-0.46434327960014343,0.8843885660171509,0.0,0.0,0.0,0.0,0.0,0.0
370,1724915678855191925,-0.04588936269283295,-0.13981559872627258,0.18801698088645935,-0.030056757852435112,-0.03694108873605728,-0.46395841240882874,0.8845759630203247,0.0,0.0,0.0,0.0,0.0,0.0
372,1724915678865184185,-0.04567383602261543,-0.13986152410507202,0.18797165155410767,-0.02848508022725582,-0.03765863925218582,-0.4636274576187134,0.8847712278366089,0.0,0.0,0.0,0.0,0.0,0.0
374,1724915678883570426,-0.04552266374230385,-0.13986247777938843,0.18798363208770752,-0.028384223580360413,-0.03785935789346695,-0.46349480748176575,0.8848353624343872,0.0,0.0,0.0,0.0,0.0,0.0
376,1724915678885400604,-0.04534856975078583,-0.13990983366966248,0.18795451521873474,-0.0276195015758276,-0.03827391564846039,-0.4632072150707245,0.8849923610687256,0.0,0.0,0.0,0.0,0.0,0.0
378,1724915678895952440,-0.04514230787754059,-0.13994772732257843,0.18783339858055115,-0.02704250067472458,-0.038608159869909286,-0.46212679147720337,0.8855602145195007,0.0,0.0,0.0,0.0,0.0,0.0
380,1724915678905266371,-0.044857822358608246,-0.14008820056915283,0.18780392408370972,-0.024553785100579262,-0.03835276886820793,-0.46167615056037903,0.88587886095047,0.0,0.0,0.0,0.0,0.0,0.0
382,1724915678916305145,-0.04472621530294418,-0.14029328525066376,0.18774889409542084,-0.025824204087257385,-0.038667481392621994,-0.46093422174453735,0.886215329170227,0.0,0.0,0.0,0.0,0.0,0.0
384,1724915678926723352,-0.04439154639840126,-0.14054018259048462,0.1879306137561798,-0.025387022644281387,-0.03939949721097946,-0.4602384865283966,0.8865572214126587,0.0,0.0,0.0,0.0,0.0,0.0
386,1724915678935380467,-0.04410383105278015,-0.14076514542102814,0.18813498318195343,-0.027882985770702362,-0.03890077397227287,-0.4601375162601471,0.8865566253662109,0.0,0.0,0.0,0.0,0.0,0.0
388,1724915678947155936,-0.043814294040203094,-0.14098459482192993,0.18819928169250488,-0.027653496712446213,-0.039539508521556854,-0.4593113958835602,0.8869638442993164,0.0,0.0,0.0,0.0,0.0,0.0
390,1724915678955790784,-0.04346373677253723,-0.14118331670761108,0.1884775012731552,-0.03016701154410839,-0.038551319390535355,-0.4597688615322113,0.8866884708404541,0.0,0.0,0.0,0.0,0.0,0.0
392,1724915678965319741,-0.04312491789460182,-0.14138305187225342,0.188282772898674,-0.029032211750745773,-0.04026203602552414,-0.45832449197769165,0.8873977065086365,0.0,0.0,0.0,0.0,0.0,0.0
394,1724915678976078666,-0.04278738051652908,-0.14162477850914001,0.18837274610996246,-0.02968466468155384,-0.0406559593975544,-0.4583987593650818,0.887319803237915,0.0,0.0,0.0,0.0,0.0,0.0
396,1724915678986737885,-0.0424010306596756,-0.14180225133895874,0.1884879171848297,-0.030870500952005386,-0.04106032848358154,-0.4580879509449005,0.8874213099479675,0.0,0.0,0.0,0.0,0.0,0.0
398,1724915678997027152,-0.04176809638738632,-0.14201264083385468,0.18850277364253998,-0.027705118060112,-0.041470006108284,-0.45709410309791565,0.8880189657211304,0.0,0.0,0.0,0.0,0.0,0.0
400,1724915679005580836,-0.041235677897930145,-0.1422315537929535,0.1886410415172577,-0.02739053964614868,-0.0419759564101696,-0.4561736583709717,0.8884781002998352,0.0,0.0,0.0,0.0,0.0,0.0
402,1724915679015443605,-0.04072730988264084,-0.14251327514648438,0.18886320292949677,-0.028764255344867706,-0.04255915805697441,-0.455387681722641,0.8888100385665894,0.0,0.0,0.0,0.0,0.0,0.0
404,1724915679040382755,-0.040181174874305725,-0.142821803689003,0.1889813393354416,-0.027697036042809486,-0.04288850352168083,-0.45518800616264343,0.8889304399490356,0.0,0.0,0.0,0.0,0.0,0.0
406,1724915679040844985,-0.0396047979593277,-0.14311014115810394,0.1890927106142044,-0.028042498975992203,-0.042942218482494354,-0.4553293287754059,0.8888446092605591,0.0,0.0,0.0,0.0,0.0,0.0
408,1724915679046955883,-0.03906302899122238,-0.1433723270893097,0.18910035490989685,-0.030292915180325508,-0.043179672211408615,-0.4543178975582123,0.8892767429351807,0.0,0.0,0.0,0.0,0.0,0.0
410,1724915679054919670,-0.03830866515636444,-0.14370673894882202,0.1889943778514862,-0.027789970859885216,-0.04369497671723366,-0.4533422589302063,0.8898310661315918,0.0,0.0,0.0,0.0,0.0,0.0
412,1724915679065690767,-0.03763914853334427,-0.14405471086502075,0.18898384273052216,-0.028715671971440315,-0.0435018315911293,-0.45300185680389404,0.8899845480918884,0.0,0.0,0.0,0.0,0.0,0.0
414,1724915679075718868,-0.03697596862912178,-0.1445731669664383,0.1887379288673401,-0.028960518538951874,-0.04469548538327217,-0.452182412147522,0.8903340697288513,0.0,0.0,0.0,0.0,0.0,0.0
416,1724915679084665948,-0.03636295348405838,-0.1449424922466278,0.1887422353029251,-0.030469398945569992,-0.044581856578588486,-0.4522416293621063,0.890259325504303,0.0,0.0,0.0,0.0,0.0,0.0
418,1724915679095115271,-0.03561949357390404,-0.1453857421875,0.1887465864419937,-0.02859596349298954,-0.04485441744327545,-0.45185545086860657,0.8905038237571716,0.0,0.0,0.0,0.0,0.0,0.0
420,1724915679106199189,-0.034937430173158646,-0.14586365222930908,0.18899542093276978,-0.028555061668157578,-0.04373929649591446,-0.4524756968021393,0.8902456164360046,0.0,0.0,0.0,0.0,0.0,0.0
422,1724915679115049694,-0.03415454924106598,-0.14635516703128815,0.18902187049388885,-0.027688749134540558,-0.043709103018045425,-0.4520617723464966,0.8904846906661987,0.0,0.0,0.0,0.0,0.0,0.0
424,1724915679155990353,-0.0333566814661026,-0.14677266776561737,0.18908336758613586,-0.025832075625658035,-0.04359682276844978,-0.4519049823284149,0.8906255960464478,0.0,0.0,0.0,0.0,0.0,0.0
426,1724915679156260527,-0.032668858766555786,-0.14715878665447235,0.18891341984272003,-0.02809527888894081,-0.04542649909853935,-0.451559841632843,0.8906407952308655,0.0,0.0,0.0,0.0,0.0,0.0
428,1724915679156592580,-0.03185994178056717,-0.1476488709449768,0.18905110657215118,-0.02962612174451351,-0.046224914491176605,-0.4512149393558502,0.8907247185707092,0.0,0.0,0.0,0.0,0.0,0.0
430,1724915679156892517,-0.031115766614675522,-0.14816932380199432,0.18909864127635956,-0.029159575700759888,-0.04676038771867752,-0.45084652304649353,0.8908988237380981,0.0,0.0,0.0,0.0,0.0,0.0
432,1724915679164939900,-0.0302715003490448,-0.14877529442310333,0.18897055089473724,-0.028536520898342133,-0.04667650908231735,-0.4511089622974396,0.8907905220985413,0.0,0.0,0.0,0.0,0.0,0.0
434,1724915679175743010,-0.02932947501540184,-0.14929990470409393,0.18880695104599,-0.027290990576148033,-0.046031128615140915,-0.4508727490901947,0.8909826874732971,0.0,0.0,0.0,0.0,0.0,0.0
436,1724915679184933796,-0.028538547456264496,-0.14980842173099518,0.18886466324329376,-0.028495831415057182,-0.04570917412638664,-0.45115846395492554,0.890816867351532,0.0,0.0,0.0,0.0,0.0,0.0
438,1724915679195256009,-0.02762746438384056,-0.15028859674930573,0.1890898197889328,-0.028483334928750992,-0.045178260654211044,-0.4510435461997986,0.890902578830719,0.0,0.0,0.0,0.0,0.0,0.0
440,1724915679205268441,-0.026897955685853958,-0.1507788747549057,0.18917129933834076,-0.02919735014438629,-0.04604589194059372,-0.4507906436920166,0.890963077545166,0.0,0.0,0.0,0.0,0.0,0.0
442,1724915679215756648,-0.026010967791080475,-0.1512576937675476,0.18930712342262268,-0.029058340936899185,-0.04626807942986488,-0.45103898644447327,0.8908303380012512,0.0,0.0,0.0,0.0,0.0,0.0
444,1724915679228520503,-0.025106362998485565,-0.1518460363149643,0.18921872973442078,-0.028515104204416275,-0.045974861830472946,-0.4510105848312378,0.8908774256706238,0.0,0.0,0.0,0.0,0.0,0.0
446,1724915679235150877,-0.02415216527879238,-0.15215609967708588,0.18922215700149536,-0.02824733778834343,-0.04594318941235542,-0.45086225867271423,0.8909627199172974,0.0,0.0,0.0,0.0,0.0,0.0
448,1724915679245981823,-0.02317378669977188,-0.15260669589042664,0.1890331208705902,-0.026497505605220795,-0.045779209583997726,-0.45020055770874023,0.8913595080375671,0.0,0.0,0.0,0.0,0.0,0.0
450,1724915679255301976,-0.02232513390481472,-0.15318642556667328,0.18896342813968658,-0.0272752083837986,-0.046553708612918854,-0.44878455996513367,0.8920097351074219,0.0,0.0,0.0,0.0,0.0,0.0
452,1724915679266222028,-0.021601978689432144,-0.1537943333387375,0.1893644481897354,-0.029659908264875412,-0.04723341017961502,-0.4497813582420349,0.891395628452301,0.0,0.0,0.0,0.0,0.0,0.0
454,1724915679279880618,-0.020753847435116768,-0.15443679690361023,0.18930813670158386,-0.030476585030555725,-0.04808693379163742,-0.450081467628479,0.891170859336853,0.0,0.0,0.0,0.0,0.0,0.0
456,1724915679369007152,-0.01972568780183792,-0.1549772024154663,0.1890949159860611,-0.029002515599131584,-0.047233931720256805,-0.45016926527023315,0.8912213444709778,0.0,0.0,0.0,0.0,0.0,0.0
458,1724915679371096672,-0.018872205168008804,-0.15549783408641815,0.18890392780303955,-0.027432477101683617,-0.047673288732767105,-0.4506045877933502,0.891027569770813,0.0,0.0,0.0,0.0,0.0,0.0
460,1724915679371589293,-0.0179264135658741,-0.15613621473312378,0.1887170523405075,-0.027226831763982773,-0.047449152916669846,-0.45011043548583984,0.8912956118583679,0.0,0.0,0.0,0.0,0.0,0.0
462,1724915679372314427,-0.017054449766874313,-0.1565462201833725,0.189010351896286,-0.02683873102068901,-0.047384463250637054,-0.45067358016967773,0.8910261988639832,0.0,0.0,0.0,0.0,0.0,0.0
464,1724915679372781695,-0.01630333997309208,-0.15697512030601501,0.18924669921398163,-0.027086777612566948,-0.04791254177689552,-0.4517866373062134,0.8904265761375427,0.0,0.0,0.0,0.0,0.0,0.0
466,1724915679373021281,-0.015510376542806625,-0.15755052864551544,0.18929269909858704,-0.02800917625427246,-0.04674229398369789,-0.45266449451446533,0.8900142908096313,0.0,0.0,0.0,0.0,0.0,0.0
468,1724915679373272007,-0.014615005813539028,-0.15799060463905334,0.18929393589496613,-0.027118751779198647,-0.047192808240652084,-0.45239880681037903,0.8901532292366028,0.0,0.0,0.0,0.0,0.0,0.0
470,1724915679373522664,-0.013802412897348404,-0.15843725204467773,0.18908821046352386,-0.02593087963759899,-0.047843366861343384,-0.45180320739746094,0.8904563784599304,0.0,0.0,0.0,0.0,0.0,0.0
472,1724915679373772732,-0.013018574565649033,-0.15900754928588867,0.18892183899879456,-0.025326766073703766,-0.047909315675497055,-0.4513684809207916,0.8906906247138977,0.0,0.0,0.0,0.0,0.0,0.0
474,1724915679376478294,-0.012352216988801956,-0.15927457809448242,0.1888611614704132,-0.026974909007549286,-0.04802059009671211,-0.4516134262084961,0.8905119895935059,0.0,0.0,0.0,0.0,0.0,0.0
476,1724915679385297807,-0.011491037905216217,-0.1596534550189972,0.1887436956167221,-0.028120195493102074,-0.04803447052836418,-0.45121628046035767,0.8906772136688232,0.0,0.0,0.0,0.0,0.0,0.0
478,1724915679397322396,-0.010732696391642094,-0.16010573506355286,0.18855145573616028,-0.026018263772130013,-0.04804997146129608,-0.45144644379615784,0.8906235694885254,0.0,0.0,0.0,0.0,0.0,0.0
480,1724915679406730444,-0.010047935880720615,-0.16060326993465424,0.18828529119491577,-0.024589037522673607,-0.04764968529343605,-0.4520745873451233,0.8903670310974121,0.0,0.0,0.0,0.0,0.0,0.0
482,1724915679416184942,-0.009404448792338371,-0.16104775667190552,0.1882128268480301,-0.024438921362161636,-0.048175111413002014,-0.45309996604919434,0.8898215293884277,0.0,0.0,0.0,0.0,0.0,0.0
484,1724915679429322653,-0.008728215470910072,-0.16140127182006836,0.1882169246673584,-0.025413405150175095,-0.048938293009996414,-0.45338204503059387,0.8896089196205139,0.0,0.0,0.0,0.0,0.0,0.0
486,1724915679435476192,-0.00810130313038826,-0.16177953779697418,0.18806307017803192,-0.025130022317171097,-0.04847975820302963,-0.45290377736091614,0.8898856043815613,0.0,0.0,0.0,0.0,0.0,0.0
488,1724915679445789929,-0.007611786015331745,-0.162283256649971,0.18779020011425018,-0.025255616754293442,-0.0478564016520977,-0.45239362120628357,0.8901752233505249,0.0,0.0,0.0,0.0,0.0,0.0
490,1724915679455660107,-0.006913602352142334,-0.16274607181549072,0.18754535913467407,-0.02170642279088497,-0.048247091472148895,-0.45192191004753113,0.8904873132705688,0.0,0.0,0.0,0.0,0.0,0.0
492,1724915679466267943,-0.0062572527676820755,-0.1630941778421402,0.1874101758003235,-0.02234596014022827,-0.04779665544629097,-0.45231810212135315,0.89029461145401,0.0,0.0,0.0,0.0,0.0,0.0
494,1724915679475887687,-0.005631386302411556,-0.1635219007730484,0.18708866834640503,-0.0225042924284935,-0.048280589282512665,-0.45116105675697327,0.8908514380455017,0.0,0.0,0.0,0.0,0.0,0.0
496,1724915679486050817,-0.0050498489290475845,-0.16394218802452087,0.18675893545150757,-0.02233801782131195,-0.04756456986069679,-0.450143039226532,0.8914089202880859,0.0,0.0,0.0,0.0,0.0,0.0
498,1724915679496698058,-0.004390081390738487,-0.1645110696554184,0.18615888059139252,-0.019591473042964935,-0.04537593573331833,-0.4496682584285736,0.8918271660804749,0.0,0.0,0.0,0.0,0.0,0.0
500,1724915679505454951,-0.003876250237226486,-0.16494770348072052,0.18570151925086975,-0.019846901297569275,-0.04290091246366501,-0.44997572898864746,0.8917890191078186,0.0,0.0,0.0,0.0,0.0,0.0
502,1724915679516480716,-0.0034324899315834045,-0.16521908342838287,0.18491262197494507,-0.020493969321250916,-0.042132146656513214,-0.44960817694664,0.8919963240623474,0.0,0.0,0.0,0.0,0.0,0.0
504,1724915679526421758,-0.0028081294149160385,-0.16554781794548035,0.18418341875076294,-0.019705040380358696,-0.041034478694200516,-0.4497019946575165,0.8920179605484009,0.0,0.0,0.0,0.0,0.0,0.0
506,1724915679563537690,-0.0020636674016714096,-0.16569103300571442,0.18326376378536224,-0.016947077587246895,-0.03837965801358223,-0.4485240876674652,0.8927854895591736,0.0,0.0,0.0,0.0,0.0,0.0
508,1724915679563793364,-0.0012466339394450188,-0.16603590548038483,0.18241429328918457,-0.014905816875398159,-0.03597691282629967,-0.4479641318321228,0.89320307970047,0.0,0.0,0.0,0.0,0.0,0.0
510,1724915679564029543,-0.0006383201107382774,-0.16630207002162933,0.18147924542427063,-0.016866808757185936,-0.03339499980211258,-0.4473227262496948,0.8935898542404175,0.0,0.0,0.0,0.0,0.0,0.0
512,1724915679565012744,-0.00022684503346681595,-0.1665440946817398,0.18082183599472046,-0.014872699044644833,-0.03349856287240982,-0.4469427168369293,0.8938114047050476,0.0,0.0,0.0,0.0,0.0,0.0
514,1724915679576402892,0.00033700279891490936,-0.16666729748249054,0.1804465353488922,-0.01196401659399271,-0.032065026462078094,-0.44715970754623413,0.8937991261482239,0.0,0.0,0.0,0.0,0.0,0.0
516,1724915679585398933,0.0006003249436616898,-0.16695566475391388,0.1799822598695755,-0.010918638668954372,-0.03167133405804634,-0.44681012630462646,0.894001305103302,0.0,0.0,0.0,0.0,0.0,0.0
518,1724915679594936672,0.0008271057158708572,-0.16725903749465942,0.17954036593437195,-0.009487622417509556,-0.030559999868273735,-0.4460051655769348,0.8944581747055054,0.0,0.0,0.0,0.0,0.0,0.0
520,1724915679605559184,0.0008303942158818245,-0.16763459146022797,0.1790553778409958,-0.009245469234883785,-0.028805185109376907,-0.4459531605243683,0.8945448994636536,0.0,0.0,0.0,0.0,0.0,0.0
522,1724915679615031986,0.0007037562318146229,-0.16798721253871918,0.17868472635746002,-0.007436477579176426,-0.028504056856036186,-0.4455638527870178,0.8947654366493225,0.0,0.0,0.0,0.0,0.0,0.0
524,1724915679625397102,0.0004772478714585304,-0.168341726064682,0.17843413352966309,-0.0032105292193591595,-0.02773924544453621,-0.4456576406955719,0.8947678804397583,0.0,0.0,0.0,0.0,0.0,0.0
526,1724915679635772575,-4.971027374267578e-05,-0.16873835027217865,0.17799106240272522,-0.002266047755256295,-0.02718924544751644,-0.4442031681537628,0.8955106139183044,0.0,0.0,0.0,0.0,0.0,0.0
528,1724915679645331373,-0.0005374876782298088,-0.16931171715259552,0.1774710863828659,0.0024229453410953283,-0.026804087683558464,-0.4432113468647003,0.896013081073761,0.0,0.0,0.0,0.0,0.0,0.0
530,1724915679655027006,-0.0012869760394096375,-0.1697237342596054,0.17699505388736725,0.0037254448980093002,-0.02546730637550354,-0.4421374201774597,0.8965780138969421,0.0,0.0,0.0,0.0,0.0,0.0
532,1724915679665071894,-0.002386189065873623,-0.1704835444688797,0.17649434506893158,0.003469559596851468,-0.02508397400379181,-0.44101226329803467,0.8971437215805054,0.0,0.0,0.0,0.0,0.0,0.0
534,1724915679678470670,-0.0035599730908870697,-0.17117339372634888,0.17599926888942719,0.007855351082980633,-0.023540250957012177,-0.44029700756073,0.8975092172622681,0.0,0.0,0.0,0.0,0.0,0.0
536,1724915679685174826,-0.004947152454406023,-0.17187611758708954,0.176202192902565,0.006663475651293993,-0.0232597216963768,-0.44053706526756287,0.8974083662033081,0.0,0.0,0.0,0.0,0.0,0.0
538,1724915679695177256,-0.0061406646855175495,-0.17283837497234344,0.1756107658147812,0.00899585336446762,-0.022849831730127335,-0.43930894136428833,0.8980003595352173,0.0,0.0,0.0,0.0,0.0,0.0
540,1724915679705293639,-0.0072771660052239895,-0.17387649416923523,0.1752423644065857,0.012180383317172527,-0.02248568646609783,-0.43895331025123596,0.8981459140777588,0.0,0.0,0.0,0.0,0.0,0.0
542,1724915679715640330,-0.008409211412072182,-0.17479026317596436,0.17458687722682953,0.015538504347205162,-0.021620335057377815,-0.4385620951652527,0.8983064293861389,0.0,0.0,0.0,0.0,0.0,0.0
544,1724915679734947548,-0.009526913985610008,-0.17589633166790009,0.1738673597574234,0.01720048487186432,-0.02331561967730522,-0.4377412497997284,0.8986340761184692,0.0,0.0,0.0,0.0,0.0,0.0
546,1724915679735212373,-0.010486207902431488,-0.17687663435935974,0.17358919978141785,0.016343506053090096,-0.023344339802861214,-0.43801024556159973,0.8985182046890259,0.0,0.0,0.0,0.0,0.0,0.0
548,1724915679759505945,-0.011376947164535522,-0.17782723903656006,0.1728605479001999,0.01957615092396736,-0.023861562833189964,-0.43641677498817444,0.8992152214050293,0.0,0.0,0.0,0.0,0.0,0.0
550,1724915679759749066,-0.01181656401604414,-0.17876122891902924,0.1723138391971588,0.022719481959939003,-0.023170284926891327,-0.43653711676597595,0.8991008996963501,0.0,0.0,0.0,0.0,0.0,0.0
552,1724915679765104439,-0.012319965288043022,-0.17964787781238556,0.17166106402873993,0.022481031715869904,-0.022860832512378693,-0.4366215169429779,0.8990738391876221,0.0,0.0,0.0,0.0,0.0,0.0
554,1724915679778009179,-0.012703380547463894,-0.18053388595581055,0.1709994226694107,0.022674264386296272,-0.022490747272968292,-0.43717160820961,0.8988109230995178,0.0,0.0,0.0,0.0,0.0,0.0
556,1724915679785118733,-0.012967962771654129,-0.18124091625213623,0.17042328417301178,0.023833241313695908,-0.022131415084004402,-0.43764230608940125,0.8985608220100403,0.0,0.0,0.0,0.0,0.0,0.0
558,1724915679796025139,-0.013080313801765442,-0.18185392022132874,0.16984346508979797,0.024563562124967575,-0.021635491400957108,-0.4379381537437439,0.8984090685844421,0.0,0.0,0.0,0.0,0.0,0.0
560,1724915679806178940,-0.013246838003396988,-0.18257683515548706,0.1691954880952835,0.025431113317608833,-0.021889986470341682,-0.4391937255859375,0.897765576839447,0.0,0.0,0.0,0.0,0.0,0.0
562,1724915679815100674,-0.013273831456899643,-0.18318656086921692,0.16845116019248962,0.025932030752301216,-0.022925972938537598,-0.43876540660858154,0.8979348540306091,0.0,0.0,0.0,0.0,0.0,0.0
564,1724915679827531417,-0.013186091557145119,-0.18376488983631134,0.1676923632621765,0.029138917103409767,-0.0230867862701416,-0.43899762630462646,0.8977187275886536,0.0,0.0,0.0,0.0,0.0,0.0
566,1724915679835365448,-0.01313663087785244,-0.18427598476409912,0.16712120175361633,0.030916986986994743,-0.022935688495635986,-0.43981343507766724,0.8972638249397278,0.0,0.0,0.0,0.0,0.0,0.0
568,1724915679845154835,-0.013278033584356308,-0.18468138575553894,0.16664226353168488,0.030448395758867264,-0.022304778918623924,-0.44109073281288147,0.8966684937477112,0.0,0.0,0.0,0.0,0.0,0.0
570,1724915679856293521,-0.013355014845728874,-0.18515542149543762,0.1661122739315033,0.030044611543416977,-0.021848410367965698,-0.4422796070575714,0.8961076140403748,0.0,0.0,0.0,0.0,0.0,0.0
572,1724915679865132211,-0.01346687413752079,-0.1855924278497696,0.16563406586647034,0.030354861170053482,-0.02133309096097946,-0.44337034225463867,0.8955703973770142,0.0,0.0,0.0,0.0,0.0,0.0
574,1724915679875813816,-0.013545573689043522,-0.18599173426628113,0.16490894556045532,0.03256528452038765,-0.02101850137114525,-0.44335857033729553,0.895505964756012,0.0,0.0,0.0,0.0,0.0,0.0
576,1724915679885188921,-0.013639379292726517,-0.18637433648109436,0.16450852155685425,0.033040180802345276,-0.020595133304595947,-0.4443534016609192,0.8950051665306091,0.0,0.0,0.0,0.0,0.0,0.0
578,1724915679895017020,-0.01372980885207653,-0.18669870495796204,0.16412608325481415,0.03337406739592552,-0.020178375765681267,-0.4455690383911133,0.8943977355957031,0.0,0.0,0.0,0.0,0.0,0.0
580,1724915679905185252,-0.013863707892596722,-0.1870359182357788,0.1636667251586914,0.03399788215756416,-0.02074795961380005,-0.44638770818710327,0.8939529061317444,0.0,0.0,0.0,0.0,0.0,0.0
582,1724915679915868621,-0.013866230845451355,-0.18738234043121338,0.16340762376785278,0.03448469191789627,-0.019803041592240334,-0.44857630133628845,0.8928594589233398,0.0,0.0,0.0,0.0,0.0,0.0
584,1724915679925704940,-0.013860492035746574,-0.1876925379037857,0.16298912465572357,0.036775410175323486,-0.01930030807852745,-0.45024141669273376,0.8919404745101929,0.0,0.0,0.0,0.0,0.0,0.0
586,1724915679935116782,-0.013934915885329247,-0.1879848837852478,0.1626533567905426,0.03770247474312782,-0.019132398068904877,-0.4514436423778534,0.891297459602356,0.0,0.0,0.0,0.0,0.0,0.0
588,1724915679946115692,-0.014108682982623577,-0.18821150064468384,0.1624988168478012,0.0369449108839035,-0.01861630380153656,-0.45312434434890747,0.8904868960380554,0.0,0.0,0.0,0.0,0.0,0.0
590,1724915679955313918,-0.014264552854001522,-0.18849781155586243,0.16230563819408417,0.03642319515347481,-0.0187973752617836,-0.45439234375953674,0.8898583054542542,0.0,0.0,0.0,0.0,0.0,0.0
592,1724915679965967653,-0.014399656094610691,-0.18881209194660187,0.16208431124687195,0.03654532507061958,-0.019006239250302315,-0.45566993951797485,0.8891952633857727,0.0,0.0,0.0,0.0,0.0,0.0
594,1724915679976082362,-0.014552051201462746,-0.1891390085220337,0.16194351017475128,0.03654774650931358,-0.01872742921113968,-0.45731663703918457,0.8883553147315979,0.0,0.0,0.0,0.0,0.0,0.0
596,1724915679985701975,-0.014658496715128422,-0.1894586980342865,0.16174595057964325,0.03691859543323517,-0.018095113337039948,-0.45886117219924927,0.8875561952590942,0.0,0.0,0.0,0.0,0.0,0.0
598,1724915679998910226,-0.014822445809841156,-0.18978531658649445,0.16166549921035767,0.03644924610853195,-0.01787511631846428,-0.4608927071094513,0.886526882648468,0.0,0.0,0.0,0.0,0.0,0.0
600,1724915680005549403,-0.014952512457966805,-0.1900292932987213,0.16151444613933563,0.037103913724422455,-0.017134889960289,-0.4625874161720276,0.885631263256073,0.0,0.0,0.0,0.0,0.0,0.0
602,1724915680015192020,-0.014988206326961517,-0.19026754796504974,0.16144531965255737,0.03779706358909607,-0.01693723537027836,-0.46397915482521057,0.8848774433135986,0.0,0.0,0.0,0.0,0.0,0.0
604,1724915680026888509,-0.014965054579079151,-0.19056248664855957,0.16133248805999756,0.03846769779920578,-0.017269732430577278,-0.4651376008987427,0.8842336535453796,0.0,0.0,0.0,0.0,0.0,0.0
606,1724915680035134524,-0.014947693794965744,-0.19079360365867615,0.16129575669765472,0.03936026617884636,-0.01714450493454933,-0.46659040451049805,0.8834308981895447,0.0,0.0,0.0,0.0,0.0,0.0
608,1724915680111609249,-0.014915772713720798,-0.1910371333360672,0.16124838590621948,0.03871050849556923,-0.016735339537262917,-0.46798479557037354,0.8827296495437622,0.0,0.0,0.0,0.0,0.0,0.0
610,1724915680112999288,-0.01493086852133274,-0.19122140109539032,0.16117581725120544,0.038924336433410645,-0.0173985306173563,-0.4687362611293793,0.8823086023330688,0.0,0.0,0.0,0.0,0.0,0.0
612,1724915680113946712,-0.01505759172141552,-0.1914564073085785,0.16129960119724274,0.03835756704211235,-0.01772485114634037,-0.46961066126823425,0.8818618655204773,0.0,0.0,0.0,0.0,0.0,0.0
614,1724915680115566879,-0.01509060338139534,-0.19163905084133148,0.161313995718956,0.03837854787707329,-0.01771879382431507,-0.47079917788505554,0.8812271356582642,0.0,0.0,0.0,0.0,0.0,0.0
616,1724915680116962600,-0.015078237280249596,-0.1918070763349533,0.16127005219459534,0.03878973424434662,-0.017918286845088005,-0.47172725200653076,0.880708634853363,0.0,0.0,0.0,0.0,0.0,0.0
618,1724915680117465605,-0.015105542726814747,-0.19189415872097015,0.16129525005817413,0.03776489570736885,-0.016722559928894043,-0.47350379824638367,0.8798229694366455,0.0,0.0,0.0,0.0,0.0,0.0
620,1724915680117960129,-0.015049888752400875,-0.1919585019350052,0.16133911907672882,0.037272725254297256,-0.016609134152531624,-0.47448116540908813,0.8793193101882935,0.0,0.0,0.0,0.0,0.0,0.0
622,1724915680118808279,-0.014965798705816269,-0.19205832481384277,0.16140104830265045,0.037808891385793686,-0.017230018973350525,-0.4755515158176422,0.8787060379981995,0.0,0.0,0.0,0.0,0.0,0.0
624,1724915680125879152,-0.014863017946481705,-0.19211557507514954,0.16138888895511627,0.03834586963057518,-0.017650647088885307,-0.47584307193756104,0.8785166144371033,0.0,0.0,0.0,0.0,0.0,0.0
626,1724915680135623162,-0.014813818037509918,-0.19217105209827423,0.16134516894817352,0.03853493928909302,-0.017738448455929756,-0.47677311301231384,0.8780022263526917,0.0,0.0,0.0,0.0,0.0,0.0
628,1724915680145235000,-0.014756906777620316,-0.19219854474067688,0.1613297313451767,0.03897815942764282,-0.017599500715732574,-0.4785168170928955,0.8770362734794617,0.0,0.0,0.0,0.0,0.0,0.0
630,1724915680155713194,-0.014711988158524036,-0.19218626618385315,0.16132962703704834,0.03820135071873665,-0.017225440591573715,-0.4807414412498474,0.8758605122566223,0.0,0.0,0.0,0.0,0.0,0.0
632,1724915680165899665,-0.014657137915492058,-0.19229181110858917,0.1612703651189804,0.037435244768857956,-0.016947543248534203,-0.4824207127094269,0.8749752044677734,0.0,0.0,0.0,0.0,0.0,0.0
634,1724915680176005172,-0.014613209292292595,-0.19237196445465088,0.1612333357334137,0.03792908787727356,-0.01677682437002659,-0.48384448885917664,0.8741707801818848,0.0,0.0,0.0,0.0,0.0,0.0
636,1724915680185101373,-0.014648664742708206,-0.19251801073551178,0.16117730736732483,0.03801159933209419,-0.016895117238163948,-0.48461559414863586,0.873737633228302,0.0,0.0,0.0,0.0,0.0,0.0
638,1724915680197198301,-0.014616018161177635,-0.1926833838224411,0.16113366186618805,0.03836185112595558,-0.01653844490647316,-0.4855206310749054,0.873226523399353,0.0,0.0,0.0,0.0,0.0,0.0
640,1724915680204974293,-0.014587108977138996,-0.19284053146839142,0.16115403175354004,0.036869458854198456,-0.015801338478922844,-0.4864189326763153,0.8728044629096985,0.0,0.0,0.0,0.0,0.0,0.0
642,1724915680215376395,-0.014485244639217854,-0.19303269684314728,0.16117505729198456,0.037518687546253204,-0.015926780179142952,-0.4872466027736664,0.8723126649856567,0.0,0.0,0.0,0.0,0.0,0.0
644,1724915680239441374,-0.014348259195685387,-0.1932496279478073,0.16115860641002655,0.03806697949767113,-0.01624966412782669,-0.487911581993103,0.8719112277030945,0.0,0.0,0.0,0.0,0.0,0.0
646,1724915680240911188,-0.014257663860917091,-0.19338667392730713,0.16120602190494537,0.03696364536881447,-0.015711111947894096,-0.48899927735328674,0.8713589906692505,0.0,0.0,0.0,0.0,0.0,0.0
648,1724915680246039933,-0.014184902422130108,-0.19350174069404602,0.16145843267440796,0.0361102856695652,-0.015191522426903248,-0.49123409390449524,0.8701460957527161,0.0,0.0,0.0,0.0,0.0,0.0
650,1724915680255117208,-0.014154661446809769,-0.19353686273097992,0.1617196947336197,0.03616461530327797,-0.015482090413570404,-0.49348434805870056,0.8688645958900452,0.0,0.0,0.0,0.0,0.0,0.0
652,1724915680265173988,-0.014160532504320145,-0.1935349553823471,0.16205467283725739,0.03588368371129036,-0.015738412737846375,-0.49547386169433594,0.867738664150238,0.0,0.0,0.0,0.0,0.0,0.0
654,1724915680276452274,-0.01425754651427269,-0.19352293014526367,0.1623719036579132,0.03514116629958153,-0.015574267134070396,-0.4969579577445984,0.8669228553771973,0.0,0.0,0.0,0.0,0.0,0.0
656,1724915680285711796,-0.01442440040409565,-0.1934243142604828,0.1627505123615265,0.033747781068086624,-0.015229622833430767,-0.49858516454696655,0.8660496473312378,0.0,0.0,0.0,0.0,0.0,0.0
658,1724915680297109293,-0.014493856579065323,-0.19326086342334747,0.1630273163318634,0.03363565355539322,-0.015817545354366302,-0.499553918838501,0.8654850125312805,0.0,0.0,0.0,0.0,0.0,0.0
660,1724915680305394792,-0.014511292800307274,-0.19303254783153534,0.16337184607982635,0.032669249922037125,-0.015852486714720726,-0.501023530960083,0.8646716475486755,0.0,0.0,0.0,0.0,0.0,0.0
662,1724915680327140357,-0.014526920393109322,-0.1927918940782547,0.16373775899410248,0.032636888325214386,-0.016425203531980515,-0.5019503235816956,0.8641243577003479,0.0,0.0,0.0,0.0,0.0,0.0
664,1724915680327509056,-0.014432715252041817,-0.19246341288089752,0.16415740549564362,0.03328913450241089,-0.016478562727570534,-0.5029740333557129,0.8635030388832092,0.0,0.0,0.0,0.0,0.0,0.0
666,1724915680339378680,-0.014288226142525673,-0.19213126599788666,0.16462422907352448,0.03181891888380051,-0.015420597977936268,-0.5044463276863098,0.8627187609672546,0.0,0.0,0.0,0.0,0.0,0.0
668,1724915680345078770,-0.014100081287324429,-0.19175758957862854,0.16515424847602844,0.030842289328575134,-0.01525123044848442,-0.5058198571205139,0.8619527220726013,0.0,0.0,0.0,0.0,0.0,0.0
670,1724915680355739231,-0.013909390196204185,-0.19127804040908813,0.1660233438014984,0.028316767886281013,-0.01480784546583891,-0.5076144933700562,0.8609915375709534,0.0,0.0,0.0,0.0,0.0,0.0
672,1724915680364900079,-0.013693980872631073,-0.19077138602733612,0.16709211468696594,0.02563885599374771,-0.014580565504729748,-0.5095738768577576,0.8599212765693665,0.0,0.0,0.0,0.0,0.0,0.0
674,1724915680441028777,-0.013406557962298393,-0.19029831886291504,0.16790980100631714,0.02615474909543991,-0.0146407475695014,-0.510666012763977,0.8592565655708313,0.0,0.0,0.0,0.0,0.0,0.0
676,1724915680441682026,-0.0130641870200634,-0.1896817833185196,0.16856713593006134,0.02762429416179657,-0.015764035284519196,-0.5114627480506897,0.8587167263031006,0.0,0.0,0.0,0.0,0.0,0.0
678,1724915680442135155,-0.012826649472117424,-0.18902257084846497,0.16921746730804443,0.024480551481246948,-0.01648171804845333,-0.5118720531463623,0.8585546612739563,0.0,0.0,0.0,0.0,0.0,0.0
680,1724915680442650906,-0.012530630454421043,-0.1882786899805069,0.16986718773841858,0.02314547263085842,-0.016928674653172493,-0.5117825269699097,0.8586363792419434,0.0,0.0,0.0,0.0,0.0,0.0
682,1724915680442997038,-0.012318714521825314,-0.1876496523618698,0.17091487348079681,0.01853075809776783,-0.016889220103621483,-0.5130865573883057,0.8579707145690918,0.0,0.0,0.0,0.0,0.0,0.0
684,1724915680443293367,-0.011925296857953072,-0.18704910576343536,0.17174017429351807,0.017241407185792923,-0.01622830331325531,-0.51398104429245,0.857474684715271,0.0,0.0,0.0,0.0,0.0,0.0
686,1724915680443549635,-0.011490819975733757,-0.18649713695049286,0.1724528819322586,0.017194196581840515,-0.015905244275927544,-0.5152891874313354,0.8566962480545044,0.0,0.0,0.0,0.0,0.0,0.0
688,1724915680445570194,-0.01102043129503727,-0.1857617050409317,0.17297326028347015,0.01727357693016529,-0.016506562009453773,-0.5156170129776001,0.8564860224723816,0.0,0.0,0.0,0.0,0.0,0.0
690,1724915680455092565,-0.010449034161865711,-0.18500132858753204,0.17343376576900482,0.016008080914616585,-0.017733348533511162,-0.5159115195274353,0.85630863904953,0.0,0.0,0.0,0.0,0.0,0.0
692,1724915680465396105,-0.009803419932723045,-0.1840018779039383,0.173746258020401,0.011984467506408691,-0.01721392385661602,-0.5162031650543213,0.856209397315979,0.0,0.0,0.0,0.0,0.0,0.0
694,1724915680476561905,-0.009231665171682835,-0.18299102783203125,0.17403404414653778,0.007760727312415838,-0.017160264775156975,-0.5171212553977966,0.8557049036026001,0.0,0.0,0.0,0.0,0.0,0.0
696,1724915680485009943,-0.008532396517693996,-0.1820385456085205,0.17415271699428558,0.006679053883999586,-0.017800990492105484,-0.5180701017379761,0.8551268577575684,0.0,0.0,0.0,0.0,0.0,0.0
698,1724915680496621242,-0.007696198765188456,-0.1808689534664154,0.17429502308368683,0.0034689984750002623,-0.01819862611591816,-0.5187093615531921,0.8547499179840088,0.0,0.0,0.0,0.0,0.0,0.0
700,1724915680505117584,-0.007084312848746777,-0.17955228686332703,0.1743401437997818,0.0012556707952171564,-0.02001408487558365,-0.5180224776268005,0.8551319241523743,0.0,0.0,0.0,0.0,0.0,0.0
702,1724915680517517114,-0.006554171442985535,-0.17837394773960114,0.17444854974746704,-0.0018548645311966538,-0.01973496377468109,-0.5181641578674316,0.8550514578819275,0.0,0.0,0.0,0.0,0.0,0.0
704,1724915680532303955,-0.006156995426863432,-0.17741724848747253,0.1748979389667511,-0.0029703513719141483,-0.019530141726136208,-0.5192176699638367,0.8544137477874756,0.0,0.0,0.0,0.0,0.0,0.0
706,1724915680535023697,-0.005789578892290592,-0.1762911081314087,0.17540423572063446,-0.003367826109752059,-0.020362501963973045,-0.5199878811836243,0.8539242744445801,0.0,0.0,0.0,0.0,0.0,0.0
708,1724915680545908263,-0.0054694171994924545,-0.17497611045837402,0.1760358065366745,-0.005110761150717735,-0.022128578275442123,-0.5207422375679016,0.8534119129180908,0.0,0.0,0.0,0.0,0.0,0.0
710,1724915680556183459,-0.00517866387963295,-0.1737564206123352,0.17631013691425323,-0.009549478068947792,-0.022817475721240044,-0.5210268497467041,0.853181779384613,0.0,0.0,0.0,0.0,0.0,0.0
712,1724915680565078135,-0.0048734890297055244,-0.17269118130207062,0.17644545435905457,-0.011227604933083057,-0.023690665140748024,-0.5202772617340088,0.853594958782196,0.0,0.0,0.0,0.0,0.0,0.0
714,1724915680576575307,-0.004659093916416168,-0.17172260582447052,0.1768312156200409,-0.012527013197541237,-0.023976271972060204,-0.5208775997161865,0.8532027006149292,0.0,0.0,0.0,0.0,0.0,0.0
716,1724915680586099764,-0.004494953900575638,-0.1710163652896881,0.1774306744337082,-0.012891686521470547,-0.024054305627942085,-0.5217595100402832,0.8526560068130493,0.0,0.0,0.0,0.0,0.0,0.0
718,1724915680595111173,-0.004629771690815687,-0.170164555311203,0.17815861105918884,-0.01573813147842884,-0.025037048384547234,-0.5224612951278687,0.852150022983551,0.0,0.0,0.0,0.0,0.0,0.0
720,1724915680605723253,-0.0046213543973863125,-0.16946440935134888,0.178801491856575,-0.015831444412469864,-0.02621702291071415,-0.522184431552887,0.8522825241088867,0.0,0.0,0.0,0.0,0.0,0.0
722,1724915680614988337,-0.004710502456873655,-0.1690519154071808,0.17932896316051483,-0.016646794974803925,-0.02652060054242611,-0.5214571952819824,0.8527027368545532,0.0,0.0,0.0,0.0,0.0,0.0
724,1724915680625508155,-0.0048746936954557896,-0.16864940524101257,0.17984698712825775,-0.017062706872820854,-0.027054334059357643,-0.5206770300865173,0.8531543612480164,0.0,0.0,0.0,0.0,0.0,0.0
726,1724915680636020347,-0.0050078523345291615,-0.16816194355487823,0.1805027425289154,-0.01750054396688938,-0.027438867837190628,-0.5206421613693237,0.8531544804573059,0.0,0.0,0.0,0.0,0.0,0.0
728,1724915680645198470,-0.0053714001551270485,-0.1677362024784088,0.18121124804019928,-0.021276919171214104,-0.029477959498763084,-0.5200236439704895,0.8533778786659241,0.0,0.0,0.0,0.0,0.0,0.0
730,1724915680655045567,-0.005675070453435183,-0.16728009283542633,0.1820492446422577,-0.02274680696427822,-0.030408788472414017,-0.5196588635444641,0.8535295128822327,0.0,0.0,0.0,0.0,0.0,0.0
732,1724915680665072282,-0.005874790716916323,-0.16690681874752045,0.18302413821220398,-0.02197815664112568,-0.03034988045692444,-0.5199785232543945,0.8533570170402527,0.0,0.0,0.0,0.0,0.0,0.0
734,1724915680681311862,-0.006163386628031731,-0.16657230257987976,0.18402089178562164,-0.02089756727218628,-0.029775545001029968,-0.5205057263374329,0.8530828952789307,0.0,0.0,0.0,0.0,0.0,0.0
736,1724915680684994108,-0.006613565143197775,-0.1661449819803238,0.18465152382850647,-0.02513042464852333,-0.029510531574487686,-0.5198763012886047,0.8533617258071899,0.0,0.0,0.0,0.0,0.0,0.0
738,1724915680696118646,-0.007241556886583567,-0.1656518429517746,0.18504808843135834,-0.026446854695677757,-0.031703099608421326,-0.5196258425712585,0.853395938873291,0.0,0.0,0.0,0.0,0.0,0.0
740,1724915680705268632,-0.007856766693294048,-0.16520801186561584,0.18518157303333282,-0.028474552556872368,-0.032094139605760574,-0.5184908509254456,0.8540061712265015,0.0,0.0,0.0,0.0,0.0,0.0
742,1724915680715463828,-0.00852708239108324,-0.16491669416427612,0.1853354126214981,-0.029097193852066994,-0.03237014636397362,-0.5174965262413025,0.8545776009559631,0.0,0.0,0.0,0.0,0.0,0.0
744,1724915680729293468,-0.009193859994411469,-0.16471071541309357,0.1855132132768631,-0.027557455003261566,-0.03379185125231743,-0.5163900852203369,0.8552426099777222,0.0,0.0,0.0,0.0,0.0,0.0
746,1724915680734990305,-0.009862746112048626,-0.1644335240125656,0.18552392721176147,-0.02681146375834942,-0.03422238305211067,-0.5158887505531311,0.8555517792701721,0.0,0.0,0.0,0.0,0.0,0.0
748,1724915680746683841,-0.010707547888159752,-0.16423271596431732,0.18546168506145477,-0.028446177020668983,-0.03430125117301941,-0.5156764388084412,0.8556237816810608,0.0,0.0,0.0,0.0,0.0,0.0
750,1724915680755351839,-0.011514360085129738,-0.1640911102294922,0.1854480504989624,-0.02862485684454441,-0.034471623599529266,-0.5158248543739319,0.8555215001106262,0.0,0.0,0.0,0.0,0.0,0.0
752,1724915680795472829,-0.012456169351935387,-0.16402073204517365,0.1854555308818817,-0.03039644844830036,-0.03589538857340813,-0.515458881855011,0.8556224703788757,0.0,0.0,0.0,0.0,0.0,0.0
754,1724915680795899363,-0.013086598366498947,-0.16399791836738586,0.18560823798179626,-0.03025245852768421,-0.03604308143258095,-0.5152994990348816,0.8557173013687134,0.0,0.0,0.0,0.0,0.0,0.0
756,1724915680796287078,-0.013562314212322235,-0.16395772993564606,0.18576303124427795,-0.029036400839686394,-0.03673035278916359,-0.5146355032920837,0.8561297059059143,0.0,0.0,0.0,0.0,0.0,0.0
758,1724915680797486908,-0.013889565132558346,-0.16387178003787994,0.18586194515228271,-0.028758693486452103,-0.03671843558549881,-0.5141040682792664,0.8564587831497192,0.0,0.0,0.0,0.0,0.0,0.0
760,1724915680805163662,-0.014136476442217827,-0.1638619750738144,0.18590222299098969,-0.028774874284863472,-0.03677651658654213,-0.5135283470153809,0.8568010926246643,0.0,0.0,0.0,0.0,0.0,0.0
762,1724915680815053617,-0.014405964873731136,-0.16381405293941498,0.18605895340442657,-0.030745819211006165,-0.03625514358282089,-0.5133265852928162,0.8568758368492126,0.0,0.0,0.0,0.0,0.0,0.0
764,1724915680825693100,-0.01441711001098156,-0.16383986175060272,0.18622593581676483,-0.03078179806470871,-0.03598843887448311,-0.5132341980934143,0.8569410443305969,0.0,0.0,0.0,0.0,0.0,0.0
766,1724915680835920776,-0.014353755861520767,-0.1638898402452469,0.18633736670017242,-0.03079264611005783,-0.03591523692011833,-0.5131637454032898,0.8569859862327576,0.0,0.0,0.0,0.0,0.0,0.0
768,1724915680845106833,-0.014143221080303192,-0.16401804983615875,0.1863057166337967,-0.029425490647554398,-0.03636689484119415,-0.5125923752784729,0.8573567867279053,0.0,0.0,0.0,0.0,0.0,0.0
770,1724915680855222582,-0.013976501300930977,-0.16419745981693268,0.1861393004655838,-0.0290039274841547,-0.037394244223833084,-0.511748731136322,0.857830822467804,0.0,0.0,0.0,0.0,0.0,0.0
772,1724915680866409982,-0.013816685415804386,-0.1643473505973816,0.18612027168273926,-0.02945939637720585,-0.03791297972202301,-0.51127028465271,0.8580778241157532,0.0,0.0,0.0,0.0,0.0,0.0
774,1724915680880758579,-0.01360937301069498,-0.16448505222797394,0.18616126477718353,-0.029638279229402542,-0.03836500644683838,-0.5111604332923889,0.8581169247627258,0.0,0.0,0.0,0.0,0.0,0.0
776,1724915680885817887,-0.013346021063625813,-0.16461700201034546,0.18622130155563354,-0.030862458050251007,-0.0384589321911335,-0.5109502673149109,0.8581947088241577,0.0,0.0,0.0,0.0,0.0,0.0
778,1724915680895692617,-0.013054514303803444,-0.16478799283504486,0.18621942400932312,-0.031136903911828995,-0.03894050419330597,-0.510044515132904,0.858701765537262,0.0,0.0,0.0,0.0,0.0,0.0
780,1724915680905518979,-0.012821158394217491,-0.16495011746883392,0.1859920173883438,-0.03152790293097496,-0.03983515501022339,-0.508251965045929,0.8597087264060974,0.0,0.0,0.0,0.0,0.0,0.0
782,1724915680916490968,-0.0125172920525074,-0.16517524421215057,0.18595197796821594,-0.031756363809108734,-0.040192846208810806,-0.5074995756149292,0.8601280450820923,0.0,0.0,0.0,0.0,0.0,0.0
784,1724915680928868306,-0.01204981654882431,-0.1653444468975067,0.186082124710083,-0.03119063936173916,-0.03967848792672157,-0.5075063705444336,0.8601686358451843,0.0,0.0,0.0,0.0,0.0,0.0
786,1724915680936121381,-0.011723842471837997,-0.16553816199302673,0.18617838621139526,-0.0313451811671257,-0.03971312567591667,-0.5070759057998657,0.8604152202606201,0.0,0.0,0.0,0.0,0.0,0.0
788,1724915680948996697,-0.01139572449028492,-0.165714293718338,0.18626825511455536,-0.031819041818380356,-0.040869973599910736,-0.5058200359344482,0.8610826730728149,0.0,0.0,0.0,0.0,0.0,0.0
790,1724915680954949580,-0.011074921116232872,-0.16592784225940704,0.18634475767612457,-0.03281479328870773,-0.0412498340010643,-0.5049021244049072,0.8615657687187195,0.0,0.0,0.0,0.0,0.0,0.0
792,1724915680965281088,-0.010538858361542225,-0.1662779450416565,0.18624037504196167,-0.02849285677075386,-0.04177805036306381,-0.5041216611862183,0.8621508479118347,0.0,0.0,0.0,0.0,0.0,0.0
794,1724915680978733854,-0.010196208953857422,-0.16656294465065002,0.18643918633460999,-0.03147706761956215,-0.04058246314525604,-0.5049249529838562,0.8616339564323425,0.0,0.0,0.0,0.0,0.0,0.0
796,1724915680985446788,-0.00978265330195427,-0.16684353351593018,0.18660381436347961,-0.03184765577316284,-0.04047851264476776,-0.5052772164344788,0.8614186644554138,0.0,0.0,0.0,0.0,0.0,0.0
798,1724915680997941147,-0.009355400688946247,-0.16706985235214233,0.18660874664783478,-0.03140437602996826,-0.041153691709041595,-0.5041048526763916,0.8620895743370056,0.0,0.0,0.0,0.0,0.0,0.0
800,1724915681005042941,-0.008940848521888256,-0.1672814041376114,0.1865890920162201,-0.03046773374080658,-0.04218735918402672,-0.5027938485145569,0.8628385066986084,0.0,0.0,0.0,0.0,0.0,0.0
802,1724915681015003314,-0.008579913526773453,-0.16757260262966156,0.18652662634849548,-0.03027346171438694,-0.0429239496588707,-0.5018516182899475,0.863357424736023,0.0,0.0,0.0,0.0,0.0,0.0
804,1724915681027143249,-0.008108546026051044,-0.16785788536071777,0.18659281730651855,-0.030222712084650993,-0.0428580567240715,-0.5020115971565247,0.8632695078849792,0.0,0.0,0.0,0.0,0.0,0.0
806,1724915681035166418,-0.007724221795797348,-0.1681181937456131,0.186544731259346,-0.030891263857483864,-0.043276507407426834,-0.5015206933021545,0.8635101914405823,0.0,0.0,0.0,0.0,0.0,0.0
808,1724915681045053986,-0.007109976373612881,-0.16841164231300354,0.1866641491651535,-0.028992660343647003,-0.04359546676278114,-0.5013291239738464,0.8636712431907654,0.0,0.0,0.0,0.0,0.0,0.0
810,1724915681056625391,-0.006534465588629246,-0.1688145399093628,0.18674543499946594,-0.02766847051680088,-0.044640861451625824,-0.500597357749939,0.8640856742858887,0.0,0.0,0.0,0.0,0.0,0.0
812,1724915681065073991,-0.005970742553472519,-0.16928820312023163,0.18663713335990906,-0.026880256831645966,-0.04446018487215042,-0.49974921345710754,0.8646105527877808,0.0,0.0,0.0,0.0,0.0,0.0
814,1724915681077153556,-0.0054028891026973724,-0.16979265213012695,0.18657514452934265,-0.027023717761039734,-0.044277019798755646,-0.49991142749786377,0.8645216822624207,0.0,0.0,0.0,0.0,0.0,0.0
816,1724915681086301970,-0.0049238046631217,-0.17024372518062592,0.18653105199337006,-0.030415888875722885,-0.044353026896715164,-0.4999313950538635,0.8643935322761536,0.0,0.0,0.0,0.0,0.0,0.0
818,1724915681095263769,-0.004428203217685223,-0.17069147527217865,0.18672989308834076,-0.03106939233839512,-0.04489414766430855,-0.5001362562179565,0.8642238974571228,0.0,0.0,0.0,0.0,0.0,0.0
820,1724915681106046818,-0.003804657608270645,-0.17101076245307922,0.1868484914302826,-0.031908538192510605,-0.04505927860736847,-0.4995064437389374,0.8645489811897278,0.0,0.0,0.0,0.0,0.0,0.0
822,1724915681115190876,-0.0032092146575450897,-0.17149023711681366,0.18687662482261658,-0.03223061561584473,-0.045093704015016556,-0.4991246163845062,0.8647556304931641,0.0,0.0,0.0,0.0,0.0,0.0
824,1724915681128492450,-0.0026351269334554672,-0.1719542294740677,0.18688137829303741,-0.03224111720919609,-0.04604438692331314,-0.49907270073890686,0.8647351264953613,0.0,0.0,0.0,0.0,0.0,0.0
826,1724915681135890768,-0.0019475789740681648,-0.17245358228683472,0.1869225651025772,-0.03084458038210869,-0.04684070497751236,-0.4987508952617645,0.8649290204048157,0.0,0.0,0.0,0.0,0.0,0.0
828,1724915681146691063,-0.0012121209874749184,-0.1730022132396698,0.18707428872585297,-0.030223656445741653,-0.0477357879281044,-0.49815988540649414,0.8652424812316895,0.0,0.0,0.0,0.0,0.0,0.0
830,1724915681155168081,-0.00044018030166625977,-0.17348960041999817,0.1870863437652588,-0.030213559046387672,-0.047345396131277084,-0.49748507142066956,0.8656525015830994,0.0,0.0,0.0,0.0,0.0,0.0
832,1724915681165250767,0.0003726296126842499,-0.17395931482315063,0.1868971586227417,-0.02911067008972168,-0.04791167750954628,-0.49628138542175293,0.8663496971130371,0.0,0.0,0.0,0.0,0.0,0.0
834,1724915681175593066,0.0012310026213526726,-0.17442980408668518,0.18702466785907745,-0.0297112837433815,-0.046277668327093124,-0.4971902370452881,0.8658970594406128,0.0,0.0,0.0,0.0,0.0,0.0
836,1724915681184928260,0.0020712995901703835,-0.1749236285686493,0.18722355365753174,-0.030666429549455643,-0.046256616711616516,-0.49833106994628906,0.865208625793457,0.0,0.0,0.0,0.0,0.0,0.0
838,1724915681194902407,0.0030421409755945206,-0.1755618453025818,0.18719588220119476,-0.029910244047641754,-0.0484023354947567,-0.49692264199256897,0.865927517414093,0.0,0.0,0.0,0.0,0.0,0.0
840,1724915681205130033,0.0039279162883758545,-0.17607977986335754,0.1873130053281784,-0.031316645443439484,-0.04730072617530823,-0.4972206950187683,0.8657675981521606,0.0,0.0,0.0,0.0,0.0,0.0
842,1724915681215688906,0.004808953031897545,-0.1765277236700058,0.18740388751029968,-0.030678508803248405,-0.04697597771883011,-0.497191846370697,0.8658247590065002,0.0,0.0,0.0,0.0,0.0,0.0
844,1724915681232975126,0.005734162405133247,-0.17710871994495392,0.18717244267463684,-0.028821829706430435,-0.048048004508018494,-0.49587482213974,0.8665845394134521,0.0,0.0,0.0,0.0,0.0,0.0
846,1724915681234963014,0.0064828721806406975,-0.17752890288829803,0.18717315793037415,-0.029980208724737167,-0.048563916236162186,-0.4955767095088959,0.8666870594024658,0.0,0.0,0.0,0.0,0.0,0.0
848,1724915681246917861,0.0071105919778347015,-0.1780659258365631,0.18721668422222137,-0.031075095757842064,-0.049321163445711136,-0.4953545033931732,0.8667327761650085,0.0,0.0,0.0,0.0,0.0,0.0
850,1724915681271284005,0.007825091481208801,-0.17864449322223663,0.1874658465385437,-0.03198879212141037,-0.04859163239598274,-0.49628639221191406,0.866207480430603,0.0,0.0,0.0,0.0,0.0,0.0
852,1724915681271521328,0.008536001667380333,-0.17913751304149628,0.18740040063858032,-0.031006405130028725,-0.04896777495741844,-0.49636027216911316,0.8661796450614929,0.0,0.0,0.0,0.0,0.0,0.0
854,1724915681281771934,0.009392818436026573,-0.17947806417942047,0.18730369210243225,-0.0302132535725832,-0.04870032146573067,-0.496453195810318,0.8661695718765259,0.0,0.0,0.0,0.0,0.0,0.0
856,1724915681284877847,0.010312540456652641,-0.18004228174686432,0.18714545667171478,-0.027137165889143944,-0.048888251185417175,-0.4959634840488434,0.8665412664413452,0.0,0.0,0.0,0.0,0.0,0.0
858,1724915681296276193,0.011019818484783173,-0.18057098984718323,0.18722614645957947,-0.025956517085433006,-0.04947821423411369,-0.49619659781455994,0.866410493850708,0.0,0.0,0.0,0.0,0.0,0.0
860,1724915681305306574,0.01163347065448761,-0.1810898631811142,0.18725067377090454,-0.028980547562241554,-0.0490020252764225,-0.49687978625297546,0.8659500479698181,0.0,0.0,0.0,0.0,0.0,0.0
862,1724915681315386753,0.012262482196092606,-0.18156179785728455,0.1871592402458191,-0.027834272012114525,-0.04940478503704071,-0.49671927094459534,0.8660567998886108,0.0,0.0,0.0,0.0,0.0,0.0
864,1724915681327499225,0.012839718721807003,-0.18190795183181763,0.18732108175754547,-0.028649384155869484,-0.04911157861351967,-0.49757230281829834,0.865557074546814,0.0,0.0,0.0,0.0,0.0,0.0
866,1724915681335007844,0.013368239626288414,-0.1823061853647232,0.1873176395893097,-0.02890010178089142,-0.048955995589494705,-0.4977177083492279,0.8654740452766418,0.0,0.0,0.0,0.0,0.0,0.0
868,1724915681345537226,0.013803834095597267,-0.18271522223949432,0.18728642165660858,-0.029326893389225006,-0.04940376803278923,-0.49770545959472656,0.8654412031173706,0.0,0.0,0.0,0.0,0.0,0.0
870,1724915681355812529,0.01425049640238285,-0.18310008943080902,0.18732494115829468,-0.030237557366490364,-0.049568504095077515,-0.4979104995727539,0.8652824759483337,0.0,0.0,0.0,0.0,0.0,0.0
872,1724915681393048227,0.014734016731381416,-0.18349795043468475,0.18723100423812866,-0.030118050053715706,-0.049868375062942505,-0.4975109398365021,0.8654993176460266,0.0,0.0,0.0,0.0,0.0,0.0
874,1724915681393453747,0.015371117740869522,-0.18391579389572144,0.1871260106563568,-0.030269375070929527,-0.051012035459280014,-0.49693819880485535,0.8657562732696533,0.0,0.0,0.0,0.0,0.0,0.0
876,1724915681404040772,0.0158282071352005,-0.18437044322490692,0.18704041838645935,-0.030181316658854485,-0.0506807342171669,-0.4980233311653137,0.8651551008224487,0.0,0.0,0.0,0.0,0.0,0.0
878,1724915681404281314,0.01636957935988903,-0.18491996824741364,0.18693242967128754,-0.028919290751218796,-0.04984200373291969,-0.49791067838668823,0.8653117418289185,0.0,0.0,0.0,0.0,0.0,0.0
880,1724915681405154981,0.016885392367839813,-0.18534928560256958,0.18681712448596954,-0.029203778132796288,-0.048988547176122665,-0.4976195693016052,0.86551833152771,0.0,0.0,0.0,0.0,0.0,0.0
882,1724915681415764456,0.01771453768014908,-0.18601137399673462,0.18679137527942657,-0.025385357439517975,-0.05002531781792641,-0.49745985865592957,0.8656712174415588,0.0,0.0,0.0,0.0,0.0,0.0
884,1724915681425890546,0.018319029361009598,-0.1865829974412918,0.1867610514163971,-0.025987060740590096,-0.04994425177574158,-0.4971674084663391,0.8658260703086853,0.0,0.0,0.0,0.0,0.0,0.0
886,1724915681435252140,0.01885334402322769,-0.18717487156391144,0.1866832971572876,-0.027403172105550766,-0.048937369138002396,-0.4966767430305481,0.8661214113235474,0.0,0.0,0.0,0.0,0.0,0.0
888,1724915681445750707,0.019203919917345047,-0.18784871697425842,0.18660441040992737,-0.027355358004570007,-0.048130568116903305,-0.49624103307724,0.8664179444313049,0.0,0.0,0.0,0.0,0.0,0.0
890,1724915681455197835,0.019854411482810974,-0.18839727342128754,0.18620052933692932,-0.02703399397432804,-0.04701590538024902,-0.49593695998191833,0.8666632771492004,0.0,0.0,0.0,0.0,0.0,0.0
892,1724915681466063695,0.02050194703042507,-0.1889563947916031,0.18572591245174408,-0.024703027680516243,-0.04696023091673851,-0.49496155977249146,0.8672932982444763,0.0,0.0,0.0,0.0,0.0,0.0
894,1724915681476861606,0.021271564066410065,-0.18938103318214417,0.18536889553070068,-0.02457309328019619,-0.04612266644835472,-0.4951247274875641,0.8672487139701843,0.0,0.0,0.0,0.0,0.0,0.0
896,1724915681487371805,0.022022608667612076,-0.18992258608341217,0.18507850170135498,-0.023763922974467278,-0.04594191536307335,-0.4952015280723572,0.8672370314598083,0.0,0.0,0.0,0.0,0.0,0.0
898,1724915681514673762,0.022697502747178078,-0.19054804742336273,0.18453454971313477,-0.021252725273370743,-0.04470062255859375,-0.4951147437095642,0.8674165606498718,0.0,0.0,0.0,0.0,0.0,0.0
900,1724915681515015787,0.023333773016929626,-0.19111932814121246,0.18397241830825806,-0.02099502459168434,-0.04320632666349411,-0.4946950674057007,0.8677379488945007,0.0,0.0,0.0,0.0,0.0,0.0
902,1724915681515370304,0.02399180456995964,-0.19161076843738556,0.18302126228809357,-0.019823947921395302,-0.042804304510354996,-0.4938965439796448,0.8682401776313782,0.0,0.0,0.0,0.0,0.0,0.0
904,1724915681526325999,0.024779390543699265,-0.1919596642255783,0.182152658700943,-0.019932329654693604,-0.04066067188978195,-0.4926207363605499,0.8690651655197144,0.0,0.0,0.0,0.0,0.0,0.0
906,1724915681535100437,0.025795528665184975,-0.19241587817668915,0.18188495934009552,-0.018127314746379852,-0.037482332438230515,-0.49303239583969116,0.8690141439437866,0.0,0.0,0.0,0.0,0.0,0.0
908,1724915681547795828,0.0265843216329813,-0.19293737411499023,0.1813674420118332,-0.018040549010038376,-0.03564274311065674,-0.4925900399684906,0.8693441152572632,0.0,0.0,0.0,0.0,0.0,0.0
910,1724915681555883731,0.0270723607391119,-0.19356735050678253,0.1809234917163849,-0.01944444701075554,-0.03417337313294411,-0.49307650327682495,0.869097113609314,0.0,0.0,0.0,0.0,0.0,0.0
912,1724915681565140034,0.027652423828840256,-0.19401593506336212,0.18037758767604828,-0.016186635941267014,-0.03390969708561897,-0.49230140447616577,0.8696133494377136,0.0,0.0,0.0,0.0,0.0,0.0
914,1724915681575734528,0.028237394988536835,-0.1944504976272583,0.18003533780574799,-0.015576629899442196,-0.03235557675361633,-0.49315640330314636,0.8691992163658142,0.0,0.0,0.0,0.0,0.0,0.0
916,1724915681585702544,0.028612710535526276,-0.19492632150650024,0.17961014807224274,-0.014147290959954262,-0.03246833011507988,-0.4922727644443512,0.8697202801704407,0.0,0.0,0.0,0.0,0.0,0.0
918,1724915681595128266,0.028919953852891922,-0.19548287987709045,0.179281085729599,-0.011262759566307068,-0.031103922054171562,-0.4920615255832672,0.8699318170547485,0.0,0.0,0.0,0.0,0.0,0.0
920,1724915681605456913,0.02885819599032402,-0.1959366798400879,0.17868973314762115,-0.008794806897640228,-0.03148534521460533,-0.49027907848358154,0.870952308177948,0.0,0.0,0.0,0.0,0.0,0.0
922,1724915681615014065,0.028721438720822334,-0.19628100097179413,0.17821116745471954,-0.004684398882091045,-0.03075113706290722,-0.4894014298915863,0.8715037703514099,0.0,0.0,0.0,0.0,0.0,0.0
924,1724915681625056914,0.028438258916139603,-0.196661114692688,0.17792367935180664,-0.0030474490486085415,-0.02942661941051483,-0.48898839950561523,0.8717885613441467,0.0,0.0,0.0,0.0,0.0,0.0
926,1724915681635944754,0.027924496680498123,-0.19711264967918396,0.1778140366077423,-0.0012734890915453434,-0.029459770768880844,-0.48865988850593567,0.8719759583473206,0.0,0.0,0.0,0.0,0.0,0.0
928,1724915681723059057,0.027094155550003052,-0.19748039543628693,0.17748449742794037,0.00018540032033342868,-0.028922749683260918,-0.48751360177993774,0.8726361989974976,0.0,0.0,0.0,0.0,0.0,0.0
930,1724915681723427645,0.02604341134428978,-0.1977882981300354,0.17715828120708466,0.00103717518504709,-0.029046807438135147,-0.48535656929016113,0.8738330602645874,0.0,0.0,0.0,0.0,0.0,0.0
932,1724915681723828158,0.02496200054883957,-0.19812460243701935,0.17712117731571198,0.00285700592212379,-0.02757411263883114,-0.48443803191185,0.8743862509727478,0.0,0.0,0.0,0.0,0.0,0.0
934,1724915681724077206,0.023624487221240997,-0.19856500625610352,0.17691104114055634,0.0033345287665724754,-0.02731548249721527,-0.4827868342399597,0.8753054141998291,0.0,0.0,0.0,0.0,0.0,0.0
936,1724915681724408486,0.02223983034491539,-0.19885987043380737,0.17687584459781647,0.0022819458972662687,-0.02655242756009102,-0.4817207455635071,0.8759194612503052,0.0,0.0,0.0,0.0,0.0,0.0
938,1724915681724656435,0.020706046372652054,-0.1995328962802887,0.1768309772014618,0.004990969318896532,-0.025569861754775047,-0.48120221495628357,0.8762223720550537,0.0,0.0,0.0,0.0,0.0,0.0
940,1724915681724931036,0.019412800669670105,-0.20026624202728271,0.17658217251300812,0.007330955937504768,-0.023615637794137,-0.48123252391815186,0.8762442469596863,0.0,0.0,0.0,0.0,0.0,0.0
942,1724915681725205134,0.017969656735658646,-0.20116078853607178,0.17550908029079437,0.010855920612812042,-0.023910092189908028,-0.48021626472473145,0.876757025718689,0.0,0.0,0.0,0.0,0.0,0.0
944,1724915681729142450,0.016678042709827423,-0.20204994082450867,0.17433840036392212,0.01474727876484394,-0.02502596564590931,-0.47911128401756287,0.8772733807563782,0.0,0.0,0.0,0.0,0.0,0.0
946,1724915681734858759,0.015538666397333145,-0.20294472575187683,0.17331229150295258,0.017540402710437775,-0.026090463623404503,-0.4776008129119873,0.878014326095581,0.0,0.0,0.0,0.0,0.0,0.0
948,1724915681759783374,0.014428486116230488,-0.20384348928928375,0.17271679639816284,0.017035258933901787,-0.024950983002781868,-0.47754019498825073,0.8780903816223145,0.0,0.0,0.0,0.0,0.0,0.0
950,1724915681760067900,0.013610275462269783,-0.2045842409133911,0.1720939427614212,0.018709048628807068,-0.02568504773080349,-0.47647756338119507,0.878612220287323,0.0,0.0,0.0,0.0,0.0,0.0
952,1724915681766562482,0.013019383884966373,-0.20516899228096008,0.1716710925102234,0.01984328031539917,-0.02548123337328434,-0.47640731930732727,0.8786313533782959,0.0,0.0,0.0,0.0,0.0,0.0
954,1724915681776566935,0.012566907331347466,-0.20576636493206024,0.17133675515651703,0.017925087362527847,-0.024788517504930496,-0.47635146975517273,0.8787227272987366,0.0,0.0,0.0,0.0,0.0,0.0
956,1724915681785050304,0.012263416312634945,-0.20619894564151764,0.17115508019924164,0.01791774481534958,-0.02414104714989662,-0.4772808849811554,0.8782363533973694,0.0,0.0,0.0,0.0,0.0,0.0
958,1724915681796353854,0.01213470846414566,-0.20663897693157196,0.17070649564266205,0.018110617995262146,-0.023122668266296387,-0.4786696434020996,0.8775037527084351,0.0,0.0,0.0,0.0,0.0,0.0
960,1724915681807226966,0.012075385078787804,-0.20717015862464905,0.1697821468114853,0.021061696112155914,-0.023080287501215935,-0.4793906509876251,0.8770452737808228,0.0,0.0,0.0,0.0,0.0,0.0
962,1724915681814913658,0.011956924572587013,-0.20774459838867188,0.16863197088241577,0.024173330515623093,-0.023743808269500732,-0.4797661006450653,0.8767419457435608,0.0,0.0,0.0,0.0,0.0,0.0
964,1724915681826895025,0.011839339509606361,-0.20839102566242218,0.16768890619277954,0.02488481067121029,-0.02428402192890644,-0.48034903407096863,0.8763880133628845,0.0,0.0,0.0,0.0,0.0,0.0
966,1724915681834898688,0.011794153600931168,-0.20896020531654358,0.16683660447597504,0.027053382247686386,-0.023428989574313164,-0.48130083084106445,0.8758246898651123,0.0,0.0,0.0,0.0,0.0,0.0
968,1724915681844934590,0.01174236461520195,-0.20951977372169495,0.16623613238334656,0.028454629704356194,-0.02311035618185997,-0.4825041592121124,0.8751263618469238,0.0,0.0,0.0,0.0,0.0,0.0
970,1724915681855504535,0.01170988567173481,-0.21005675196647644,0.16554036736488342,0.029192689806222916,-0.02215694636106491,-0.4832642674446106,0.8747071623802185,0.0,0.0,0.0,0.0,0.0,0.0
972,1724915681865007414,0.01161327213048935,-0.21072344481945038,0.16486310958862305,0.03169276937842369,-0.02277314104139805,-0.4837628901004791,0.8743285536766052,0.0,0.0,0.0,0.0,0.0,0.0
974,1724915681876265294,0.011507905088365078,-0.21130026876926422,0.1644003838300705,0.03230441361665726,-0.022640017792582512,-0.4851013123989105,0.8735678195953369,0.0,0.0,0.0,0.0,0.0,0.0
976,1724915681885903683,0.01138773001730442,-0.21188081800937653,0.1638697385787964,0.03324590250849724,-0.02297416888177395,-0.4863505959510803,0.8728287816047668,0.0,0.0,0.0,0.0,0.0,0.0
978,1724915681896579865,0.011213218793272972,-0.21241478621959686,0.16343948245048523,0.03278785198926926,-0.02323339693248272,-0.4872330129146576,0.8723469972610474,0.0,0.0,0.0,0.0,0.0,0.0
980,1724915681905023181,0.011089161969721317,-0.2129528522491455,0.16307121515274048,0.03206877037882805,-0.022767111659049988,-0.48850932717323303,0.8716719150543213,0.0,0.0,0.0,0.0,0.0,0.0
982,1724915681915921533,0.01079990342259407,-0.21351364254951477,0.16273356974124908,0.03237884119153023,-0.022883348166942596,-0.48956483602523804,0.8710650205612183,0.0,0.0,0.0,0.0,0.0,0.0
984,1724915681925847097,0.010703179985284805,-0.21404145658016205,0.162239208817482,0.036039188504219055,-0.022948499768972397,-0.4905872642993927,0.8703440427780151,0.0,0.0,0.0,0.0,0.0,0.0
986,1724915681934992621,0.010611186735332012,-0.2145175188779831,0.16199135780334473,0.037176359444856644,-0.02304803393781185,-0.4916887879371643,0.8696717023849487,0.0,0.0,0.0,0.0,0.0,0.0
988,1724915681946954406,0.010440535843372345,-0.21486930549144745,0.16190262138843536,0.034586112946271896,-0.021043751388788223,-0.49386799335479736,0.8685939908027649,0.0,0.0,0.0,0.0,0.0,0.0
990,1724915681955659928,0.010252531617879868,-0.2152751088142395,0.16160465776920319,0.035455651581287384,-0.02158486098051071,-0.4950674772262573,0.8678625226020813,0.0,0.0,0.0,0.0,0.0,0.0
992,1724915681965869696,0.010143384337425232,-0.2156539261341095,0.16139037907123566,0.03644401207566261,-0.021288936957716942,-0.49632057547569275,0.8671127557754517,0.0,0.0,0.0,0.0,0.0,0.0
994,1724915681975675624,0.010018394328653812,-0.21606704592704773,0.16122493147850037,0.03640800341963768,-0.02100672945380211,-0.4975706934928894,0.8664044737815857,0.0,0.0,0.0,0.0,0.0,0.0
996,1724915681985253337,0.010018207132816315,-0.21651731431484222,0.16114871203899384,0.0385562926530838,-0.020217619836330414,-0.5000163912773132,0.8649210333824158,0.0,0.0,0.0,0.0,0.0,0.0
998,1724915681996156403,0.009911580011248589,-0.2168278843164444,0.16096904873847961,0.03913412615656853,-0.020654983818531036,-0.5009802579879761,0.8643267154693604,0.0,0.0,0.0,0.0,0.0,0.0
1000,1724915682005407044,0.009862026199698448,-0.21715164184570312,0.16080640256404877,0.03873925283551216,-0.020174134522676468,-0.5025510787963867,0.8634435534477234,0.0,0.0,0.0,0.0,0.0,0.0
1002,1724915682015349617,0.009765014983713627,-0.21745795011520386,0.16070246696472168,0.03843912482261658,-0.02118510566651821,-0.5033980011940002,0.8629392385482788,0.0,0.0,0.0,0.0,0.0,0.0
1004,1724915682064872267,0.009710213169455528,-0.21773579716682434,0.160572811961174,0.03854088857769966,-0.021360157057642937,-0.5044945478439331,0.8622897267341614,0.0,0.0,0.0,0.0,0.0,0.0
1006,1724915682065365500,0.009647192433476448,-0.21795357763767242,0.16046886146068573,0.038806021213531494,-0.02110898122191429,-0.5059672594070435,0.861420750617981,0.0,0.0,0.0,0.0,0.0,0.0
1008,1724915682065639786,0.009694907814264297,-0.21811361610889435,0.16049998998641968,0.038569044321775436,-0.020552417263388634,-0.5083370208740234,0.8600485920906067,0.0,0.0,0.0,0.0,0.0,0.0
1010,1724915682065895457,0.009711074642837048,-0.2182319015264511,0.16057735681533813,0.0378507599234581,-0.02024868130683899,-0.5103387832641602,0.8589013814926147,0.0,0.0,0.0,0.0,0.0,0.0
1012,1724915682066150769,0.009648305363953114,-0.2183239907026291,0.16050001978874207,0.03765270859003067,-0.020379887893795967,-0.5113581418991089,0.858300507068634,0.0,0.0,0.0,0.0,0.0,0.0
1014,1724915682075444154,0.009602516889572144,-0.21841442584991455,0.16046851873397827,0.03662731125950813,-0.020033324137330055,-0.5122116804122925,0.8578440546989441,0.0,0.0,0.0,0.0,0.0,0.0
1016,1724915682085041833,0.009755043312907219,-0.2184755504131317,0.16044703125953674,0.03833157569169998,-0.01955604739487171,-0.5136052966117859,0.8569468259811401,0.0,0.0,0.0,0.0,0.0,0.0
1018,1724915682095674222,0.0097379544749856,-0.21854610741138458,0.16033564507961273,0.03783978521823883,-0.01924056001007557,-0.5147286057472229,0.8563016057014465,0.0,0.0,0.0,0.0,0.0,0.0
1020,1724915682106157156,0.00977521575987339,-0.2185906022787094,0.16030733287334442,0.0375872403383255,-0.018960624933242798,-0.5158913731575012,0.855618953704834,0.0,0.0,0.0,0.0,0.0,0.0
1022,1724915682115099858,0.009924434125423431,-0.21859173476696014,0.16038377583026886,0.03753993660211563,-0.018540572375059128,-0.5176852941513062,0.854546070098877,0.0,0.0,0.0,0.0,0.0,0.0
1024,1724915682125709594,0.010097788646817207,-0.21866849064826965,0.16036376357078552,0.03832370415329933,-0.018598750233650208,-0.5188652873039246,0.8537939786911011,0.0,0.0,0.0,0.0,0.0,0.0
1026,1724915682135824259,0.010152268223464489,-0.21877296268939972,0.16038042306900024,0.03740183636546135,-0.018131645396351814,-0.5204514265060425,0.8528791069984436,0.0,0.0,0.0,0.0,0.0,0.0
1028,1724915682145735677,0.010123959742486477,-0.21888330578804016,0.16043351590633392,0.03584834188222885,-0.018240801990032196,-0.5222622752189636,0.8518359065055847,0.0,0.0,0.0,0.0,0.0,0.0
1030,1724915682155118748,0.010262317955493927,-0.2189575880765915,0.16042374074459076,0.037033144384622574,-0.018554488196969032,-0.5237703919410706,0.8508518934249878,0.0,0.0,0.0,0.0,0.0,0.0
1032,1724915682165164705,0.010469195432960987,-0.2190973460674286,0.160460963845253,0.0374034084379673,-0.018121207132935524,-0.5259072780609131,0.8495258092880249,0.0,0.0,0.0,0.0,0.0,0.0
1034,1724915682175922298,0.010564512573182583,-0.21924687922000885,0.1605001538991928,0.037629593163728714,-0.017929481342434883,-0.5272870063781738,0.8486643433570862,0.0,0.0,0.0,0.0,0.0,0.0
1036,1724915682185435443,0.010609559714794159,-0.2193973809480667,0.16057507693767548,0.03755868598818779,-0.017890531569719315,-0.5285840034484863,0.8478609919548035,0.0,0.0,0.0,0.0,0.0,0.0
1038,1724915682195733512,0.01062096282839775,-0.21956892311573029,0.16066662967205048,0.03679404407739639,-0.017552360892295837,-0.5300564765930176,0.8469818234443665,0.0,0.0,0.0,0.0,0.0,0.0
1040,1724915682205156693,0.010632644407451153,-0.21970094740390778,0.16076232492923737,0.03651684895157814,-0.017532935366034508,-0.531415581703186,0.8461421728134155,0.0,0.0,0.0,0.0,0.0,0.0
1042,1724915682215523022,0.010586139746010303,-0.21977658569812775,0.16084261238574982,0.03527359664440155,-0.016962090507149696,-0.532870888710022,0.845291018486023,0.0,0.0,0.0,0.0,0.0,0.0
1044,1724915682232050132,0.010608002543449402,-0.21983696520328522,0.16081491112709045,0.03591331094503403,-0.017023229971528053,-0.5338747501373291,0.8446290493011475,0.0,0.0,0.0,0.0,0.0,0.0
1046,1724915682234854380,0.010604282841086388,-0.21991556882858276,0.16075828671455383,0.035903193056583405,-0.016758546233177185,-0.534806489944458,0.844045102596283,0.0,0.0,0.0,0.0,0.0,0.0
1048,1724915682246881154,0.010590693913400173,-0.21994636952877045,0.16082221269607544,0.03489097207784653,-0.015946228057146072,-0.53621506690979,0.8432092666625977,0.0,0.0,0.0,0.0,0.0,0.0
1050,1724915682255062275,0.010480046272277832,-0.21988508105278015,0.16102327406406403,0.036473825573921204,-0.016423245891928673,-0.5373799800872803,0.8423910140991211,0.0,0.0,0.0,0.0,0.0,0.0
1052,1724915682265036847,0.010349735617637634,-0.21980999410152435,0.16113831102848053,0.036887284368276596,-0.016992654651403427,-0.538121223449707,0.841888427734375,0.0,0.0,0.0,0.0,0.0,0.0
1054,1724915682277009119,0.010296828113496304,-0.2197088599205017,0.16128306090831757,0.03683016821742058,-0.016478873789310455,-0.5392012596130371,0.8412098288536072,0.0,0.0,0.0,0.0,0.0,0.0
1056,1724915682284989848,0.010156916454434395,-0.21958185732364655,0.16153471171855927,0.03581123426556587,-0.01646903157234192,-0.5410913825035095,0.8400395512580872,0.0,0.0,0.0,0.0,0.0,0.0
1058,1724915682295467462,0.01007883995771408,-0.21939221024513245,0.1617247462272644,0.036283161491155624,-0.017192235216498375,-0.5423183441162109,0.8392131924629211,0.0,0.0,0.0,0.0,0.0,0.0
1060,1724915682306317567,0.01016991212964058,-0.21909774839878082,0.16235165297985077,0.0353141687810421,-0.01633426360785961,-0.5442383289337158,0.8380278944969177,0.0,0.0,0.0,0.0,0.0,0.0
1062,1724915682315010433,0.01016518659889698,-0.21878065168857574,0.16319461166858673,0.03345067426562309,-0.016316888853907585,-0.5460347533226013,0.8369354605674744,0.0,0.0,0.0,0.0,0.0,0.0
1064,1724915682326446927,0.010288904421031475,-0.21849025785923004,0.16388235986232758,0.032359205186367035,-0.01635180041193962,-0.5469417572021484,0.8363852500915527,0.0,0.0,0.0,0.0,0.0,0.0
1066,1724915682452496736,0.01046048291027546,-0.21810010075569153,0.16439937055110931,0.031351324170827866,-0.016837604343891144,-0.5468338131904602,0.8364844918251038,0.0,0.0,0.0,0.0,0.0,0.0
1068,1724915682453542030,0.010760044679045677,-0.217680886387825,0.16495774686336517,0.031090643256902695,-0.016088644042611122,-0.5472421050071716,0.8362419605255127,0.0,0.0,0.0,0.0,0.0,0.0
1070,1724915682454703847,0.010889176279306412,-0.21719427406787872,0.16562923789024353,0.028692960739135742,-0.015931297093629837,-0.5482134819030762,0.8356942534446716,0.0,0.0,0.0,0.0,0.0,0.0
1072,1724915682455162923,0.011038723401725292,-0.21661190688610077,0.16642653942108154,0.0264375489205122,-0.016144154593348503,-0.5496867299079895,0.8347964286804199,0.0,0.0,0.0,0.0,0.0,0.0
1074,1724915682455418303,0.011341939680278301,-0.21608376502990723,0.16702690720558167,0.025652801617980003,-0.015965253114700317,-0.5509135723114014,0.8340151906013489,0.0,0.0,0.0,0.0,0.0,0.0
1076,1724915682455652137,0.011625126004219055,-0.21549107134342194,0.1675727814435959,0.02430594339966774,-0.015751391649246216,-0.5521880984306335,0.8332163691520691,0.0,0.0,0.0,0.0,0.0,0.0
1078,1724915682455882713,0.01196637935936451,-0.21482188999652863,0.1681472510099411,0.02220913954079151,-0.015585609711706638,-0.553077757358551,0.8326877355575562,0.0,0.0,0.0,0.0,0.0,0.0
1080,1724915682456266253,0.01227578055113554,-0.21410614252090454,0.16883233189582825,0.020220307633280754,-0.015808215364813805,-0.5538522601127625,0.8322193026542664,0.0,0.0,0.0,0.0,0.0,0.0
1082,1724915682456885817,0.012795835733413696,-0.2133634388446808,0.16955052316188812,0.020300649106502533,-0.017011580988764763,-0.5538620352745056,0.8321870565414429,0.0,0.0,0.0,0.0,0.0,0.0
1084,1724915682457659407,0.013478493317961693,-0.2127191722393036,0.17030289769172668,0.02036173641681671,-0.01787094585597515,-0.5540257692337036,0.8320586085319519,0.0,0.0,0.0,0.0,0.0,0.0
1086,1724915682458198459,0.014265980571508408,-0.21197442710399628,0.17104029655456543,0.019615538418293,-0.01730087772011757,-0.5547507405281067,0.8316053748130798,0.0,0.0,0.0,0.0,0.0,0.0
1088,1724915682458465793,0.015048971399664879,-0.21121783554553986,0.17156711220741272,0.018707597628235817,-0.01762998104095459,-0.5550374388694763,0.8314281105995178,0.0,0.0,0.0,0.0,0.0,0.0
1090,1724915682458697434,0.015800263732671738,-0.21027417480945587,0.17216289043426514,0.013124965131282806,-0.01702265255153179,-0.5566935539245605,0.8304398059844971,0.0,0.0,0.0,0.0,0.0,0.0
1092,1724915682467512484,0.01659887284040451,-0.20920656621456146,0.1723744422197342,0.009728634729981422,-0.017023148015141487,-0.5576083064079285,0.8298726677894592,0.0,0.0,0.0,0.0,0.0,0.0
1094,1724915682475902323,0.01735023595392704,-0.20824064314365387,0.1724863350391388,0.00944365281611681,-0.016803618520498276,-0.5585652589797974,0.829236626625061,0.0,0.0,0.0,0.0,0.0,0.0
1096,1724915682485152769,0.018025729805231094,-0.20724676549434662,0.1725880354642868,0.007688681595027447,-0.016775190830230713,-0.5588381886482239,0.8290714621543884,0.0,0.0,0.0,0.0,0.0,0.0
1098,1724915682497199310,0.018774861469864845,-0.20603878796100616,0.17267273366451263,0.004601095803081989,-0.017594538629055023,-0.5589845180511475,0.8289785981178284,0.0,0.0,0.0,0.0,0.0,0.0
1100,1724915682523148703,0.01949755661189556,-0.2048022598028183,0.17263194918632507,0.0015535886632278562,-0.018772372975945473,-0.5597010850906372,0.8284804821014404,0.0,0.0,0.0,0.0,0.0,0.0
1102,1724915682523824239,0.020250199362635612,-0.20379124581813812,0.1727820336818695,8.67175476741977e-05,-0.02034858986735344,-0.5593647360801697,0.8286718130111694,0.0,0.0,0.0,0.0,0.0,0.0
1104,1724915682526661308,0.020899420604109764,-0.20273762941360474,0.17316557466983795,-0.0018320073140785098,-0.02014753222465515,-0.5590330958366394,0.8288986086845398,0.0,0.0,0.0,0.0,0.0,0.0
1106,1724915682535030429,0.021469347178936005,-0.20164963603019714,0.17382900416851044,-0.004067876376211643,-0.020140118896961212,-0.560447633266449,0.8279350399971008,0.0,0.0,0.0,0.0,0.0,0.0
1108,1724915682545604426,0.02207082509994507,-0.2005218267440796,0.17449524998664856,-0.004904718138277531,-0.020309077575802803,-0.562504768371582,0.8265300393104553,0.0,0.0,0.0,0.0,0.0,0.0
1110,1724915682559682493,0.022446323186159134,-0.19958549737930298,0.17510785162448883,-0.009216789156198502,-0.02135508321225643,-0.5631718039512634,0.8260124921798706,0.0,0.0,0.0,0.0,0.0,0.0
1112,1724915682564939742,0.022727258503437042,-0.19868136942386627,0.17579960823059082,-0.011106389574706554,-0.022572916001081467,-0.5626456141471863,0.8263154029846191,0.0,0.0,0.0,0.0,0.0,0.0
1114,1724915682577182298,0.022897781804203987,-0.19786480069160461,0.17647220194339752,-0.01049603708088398,-0.023406952619552612,-0.5616665482521057,0.826965868473053,0.0,0.0,0.0,0.0,0.0,0.0
1116,1724915682587290208,0.02287023328244686,-0.1972307562828064,0.17715762555599213,-0.011330405250191689,-0.02466910146176815,-0.5614118576049805,0.8270912766456604,0.0,0.0,0.0,0.0,0.0,0.0
1118,1724915682595437973,0.022842057049274445,-0.1965424120426178,0.17794212698936462,-0.014466630294919014,-0.025551673024892807,-0.5616623759269714,0.8268453478813171,0.0,0.0,0.0,0.0,0.0,0.0
1120,1724915682607298902,0.02284679375588894,-0.19596722722053528,0.17869804799556732,-0.01730947755277157,-0.02591877430677414,-0.5622795224189758,0.8263596892356873,0.0,0.0,0.0,0.0,0.0,0.0
1122,1724915682615001726,0.02284320630133152,-0.1955954134464264,0.17929743230342865,-0.018467867746949196,-0.026156354695558548,-0.5624527931213379,0.8262092471122742,0.0,0.0,0.0,0.0,0.0,0.0
1124,1724915682625517051,0.02269735559821129,-0.19520597159862518,0.17962655425071716,-0.01886126399040222,-0.026704775169491768,-0.5616833567619324,0.8267061710357666,0.0,0.0,0.0,0.0,0.0,0.0
1126,1724915682635597483,0.022429056465625763,-0.19485744833946228,0.1801350712776184,-0.022208034992218018,-0.027485612779855728,-0.5615498423576355,0.8266880512237549,0.0,0.0,0.0,0.0,0.0,0.0
1128,1724915682644949776,0.022222034633159637,-0.19433440268039703,0.18087247014045715,-0.02254560776054859,-0.0282172579318285,-0.5613911747932434,0.8267620205879211,0.0,0.0,0.0,0.0,0.0,0.0
1130,1724915682668251905,0.021968524903059006,-0.19387780129909515,0.1815337836742401,-0.02199872024357319,-0.029806731268763542,-0.5603094696998596,0.8274545669555664,0.0,0.0,0.0,0.0,0.0,0.0
1132,1724915682668490085,0.021611498668789864,-0.1934531331062317,0.1822940856218338,-0.02190500684082508,-0.03128849342465401,-0.5590094327926636,0.8282812237739563,0.0,0.0,0.0,0.0,0.0,0.0
1134,1724915682676889563,0.021268879994750023,-0.19316068291664124,0.18307416141033173,-0.023425240069627762,-0.03140890970826149,-0.5584313273429871,0.8286249041557312,0.0,0.0,0.0,0.0,0.0,0.0
1136,1724915682685103784,0.020933713763952255,-0.19275152683258057,0.18387432396411896,-0.025487614795565605,-0.03243187814950943,-0.5587249398231506,0.8283266425132751,0.0,0.0,0.0,0.0,0.0,0.0
1138,1724915682696092026,0.020562537014484406,-0.19228143990039825,0.18442189693450928,-0.028232943266630173,-0.03212406486272812,-0.5592445731163025,0.8278989195823669,0.0,0.0,0.0,0.0,0.0,0.0
1140,1724915682705338004,0.020092178136110306,-0.19185993075370789,0.18452206254005432,-0.02999202534556389,-0.031911879777908325,-0.5581785440444946,0.8285643458366394,0.0,0.0,0.0,0.0,0.0,0.0
1142,1724915682715313940,0.01971125602722168,-0.19153711199760437,0.18478243052959442,-0.029067758470773697,-0.03193367272615433,-0.5576024055480957,0.828984260559082,0.0,0.0,0.0,0.0,0.0,0.0
1144,1724915682729164595,0.01892305351793766,-0.1912122666835785,0.18483281135559082,-0.031032174825668335,-0.031914982944726944,-0.556900143623352,0.8293858170509338,0.0,0.0,0.0,0.0,0.0,0.0
1146,1724915682734931041,0.0181642584502697,-0.19084636867046356,0.18510371446609497,-0.03192991390824318,-0.03200400248169899,-0.5569688081741333,0.8293020725250244,0.0,0.0,0.0,0.0,0.0,0.0
1148,1724915682745776472,0.017460208386182785,-0.19059742987155914,0.1849067062139511,-0.031556956470012665,-0.03353513032197952,-0.554959237575531,0.8306021094322205,0.0,0.0,0.0,0.0,0.0,0.0
1150,1724915682758667262,0.01662297546863556,-0.19046461582183838,0.18500462174415588,-0.03313113749027252,-0.03454741835594177,-0.5545048713684082,0.8308027982711792,0.0,0.0,0.0,0.0,0.0,0.0
1152,1724915682766704248,0.015923377126455307,-0.1902773082256317,0.18504533171653748,-0.03191082924604416,-0.03469749912619591,-0.5544946789741516,0.8308510780334473,0.0,0.0,0.0,0.0,0.0,0.0
1154,1724915682776527210,0.01520587969571352,-0.1901598423719406,0.18481577932834625,-0.030079733580350876,-0.035740967839956284,-0.5541976690292358,0.8310733437538147,0.0,0.0,0.0,0.0,0.0,0.0
1156,1724915682785109855,0.014367494732141495,-0.19006069004535675,0.18456600606441498,-0.029759710654616356,-0.036404550075531006,-0.5528561472892761,0.83194899559021,0.0,0.0,0.0,0.0,0.0,0.0
1158,1724915682795181587,0.013860363513231277,-0.19006969034671783,0.18474775552749634,-0.026532938703894615,-0.037165429443120956,-0.5530829429626465,0.8318737745285034,0.0,0.0,0.0,0.0,0.0,0.0
1160,1724915682806182322,0.013338126242160797,-0.19007356464862823,0.18478423357009888,-0.0274309441447258,-0.03694659471511841,-0.5527879595756531,0.8320504426956177,0.0,0.0,0.0,0.0,0.0,0.0
1162,1724915682815011136,0.012944478541612625,-0.1901381015777588,0.18478868901729584,-0.02654307708144188,-0.03769398480653763,-0.5521544218063354,0.8324663043022156,0.0,0.0,0.0,0.0,0.0,0.0
1164,1724915682826200143,0.01269027590751648,-0.19024290144443512,0.18490932881832123,-0.02621443010866642,-0.03748432174324989,-0.5517686605453491,0.832741916179657,0.0,0.0,0.0,0.0,0.0,0.0
1166,1724915682835202001,0.012617995962500572,-0.19036094844341278,0.18521548807621002,-0.026524048298597336,-0.03711523488163948,-0.5521537065505981,0.8324934840202332,0.0,0.0,0.0,0.0,0.0,0.0
1168,1724915682844998626,0.012664437294006348,-0.19041278958320618,0.18528445065021515,-0.027928335592150688,-0.03689417615532875,-0.5519480109214783,0.8325936794281006,0.0,0.0,0.0,0.0,0.0,0.0
1170,1724915682855475430,0.012906832620501518,-0.19046826660633087,0.18519581854343414,-0.027394810691475868,-0.0371205136179924,-0.5511658787727356,0.8331193327903748,0.0,0.0,0.0,0.0,0.0,0.0
1172,1724915682867260746,0.013159619644284248,-0.19059237837791443,0.18521921336650848,-0.027509184554219246,-0.037794556468725204,-0.5505930185317993,0.8334639668464661,0.0,0.0,0.0,0.0,0.0,0.0
1174,1724915682875489776,0.013374272733926773,-0.19069164991378784,0.18511104583740234,-0.029583076015114784,-0.03856448829174042,-0.5493853092193604,0.8341543674468994,0.0,0.0,0.0,0.0,0.0,0.0
1176,1724915682885154867,0.013552775606513023,-0.1906912475824356,0.18510888516902924,-0.032775674015283585,-0.03857697173953056,-0.5484465956687927,0.8346519470214844,0.0,0.0,0.0,0.0,0.0,0.0
1178,1724915682894773510,0.013835118152201176,-0.19080932438373566,0.1852569729089737,-0.03201596811413765,-0.039496857672929764,-0.548191487789154,0.8348060846328735,0.0,0.0,0.0,0.0,0.0,0.0
1180,1724915682954233652,0.0142064755782485,-0.1910090446472168,0.1852029263973236,-0.0300738662481308,-0.04009450227022171,-0.5473703742027283,0.8353883624076843,0.0,0.0,0.0,0.0,0.0,0.0
1182,1724915682954813314,0.014478989876806736,-0.19125419855117798,0.18532155454158783,-0.03069068118929863,-0.04062938317656517,-0.5471624135971069,0.835476279258728,0.0,0.0,0.0,0.0,0.0,0.0
1184,1724915682955764503,0.014690039679408073,-0.1914638876914978,0.18559901416301727,-0.03201922029256821,-0.039764322340488434,-0.5477783679962158,0.8350644707679749,0.0,0.0,0.0,0.0,0.0,0.0
1186,1724915682956423402,0.014985231682658195,-0.19172513484954834,0.18571068346500397,-0.032076578587293625,-0.04060596600174904,-0.5471027493476868,0.8354644775390625,0.0,0.0,0.0,0.0,0.0,0.0
1188,1724915682957086242,0.01516159251332283,-0.19188141822814941,0.18573465943336487,-0.03377695754170418,-0.041083574295043945,-0.546125054359436,0.8360136151313782,0.0,0.0,0.0,0.0,0.0,0.0
1190,1724915682957374869,0.015513072721660137,-0.19211991131305695,0.18594463169574738,-0.033599384129047394,-0.04039977118372917,-0.546543538570404,0.8357806205749512,0.0,0.0,0.0,0.0,0.0,0.0
1192,1724915682965418132,0.01579698547720909,-0.1923823058605194,0.18592728674411774,-0.033641695976257324,-0.04060819372534752,-0.545685887336731,0.8363289833068848,0.0,0.0,0.0,0.0,0.0,0.0
1194,1724915682975716547,0.01634255424141884,-0.1927628517150879,0.18564097583293915,-0.02917347103357315,-0.04207073524594307,-0.544037938117981,0.837497353553772,0.0,0.0,0.0,0.0,0.0,0.0
1196,1724915682984867063,0.01671479269862175,-0.19306311011314392,0.1856829673051834,-0.029080931097269058,-0.04250423237681389,-0.5438922047615051,0.8375732898712158,0.0,0.0,0.0,0.0,0.0,0.0
1198,1724915682996413731,0.017101308330893517,-0.1932973563671112,0.1858653873205185,-0.03004869632422924,-0.042253509163856506,-0.5439388155937195,0.837521493434906,0.0,0.0,0.0,0.0,0.0,0.0
1200,1724915683004980221,0.017523344606161118,-0.1935500204563141,0.18589983880519867,-0.02862754464149475,-0.04255087301135063,-0.543281614780426,0.8379827737808228,0.0,0.0,0.0,0.0,0.0,0.0
1202,1724915683016403484,0.017879020422697067,-0.19378840923309326,0.18568722903728485,-0.02849242091178894,-0.0435006245970726,-0.5416786670684814,0.838975727558136,0.0,0.0,0.0,0.0,0.0,0.0
1204,1724915683030678530,0.018176963552832603,-0.1939471960067749,0.18552528321743011,-0.030385980382561684,-0.04348898306488991,-0.5408788919448853,0.8394257426261902,0.0,0.0,0.0,0.0,0.0,0.0
1206,1724915683034768231,0.018451742827892303,-0.194183349609375,0.18561500310897827,-0.0316958948969841,-0.04355919361114502,-0.5404458045959473,0.8396524786949158,0.0,0.0,0.0,0.0,0.0,0.0
1208,1724915683048319849,0.018954915925860405,-0.1944565773010254,0.18573765456676483,-0.03166360780596733,-0.04431339353322983,-0.5392385721206665,0.8403900265693665,0.0,0.0,0.0,0.0,0.0,0.0
1210,1724915683056306005,0.019257230684161186,-0.19475413858890533,0.18579858541488647,-0.03101014718413353,-0.045465219765901566,-0.5382812023162842,0.840966522693634,0.0,0.0,0.0,0.0,0.0,0.0
1212,1724915683065005048,0.0194977018982172,-0.19503186643123627,0.18577812612056732,-0.03151339292526245,-0.045691508799791336,-0.5374633073806763,0.8414585590362549,0.0,0.0,0.0,0.0,0.0,0.0
1214,1724915683075997547,0.019787374883890152,-0.19533653557300568,0.18584580719470978,-0.03088591992855072,-0.04629134014248848,-0.5372211933135986,0.8416035771369934,0.0,0.0,0.0,0.0,0.0,0.0
1216,1724915683086805592,0.020164497196674347,-0.19566866755485535,0.185952827334404,-0.031952980905771255,-0.0453067347407341,-0.5374067425727844,0.841498851776123,0.0,0.0,0.0,0.0,0.0,0.0
1218,1724915683094957028,0.020654162392020226,-0.19606010615825653,0.18631839752197266,-0.031661372631788254,-0.044720787554979324,-0.5385411381721497,0.8408156633377075,0.0,0.0,0.0,0.0,0.0,0.0
1220,1724915683108997777,0.02119738981127739,-0.19640108942985535,0.1863027960062027,-0.031589943915605545,-0.043817754834890366,-0.5385469794273376,0.8408622145652771,0.0,0.0,0.0,0.0,0.0,0.0
1222,1724915683127293148,0.021600866690278053,-0.19682376086711884,0.18621522188186646,-0.03155692666769028,-0.04488112032413483,-0.5378739833831787,0.8412380814552307,0.0,0.0,0.0,0.0,0.0,0.0
1224,1724915683144129086,0.02229568548500538,-0.19748571515083313,0.18612904846668243,-0.033770620822906494,-0.04649892821907997,-0.5367757678031921,0.8417655825614929,0.0,0.0,0.0,0.0,0.0,0.0
1226,1724915683145024712,0.022634292021393776,-0.19778931140899658,0.18628384172916412,-0.03438765928149223,-0.04714130237698555,-0.5361286997795105,0.842117190361023,0.0,0.0,0.0,0.0,0.0,0.0
1228,1724915683155331287,0.02300427481532097,-0.19817648828029633,0.1863710880279541,-0.033155396580696106,-0.04795531928539276,-0.5357607007026672,0.8423547744750977,0.0,0.0,0.0,0.0,0.0,0.0
1230,1724915683175689812,0.023506760597229004,-0.19868947565555573,0.1862587183713913,-0.03223857283592224,-0.04913109168410301,-0.5343331098556519,0.8432288765907288,0.0,0.0,0.0,0.0,0.0,0.0
1232,1724915683178740870,0.024113835766911507,-0.1991899460554123,0.18617725372314453,-0.03183507174253464,-0.04874735698103905,-0.5341183543205261,0.8434025049209595,0.0,0.0,0.0,0.0,0.0,0.0
1234,1724915683184904315,0.024970941245555878,-0.19989678263664246,0.18637554347515106,-0.029039224609732628,-0.0484888069331646,-0.5346852540969849,0.8431590795516968,0.0,0.0,0.0,0.0,0.0,0.0
1236,1724915683195100280,0.025651268661022186,-0.2003941535949707,0.18656697869300842,-0.030336806550621986,-0.04733150079846382,-0.5355080962181091,0.8426567912101746,0.0,0.0,0.0,0.0,0.0,0.0
1238,1724915683205226887,0.026289496570825577,-0.20083272457122803,0.1864672601222992,-0.030406106263399124,-0.047387588769197464,-0.5348440408706665,0.843072772026062,0.0,0.0,0.0,0.0,0.0,0.0
1240,1724915683215437417,0.026909664273262024,-0.20146527886390686,0.18641328811645508,-0.030400380492210388,-0.0479312464594841,-0.5343624949455261,0.8433475494384766,0.0,0.0,0.0,0.0,0.0,0.0
1242,1724915683227442139,0.027439847588539124,-0.2020421177148819,0.18634317815303802,-0.03176986798644066,-0.04825638234615326,-0.5342835187911987,0.843328595161438,0.0,0.0,0.0,0.0,0.0,0.0
1244,1724915683234927575,0.028022855520248413,-0.202517569065094,0.18640552461147308,-0.030277328565716743,-0.049366243183612823,-0.5347539186477661,0.8430210947990417,0.0,0.0,0.0,0.0,0.0,0.0
1246,1724915683246133333,0.028551990166306496,-0.20301592350006104,0.1864558756351471,-0.030860397964715958,-0.05005473643541336,-0.533820390701294,0.8435508012771606,0.0,0.0,0.0,0.0,0.0,0.0
1248,1724915683255016790,0.0292710829526186,-0.2034517377614975,0.1868898719549179,-0.031948816031217575,-0.04778336361050606,-0.5347204208374023,0.8430718779563904,0.0,0.0,0.0,0.0,0.0,0.0
1250,1724915683265114299,0.029870815575122833,-0.20404812693595886,0.18690496683120728,-0.03312395513057709,-0.04823318123817444,-0.534089207649231,0.8434008955955505,0.0,0.0,0.0,0.0,0.0,0.0
1252,1724915683276674739,0.030425429344177246,-0.20455259084701538,0.18657562136650085,-0.034193627536296844,-0.049003224819898605,-0.532483696937561,0.8443285822868347,0.0,0.0,0.0,0.0,0.0,0.0
1254,1724915683285300024,0.031183093786239624,-0.20502297580242157,0.18643860518932343,-0.032849088311195374,-0.04893676936626434,-0.5322021245956421,0.8445631861686707,0.0,0.0,0.0,0.0,0.0,0.0
1256,1724915683296870353,0.031883276998996735,-0.2056298702955246,0.18626096844673157,-0.03241082280874252,-0.049088720232248306,-0.531445324420929,0.8450477123260498,0.0,0.0,0.0,0.0,0.0,0.0
1258,1724915683304940150,0.03271812945604324,-0.20625004172325134,0.1862136870622635,-0.029779130592942238,-0.04928978160023689,-0.53145831823349,0.8451246619224548,0.0,0.0,0.0,0.0,0.0,0.0
1260,1724915683314940246,0.03340272605419159,-0.20675429701805115,0.18632346391677856,-0.028726594522595406,-0.050013478845357895,-0.5315847992897034,0.8450390696525574,0.0,0.0,0.0,0.0,0.0,0.0
1262,1724915683346427089,0.033929243683815,-0.20731417834758759,0.18649053573608398,-0.029577191919088364,-0.04966527596116066,-0.5321682095527649,0.8446629643440247,0.0,0.0,0.0,0.0,0.0,0.0
1264,1724915683346901941,0.03434481471776962,-0.2077319622039795,0.1866043657064438,-0.030220957472920418,-0.04954294115304947,-0.5325013399124146,0.8444374799728394,0.0,0.0,0.0,0.0,0.0,0.0
1266,1724915683347392598,0.034813292324543,-0.2081800401210785,0.1865549087524414,-0.030450593680143356,-0.04940711334347725,-0.5320551991462708,0.8447182178497314,0.0,0.0,0.0,0.0,0.0,0.0
1268,1724915683453708769,0.035212576389312744,-0.20860901474952698,0.18664737045764923,-0.032376211136579514,-0.04953768476843834,-0.5319063067436218,0.8447328209877014,0.0,0.0,0.0,0.0,0.0,0.0
1270,1724915683454463989,0.03571859002113342,-0.2089882791042328,0.18650640547275543,-0.03282524272799492,-0.0502154640853405,-0.5306442379951477,0.8454688787460327,0.0,0.0,0.0,0.0,0.0,0.0
1272,1724915683456005102,0.03630990907549858,-0.20951779186725616,0.1863185614347458,-0.02941635437309742,-0.05010898411273956,-0.5305566191673279,0.845655620098114,0.0,0.0,0.0,0.0,0.0,0.0
