seq,stamp,px,py,pz,ox,oy,oz,ow,lx,ly,lz,ax,ay,az,timestamp,wx,wy,wz,aa_x,aa_y,aa_z,roll,pitch,yaw,vx,vy,vz,jx,jy,jz,fw
28,1724915677145244265,-0.0685136690735817,-0.125279352068901,0.1908513605594635,-0.0268716141581535,-0.0434432104229927,-0.3997691869735718,0.915191411972046,0.0,0.0,0.0,1.2783591346704954,0.3120505142381181,-0.0145656373120076,0.0,0.0,0.0,0.0,9.7627770227312,-17.35789767553119,22.045086076782596,-0.014525617007065,-0.101175116102548,-0.8229350501747624,0.0799919609851753,-0.034660128915183,-0.0046509331424681,-69.60289150284312,19.109126008635588,2.592874181065825,0.0
30,1724915677155083466,-0.0677266120910644,-0.1256203800439834,0.1908055990934372,-0.0268213432282209,-0.0443723574280738,-0.3987490534782409,0.9155932068824768,0.0,0.0,0.0,0.5935222949928298,0.5000690459714114,0.0109461729232094,0.009839201,0.0960579254448338,-0.1707878441669842,0.2169060329717654,15.383363901432045,13.920323819918185,-1.682130484333252,-0.0138013406615245,-0.1028251278863201,-0.8207659341963492,0.0925699934613843,-0.0315898011834407,-0.0047942473756741,282.0821792669889,-155.04119984488463,12.583503743937497,-0.0001214493347614
32,1724915677165050900,-0.0666769221425056,-0.1259042471647262,0.1907563656568527,-0.0248516537249088,-0.0436909757554531,-0.3988984227180481,0.9156165719032288,0.0,0.0,0.0,6.956240914221144,-2.8037486261498556,0.2372501819430818,0.019806635,0.3061435566724588,0.2837888468663419,-0.039442222808368,17.045362863636296,38.05152786428881,-21.75155859596252,-0.0107063415957207,-0.1000015248051952,-0.8211960197303729,0.0915708585523095,-0.0247069092612904,-0.0044275407423564,-3669.690285939272,1471.5385188218963,-206.68102883599892,-0.0001349700597456
34,1724915677221504865,-0.0659010484814643,-0.126092791557312,0.1906700879335403,-0.0252047013491392,-0.0430334955453872,-0.3989085555076599,0.9156335592269896,0.0,0.0,0.0,-1577.6925059099483,656.7729296314465,-84.7758368107834,0.0762606,-0.020744145165268,0.0163731155079782,0.0010367006912097,-6926.185003888846,-18674.933773083616,-3537.90402482467,-0.0118822312511547,-0.0990765799315348,-0.8211475835641607,2.7405618970777255,-1.3002748631574832,0.0730624227046519,-34288.479835898615,88259.23984285118,-4231.7824678579345,-0.0001465658965051
36,1724915677221798222,-0.0650929287075996,-0.1264762133359909,0.1906916350126266,-0.0257964562624692,-0.0436540096998214,-0.399041086435318,0.9155299067497252,0.0,0.0,0.0,-1587.7607513087933,682.7811274702548,-86.02141517621624,0.076553957,-2.0631384373547568,-5.490510248153661,-1.0422264783061608,-4747.552774850193,-13649.900107380392,-1600.989675560249,-0.012458792471126,-0.1006908533469255,-0.8214350769645622,2.2752581954280657,-1.10657029976187,0.048061512979153,261360.8694252074,-12722.800066355936,-2676.672494702106,-5.799101164593207e-05
38,1724915677222655000,-0.0643433257937431,-0.1269227266311645,0.1906692832708358,-0.0268205944448709,-0.0452391467988491,-0.3980306982994079,0.9158633351325988,0.0,0.0,0.0,-623.9469492991875,418.1969874858784,-84.38792584688724,0.077410735,-0.5891503757263998,-4.368512218847384,2.4788428234722493,-1560.2608349080604,1776.8660229301138,1062.2846454213825,-0.0131870483145963,-0.1044061707411591,-0.8192520312737571,0.9108307063959132,-0.4653318109938595,-0.0276363746198455,980172.163384053,-343827.28447745065,13008.19935595389,-0.0001063565019225
40,1724915677223520482,-0.0635236129164695,-0.1272766590118408,0.1906440109014511,-0.0291575323790311,-0.0453623607754707,-0.397804707288742,0.915884017944336,0.0,0.0,0.0,97.81784442608728,90.00852283448216,-63.42367457512472,0.078276217,-4.807712833798006,-2.4221087021304433,0.7339856424591904,2177.9967510692168,5342.715041988203,523.4354563928691,-0.0174186665557499,-0.106492498060755,-0.8185810601142475,1.217605711302717,-0.3921042555126348,-0.0972070823818,102086.00859591694,-160319.70726572454,42853.68652371586,-0.0001058994964854
42,1724915677224168075,-0.0626040324568748,-0.1275224238634109,0.1905481070280075,-0.0288586542010307,-0.0445908084511756,-0.397145003080368,0.9162176251411438,0.0,0.0,0.0,-190.7007228049815,92.24562439851644,-26.644090192513943,0.07892381,0.0199616208541122,2.536918873881463,2.303489371982907,5389.976799824014,5103.47703841036,1314.7412489315343,-0.0175608706393824,-0.1048237721012226,-0.8171101138448538,1.1565958112321226,-0.3311989750971023,-0.1300616500353939,-353453.6539077731,91.69509936791474,50700.333172881314,-0.0001711236572588
44,1724915677225821759,-0.0618036873638629,-0.1278661340475082,0.190409168601036,-0.0286264233291149,-0.0445214547216892,-0.3972968459129333,0.9161624908447266,0.0,0.0,0.0,-386.4023377343291,78.19678355386675,31.464538748183067,0.080577494,0.2139086241193817,0.1907207623879057,-0.2048411870676543,102.52816536137756,-1240.081964102916,-1328.7993478851247,-0.0171709787379271,-0.104514317753527,-0.8174562297814493,0.4337748766432149,-0.1862679356666174,-0.0723978347434046,-99622.1777166042,-8220.464203328276,30465.36013265602,-0.000215433190645
46,1724915677237457367,-0.0608665123581886,-0.1282669454813003,0.1905180811882019,-0.0265912897884845,-0.0429433993995189,-0.3987661898136139,0.9156606793403624,0.0,0.0,0.0,-12.90561285669154,5.062345838604758,3.3244550416220853,0.092213102,0.1990053661331869,0.3908739300431863,-0.2734638227713249,-10.420858819393672,-15.904928171477756,12.203875055840582,-0.0145215253815877,-0.100017248696725,-0.820726948435187,0.0881595082531698,-0.0496260694507082,0.0149127643942019,15053.021429619836,-3046.9106159579464,-1326.33558844576,2.128383075901752e-05
48,1724915677246792413,-0.0599865019321441,-0.1288438886404037,0.1906988769769668,-0.0264545995742082,-0.0430320054292678,-0.3988612294197082,0.9156189560890198,0.0,0.0,0.0,-0.0516210462788198,0.8734514538015383,-0.8777607322785356,0.101548148,0.0332733538774733,-0.0055468680071592,-0.0239715890687287,23.73856103297899,-28.119787049619553,23.404514743101196,-0.0141885280538652,-0.1000722123736911,-0.8209509068668569,0.0934883169207241,-0.0524057304651206,0.0146465836488598,605.3404876399367,-184.8852154420942,-240.5021687212524,8.134305739216772e-05
50,1724915677255369810,-0.0591907724738121,-0.1292193233966827,0.1907873004674911,-0.0244966465979814,-0.0445043072104454,-0.3981493413448334,0.915912926197052,0.0,0.0,0.0,-0.9406998418119286,1.367024103366156,-1.2883205710982597,0.110125545,0.5638992322914089,-0.1336765639654127,0.1505975991305406,14.09303429732548,-2.2276280554585717,11.11901881159718,-0.0094835351582058,-0.101203456112007,-0.8196391659148959,0.0881397853171184,-0.0356831431282795,0.0004245649872078,-33.562390043288886,-24.16258752689161,37.48432732676802,8.46591878984074e-06
52,1724915677265278820,-0.058370403945446,-0.1294803321361541,0.1906783580780029,-0.0238399356603622,-0.0448410883545875,-0.3974095582962036,0.9162350296974182,0.0,0.0,0.0,-0.4709102186358285,0.1922795316381829,0.0601394063792193,0.120034555,0.1567044972080349,-0.0102493360526949,0.1550802107076221,-39.10840645137982,1.69168783628478,-4.070046084314061,-0.0080869522578846,-0.1012915075710806,-0.8180936881609715,0.0751879831583162,-0.0288063643803155,-0.008108639246652,75.92261110281493,-92.79043083311592,90.58455831623436,-0.0001809503073461
54,1724915677276754687,-0.0576085932552814,-0.1298436820507049,0.1906236559152603,-0.0255546048283576,-0.0449324510991573,-0.3972052633762359,0.9162729382514954,0.0,0.0,0.0,0.7793092863563853,-0.5301718458907332,0.4949631870619922,0.131510422,-0.2657170885735186,-0.1338994571105289,0.048267714065311,-4.6974472607857525,0.0532325607376789,-30.43137825293158,-0.0111945311557528,-0.1028227116705696,-0.8175220330092009,0.080896890545977,-0.0332677976126705,0.0048259741003953,38.11204965035809,-44.93073624992622,-72.76281997388901,-0.0001316578992005
56,1724915677285864709,-0.0567666627466678,-0.1301583647727966,0.1907369941473007,-0.0258945003151893,-0.0450688004493713,-0.398807018995285,0.9155606627464294,0.0,0.0,0.0,0.6142648465082274,-0.8091493433158403,-0.9681415555173394,0.140620444,-0.0762788678098417,-0.055107122362767,-0.3817283697965918,19.83275861996048,11.325371310734203,-18.35510243394741,-0.0115302586950308,-0.1033642202870686,-0.8210121949883429,0.0900346482679155,-0.0391203059420472,0.004763436455109,-25.24295500713411,27.543936489156593,-91.59415655516958,3.440031820325488e-05
58,1724915677296032782,-0.0558782331645488,-0.1306080967187881,0.1906982958316803,-0.0251230970025062,-0.0449116677045822,-0.3999140858650207,0.9151068925857544,0.0,0.0,0.0,0.2767178418497504,0.1310580271444381,-1.1162859240804823,0.150788517,0.1144674235254196,0.0904245439855659,-0.2409996368246976,8.092477955998076,-3.7105399479747856,19.118522859308403,-0.0101122375378685,-0.1024713512804733,-0.8234856213610685,0.091868274518744,-0.0492399483180205,-0.0159902357582577,-48.19609647737714,109.8241404168543,94.10835758881343,-0.000130502258885
60,1724915677304952634,-0.055023618042469,-0.1310865134000778,0.1904603242874145,-0.0248454120010137,-0.0454405769705772,-0.4000029861927032,0.9150494933128356,0.0,0.0,0.0,-0.2705519886898675,1.2464932716660582,0.573536330681366,0.159708369,0.103184450812028,-0.0837015719207204,-0.0291635367229772,6.366987049604816,2.5172413195692034,12.235715170284012,-0.0091657426745167,-0.1032204271597758,-0.8237398730579314,0.0950907646157173,-0.0392578279474271,-0.0187110928795561,-55.81352392353701,26.919929471963915,163.61477857557009,-0.0003299238484336
62,1724915677315068797,-0.0540699213743209,-0.1313187032938003,0.1903624534606933,-0.0232620686292648,-0.0450607389211654,-0.4001416862010956,0.9150491952896118,0.0,0.0,0.0,-0.7716036688890568,0.3929711868998229,1.9323408721270745,0.169824532,0.2551542878674015,0.1946084119105252,-0.0374741660657073,-9.292863405907138,6.833592466224984,3.0438243782176597,-0.0065440787430545,-0.1012547633712243,-0.8241364083716208,0.0851049535772281,-0.0251864153223202,-0.0028293395221865,-3.2492183770707577,-102.95661900511038,57.67093536906725,-0.0001765182029262
64,1724915677326198713,-0.0532349944114685,-0.1316263824701309,0.1904147863388061,-0.0239777229726314,-0.0446409918367862,-0.3999577164649963,0.9151317477226256,0.0,0.0,0.0,-0.241049333010098,-0.980499368144138,1.6356240855435862,0.180954448,-0.1460221414994613,0.0174604108600615,0.043735483309928,-30.29026354639321,-10.329458620169916,-19.501766982876894,-0.008218555033366,-0.1010568475495782,-0.8236486248878514,0.0791560552034376,-0.0330335938404227,0.0231151632617478,15.737081278594037,-23.344160880438704,-131.66471077712094,-2.4628965868560007e-05
66,1724915677335557806,-0.0524615868926048,-0.1319779604673385,0.1907760351896286,-0.0256159640848636,-0.0441119112074375,-0.4015303552150726,0.9144241213798524,0.0,0.0,0.0,-0.345070926639953,-0.4115109220874819,-0.4230317763742278,0.190313541,-0.3842226494784912,-0.0352447697124665,-0.349686322634286,9.749100178045309,-10.728612537129726,-21.2770717838685,-0.0114824215148076,-0.1014189387247659,-0.8269348633992704,0.0792094841425488,-0.0443779475746257,0.0329500285580071,25.919388779270747,92.143647476895,-192.17348615882923,0.0002839597991843
68,1724915677345332295,-0.0517223440110683,-0.1324812769889831,0.1910404413938522,-0.0256037916988134,-0.0451519712805748,-0.4030354619026184,0.9137112498283386,0.0,0.0,0.0,0.286331666738215,0.8091606313798332,-2.017743255143287,0.20008803,0.0704062154883891,-0.1921450428348558,-0.3457417602774551,19.0714573213371,-9.311024094025498,17.856775142167173,-0.0104491810681835,-0.1033340007166478,-0.83031115567075,0.072255720030093,-0.0402273704442288,0.0137693993791927,85.68076755416904,62.82519221879374,-47.10325034938674,0.0001753738828863
70,1724915677356548429,-0.0509553402662277,-0.1327874809503555,0.1910239458084106,-0.0264508780092,-0.0460600815713405,-0.4026167094707489,0.9138263463974,0.0,0.0,0.0,1.5186954240283574,0.7151017726223088,-1.05248586390584,0.211304164,-0.0688538911039398,-0.2098193948456314,0.0791722632417934,21.44229418662819,28.283163261993455,22.517125697254414,-0.0113172771396,-0.1056775498908573,-0.8293925040579091,0.0883087217004963,-0.0262026974681681,-0.0095752599266436,-27.961759353755635,-18.565561243910167,81.19849395893563,-9.079343698867452e-05
72,1724915677365510057,-0.0500212833285331,-0.133014440536499,0.1908801048994064,-0.0245240684598684,-0.045645385980606,-0.4018709361553192,0.914229154586792,0.0,0.0,0.0,0.2811670398993682,0.4758357338732362,-0.359622982308908,0.220265792,0.365739565738925,0.2574426200571522,0.1709298063493557,18.075673967935828,30.452860176207537,2.2756582126159333,-0.0081979680486357,-0.1033556217948343,-0.8278751029716591,0.1025448972946501,-0.0236271242928998,-0.0116403070341277,-120.37970631012185,-45.98016907560873,45.761789601067285,-0.0002211179588148
74,1724915677375666606,-0.0489991605281829,-0.1332348585128784,0.1908126473426818,-0.0229758955538272,-0.0445668287575244,-0.4013881385326385,0.9145345687866212,0.0,0.0,0.0,-0.7375936780418995,-0.2131063444778416,-0.2580368281246643,0.230422341,0.1991762140251281,0.3170987981048935,0.1023789505935889,-12.86301282302948,-7.1712100494199795,-2.435381649244249,-0.006278797472453,-0.100127536250305,-0.8268532539643897,0.0903513302075889,-0.0166252313752535,-0.016779925148314,-32.82659281708344,-89.36844827529514,24.45707781173776,-0.0001487338805453
76,1724915677386988818,-0.0481060035526752,-0.1333590149879455,0.1904947012662887,-0.022338293492794,-0.0444041639566421,-0.4007032513618469,0.91485857963562,0.0,0.0,0.0,-0.2575639363690802,-1.4967767534682348,0.2013179991750613,0.241744553,0.0981760618856677,0.0712568759275997,0.1292554092004558,-31.542844908526178,-29.106440575620415,-39.57952407636204,-0.0053131782681402,-0.0993122855993499,-0.8253872410099449,0.0878435662670464,-0.0304291529890452,-0.0165712640970614,-35.44054333677294,17.512344872478167,17.019871498868127,-0.0003824448173608
78,1724915677395455424,-0.0473055504262447,-0.1337398737668991,0.1904272735118866,-0.023834915831685,-0.0447788834571838,-0.4025655388832092,0.9139845967292786,0.0,0.0,0.0,-1.0504327521552876,-0.5198218521617519,0.1963104023003018,0.250211159,-0.3121116234995538,-0.2219838604347664,-0.4714644426197676,-2.3866727778121337,-16.618577020685024,-27.326829748559348,-0.0075553618385247,-0.1012173904616772,-0.829386905199379,0.0854344858926339,-0.0448592382618135,-0.0137088756343182,-60.07520569126179,116.13564619035148,1.126795065234896,-0.0001475653581532
80,1724915677405489557,-0.0465565994381904,-0.1341885179281234,0.1902213990688324,-0.0231649558991193,-0.0460339002311229,-0.4035368263721466,0.913511037826538,0.0,0.0,0.0,-1.2540085819365665,0.6543753013799356,0.2280500023273781,0.260245292,0.2118327825314608,-0.1744880403922249,-0.2268842909845642,6.599352529992414,2.609653578169006,15.33290510336451,-0.0051976986627001,-0.102982710492957,-0.8316641517086911,0.0657863918298256,-0.0359889029312014,-0.013424974985007,36.082081788612854,18.99524671700219,-15.332814444099192,-0.000289425455777
82,1724915677415831603,-0.0459706112742424,-0.1344677358865738,0.1901581585407257,-0.0244546271860599,-0.0464270561933517,-0.4043429791927337,0.9131010174751282,0.0,0.0,0.0,-0.2799707957863115,-0.1940638932596117,-0.1276788379098833,0.270587338,-0.206165106671,-0.1701370329799908,-0.1646921029571326,-3.112083904890537,11.711617432514574,13.546118395571304,-0.0071534542264915,-0.1047527708928091,-0.8333657447734593,0.0603228492650189,-0.0316691586028783,-0.0089371852551227,25.811525599069697,-61.12485085574942,-58.76363440277635,-0.0001239396410112
84,1724915677425935938,-0.0453249365091323,-0.1348338425159454,0.1900399923324585,-0.0237408503890037,-0.0464129745960235,-0.4041048288345337,0.9132258892059326,0.0,0.0,0.0,-0.6941248820837687,-0.6052349228483525,-0.9620020590465136,0.280691673,0.130670021592158,0.0596658970802964,0.0465448041422471,21.156754618263065,10.565845810919212,13.28908135834461,-0.0058820087919302,-0.1041468149086514,-0.8328966876297288,0.0599453052020035,-0.0396693095817468,-0.0157716094669773,-12.744190802938324,-41.666650676366714,-36.296390227223185,-0.0001894776177393
86,1724915677435837066,-0.0447697862982749,-0.1352599561214447,0.1898442804813385,-0.0226688887923955,-0.0466361977159976,-0.4035877287387848,0.9134703874588012,0.0,0.0,0.0,-0.5462873942673214,-1.0272326192942185,-0.8724223971883882,0.290592801,0.2219854895311924,0.0461368079424333,0.1042264449724522,5.215686911487333,7.690285864042137,-3.451601404626545,-0.0037914942012118,-0.1036850211212219,-0.8318613554365687,0.0467007922445477,-0.0438522053128975,-0.0280675704472539,46.001738405401895,-7.036320664641419,-25.347427750879113,-0.0002654888668907
88,1724915677445664306,-0.0444022268056869,-0.1356988549232483,0.189487487077713,-0.0211966913193464,-0.0461599454283714,-0.4036475718021393,0.9135034680366516,0.0,0.0,0.0,0.2088400203375511,-0.7492890122058511,-1.457001673733512,0.300420041,0.2341569482496142,0.2100493168430353,-0.0201838020184459,-3.051179984302289,15.867978176902104,-23.462713661726568,-0.0014693833734293,-0.1016213416623908,-0.8320661928976311,0.0490514344062193,-0.0598458962764798,-0.0330374720485018,16.52492614163411,85.69953858291787,-96.61285367870175,-0.0004130130563974
90,1724915677455451029,-0.0438086353242397,-0.1364325433969497,0.1891960203647613,-0.0196840744465589,-0.0449197888374328,-0.4052339196205139,0.9128966331481934,0.0,0.0,0.0,-0.2172905893360881,0.649031857331178,-2.764380966822716,0.310206764,0.1624866550276948,0.3574363623440613,-0.3550967486593296,-14.244735719969414,-14.90968345858368,7.401473683970765,0.0004692509178999,-0.0981249475731089,-0.8355606304304515,0.0507994275184948,-0.0586197493502043,-0.0565682206922613,1.682080832730103,57.81330783006008,-36.1559615204053,-0.0003823565847586
92,1724915677465559969,-0.0433979928493499,-0.1368544250726699,0.1883444786071777,-0.0201848484575748,-0.0452843680977821,-0.4045232236385345,0.9131828546524048,0.0,0.0,0.0,0.2719296419272634,0.3452231760411934,-2.1125269932469237,0.320315704,-0.0537854032382436,-0.1062200740542202,0.1543380193571152,-4.625746121164671,-28.454182858265597,28.992001473421308,-0.0002288831761864,-0.0991989101841436,-0.8339929595366242,0.0444689632039771,-0.046589901804305,-0.0882724970445512,92.27966622144162,-43.82073444789125,157.25220408098875,-0.000905621114217
94,1724915677475803697,-0.0429025292396545,-0.1373820900917053,0.1873983442783355,-0.020346563309431,-0.0464263893663883,-0.4034115076065063,0.9136136174201964,0.0,0.0,0.0,1.6727559943443486,-0.2465730702098425,0.4612960326389741,0.330559432,0.0728908721875907,-0.2169570795354027,0.2291597730390834,13.19426161634332,15.13073274220441,17.59382845384979,0.000281531562285,-0.1014214245095372,-0.8316337165630822,0.0565776561627022,-0.0518227920629641,-0.099285967195863,51.274588865210426,-7.499664441790233,185.14990901790196,-0.0010145523667511
96,1724915677485245363,-0.0422968938946723,-0.1378740966320037,0.1864006668329239,-0.0192811880260705,-0.0461153797805309,-0.4012888371944427,0.9145867824554444,0.0,0.0,0.0,1.4130349314260542,0.120104019433493,1.634116583731691,0.340001098,0.2046725668282308,0.1516509338362053,0.4848197375923927,3.951329393856609,40.96399946858052,-8.635812616055535,0.0017512838276398,-0.0999942392508695,-0.8270314552757905,0.0766415011500476,-0.051851108501002,-0.0815598533005719,-103.90945080040105,55.947924234106864,6.888855973069857,-0.001069969589291
98,1724915677495997492,-0.0413198210299015,-0.1384284347295761,0.1858189105987548,-0.0173288285732269,-0.0433616116642952,-0.4015423059463501,0.914649248123169,0.0,0.0,0.0,-0.6397091934157437,0.9311891977228112,0.2715578466889887,0.350753227,0.1246378925389016,0.6156525432922557,-0.0453287478044412,-3.791783527184659,15.756995947210594,-27.06074176594895,0.0031371138416065,-0.0933734685053933,-0.8275047786647765,0.0831165987114213,-0.0490524011503996,-0.0669689277476255,-136.7022372189118,77.20770149817034,-58.69500871344432,-0.0006800004805425
100,1724915677505152111,-0.0406193733215332,-0.1388579756021499,0.1851055771112442,-0.0158051755279302,-0.0413011722266674,-0.40206179022789,0.9145440459251404,0.0,0.0,0.0,-1.468605804986575,1.6518147539804615,0.264481024300998,0.359907846,0.1183895916796391,0.5463538912770398,-0.1196668240525134,-2.3557252462372644,-22.213134112996073,-1.7054476351200965,0.0043190539898687,-0.0883677603324082,-0.8285861620174699,0.0675801721724864,-0.0352984471415789,-0.0729435632334425,10.520483564201374,5.773195851781104,-7.047709070255082,-0.0007812387699091
102,1724915677515170810,-0.0400402508676052,-0.1390841901302337,0.1844293475151062,-0.0151124196127057,-0.0407124683260917,-0.4023630023002624,0.9144496917724608,0.0,0.0,0.0,-0.2550982253162885,0.9098725085132024,0.1250744839908719,0.369926545,0.0764428111365928,0.163252754297816,-0.0664187974454334,-6.420628856744965,-18.924024113458003,5.297365902617215,0.0051426388004143,-0.0867290526839705,-0.8292463970164706,0.0553720869417944,-0.0171112437542078,-0.0602382252850093,109.83966409130632,-104.1631810121182,-91.0484670370254,-0.0007234206663568
104,1724915677526687932,-0.0394347235560417,-0.1392088681459427,0.1838316768407821,-0.0147879095748066,-0.0395916290581226,-0.4024162590503692,0.9144807457923888,0.0,0.0,0.0,0.8605343494516955,-0.688399527509207,-1.9447669956540183,0.381443667,-0.0270788242399857,0.201020894005291,-0.005640062045331,-12.317623087400252,7.256712635898417,17.58715099507523,0.0048353494096463,-0.0844135699960123,-0.8292999582414022,0.065189591948914,-0.0186200193431975,-0.073931815418053,10.21057028194022,-57.90552758938135,9.350763303194192,-0.0006395208261734
106,1724915677535327093,-0.0387898012995719,-0.1394202411174774,0.1830501556396484,-0.0149358818307518,-0.0381640531122684,-0.4015676379203796,0.914911925792694,0.0,0.0,0.0,0.3871782240589341,-0.6646006895685941,-0.6387463610220432,0.390082828,-0.155066679917153,0.2894878472701502,0.2260707615507972,-0.1668535765788574,20.730952637601643,17.840814820997785,0.003332045057745,-0.0819206255592569,-0.8273298280348393,0.0726764257080803,-0.028179345242016,-0.0956307639604503,-62.602635675128155,29.93159961471039,169.0612476198075,-0.0008284525433213
108,1724915677545485760,-0.0380750931799411,-0.1397508531808853,0.1820169389247894,-0.0136336721479892,-0.0352718718349933,-0.4002147614955902,0.9156408905982972,0.0,0.0,0.0,-0.3420836111077707,-0.0358964626317304,1.2923557841200446,0.400241495,0.0182149379666799,0.6254029702249534,0.3000376188275465,6.296180231110334,15.733948183366849,-4.610505287912791,0.0032749065727309,-0.0755774585674536,-0.8242514084257442,0.0708825506522428,-0.0296519935949044,-0.0797463785739003,-69.20545739462165,42.0586214322969,69.6100687179123,-0.0010862157197148
110,1724915677557235078,-0.0372350960969924,-0.1400599330663681,0.1813784092664718,-0.0125905089080333,-0.0320463366806507,-0.3998163342475891,0.9159483909606934,0.0,0.0,0.0,-1.1201177166068166,0.1887953396534187,0.4729656832284394,0.411990813,-0.0540453889263834,0.5747287281790945,0.0842711097083194,19.496371767721975,-30.131662476606017,8.416217838289104,0.0025668653190921,-0.0688276927493154,-0.8232388983819048,0.0646143443880866,-0.0285916202203395,-0.0682484192579053,285.83630925722815,-419.80108157568384,-264.91568232400226,-0.0006929203691289
112,1724915677565295947,-0.0367522910237312,-0.1403030455112457,0.1807513833045959,-0.0114203561097383,-0.0317278392612934,-0.3986853957176208,0.9164676666259766,0.0,0.0,0.0,3.130956294790912,-5.6225658372621865,-2.7418743659618805,0.420051682,0.2449461674386885,0.1890553468299886,0.3002175457289015,30.76880647851339,-40.805433898999816,21.730049617968714,0.0043760019325015,-0.0673121555743079,-0.8208080254401011,0.0523410066566448,-0.0265247762323225,-0.0672322657257447,-755.8239091548597,-2570.131326368397,11997.033826648929,-0.000660520506476
114,1724915677608893210,-0.0362515486776828,-0.1406023800373077,0.1803088635206222,-0.008942736312747,-0.0311456285417079,-0.3975445032119751,0.9170106649398804,0.0,0.0,0.0,-332.393391495757,-553.7065503014683,3443.1898755727675,0.463648945,0.0954619014111626,0.0699845260189717,0.0545959098970004,83438.111763211,34534.74106158816,31672.789898272324,0.008379779886694,-0.0642762681756443,-0.8184032553354013,1.2861283446246432,-1.657891465650323,-0.8630181865493114,-4133003.905109003,-3261581.8599250405,-6155821.752539829,-0.0004789553565614
116,1724915677609147425,-0.0359227061271667,-0.1410262882709503,0.1800882071256637,-0.0060273227281868,-0.0311816781759262,-0.3965174853801727,0.9174777269363404,0.0,0.0,0.0,-1389.1800218655856,-1387.665668593724,1869.04556383635,0.46390316,21.430368875555335,8.900429446535023,8.153251879512018,55979.57301219432,62766.721051030065,-19682.83999383635,0.0136950643866484,-0.0620366522977006,-0.816301471153536,1.2010942946769347,-1.7994172817017784,0.0174233074487233,-3784915.698518988,-2207070.21117574,-10013855.453084754,-0.0002526256699403
118,1724915677609381515,-0.0356614738702774,-0.1414759457111358,0.1802831441164016,-0.0015625690575689,-0.0293273720890283,-0.397241860628128,0.9172438979148864,0.0,0.0,0.0,-2194.9725016659704,-1672.9263648906776,-1298.891961561305,0.46413725,28.510834837123618,29.635715272475377,-7.564248472025573,-20365.659082871574,6575.412966286796,-19043.552899438673,0.0204660582685639,-0.0550699727753714,-0.8179561862497364,0.6485554794490156,-2.303373734991567,0.1112777218162364,-1193721.1960125766,558432.8826943994,-10128084.629754808,0.0001691045119201
120,1724915677609614542,-0.0356187634170055,-0.1421014219522476,0.1801417171955108,0.0002875611535273,-0.0285859704017639,-0.3972924351692199,0.9172466993331908,0.0,0.0,0.0,-1951.556969574252,-1130.5815572894758,-2869.177336319374,0.464370277,12.024581012320205,12.145858852899106,-0.8443426243741559,-68032.4974609459,-72172.85939963056,27706.489142102575,0.0232753546233288,-0.0522360342495785,-0.8180912113779542,0.1754344897149629,-2.581887589426566,-0.5857055861908906,1016761.455731334,2245333.237177058,-6452091.862515402,-0.0001573223872035
122,1724915677615281987,-0.0357066541910171,-0.1426403820514679,0.1797453314065933,0.002748757135123,-0.0284678861498832,-0.3964713811874389,0.917601466178894,0.0,0.0,0.0,-23.67619607962201,284.1380576153638,61.300687234107784,0.470037722,0.7883547235849704,0.3869484019760448,0.2906655845387967,-1304.29740698315,-1350.2567847917244,125.2499285974952,0.02765613389764,-0.0500856790538505,-0.8163863108059938,-0.0274301992328083,-0.0825407883906441,-0.0551059764893899,219280.08936413095,150361.2744710211,330004.61611316557,-0.0004004013224472
124,1724915677625458182,-0.0362036302685737,-0.143250897526741,0.1794556230306625,0.002066157059744,-0.0288218986243009,-0.3955776691436767,0.917977809906006,0.0,0.0,0.0,-1.0815640227090442,0.5602952209003487,1.4140100461877774,0.480213917,-0.0907198417648604,-0.1144442402139064,0.1945100844734198,-52.06714756416234,-12.560139579290738,-13.595886155681582,0.0266341599481628,-0.051303578262024,-0.8144367280870061,-0.0469351588887478,-0.0572724896921057,-0.0218764618475546,1146.5188084878537,-14128.355033100574,-3089.1660045744384,-0.0002737197738365
126,1724915677635786231,-0.0366684421896934,-0.1438138782978058,0.1792987883090973,0.0010779169388115,-0.0276062786579132,-0.3955653607845306,0.9180222749710084,0.0,0.0,0.0,-0.4962566639100094,-1.3495806977767395,-1.1848805922181196,0.490541966,-0.2687422835177189,0.1406448457842939,0.0106233969554072,34.992095401270475,25.813849825380977,10.414131035180382,0.0238511714433637,-0.0498542333578856,-0.8142903375062401,-0.0493513145117334,-0.0716406804629912,-0.026679251778658,-10.87110470485461,-24.569154456537703,-120.32179364880132,-0.0001438207066036
128,1724915677645463659,-0.0371854491531848,-0.1446625143289566,0.1789363771677017,0.0042097638361155,-0.0268689151853323,-0.393856406211853,0.9187695384025574,0.0,0.0,0.0,-1.2139245375751035,-0.1333071116608839,-1.1585720838536766,0.500219394,0.5434919595784197,0.4005687283929081,0.3672869359080109,39.56665510630612,14.517292288729244,20.09741046144032,0.0289353328002818,-0.0460728948752345,-0.8106305790792875,-0.0565324255174801,-0.0843239229612509,-0.0446733597628892,-85.34605554296887,75.30072164367658,73.3450715992843,-0.0003460312180995
130,1724915677655214504,-0.0377672277390956,-0.1454516500234604,0.1784297972917556,0.0071759507991373,-0.0259391572326421,-0.3919948935508728,0.9195736646652222,0.0,0.0,0.0,-2.156032009219808,0.1059566087590448,0.2504971946483945,0.509970239,0.4934306196194959,0.4208717401328802,0.3986114271889574,-16.779981033246116,-0.9699647811870769,-7.074952888703452,0.0335696988777469,-0.0420924882635523,-0.8066135831717982,-0.0730053222481261,-0.0740570849964479,-0.0490850123542205,-60.617501055811815,-65.14419975693676,139.32568838103128,-0.0004804518773409
132,1724915677665987032,-0.038712453097105,-0.1461676359176635,0.1779351532459259,0.0088000213727355,-0.0244613960385322,-0.3909645080566406,0.920038640499115,0.0,0.0,0.0,-2.3805839702243556,-1.663139380235631,1.6897181429887382,0.520742767,0.1740665468120848,0.3740983964506599,0.1999627485530371,6.0476313755132765,0.7084402564199586,-8.117749580431635,0.0353528619396823,-0.0381391125265192,-0.8043201271655928,-0.1017849678492801,-0.084185697184461,-0.0380207087695882,88.70980725685979,-73.94704623552975,65.29664487166967,-0.0004470269484426
134,1724915677675118278,-0.0397505536675453,-0.1470735222101211,0.1776490956544876,0.0116497157141566,-0.0236091706901788,-0.3900250196456909,0.9204277992248536,0.0,0.0,0.0,-0.7225967679790983,-1.6396303948111446,1.7572800306000071,0.529874013,0.5055598407132295,0.4196571817277447,0.2057344171836101,-0.6288251231282196,-17.119683005730675,-9.599306479174892,0.0398959319801446,-0.0343804854964673,-0.8022972370658955,-0.1212703664725385,-0.1049675998892309,-0.0174626797629571,191.6362646280826,55.35109658904038,-108.25210319917996,-0.0002283664636672
136,1724915677685312853,-0.0410731695592403,-0.1482091844081878,0.1776288747787475,0.0120075065642595,-0.0237958580255508,-0.3900561332702636,0.9204052090644836,0.0,0.0,0.0,1.3455915043288345,-0.4746613541181919,-0.6626133173306068,0.540068588,0.0787991610169114,-0.006509467973383,-0.0085772802888561,-16.752819593572184,-15.41737745497371,-10.264025577099874,0.0407023558055631,-0.0344432700280167,-0.8023873352192905,-0.1125735735715236,-0.114440962696932,-0.0051718232577009,81.8367205772358,92.26284577494346,-203.75404572224917,5.415284857418392e-05
138,1724915677695522173,-0.0420469865202903,-0.1494086533784866,0.1775434762239456,0.0129914684221148,-0.0236257594078779,-0.3900453448295593,0.920400857925415,0.0,0.0,0.0,0.9436191902268556,0.2422414612781516,-2.3991040522425098,0.550277908,0.1644780606232198,0.1058613138791455,-0.0033741969884154,31.066028335211115,29.81936219179899,-1.7792099139556687,0.042381214854456,-0.0333620033317911,-0.8023769397143268,-0.0938005240515602,-0.1146391246489582,-0.0310377065701583,-60.864581420132566,38.41926583042588,-41.8759073145453,-2.6475126389084663e-05
140,1724915677705363114,-0.0429550409317016,-0.1505097895860672,0.1770229637622833,0.0172086339443922,-0.0223214048892259,-0.3901178538799286,0.9203335046768188,0.0,0.0,0.0,0.1407891342499123,0.3186620099637034,-1.594993829186567,0.560118849,0.685277412583479,0.577766196883276,-0.0425949981397444,12.18862220506553,1.5909385655428232,6.502030860495594,0.0491298733870032,-0.027663010912277,-0.8025356975029658,-0.0930061189494197,-0.1097732540214453,-0.053371757028934,-25.061465912234468,-23.78357485520628,73.94969859892248,-0.0004544831114023
142,1724915677715788233,-0.0439327359199523,-0.1516307741403579,0.1764612644910812,0.0190985761582851,-0.0226761829107999,-0.3893909752368927,0.9205953478813172,0.0,0.0,0.0,0.5037164796482578,-0.2777125909613263,-0.9097717773800502,0.570543968,0.3624901299195587,0.0823279613668823,0.1410131736133044,-35.997651052125796,-32.158290091987645,13.400936744842037,0.0528676370418044,-0.0268807877206973,-0.8010232215355791,-0.0908750232210056,-0.1083925822812625,-0.0625504891087391,56.25052272795573,-9.15288212768349,45.027063996250966,-0.0004857279858057
144,1724915677725725397,-0.0448082350194454,-0.1527160853147506,0.1757575571537017,0.018698452040553,-0.0230347774922847,-0.3883325457572937,0.9210416674613952,0.0,0.0,0.0,1.2657465050228764,0.0864908391984675,-0.6584105647503842,0.580481132,-0.0429180469545911,-0.0916941500514715,0.2342921994923864,17.611996890721407,2.42673572771601,0.3621123766754071,0.0523787563169223,-0.0279131693702324,-0.7987453602519395,-0.0830345528604201,-0.1150372147181757,-0.0718688358461125,38.57642497917461,58.45085048747611,42.00598895298174,-0.000634638922078
146,1724915677735430915,-0.0455660782754421,-0.1538877487182617,0.1750500500202179,0.0219559744000434,-0.0237928722053766,-0.3875625133514404,0.921274721622467,0.0,0.0,0.0,1.2789104786505483,0.8604367344728319,-0.0923132938908746,0.59018665,0.6816918888234386,0.1208656553595262,0.1522584042732869,33.38914412256702,21.991550229934138,-2.721643796965804,0.0589527565598471,-0.0268241348901608,-0.7972039359749846,-0.0662306633699216,-0.1070394500492826,-0.0756113352302181,-18.913209327891053,27.75008908477444,49.12739185787443,-0.0006341117501438
148,1724915677746374094,-0.046144600957632,-0.1548902839422226,0.1741891354322433,0.0254109147936105,-0.0231284629553556,-0.3864724636077881,0.9216606616973876,0.0,0.0,0.0,0.821840610137889,0.5225892077529251,0.3317811581425385,0.601129829,0.537853004929735,0.362641341499522,0.1931834381638476,-56.1291303017867,-6.081792576038115,-6.422266653746048,0.0647799197729395,-0.0229939774445438,-0.7948478517167834,-0.0578181244850166,-0.0971744872655389,-0.0730027031113138,17.048322076901513,20.89138576120206,37.709072322346735,-0.0007938176768065
150,1724915677755669801,-0.046721164137125,-0.1558375060558319,0.1735552847385406,0.024170322343707,-0.0221957098692655,-0.3862687945365906,0.9218023419380188,0.0,0.0,0.0,1.4447422051366032,1.125533478572799,0.674060827865778,0.610425536,-0.3233273839952396,0.0836255423476423,0.0532418179477226,-27.914266782661663,-16.569495008599016,-9.803443807125532,0.0617620749451621,-0.0222494678060045,-0.7943046401079917,-0.0497592961721067,-0.0953084027064639,-0.0691810409154332,-27.604282843391157,-259.7468200501584,-167.18681711990772,-0.0005721599943034
152,1724915677765939241,-0.0470930114388465,-0.1567414999008178,0.1728335618972778,0.0248885080218315,-0.0221314169466495,-0.3861888647079468,0.9218182563781738,0.0,0.0,0.0,0.087850887966203,-5.224671384289605,-3.3573609834894973,0.620694976,0.124365171316722,0.0660139685902401,0.0121393441591806,30.666598200037413,-0.5665953279628495,-4.013789661295803,0.0630355808637878,-0.0215806341107943,-0.7941378906421044,-0.028367347055904,-0.0732579413096075,-0.0592757182694332,-48.95701523701473,-179.39630002763752,-116.13919828237673,-0.0006717739706368
154,1724915677783355010,-0.047355443239212,-0.1575811207294464,0.1721262037754058,0.0274229198694229,-0.0223260391503572,-0.386581152677536,0.9215772747993468,0.0,0.0,0.0,1.6917216729522977,4.615826553915298,2.7842486207894694,0.638110745,0.2766164183192077,0.0900630466072339,-0.0581000911878175,103.77614675598318,450.2052117867577,-1266.8190950191856,0.0678719240054124,-0.0199492958805557,-0.7950452959770692,-0.0857663282204157,-0.3819783912439476,-0.2453946562432918,579.1752800651808,2375.087711092124,1388.5549289149153,-0.0006612806066745
156,1724915677784960216,-0.04750357568264,-0.1582436561584472,0.1717019975185394,0.0280746798962354,-0.0217674560844898,-0.3882381021976471,0.9208741784095764,0.0,0.0,0.0,2.69348177881432,8.69613149554882,5.1664293639385495,0.639715951,0.4572589187491538,0.8791393136871853,-2.278436580172016,95.2535860892142,428.7111684788292,-1206.32677451351,0.0686738528126293,-0.0182918756279538,-0.7985984839573925,-0.0823128551805745,-0.3712634632097187,-0.2389323031710646,552.6107664864959,2257.6755294524696,1304.6313429464064,-0.0003909084394945
158,1724915677797410534,-0.0475656539201736,-0.1588605642318725,0.1711739152669906,0.0283104814589023,-0.020828828215599,-0.3894565105438232,0.9203740954399108,0.0,0.0,0.0,2.673084194407296,9.356204814624077,4.08504545093257,0.652166269,-0.0256619169201712,0.1463116621438258,-0.2164822657473417,31.49210120568349,-28.824192550576527,71.70332396471281,0.0683987010258988,-0.0162899456611737,-0.8011631254683188,0.0035672499662493,-0.0678293453190583,-0.0644680140104174,-236.94777162414928,-648.4330123293936,-401.6604541175202,-0.0005008885350815
160,1724915677805329078,-0.0474943295121192,-0.1594897359609604,0.1705523580312729,0.0305323433130979,-0.0214532017707824,-0.3898433148860931,0.9201248288154602,0.0,0.0,0.0,-0.3882824284047672,0.6888600029670711,-0.6809655744672551,0.660084813,0.5776593821482641,0.0693356682027158,-0.121660161086378,32.480309789569176,5.553506994979507,4.834131071877803,0.0729876526489143,-0.0156742291602988,-0.8020852852175483,0.0034571935489955,-0.0693636013006191,-0.0821195860153212,-217.689023149958,-613.7223264592357,-220.5033844452883,-0.0005995126595579
162,1724915677815146187,-0.047527939081192,-0.1600478589534759,0.1697020530700683,0.0327883325517177,-0.0207275133579969,-0.3904849588871002,0.9197916984558104,0.0,0.0,0.0,-0.4694760895351975,0.5161332559623824,1.796013301626756,0.669901922,0.3645254153478518,0.3097589406358719,-0.161109829863057,-25.731224219012343,0.9611647818208632,4.049739790843596,0.076585280543768,-0.0125236154224755,-0.803435423424287,-0.0049111974895355,-0.0518587907947667,-0.0699620136645347,19.836323622544136,-30.10154333919077,133.20072672340993,-0.0008209743017322
164,1724915677827723571,-0.0476136803627014,-0.1606196463108062,0.169090449810028,0.0325068309903144,-0.0210043266415596,-0.3903851211071014,0.919837772846222,0.0,0.0,0.0,0.2329217931179873,-0.0640015912303608,1.5519915764406829,0.682479306,-0.0238956986836204,-0.0572939752813372,0.0198343933923403,-14.1498440130265,-4.96030670752249,-38.183183455420085,0.0762822353656222,-0.0132611684485997,-0.803241674994885,-0.0046451609887538,-0.0657826634766785,-0.0383877209247547,7.66476753375653,51.182754446236025,-154.45877788943417,-0.0005794647792129
166,1724915677835044130,-0.0476384311914444,-0.1611877977848053,0.1688530594110489,0.0323685258626937,-0.0208341181278228,-0.3920161724090576,0.9191526174545288,0.0,0.0,0.0,0.0837378230961131,0.7253013849101657,-0.1541938272331353,0.689799865,-0.0561847956168345,0.0096059384379293,-0.4836802765649731,-2.8951599635376875,6.074797407513852,-36.55828293826981,0.0759170874233277,-0.0129218567888317,-0.8067672300314829,-0.0020377198284107,-0.0618068713880015,-0.0311099371152066,-23.94020734979511,56.189930001175696,-204.4080425667392,-0.0002105844996691
168,1724915677848120897,-0.0476337000727653,-0.1616268754005432,0.1684770286083221,0.0320893451571464,-0.0205345209687948,-0.3932764530181885,0.9186307191848756,0.0,0.0,0.0,-0.3125147998192822,0.2540498999396492,-2.1577271416746644,0.702876632,-0.0586414616455683,0.0174761002642086,-0.2090522553867035,10.898331720135358,0.148713924313826,14.867369175753996,0.0751846732985674,-0.0124876403988672,-0.8094762479400202,-0.0073067242557973,-0.0480661985033759,-0.0599507579115865,11.33454936097598,7.712911874599726,77.97235919501342,-0.0003564424412277
170,1724915677856185094,-0.0477307587862014,-0.162086546421051,0.1678384393453598,0.0324378199875354,-0.0205920059233903,-0.3937104940414428,0.9184312224388124,0.0,0.0,0.0,-0.0140504107265307,0.5338198955613829,-0.3792478585592431,0.710940829,0.0843769214844636,0.0164219296121648,-0.1196627262926828,29.497913340952657,18.68883073537969,2.849737202390683,0.075876895794118,-0.0122827709202346,-0.8104285221103519,-0.0093772734226456,-0.049979609651876,-0.0771135141122609,36.391094588335335,13.830889812711003,184.0246974915933,-0.0006106179462088
172,1724915677865115517,-0.0477882102131843,-0.162463441491127,0.16717030107975,0.0350067466497421,-0.0198673661798238,-0.394333153963089,0.9180856347084044,0.0,0.0,0.0,0.3048062983537686,0.4510171296679528,0.9030437339809264,0.719871252,0.4641375843179206,0.3694407478350651,-0.1756550424716166,14.80283954823659,16.25813154175526,-1.7374383341426611,0.0800356709854205,-0.0088713617094181,-0.8117355289019792,-0.0071024427718779,-0.0375865042443654,-0.063203100708562,18.472299802126667,-29.27476050911519,72.08085421427222,-0.0006439705322358
174,1724915677878670408,-0.0478982515633106,-0.162877932190895,0.1665525138378143,0.0359053611755371,-0.0194038059562444,-0.3949531018733978,0.9177943468093872,0.0,0.0,0.0,0.2006589958170292,-0.3573373461035984,0.4089224610179407,0.733426143,0.09444387738615,0.1110229509714993,-0.1059559366128462,27.50597964063678,6.885748619474658,0.7334376695548066,0.0813264189761316,-0.0072556029463482,-0.8130458823105091,-0.0019405169296522,-0.050745210391117,-0.0644302125667586,-56.06931088133373,65.62160852630852,31.249094334489087,-0.0005877237171872
176,1724915677885396438,-0.0478906854987144,-0.1632865518331527,0.1660562306642532,0.0376637168228626,-0.0192508585751056,-0.3952500522136688,0.9175992012023926,0.0,0.0,0.0,-0.337953044365944,0.5020818829444604,0.8450618904818237,0.740152173,0.4622776398295006,0.2439458587506535,-0.1157363642822753,13.927429178220027,5.7135638259337025,-7.55120796872858,0.084439808397605,-0.0055560014051572,-0.8136857810833263,-0.0011921545088209,-0.0511013331630199,-0.0600128671600312,-67.2225559484751,79.67389944113553,31.657082276646054,-0.0004729742347116
178,1724915677895206145,-0.0479355305433273,-0.1636497676372528,0.1656645685434341,0.0379525609314441,-0.0187846161425113,-0.3964767754077911,0.9170676469802856,0.0,0.0,0.0,-0.8134511392064689,0.5954680208150664,0.6808051618363078,0.74996188,0.0157325005641581,0.0989944964830052,-0.2770435400571672,-10.83734493549629,-3.6235689623813303,-9.092400712034683,0.0846071678258652,-0.0043589233007463,-0.8163119258685159,-0.0109343870910096,-0.0382351736549591,-0.0490289038897149,7.725357597607862,-20.12296952247617,-2.7850302750106195,-0.000367489471823
180,1724915677905251068,-0.0481108129024505,-0.1640462726354599,0.1650784462690353,0.0395473726093769,-0.0184370223432779,-0.397765576839447,0.9164488911628724,0.0,0.0,0.0,-0.1578148443056009,0.0884356916334212,0.7964117645421647,0.760006803,0.2636179594151587,0.177310749646938,-0.2927629027401566,2.706094048077368,2.6116582760313545,-8.554716856795169,0.0872644664663008,-0.0023320125224674,-0.8190888418957833,-0.0172573897959895,-0.0396194540641881,-0.046704679771647,41.54417449641722,-32.27973587035628,14.87532059047863,-0.0005495269324312
182,1724915677916068528,-0.0482952520251274,-0.1644765585660934,0.1647088825702667,0.0400891564786434,-0.0176970493048429,-0.4000429511070251,0.9154481291770936,0.0,0.0,0.0,0.0151908617550869,-0.0487677306652956,0.9965410861601732,0.770824263,0.0369349053567153,0.1451607316361228,-0.4667303898719037,-5.946516577468747,-6.890039134019835,0.9896394364003402,0.0876705154614202,-0.000326692431742,-0.8239812320552127,-0.0134700115766255,-0.0360271874556268,-0.031507274466457,-3.5064203915187457,-2.3020460880190408,-3.6394312521623218,-0.0003307622867967
184,1724915677928175112,-0.0484098196029663,-0.1648619174957275,0.1643634289503097,0.0410666465759277,-0.0180023703724145,-0.4012604355812073,0.9148658514022828,0.0,0.0,0.0,-0.2914666571888251,0.0640243500464388,0.6524975567732652,0.782930847,0.168301837052545,0.0086597340757685,-0.2234385240269468,-33.608504662100124,-4.2713527229824075,-20.098092059399068,0.0897084979590031,1.7333189796909243e-05,-0.8266664305417717,-0.0178241301448478,-0.0417778367301746,-0.0249755018979112,30.5629428828215,38.140416871214185,-30.478158513904223,-0.0003131260813653
186,1724915677934982831,-0.0485631674528121,-0.1651844084262848,0.1642070263624191,0.0403884202241897,-0.0175954811275005,-0.4028739631175995,0.9141945838928224,0.0,0.0,0.0,0.1305595181831024,0.4340136623193271,0.4371239204682089,0.789738566,-0.2306896918398235,0.0063918921306284,-0.5141264589258718,-30.806684207672788,-2.8962752308217365,-15.824290130779904,0.0881373455333195,0.0003714987526031,-0.8301487491926955,-0.0195473461256878,-0.0392785387610024,-0.0201010031128641,46.32128109553644,21.162995683922425,-37.768872200794945,-0.0001266292307935
188,1724915677946953326,-0.0487344712018966,-0.1654842495918274,0.1640268862247467,0.0401265695691108,-0.0179776698350906,-0.4036494791507721,0.9138565063476562,0.0,0.0,0.0,0.3551955901224825,-0.0111622055853346,-0.1440620256070006,0.801709061,-0.0142683708801571,-0.0822285397829279,-0.1378609341257527,7.377727444165227,6.736547372429648,-0.7079924881491984,0.0879666225467427,-0.0004638832988144,-0.8318791504923112,-0.0099084361521701,-0.0326753133811301,-0.0207388878585437,-8.984565265050426,-10.981751751656512,1.2490980523332151,-0.000150627048531
190,1724915677955229243,-0.0487912856042385,-0.1657983064651489,0.1638226956129074,0.0401871986687183,-0.0176933240145444,-0.4048800766468048,0.9133149981498718,0.0,0.0,0.0,0.1220625398099412,0.0479044868315541,0.1512164659606987,0.809984978,-0.0144429080970202,0.0544252609125885,-0.3276177909278532,-6.959780792841457,3.1388114632133792,-10.013666063469657,0.0878474388067775,0.0002228357770488,-0.8345406771829557,-0.0095437556859776,-0.0359877543096542,-0.0224505085781201,-10.8870944076757,-48.96581870674031,-24.19486695307166,-0.0001811637635759
192,1724915677965787991,-0.0489281415939331,-0.1661518812179565,0.1636155843734741,0.0391387790441513,-0.0176969617605209,-0.4061666429042816,0.9127890467643738,0.0,0.0,0.0,0.2399320016000396,-1.2248921875162146,-0.91083173940768,0.820543726,-0.1814024991301113,-0.092589755524369,-0.2593662198205881,-7.5866436706603695,-6.325699047425323,4.517653649301407,0.0859324606998336,-0.0005134527511127,-0.8373537575893503,-0.0072042052819121,-0.0294447218885332,-0.0160306513059045,-5.761683548699273,-42.25906961088351,-20.35188897689676,-0.0001773940906421
194,1724915677982143608,-0.0489001125097274,-0.1665310710668563,0.1634442061185836,0.0384361408650875,-0.0173258669674396,-0.4079335331916809,0.91203773021698,0.0,0.0,0.0,-0.2830964471068019,0.0672928814292674,0.7890006034809929,0.836899343,-0.0970858803435505,-0.0035592514417358,-0.234787529826637,203.77412158682932,130.50456733544033,-207.75657508898365,0.0843460022565347,-0.0002449072778015,-0.841184820814233,-0.0028148841145583,-0.0962108527598388,-0.069407847817466,-4.932439949517132,486.303745085621,373.72918244249513,-0.0001513086953371
196,1724915677985197711,-0.0489112921059131,-0.1668665558099746,0.1631986200809478,0.0396420285105705,-0.0170160923153162,-0.4092654287815094,0.9113950729370116,0.0,0.0,0.0,-0.2827363510627686,1.7847951747511632,2.084273693015687,0.839953446,0.6385328737675499,0.4663370275389129,-0.9886373030449992,177.33034852953355,111.72648107689209,-183.2684941525701,0.0862944458576819,0.0014314586875145,-0.8440719419494377,-0.0039939877583059,-0.0936389204314265,-0.0646870109516553,7.738829657385374,455.60809815940456,322.381405026338,-0.0002243933069313
198,1724915677996496199,-0.0489703565835952,-0.1672470569610595,0.1631250232458114,0.0395367667078971,-0.0170612577348947,-0.4113450348377228,0.9104620218276978,0.0,0.0,0.0,0.1232411866988674,2.470488657677338,1.4746645412443626,0.851251934,-0.0134264290000375,-0.0323158716562046,-0.4024656542024102,-2.372801130110833,-9.330727022667627,36.964302941780176,0.0861361420720689,0.0014592514510822,-0.8486336533728918,-0.002869243025243,-0.034071514739292,-0.0186279934224273,18.21636231016543,-108.0327156239688,-107.17904785141704,-4.7514942512481655e-05
200,1724915678005299383,-0.0489794388413429,-0.1675496995449066,0.1628779470920562,0.0411585196852684,-0.0171570368111133,-0.4120156168937683,0.9100849628448486,0.0,0.0,0.0,0.1620918950125804,0.3621990040006126,0.1660847735416014,0.860055118,0.3451954342601171,0.1242621026201845,-0.1793721874998609,14.599036673125829,11.091079930452324,8.09884010237754,0.089171885417744,0.002687186573596,-0.8501107454018728,-0.0016218189332559,-0.0315399239604516,-0.0234926187976922,6.234100780123251,-139.72186630029375,-59.53949889818848,-0.0002271080477329
202,1724915678015853298,-0.0490040220320224,-0.1678466498851776,0.1626878827810287,0.0423365980386734,-0.0167035982012748,-0.4134642481803894,0.909382164478302,0.0,0.0,0.0,0.2509248846520777,0.1499564874261476,0.6651898361410572,0.870609033,0.1685440002169506,0.156600253676844,-0.3120769209966019,-17.13285809690719,-3.0650429294101547,-4.940019257289273,0.0909392407577785,0.0046294473196488,-0.8532424973482804,0.0003468816017799,-0.0267731239664685,-0.0126464038376035,7.995192938629163,-12.074913274542997,7.827498284234903,-0.0001689058539368
204,1724915678027077191,-0.0489681847393512,-0.168130874633789,0.1626099497079849,0.0423309691250324,-0.0163215920329093,-0.4148653745651245,0.9087511301040648,0.0,0.0,0.0,0.3356264388926064,0.1103426959587754,0.2819927601117835,0.881832926,-0.0284665454995314,0.0490387377169881,-0.2764011232225095,-13.09337568241146,-8.399307974692729,-3.479918802721709,0.0906044203677771,0.0054588034241985,-0.856282318008215,0.0039317898116695,-0.0286913040644662,-0.0095074022226651,-3.392610347946899,23.314462377734433,-6.612805105838671,-6.191589992098674e-05
206,1724915678034980393,-0.0489329993724823,-0.1683763712644577,0.1625205427408218,0.0419505797326564,-0.0161275323480367,-0.416098028421402,0.908208429813385,0.0,0.0,0.0,0.2479379374163889,0.4439869193314758,0.3829250041850154,0.889736128,-0.1071296869711748,-0.0107540196709145,-0.340957834138989,1.2521015511311346,-5.537231313183011,-1.1233619365957743,0.0897428357855477,0.0056168149083733,-0.858973624928858,0.0066746145565712,-0.0262541286123321,-0.0072658380571066,-32.0947967897074,20.174896515766648,15.585208158620024,-7.589296055315813e-05
208,1724915678045425327,-0.0488326027989387,-0.1685842126607895,0.1625005155801773,0.0421714223921299,-0.0163958258926868,-0.4173130095005035,0.9076358079910278,0.0,0.0,0.0,-0.3771692157746599,0.3504500057356184,0.584558317079527,0.900181062,0.0606293444694474,-0.0405897062275825,-0.2554404741696761,12.643658457904898,3.1464862466753427,0.5718181403640585,0.0903612200795989,0.0054345157735992,-0.8616691097736008,0.0078961241324959,-0.0197447576957685,-0.0018954960859103,-31.454360265734636,-12.586032736206334,8.652799542522214,-1.3400330102522764e-05
210,1724915678056431624,-0.0487655960023403,-0.1687997430562973,0.1624799072742462,0.0431479178369045,-0.0163672789931297,-0.4189684689044952,0.9068273305892944,0.0,0.0,0.0,-0.3940620227173927,0.1698150981780977,0.5562579993170134,0.911187359,0.1601521851162475,0.063662775695007,-0.3374716644527474,-37.98660113941628,7.466722316569544,-20.325263857902073,0.0921022546964023,0.0064706874626893,-0.865304096699749,-0.0019857948998964,-0.0190510068055882,0.0053548221977219,47.221668507758814,-1.997663476798735,-34.678051184175544,-1.1021768461745448e-05
212,1724915678065144221,-0.0488385818898677,-0.1689620614051818,0.1625764071941375,0.0414442680776119,-0.0148961786180734,-0.4213631451129913,0.9058220982551576,0.0,0.0,0.0,0.3536301208116371,0.2518242458374254,0.0326849047763334,0.919899956,-0.4951638384428689,0.1148865911243161,-0.6033354447356317,-27.366196707507545,-1.76276596137923,-8.184510270583713,0.0877510052725348,0.0079396821619792,-0.8704497843314746,-0.0019445755256461,-0.0168350050180254,0.0094944467847915,59.747580747032664,4.55217881115674,-43.93738643908869,0.0001107939314726
214,1724915678077358000,-0.0487521961331367,-0.1691369414329528,0.1626652926206588,0.0413207709789276,-0.0149961849674582,-0.4231481850147247,0.9049935340881348,0.0,0.0,0.0,0.6370090291720785,0.2242019232691,-0.2273277218021707,0.932113735,-0.0101489389827016,-0.0374899855642885,-0.3209605590223591,13.210007883214228,-10.570234530004727,6.991563160652717,0.0875959359293349,0.0078267975329459,-0.8743949941398207,0.0083484076450965,-0.0138024322219969,0.002318126567653,-15.865509817743682,0.6354302921701453,13.515584489273682,9.4036132005217e-05
216,1724915678085708331,-0.0486752018332481,-0.1692492514848709,0.1626563370227813,0.0409467741847038,-0.0152787072584033,-0.4245107471942901,0.9043675065040588,0.0,0.0,0.0,0.281494180215996,0.2460468506591566,0.0842269662973868,0.940464066,-0.0511311893981075,-0.1148761783048163,-0.3546517699206571,-3.903182487299198,1.907498158670481,-6.5813792907126984,0.0871462902578389,0.00712961903826,-0.8774289968976204,0.0124931597453508,-0.0120677962817561,0.0024764144143842,-37.49141704134264,3.5905140604426897,14.186198188127795,-6.8648055547077455e-06
218,1724915678096462780,-0.0484955161809921,-0.1693598926067352,0.1627321243286132,0.0407373011112213,-0.014702633023262,-0.4267430007457733,0.9033353924751282,0.0,0.0,0.0,-0.0512948397915451,0.2981578158628762,-0.0834961723478945,0.951218515,-0.0791922586844709,0.060418957485209,-0.4607040267153514,-5.825567789126528,5.131977724214991,-5.232484091441769,0.086257207347166,0.0082059907879151,-0.8823089454387173,0.0125444564491132,-0.0088910176163743,0.0042862812103994,-15.708328088582387,-0.8289725190112378,-11.10112100062218,7.123728617032281e-05
220,1724915678105522148,-0.0484136454761028,-0.1694297790527343,0.1627498865127563,0.0401701740920543,-0.014224081300199,-0.4286828637123108,0.9024494886398317,0.0,0.0,0.0,-0.0773295648546329,0.2473431375540165,-0.1497651277001214,0.960277883,-0.156513405520736,0.0216848066758783,-0.4727828211572926,9.624497338304224,-1.6071100664162696,6.188496214399873,0.0848032098258989,0.0087676130685583,-0.8865597217766791,0.0116519024624102,-0.0061687893579076,0.0016083621205531,-6.846123973517952,-9.727135464184284,7.78227111706023,1.699083593272364e-05
222,1724915678115266953,-0.0482726916670799,-0.1694736927747726,0.1627618670463562,0.0408254191279411,-0.0142758507281541,-0.4301337301731109,0.901728630065918,0.0,0.0,0.0,-0.1856821155774402,0.1093881714529924,0.0843223589213844,0.970022688,0.127624510929481,0.0339951215762689,-0.3336329634423797,6.745561063394192,0.4358422662997352,10.295102612007456,0.0860177595544052,0.0093750303203465,-0.8897709461350671,0.0111204902321606,-0.0043155450109342,0.0016775514267095,-5.006132866660904,-15.737803143036436,12.248063830978596,6.0502501620490345e-06
224,1724915678125782095,-0.0481937006115913,-0.1695169061422348,0.1627845913171768,0.0406474210321903,-0.0139533085748553,-0.4314140081405639,0.9011299014091492,0.0,0.0,0.0,-0.1689633566328747,-0.074036054685183,0.0795235787942464,0.98053783,-0.0557436023915973,0.0291897653101401,-0.2705857006101224,-5.6166320731410995,-0.1062434361165383,1.1190583384207216,0.0854045038666497,0.0099244094101995,-0.8925795971083686,0.0076799479597107,-0.0040819808406151,0.0034404054565353,13.209297603505416,-18.69482230165901,-12.369903479672905,2.052898367415204e-05
226,1724915678136086424,-0.0481128692626953,-0.1695586889982223,0.162832960486412,0.0407665707170963,-0.013754635117948,-0.4328377842903137,0.9004445672035217,0.0,0.0,0.0,0.0844785710822427,-0.2793059708344383,-0.1682397841808156,0.990842159,0.0057547680206398,0.0316367863462015,-0.3082991884263917,1.519256876028444,-2.6683325354386707,-2.0475127996342,0.0854317314302019,0.010520245407566,-0.895717196591428,0.0075367151148313,-0.0058167625404568,0.0033699738162882,12.790850959269756,-13.348927124794258,-13.905160082449488,4.590529161729019e-05
228,1724915678146375242,-0.0480384863913059,-0.1696366369724273,0.1628540307283401,0.0406188368797302,-0.0137537717819213,-0.434293270111084,0.8997501134872437,0.0,0.0,0.0,0.0948064510539613,-0.3491361907673549,-0.2071417354869081,1.001130977,-0.0243194107527164,-0.0256695227205306,-0.3128004165341316,2.1373579826358164,-1.765351352679595,-4.982510724298876,0.0851475139309775,0.0105312542143332,-0.8989464435512677,0.0094165779812844,-0.0098303304146565,-1.9177824368554752e-05,-9.78731949334244,9.016282816760857,15.291449494639444,2.1293778657666253e-05
230,1724915678155286038,-0.047937698662281,-0.1697416305541992,0.1628379076719284,0.0407549291849136,-0.0137963872402906,-0.4358652830123901,0.8989829421043396,0.0,0.0,0.0,-0.0756850454009317,-0.1468346509634199,0.0763057371406827,1.010041773,0.0337786155993647,-0.0120402547602034,-0.3922740341323815,5.721610957459388,3.205871913099001,-1.2282269409322168,0.085411418007128,0.0107220893430592,-0.902438718269498,0.0095830028373402,-0.0126253552560058,-0.000921455986373,-11.931153371899208,21.046490659454573,16.226842374148436,-1.5713382921367595e-05
232,1724915678165773794,-0.0478585213422775,-0.169884443283081,0.1628392040729522,0.0412695966660976,-0.0137226115912199,-0.4373119473457336,0.8982576131820679,0.0,0.0,0.0,-0.1119162500321786,0.0534485611066366,0.0541404749642231,1.020529529,0.0839308293961118,0.0422746517468128,-0.3102245185401825,-8.079989941908302,1.3090537440799972,3.3699240452504142,0.0862561423643123,0.011442744409665,-0.9056423225430474,0.0076244538263545,-0.0121059741417539,0.0020706145321511,-8.842080685518418,8.660512430292377,-19.427152841655957,5.355900632041477e-06
234,1724915678175770158,-0.0477815903723239,-0.169991061091423,0.1628784537315368,0.0407958142459392,-0.0133128343150019,-0.438747763633728,0.8975850343704224,0.0,0.0,0.0,-0.2516366152515648,0.0405847182088117,-0.3050253790428087,1.030525893,-0.1193884611432222,0.0184886721622673,-0.3189698719390118,-6.695752439994422,-5.921329227209844,4.181749941264615,0.0850258001454913,0.011899623670848,-0.9088036271762936,0.0072186780809513,-0.0115342764829353,0.000409413858863,-3.843904474540511,-12.000079866388608,-11.30723773568026,4.107525204663458e-05
236,1724915678185124488,-0.0477182418107986,-0.1701065599918365,0.1628514975309372,0.0404083281755447,-0.0134245008230209,-0.4397533237934112,0.8971086144447327,0.0,0.0,0.0,-0.1988923545067544,-0.1654465676014722,-0.1952639495372397,1.039880223,-0.0625932983239027,-0.0679052328249477,-0.2355892647500155,10.689188750412612,-5.426364330723612,9.3693168760556,0.0844140023231768,0.0114531729760352,-0.9110533108694772,0.0030174033225442,-0.0112999934025932,-0.0036592773360348,16.617656901856513,-13.561722209911592,24.05490525930432,-2.3625533172509433e-05
238,1724915678196361829,-0.0477350205183029,-0.1702194064855575,0.1627998799085617,0.040830448269844,-0.0140828993171453,-0.4403874576091766,0.8967683911323547,0.0,0.0,0.0,0.1360581281778591,-0.2035919731097766,0.2413773277821738,1.051117564,0.1198602809020034,-0.0774592248789143,-0.1241509375601456,15.96907499278498,14.528514065362284,-18.553762748813337,0.0857447111489585,0.0107044411139677,-0.912517615111933,0.0041603887321697,-0.0157307001783646,-0.0026178707001989,-0.5706509362771088,25.080896623684534,18.6790318559502,-4.353371981096126e-05
240,1724915678204936004,-0.0476623624563217,-0.1703914999961853,0.1627903580665588,0.0421180538833141,-0.0139142591506242,-0.4421499371528625,0.8958437442779541,0.0,0.0,0.0,-0.067569622263688,0.1977467560188887,0.2695318353392316,1.059691739,0.2550332653144498,0.1477207999466419,-0.4694930290087987,-5.614938397478426,4.21551707598561,-16.326056742728248,0.0878865199754416,0.0123152970230407,-0.916418412994401,0.0055516652235616,-0.016228793976909,0.0004245832087121,-20.86979265390258,35.87668352565208,-2.3497462892808887,-3.132803292557545e-06
242,1724915678215564064,-0.0476418584585189,-0.1705133616924286,0.1628150939941406,0.0415012650191783,-0.0141043299809098,-0.4437364041805267,0.8950847387313843,0.0,0.0,0.0,-0.2514450380599565,0.4350397306584013,0.1703446973671813,1.070319799,-0.0863023574687525,-0.0979232005506731,-0.3274790024486697,-29.978631346010683,-21.558599842913857,12.620037432777684,0.0869267627299883,0.0115823621479438,-0.9199765844549148,0.0018057223656532,-0.0107567210558434,0.0021653489134602,17.492694922835057,23.981095866329863,154.54761343325902,3.089624266674732e-05
244,1724915678367118333,-0.0476351156830787,-0.1706106662750244,0.1627930104732513,0.0406567528843879,-0.0141599103808403,-0.4450363218784332,0.8944770693778992,0.0,0.0,0.0,77.59346578792344,7.644148653890056,377.7602705248516,1.221874068,-0.0095591144053164,-0.0064268587999176,-0.0187254846924813,-3675.3383883907463,-2127.2595789735133,-16197.62835151338,0.0854453778311592,0.0108562464943136,-0.9228880505707804,0.1820006399635048,-0.1173495081609417,0.0421482784115596,108284.67996758384,577232.0799761196,1533080.1496425492,-1.6565569422582682e-05
246,1724915678367518542,-0.0475620850920677,-0.1706577539443969,0.1628099232912063,0.0403329171240329,-0.014128616079688,-0.4462138414382934,0.8939054608345032,0.0,0.0,0.0,121.04386504073238,239.2676086113827,992.9303176583752,1.222274277,-1.4843473620362642,-0.8600240794553154,-6.518282437777292,12427.379279418235,4103.268980519924,-14674.10671424442,0.0848229588744658,0.0107351238272357,-0.9255167762481308,0.213134989939661,-0.1142814291975753,0.1937302884552423,-245440.0763808892,555284.8811592724,848891.244715321,1.5179323078415585e-05
248,1724915678367881631,-0.0474746003746986,-0.1706981360912323,0.1629301607608795,0.0419319905340671,-0.0142852617427706,-0.4480099976062774,0.8929303884506226,0.0,0.0,0.0,-84.68763160973145,433.1536918325504,1074.441973918427,1.222637366,8.33552230613055,2.6840892131710934,-11.330331235096736,-8175.231925342443,2810.648483300057,-11315.415204044692,0.0878037319938635,0.0120607057142389,-0.9295315259496576,0.2713313035075373,0.048886278876921,0.7565683458119281,-725921.7863768248,-97420.8456538284,-1451639.0448981186,0.0001167538567454
250,1724915678368227979,-0.0473705865442752,-0.1706283092498779,0.1633327454328537,0.0411253683269023,-0.0134928710758686,-0.450272649526596,0.891841471195221,0.0,0.0,0.0,-388.7409492438406,190.80719770879517,17.910413776151472,1.222983714,-6.132089854294354,1.361300922691289,-14.609238013283385,-16736.395152770656,-3407.9252059433643,3665.677752250608,0.0856173125883927,0.0129686166548365,-0.9345319817991504,0.1610674081119825,0.1935448408030424,0.9715392533735212,-548392.5335962917,-556346.0336572393,-1966569.474800365,0.0003904471655168
252,1724915678368640828,-0.0473726168274879,-0.170552372932434,0.1636399328708648,0.0410255938768386,-0.0133406510576605,-0.451494038105011,0.8912307024002075,0.0,0.0,0.0,-452.9954464916992,31.677108786334855,-260.5677247999796,1.223396563,-0.7212586209804456,0.1567611365557614,-6.632988481392157,7753.909072982777,-1188.4814169368751,13436.259209571308,0.0852838279580188,0.0132668156400984,-0.937255190019348,-0.0340589030850893,0.1606768571469956,0.6822999424744012,156829.88166745147,236081.90880758292,525691.2589805562,0.0003015293364057
254,1724915678369204513,-0.0474142432212829,-0.1704796999692917,0.1639769971370697,0.041025124490261,-0.0130340158939361,-0.4523872137069702,0.8907821774482727,0.0,0.0,0.0,-124.10921125547236,643.0974776453015,959.4805954729902,1.223960248,-0.4696836763136712,0.8176342202623245,-3.5874841041137704,-5312.7380746753015,254.16979643727177,-13160.80561122411,0.0849922311511564,0.0138979928074388,-0.939231003949151,-0.2742915347500485,0.2641846163105015,0.8740786243676553,646303.214991699,1250728.539532394,2090313.8195012647,0.0003338722886974
256,1724915678369513410,-0.0475329011678695,-0.1703751981258392,0.1642937362194061,0.0406740270555019,-0.0126480935141444,-0.4538732469081878,0.8900476098060608,0.0,0.0,0.0,86.17007602507573,1057.550755935093,1592.6288261766235,1.224269145,-3.0856300898203437,0.740711137668233,-10.795166050884175,-19749.721592360867,-16239.910574967333,-5157.6885743291805,0.0839923326532643,0.0144073930730231,-0.9425347238967334,-0.2614952831167443,0.5406120270839097,1.275283643928674,-10825.127796792787,424891.1047593192,1506159.1200754414,0.0003162758448305
258,1724915678369766750,-0.0475736670196056,-0.1701962053775787,0.1646687388420105,0.0391260869801044,-0.0127602890133857,-0.4548622369766235,0.8896103501319885,0.0,0.0,0.0,-60.262988680199214,974.6983060915192,1861.2634492814632,1.224522485,-10.432948257346789,-6.696018268094464,-8.32530813094473,-2924.9354134661735,-4912.504935964024,-4603.230811866157,0.0813186334624275,0.0128909455675457,-0.9447768257676328,-0.2303681661840784,0.8423297759149477,1.7398041379746587,-42183.56468120376,-932575.8889390726,-966750.9029458672,0.0003657263162136
260,1724915678370020538,-0.0476497896015644,-0.1699479073286056,0.1651762723922729,0.03853440284729,-0.0126277925446629,-0.4563611149787903,0.8888702392578125,0.0,0.0,0.0,65.25813426021017,584.0723711302646,1100.5444662639325,1.224776273,-4.545561198960474,-1.728638060472406,-13.142464418898994,-9736.00040019031,-6293.725665716347,-1525.2868454491418,0.0801220089849719,0.0127226113570474,-0.9481371993372864,-0.2922205615600859,1.0347148880521218,2.219207276005818,1006424.7133262692,-1447043.1856463577,-4113859.005464742,0.0004961029565037
262,1724915678370308895,-0.0477315224707126,-0.169631078839302,0.1658880710601806,0.0354325510561466,-0.0129304658621549,-0.4574660658836365,0.8884267807006836,0.0,0.0,0.0,523.1624167728055,196.99523105932167,-451.4871572436796,1.22506463,-18.143343780121352,-12.01829934418932,-7.863185844397666,-22166.91865189295,-12200.45098197042,13155.996554892332,0.0748621938493196,0.009442975491396,-0.950666140992328,-0.172172011711666,1.146133689384726,2.2782346619011093,792211.5774528784,-774514.9751018819,-3366857.1896520127,0.0006981020804877
264,1724915678370634814,-0.0477466471493244,-0.1692400723695755,0.1665605157613754,0.0325564518570899,-0.0127571551129221,-0.4583328366279602,0.8880925178527832,0.0,0.0,0.0,488.22000614208775,153.74312349039042,-806.3634533650097,1.225390549,-16.162612815552073,-7.344020739372598,-5.4733095735215835,13561.116907001371,14395.294756549272,-2835.8592136643856,0.0695782489842184,0.0071843756543919,-0.9526181013304472,0.0376948204371387,1.140569397211152,1.8893632881218425,-316807.5872074907,1186705.9113096986,894651.1086615331,0.0006535564283579
266,1724915678371013420,-0.0476953871548175,-0.1688342541456222,0.1671993732452392,0.0311199650168418,-0.0123323649168014,-0.4602140784263611,0.8871766924858093,0.0,0.0,0.0,276.0924507321605,1183.3288747515012,404.7200406304087,1.225769155,-7.736865128053936,-1.8703664376248883,-11.019232552382402,17273.68517171653,4209.883944677679,-2723.072012203591,0.0666196604163807,0.0067617701332419,-0.9568287062930372,0.1540579539114475,1.2739039751890573,1.754183428024362,-395817.1186060798,1587069.0326824023,2025474.8322719608,0.0006170338781031
268,1724915678371348100,-0.0476383045315742,-0.1683481335639953,0.1678062230348587,0.0303591303527355,-0.012543081305921,-0.4614861607551574,0.8865390419960022,0.0,0.0,0.0,192.2784798646557,1379.4850805924862,735.4784205276851,1.226103835,-3.429331029937084,-3.4931300886141647,-8.402516721520243,10016.396107351604,-2484.634698596171,8456.878476125508,0.0654538447108304,0.005780806648288,-0.959711881125908,0.2372141297926902,1.9158383880068184,2.115003930231808,-458631.7249579006,-2445220.6813446116,-1457535.572233837,0.0005821315397128
270,1724915678371624569,-0.0475574992597103,-0.1677126437425613,0.168459877371788,0.0299763828516006,-0.0128806438297033,-0.4622288644313812,0.8861603140830994,0.0,0.0,0.0,17.931402060288747,11.156113803556307,-226.06740886440275,1.226380304,-1.311959839174398,-3.640142540459725,-5.918671231959642,14080.677549223528,-6044.023121124739,25455.1985419915,0.0650820825733075,0.0048832874552594,-0.9614105236036852,0.277541203665919,2.17422337914644,2.2400907258580105,-538830.7337958512,-4076156.6603452824,-2904688.6736752894,0.000621983786263
272,1724915678371888399,-0.047487985342741,-0.1671703308820724,0.1690196096897125,0.0300340577960014,-0.013919454999268,-0.461669921875,0.8864339590072632,0.0,0.0,0.0,-101.11845743325634,-844.425184707183,-848.0816755442821,1.226644134,4.019818891630312,-6.622555504468654,4.9440640168563394,18987.373608117286,-10568.296846892275,38730.92017915085,0.0661473402885504,0.0030542917768481,-0.9602234546461964,0.2500624267412892,1.9446750097068604,2.0096193064322336,-424359.7520990688,-3048743.2481599688,-2214502.5171426134,0.0005329562564153
274,1724915678376201644,-0.0473555475473403,-0.1666000932455063,0.1697937399148941,0.0292827226221561,-0.0142559176310896,-0.4621191620826721,0.8862195611000061,0.0,0.0,0.0,-36.22521990409872,-301.488801257784,-306.88067286133537,1.230957379,-0.2367072936792753,-0.3067748584549506,-0.2210119418922665,-703.1002954906554,1039.3031103886324,-849.0550608787524,0.065123836798777,0.0017964693173873,-0.9612613579542448,0.0279200845228202,0.1102294954818212,0.1482725481183742,11671.6407840646,97400.58404767457,97197.67227442066,0.0007434742319099
276,1724915678386566309,-0.0471355244517326,-0.1660049557685852,0.1705533415079116,0.0269236844033002,-0.0136567158624529,-0.4637440741062164,0.8854547739028931,0.0,0.0,0.0,0.7273787187249754,-1.190654888335402,-3.7187109150414033,1.241322044,-0.4569946051861475,-0.119177422128999,-0.3429667323897158,-3.103620725371332,4.052239973569419,-5.5981729450818865,0.0603825568475513,0.0007865897588978,-0.96488670823809,0.0329526566427129,0.0691874609952485,0.0723917713286113,1626.3683118124436,13466.259168993134,13684.96257081911,0.0007265639752541
278,1724915678395468853,-0.0467525087296962,-0.1652990281581878,0.1711909621953964,0.0251882616430521,-0.0136522715911269,-0.4651489555835724,0.8847687244415283,0.0,0.0,0.0,0.3802010616356774,0.116207919994161,-0.9052975377309688,1.250224588,-0.345836978793114,-0.1905187074512169,-0.3456382498676643,23.138428736828864,-3.2186745494738327,11.726530990333195,0.0573036232829832,-0.0007256187140342,-0.9680581618784874,0.0412773581622221,0.0797623986064728,0.0668321254616604,-39.54192227877136,46.32772641111546,190.7323831825824,0.0005958473622024
280,1724915678405068998,-0.0463743135333061,-0.1645284593105316,0.1717829704284668,0.0247547980397939,-0.0143387001007795,-0.4656313955783844,0.8845162391662598,0.0,0.0,0.0,-0.0050423973342026,-0.4791336990587234,-0.3713042988272419,1.259824733,-0.0134269371264719,-0.1717795807483735,-0.1085573972442853,31.803045679213923,4.12691721660512,15.848606359623792,0.0571764403148103,-0.0023124059191118,-0.9691928781376036,0.039182880606233,0.0697838745036563,0.0552342149429447,-5.088080945857708,27.404401537056565,83.69201893244912,0.0005492721581765
282,1724915678417038750,-0.0459084659814834,-0.1638496071100235,0.1723481118679046,0.026229640468955,-0.0157131906598806,-0.4658852219581604,0.8843166828155518,0.0,0.0,0.0,0.4570127867853681,1.1833900039319758,1.0493706657455224,1.271794485,0.3251242754018688,-0.0899218431579325,-0.0508874944120494,-35.20380283213985,-17.900131692430104,8.674478912642515,0.0610700000639208,-0.0033508758088721,-0.9698644954321328,0.0423033156027994,0.0724105245961066,0.0632783043894615,16.13982984966257,83.25251477884125,1.6824272148581407,0.0005181998748979
284,1724915678426108714,-0.0455015152692794,-0.1630849689245224,0.1730324476957321,0.0236069783568382,-0.0165035966783761,-0.46574667096138,0.8844492435455322,0.0,0.0,0.0,0.449025886890003,1.556083064870342,0.2604834458038318,1.280864449,-0.430503432610861,-0.4222975204139314,0.054294261471667,-44.26718610154373,2.7321432342206355,-15.109911670899136,0.0571639485499128,-0.0072035063323978,-0.9695993281412912,0.047797645187563,0.0897687425417093,0.0753893665742193,-1.89469395779955,-15.252540032601672,-132.59758740441464,0.0006421961160383
286,1724915678435206941,-0.0450399033725261,-0.1622183620929718,0.1737177968025207,0.0216319449245929,-0.0156110748648643,-0.4671002924442291,0.8838018774986267,0.0,0.0,0.0,0.4225322123974706,0.9030891114107504,-1.3622703395785494,1.289962676,-0.4769199878789382,-0.0380543999369665,-0.3269192262921238,-3.603119308844733,10.086863500636357,-17.395117190119063,0.0528466176062354,-0.0073856860958408,-0.972588333983898,0.0504524296482888,0.1006614863644266,0.0679499680240454,5.072214255269699,-70.79316003446563,-107.2133982072863,0.0006418096208185
288,1724915678445356916,-0.0445310287177562,-0.1611353754997253,0.1743239462375641,0.0187123212963342,-0.0157532729208469,-0.4681839048862457,0.8832924962043762,0.0,0.0,0.0,0.564422296338619,0.1956190378810642,-1.6448764776383769,1.300112651,-0.4965225111517778,-0.2996706087700517,-0.2260057544362066,-0.8220449893637145,-18.557454883442663,9.425850803375925,0.0478285367706661,-0.0103080627635007,-0.9750325471462896,0.0562215389548859,0.1064970800031304,0.0479563466117234,-30.45905850736388,-86.54432828135418,20.399346952514627,0.0005625208606874
290,1724915678455559326,-0.0438950210809707,-0.1600509136915207,0.1746925860643386,0.0155081748962402,-0.0164314340800046,-0.4688694179058075,0.8829784989356995,0.0,0.0,0.0,-0.2020545667960278,-0.8600652306501422,-0.9420227298423978,1.310315061,-0.4935339372201203,-0.4149840010486145,-0.1351349752425434,5.341628111465663,-8.349855342600764,7.8448328544288835,0.0428127252213496,-0.0144750936109651,-0.9766017167156744,0.0619393527204867,0.1046029185385144,0.0345069734974625,51.262648236509875,129.97803388396926,55.28304172132905,0.0003275689767368
292,1724915678465552700,-0.0432799495756626,-0.1590221375226974,0.1750215142965316,0.0126897133886814,-0.0175822731107473,-0.4692318737506866,0.8828088045120239,0.0,0.0,0.0,1.547412993915683,2.7240274274263148,-0.5227613030073208,1.320308435,-0.3907332405102559,-0.4695242823278197,-0.0671337760515647,10.752618065193255,4.205712591170919,1.6104831820954295,0.0389224585748194,-0.0191359028811787,-0.9774639118248332,0.0524563994875023,0.0894064506317549,0.0287757784276507,64.93812941819229,177.46483129953458,18.89193896525377,0.0002961253547353
294,1724915678481822914,-0.0426673032343387,-0.1579261273145675,0.175380066037178,0.0107001364231109,-0.0178293772041797,-0.4705565571784973,0.8821247816085815,0.0,0.0,0.0,-0.3131801717491598,0.8119887178415794,-0.8262872096732887,1.336578649,-0.2034488098194996,-0.1451185740237864,-0.1785213859174582,123.5238704779794,46.15914567331873,-82.23381521650747,0.0356728936574865,-0.0213870626244783,-0.980455033175057,0.1437599566561154,0.2461666211497828,0.0216143717761951,-674.7789304240553,-923.169138531256,48.50941974029318,0.0003305015244117
296,1724915678485648818,-0.0420218333601951,-0.156823456287384,0.1754623800516128,0.0113930497318506,-0.0180579293519258,-0.4714890420436859,0.8816134333610535,0.0,0.0,0.0,-3.3990057542269287,-3.444774215091537,-0.5802698972680532,1.340404553,0.3699144487339411,0.0550712466957529,-0.5609628221327657,97.46396553452632,29.37959318272053,-61.31827002357701,0.0371335589848151,-0.0210983952457615,-0.9825926733531218,0.1372314252875692,0.2413357511620111,0.0181056908440133,-587.4246944121444,-830.6891306209305,65.099872504437,5.137801282705099e-05
298,1724915678496810032,-0.0415151305496692,-0.1556561589241027,0.1755534559488296,0.0092114591971039,-0.0191965233534574,-0.4714725017547607,0.8816238045692444,0.0,0.0,0.0,-2.8202226553590903,-3.536633482366728,0.172268377212017,1.351565767,-0.248414626363943,-0.3641216934600003,0.0128729935216801,-89.33770452195438,-44.588898145698934,11.83033679655234,0.0343609876054809,-0.0251649804617554,-0.982594465524441,0.0441826669914711,0.1318379892935954,0.0225960003377849,251.83213185280763,167.2901513393035,-25.597883293509515,7.16113761716206e-05
300,1724915678505302827,-0.0411477535963058,-0.1543603688478469,0.1758386492729187,0.0030532577075064,-0.0196860935539007,-0.4721274375915527,0.8813051581382751,0.0,0.0,0.0,0.6108457398509488,-0.981600079363414,-0.6462709484137037,1.360058562,-1.226459706578145,-0.788242086078825,-0.1424535360925806,-24.921426806237395,4.963857137052399,-12.91322651896968,0.0239848341341246,-0.0318212281504416,-0.9839994114358914,0.0558810668513747,0.1423463377964333,0.0225724089984069,121.22962358253248,115.3966068016519,-26.271676607909804,0.0002882736917239
302,1724915678514968627,-0.0404687486588954,-0.153097003698349,0.1759357303380966,0.0007405114010907,-0.0191804617643356,-0.4730595052242279,0.8808213472366333,0.0,0.0,0.0,-1.3280514063843647,-1.906307477359676,-0.1289539855753116,1.369724362,-0.4746279587271896,-0.1362877925346014,-0.2081299628971324,61.45575581673825,40.45079805036414,-0.1722504618374678,0.0194634018405314,-0.0330945492286199,-0.986040383609338,0.053352106676151,0.1084483962360431,0.0092467325113592,-107.83386076400524,32.42279791703144,81.18920953016769,9.486903594685482e-05
304,1724915678528050977,-0.0400699488818645,-0.152072325348854,0.1760425865650177,0.0007206929149106,-0.0197952073067426,-0.4735912382602691,0.8805220127105713,0.0,0.0,0.0,-1.0963184783996416,0.7859031923211504,1.4231115246286836,1.382806712,0.0402645475614353,-0.0851515895759852,-0.0931223363038215,-15.782616843382003,-38.944952279418445,17.147145423843163,0.020031887471429,-0.0341842612184478,-0.987281159074542,0.0170956168251139,0.1118521071020222,0.0296873605977232,167.27164348794415,138.54594001586702,-46.826380235096245,0.000110509779747
306,1724915678535456826,-0.0399994701147079,-0.1511034071445465,0.1763526648283004,-0.0012581009650602,-0.0210593901574611,-0.4733892977237701,0.88060063123703,0.0,0.0,0.0,0.7694798008662812,1.5300406750878317,0.3826270563790664,1.390212561,-0.3077904648888869,-0.5532325773541366,0.0688990163414757,-27.997027493153308,-29.131855970284864,5.9125197088177295,0.0177367408658143,-0.0382903234634231,-0.9868480224941728,0.0159991002200825,0.1198764532358245,0.0396425100250246,154.4315135063634,20.493893442114775,-120.87101297183824,0.0003287379006533
308,1724915678548180131,-0.0396542102098465,-0.1498176455497741,0.1768083721399307,-0.0031631819438189,-0.0213154256343841,-0.4745674729347229,0.8799553513526917,0.0,0.0,0.0,0.6030393264811718,0.0424021982043587,-0.7262970239768789,1.402935866,-0.2486829540793293,-0.179107061681552,-0.2048481429349484,-29.207975424987012,-23.63230753550384,27.220779212863373,0.0146768751389733,-0.0405266248562935,-0.9894930779596456,0.0458457051867711,0.149104120695215,0.0234914111214195,-191.09455290762693,-331.5655660614334,89.24032132065443,0.0004765390916966
310,1724915678554951284,-0.0392763614654541,-0.1486348956823349,0.1769230216741562,-0.0057197879068553,-0.0219800546765327,-0.4741390645503998,0.8801569938659668,0.0,0.0,0.0,-1.3323621728688404,-2.9761472838259606,0.513611461796873,1.409707019,-0.5684462408361727,-0.5302443915062937,0.1550891052105103,-9.50377081413238,-26.352662494074828,37.25270564735825,0.0107852916314418,-0.0441300696920693,-0.9884878095986246,0.0436488490265716,0.1412661412660902,0.0205306563687468,-202.03936146145685,-276.23102826580424,181.68485696161184,0.00013852199852
312,1724915678565323620,-0.0390167310833931,-0.1477004587650299,0.1771931499242782,-0.0070411586202681,-0.0236232373863458,-0.4728152155876159,0.8808167576789856,0.0,0.0,0.0,-2.0966447129414063,-3.1471360218339632,2.37536395817809,1.420079355,-0.0676886248804941,-0.3983370224079855,0.2887796663127424,28.96996268675587,9.665986468730996,-9.378953674322752,0.0099466713963114,-0.0482925895162511,-0.9855323218212918,0.0138145427963523,0.0815013245701177,0.0409661945283197,0.3133842441903738,113.88889736558156,45.59196583151362,0.0002931889808086
314,1724915678576715598,-0.0389996953308582,-0.1468794494867324,0.1778465509414672,-0.0078030480071902,-0.0253205485641956,-0.4732834696769714,0.8805115818977356,0.0,0.0,0.0,-1.1672212665959725,-0.2184959854589223,1.2194074315821446,1.431471333,0.0207548052467717,-0.3263990172355913,-0.0966804087826831,4.770153587821646,19.2109049638236,-22.853168176952163,0.0102402661109264,-0.0519996107837603,-0.9866725122333944,-0.0003150241766323,0.078365315198793,0.0730956872403094,29.4635425476571,69.84408207749465,-165.1589704646591,0.0006828092131482
316,1724915678585025994,-0.0390132889151573,-0.1461900323629379,0.1785494238138198,-0.0077994959428906,-0.0257347989827394,-0.4740809202194214,0.8800705671310425,0.0,0.0,0.0,-1.2383532223465732,-0.7731571371232913,-0.5392301125784087,1.439781729,0.0422488566308891,-0.0885674639256797,-0.2200164212864629,-5.043070150739018,20.876678099393473,-7.4060163121951,0.0106875910235142,-0.0527164760570576,-0.9885111639415264,-0.009572011463051,0.0768937878762283,0.0735238302021139,23.177692917213644,-61.9520015864034,-87.50578249292593,0.0007286583440015
318,1724915678595147148,-0.0392079949378967,-0.1454865336418151,0.1791573166847229,-0.0081655206158757,-0.0253745075315237,-0.4750005900859833,0.87958163022995,0.0,0.0,0.0,-0.6125623087987243,-1.3411262581018546,0.1049866965759882,1.449902883,-0.1028372505349347,0.0272986373965391,-0.2033247145421486,-35.93068197829851,-20.229104628419307,8.262021864987686,0.0097548817356311,-0.0524191582745595,-0.9905688825707392,-0.0236395875657651,0.0617209097357802,0.0607843547712114,65.51416613958533,-20.75981125903086,76.7385126352926,0.0006412736930438
320,1724915678606049228,-0.0395174100995063,-0.1449050903320312,0.179828479886055,-0.0132111748680472,-0.0261486694216728,-0.4752433896064758,0.8793665170669556,0.0,0.0,0.0,0.1449425388218863,-1.1522423285380516,1.0952916986615362,1.460804963,-0.7481608770596763,-0.5652321631532705,-0.0355952846543508,2.9826821339265894,-9.2641492977401,0.6277993150267136,0.0016218174727689,-0.0585790724360596,-0.9909927215457176,-0.0211890981576869,0.0489552680250788,0.0779430318088163,20.11168154100275,8.858405746643527,-75.68999425627892,0.0007083162717004
322,1724915678615097419,-0.0396551229059696,-0.1444950103759765,0.1806567311286926,-0.0148735921829938,-0.0268455445766448,-0.4758138954639435,0.8790103197097778,0.0,0.0,0.0,-0.0438367009162423,-1.135673844790687,-0.8401043247374678,1.469853154,-0.2542635468279181,-0.3104794211018323,-0.1407354745198929,23.434667564419556,9.006268582678466,3.4848981505408867,-0.0006022502130003,-0.0613876939155466,-0.9922697458863862,-0.0204771189242549,0.0386699430893315,0.0842593788111472,-3.064259541702633,51.85254433630444,-164.0930901408829,0.0008524402293827
324,1724915678625227621,-0.039922185242176,-0.1441787183284759,0.1814277470111847,-0.0175823532044887,-0.0278914347290992,-0.475536048412323,0.879078209400177,0.0,0.0,0.0,0.1269965460971679,-0.0430741478871878,-1.937525344422544,1.479983356,-0.3701626295066394,-0.436422574561449,0.0658812736172878,5.541880501920254,3.882382198939368,14.7599457354293,-0.0043952895766741,-0.0658070772857797,-0.9915900957058869,-0.0223108140654595,0.0271772845168278,0.0583034937082906,32.5274821339078,96.31856300670611,14.589313846451455,0.0007961374067131
326,1724915678637767893,-0.0401390641927719,-0.1439007073640823,0.1818824559450149,-0.018215974792838,-0.0285041648894548,-0.4746261537075043,0.8795372247695923,0.0,0.0,0.0,0.7780593338367969,0.9856880509497974,0.1536185418231692,1.492523628,-0.0370293105291004,-0.1344696720113496,0.1634807187376788,31.063646981899907,12.84948993190266,13.957467718915789,-0.0049970062822429,-0.0674837133229473,-0.9895274619302642,-0.0159367935802032,0.0435800273811128,0.0437041049122903,22.311866535501323,-49.62703473725682,119.72350225924214,0.00047722331853
328,1724915678645219473,-0.0402518063783645,-0.1434811651706695,0.1822410821914672,-0.0177012030035257,-0.0291530173271894,-0.4736307859420776,0.8800628781318665,0.0,0.0,0.0,0.8132284942364107,0.0329052691528966,0.8375041136958137,1.499975208,0.2143627802735705,-0.088441378065675,0.2948258532915472,30.23754334741524,8.251466465746784,1.366640998372843,-0.0035490521734819,-0.0681333480567367,-0.987322677881682,-0.0089445063863051,0.049497798348189,0.0506838681391608,-11.331040119631243,-105.42455031109584,38.035743581217915,0.0003863439114502
330,1724915678655325163,-0.0402574241161346,-0.1430742144584655,0.1827883124351501,-0.015559047460556,-0.0301708336919546,-0.4731804430484772,0.8803112506866455,0.0,0.0,0.0,0.478742938404318,-0.7249578001817305,0.4853464158654237,1.510080898,0.4719768931232674,0.0233764567197693,0.0857932668941791,-34.59806067109055,-10.238147448866108,-6.319685156307125,0.0011615644148969,-0.0678960760304871,-0.9864539275357828,-0.0024412580589068,0.0393971792612148,0.0577881736019794,-57.41135892749398,-18.86904129936673,-46.4611470663293,0.0005689520283102
332,1724915678665079364,-0.0402989871799945,-0.1426981389522552,0.1833862364292144,-0.018073309212923,-0.030352933332324,-0.472536951303482,0.8806026577949524,0.0,0.0,0.0,-0.3101608242567603,-0.380600096040699,-0.0771870211876883,1.519835099,-0.4312435677349568,-0.2770547736893075,0.1593949609406289,-42.35920489301572,-8.151085721926897,-6.42023440986031,-0.0031529019716689,-0.0705969875834073,-0.9848928619753488,0.0006770987687407,0.0349105759105761,0.0604731402373897,-75.68012060383023,48.01783421392044,-45.82404631315623,0.0006207023873758
334,1724915678674920815,-0.0402432903647422,-0.1423907577991485,0.1839731782674789,-0.0198882203549146,-0.0301181450486183,-0.4727605283260345,0.8804515600204468,0.0,0.0,0.0,-1.0033472188924533,0.2182115381189522,-0.4105291292373962,1.52967655,-0.3492734496861769,-0.1323794378060331,-0.0424633570491239,-11.04917963202346,-8.927306608707545,-11.708068505577227,-0.0065608880520594,-0.0719018045224651,-0.985305439231755,-0.0086294628167702,0.0319529835640777,0.0562138660730777,-19.22964367988103,49.16911655848587,-6.648891836714454,0.0006030244246306
336,1724915678684976093,-0.0404768623411655,-0.1420620679855346,0.1845032274723053,-0.0239016581326723,-0.0306153036653995,-0.4731187224388122,0.880142092704773,0.0,0.0,0.0,-0.6706315984123536,0.592656633050656,-0.1977100047506312,1.539731828,-0.659463314400932,-0.4648933191097273,-0.0697517852874227,3.856143859939497,-2.7307620681127043,0.2524770501180693,-0.0131432650131686,-0.0765831165052039,-0.9859624548204564,-0.0193111717258465,0.0394765210543219,0.0523145764519519,19.869859104388407,-12.602837744119006,-5.640732853766313,0.0005591060458849
338,1724915678695126086,-0.0406327322125434,-0.1415918320417404,0.1850301325321197,-0.0255149602890014,-0.0307959970086812,-0.4733015298843384,0.8799921870231628,0.0,0.0,0.0,-0.6043871606835283,-0.0459181557579089,-0.529603374408993,1.549881821,-0.2647539623172261,-0.1817812641448264,-0.0367974337194225,20.065760334734037,8.852164174394998,6.226923815701755,-0.0158035875525136,-0.0784334060263196,-0.9863102324041562,-0.0221052130714614,0.0438981647166221,0.0522552574005423,-16.557000752915542,-56.72962936460548,-38.56212653058157,0.0005647276626707
340,1724915678705320040,-0.0409271642565727,-0.1411692202091217,0.1855663359165191,-0.0273493584245443,-0.0314633548259735,-0.4730465710163116,0.8800506591796875,0.0,0.0,0.0,-1.0095002912986144,-0.5609030365671475,-0.9827324881163232,1.560075775,-0.2529049913260474,-0.2864830793176216,0.0571910142625167,34.44044956247724,1.67603317002947,14.974531529128974,-0.0184323654133652,-0.0813434079131437,-0.985675432864348,-0.0316357909354139,0.038499934143811,0.0414942037975283,-34.76327628441193,-23.194283945719626,-1.8675764068800795,0.0005759499717292
342,1724915678715512636,-0.0412776693701744,-0.1408069431781768,0.1858760863542556,-0.0257870554924011,-0.033142190426588,-0.4717500507831573,0.8807318806648254,0.0,0.0,0.0,-1.3131039481390716,-0.5188437931895997,-0.5677924624592636,1.570268371,0.4372776074201528,-0.1476451760268519,0.268465973810326,19.16174933791908,7.202907169478874,8.01129632542768,-0.0142024406118219,-0.082803446858535,-0.9829055375445838,-0.0426852387008152,0.0324633720597464,0.0322205344158312,24.821849709396677,-6.609361343878792,25.898822438718163,0.0003483762357371
344,1724915678725815402,-0.0418038517236709,-0.1405045539140701,0.1862271130084991,-0.0255796704441308,-0.0340632125735282,-0.470717191696167,0.8812552094459534,0.0,0.0,0.0,-0.4886700229281602,-0.6987426029865532,-0.455207866882489,1.580571137,0.1290661535049721,-0.1402787936807673,0.2185682293950661,-42.58733208964435,-1.3978703164038224,-3.29047196144324,-0.0130628239633612,-0.0842178676668173,-0.9806261666471549,-0.0585990706364394,0.0278823044543097,0.0299328666284246,34.44181289715448,-16.863476322569174,11.291781017702544,0.0003920018298642
346,1724915678735566756,-0.0424447432160377,-0.1402462124824524,0.1864808052778244,-0.0277432575821876,-0.0338578596711158,-0.469898372888565,0.881634533405304,0.0,0.0,0.0,-0.5734833974494848,-0.8576675308245274,-0.3417366014155302,1.590322491,-0.4031729331247187,-0.1734104759565879,0.2008119563403403,-11.056974917532578,6.700721209320356,-6.464780761521815,-0.0171634141603124,-0.0858790636382106,-0.9786353957222946,-0.0536184470075933,0.0187234306601151,0.0233419987624436,-29.160011530962464,0.9465641878815916,29.678078904671622,0.0002951297300657
348,1724915678747585080,-0.0429098457098007,-0.1401362717151641,0.1867217272520065,-0.0270186699926853,-0.033855140209198,-0.469597727060318,0.8818172812461853,0.0,0.0,0.0,-1.2270335199884237,-0.5908635357305795,0.2821822429545539,1.602340815,0.1086329200872727,0.0567011934374687,0.0543295586628363,-23.388909457857167,-27.848076558598972,-6.895813509079084,-0.0159128388813286,-0.0851869008789798,-0.9779914063834608,-0.0765709428279479,0.0096239996947495,0.0241845207313389,158.161729898705,18.245340712810403,4.509072302221014,0.0002647205153878
350,1724915678755295627,-0.0436875931918621,-0.1400597095489502,0.1869286745786667,-0.0290824510157108,-0.0344590917229652,-0.4695150256156921,0.8817723989486694,0.0,0.0,0.0,1.0438838796808287,-0.4697438310248382,0.0824459932198953,1.610051362,-0.3980719665346353,-0.3904977789392286,0.0273398417544278,-19.274637762315436,-23.518979925476273,-1.8287735683954345,-0.0190050863038694,-0.0881937334149669,-0.977727257620496,-0.0826545576582162,0.005890608482562,0.0274094183156226,197.377713526162,25.490811530821315,-33.60872132777115,0.0002385340294141
352,1724915678765196476,-0.0442743897438049,-0.1400527358055114,0.1872072964906692,-0.0295110344886779,-0.0352657921612262,-0.4693548083305359,0.8818114399909973,0.0,0.0,0.0,1.7630761317893298,-0.0929949499191829,-0.3482579351203212,1.619952211,0.0015152743269307,-0.1850077207431114,0.0304849224747718,17.783958358889752,16.063014621150614,1.3896511873166393,-0.0190201523115971,-0.0900193790594613,-0.9773891446423116,-0.0490171549176006,0.0014234401949604,0.0239565767087199,-18.660986543573685,36.38534776737137,-37.14195509315732,0.0002982779255221
354,1724915678778076757,-0.044733989983797,-0.1400223523378372,0.1874457448720932,-0.0305363163352012,-0.0351288840174675,-0.4690005183219909,0.8819705247879028,0.0,0.0,0.0,-0.0071405601355083,0.3477286176830951,-0.7200906527820372,1.632832492,-0.1476947098153917,-0.0567284223757003,0.0663466696771221,37.72277720753016,-1.152927590881033,10.623695441012568,-0.0210012562015565,-0.0907328178320156,-0.976516627717778,-0.0536939042017268,0.0062276715194347,0.019479027316807,28.79455976496652,-20.51293867682812,-23.380197385186097,0.0002553678125587
356,1724915678785758645,-0.0452289804816246,-0.1399567872285843,0.1875998079776764,-0.029524341225624,-0.0361648127436637,-0.4683136940002441,0.8823280334472656,0.0,0.0,0.0,0.9756472922122488,-0.0605960174937395,-0.8745504789952816,1.64051438,0.3679896654183571,-0.1164963498272932,0.1838734307235769,25.166876893388636,-0.8515740177956499,7.025454887644638,-0.018305112795489,-0.0915998041533384,-0.9750809036183286,-0.0521179467934789,0.0087831425681326,0.012240923573314,89.93906189994621,-52.65243027613981,12.352299264768495,0.0001769297714121
358,1724915678795553022,-0.0455856174230575,-0.1398676633834839,0.1876221150159835,-0.0292477831244468,-0.0365162007510662,-0.4676465392112732,0.8826764822006226,0.0,0.0,0.0,1.3820500343102229,-0.5700277344640985,-0.3482222505886044,1.650308757,0.0904580310166878,-0.0383116282545341,0.1493625422907482,-14.527567486116824,5.130765624183262,-0.468034779439348,-0.0175543636317133,-0.0919487421313307,-0.973605178991403,-0.032940308741062,0.0032787198500114,0.004520411689544,-39.723324395616146,-32.939369700800675,70.19541328311259,4.308930864561024e-05
360,1724915678805247145,-0.0458716303110122,-0.1398917287588119,0.1876874566078186,-0.0289634000509977,-0.0367458127439022,-0.4668845236301422,0.8830797076225281,0.0,0.0,0.0,0.2177005591997655,-0.7063397007981109,0.4901698373459283,1.66000288,0.0821146726334675,-0.0159365322678394,0.1741426170147437,-0.7862161992918094,1.6981659631366477,1.4753212176068646,-0.0169143284263339,-0.0920741297889991,-0.9719075401429932,-0.0250689681079024,-0.0023242411985342,0.0053668147907482,295.0604272535513,159.0035895663696,140.72027710344986,7.38254206593474e-05
362,1724915678844260455,-0.0461533665657043,-0.1399575620889663,0.187681183218956,-0.0283342413604259,-0.0380685925483703,-0.4657447934150696,0.88364577293396,0.0,0.0,0.0,76.91316748412429,32.6691940344536,14.495480715746965,1.69901619,0.0631301563762006,-0.0454504106253971,0.0619956937916914,1189.8093767936575,-813.2858887435948,1570.3128383412577,-0.0146794354824586,-0.0938088800392998,-0.969450611949052,-0.1098798511592775,-0.0500349522966416,0.0877413446125672,52109.992841514395,43370.54880007048,11067.159736544929,-3.5735321831113773e-07
364,1724915678845183999,-0.0462570898234844,-0.1400048285722732,0.1877641379833221,-0.0280517973005771,-0.0386361144483089,-0.4650819301605224,0.8839792013168335,0.0,0.0,0.0,126.13532085573176,73.6532950892021,24.95059847227008,1.699939734,1.1879944670758804,-0.8143197418081926,1.5466427065560495,440.7878055112486,75.95589799346578,652.4755700800682,-0.0137181820885385,-0.094540581040599,-0.9680052569486616,-0.0371181056835361,-0.0191225431379606,0.1013993063921816,25289.760191612757,30245.064293760217,3446.3065204424947,8.291233801566934e-05
366,1724915678846302546,-0.0461967438459396,-0.1399827897548675,0.1878932416439056,-0.0276320613920688,-0.0385361984372139,-0.4645902812480926,0.8842551708221436,0.0,0.0,0.0,116.48097891951858,88.33896214508295,18.13789167169324,1.701058281,0.6281462042208436,0.5013754735923367,0.9825992152752672,-8512.984917179972,1434.5583143732506,79.70168094490009,-0.0131187473678349,-0.0939650551163969,-0.9669087851324878,0.168116317632375,0.1176973696229595,0.1430743713627293,-48441.68715009636,-20778.05752708031,-14865.751639160178,0.0001278259078298
368,1724915678846946674,-0.046046108007431,-0.1398706287145614,0.1879956573247909,-0.0296490006148815,-0.0369205251336097,-0.4643432796001434,0.8843885660171509,0.0,0.0,0.0,70.51147023589164,62.378054580209074,5.3075195991232675,1.701702409,-7.827359042907647,1.5212271203541077,1.2505469397607154,-12107.783852456892,1454.7581817402204,375.7946285801277,-0.0182346375888364,-0.0929726924900791,-0.9661153506715972,0.2182920020062942,0.1619946864717807,0.1476652236555327,-66932.43011175736,-38027.20068489624,-18609.712653367824,0.0001059946970579
370,1724915678855191925,-0.0458893626928329,-0.1398155987262725,0.1880169808864593,-0.0300567578524351,-0.0369410887360572,-0.4639584124088287,0.8845759630203247,0.0,0.0,0.0,-13.314567227596095,-10.866608459818885,-9.948383113539832,1.70994766,-0.0803618071372015,-0.0514278291038824,0.1071728692190833,534.1922947958578,-101.34515342263464,-78.0756236173539,-0.0189805417149123,-0.0933802209386172,-0.965220137472198,0.0201673031064073,0.0015788238874572,-0.0006339961451917,-4916.493449133815,-4406.655409199571,-579.861887953497,2.0167043848793112e-05
372,1724915678865184185,-0.0456738360226154,-0.139861524105072,0.1879716515541076,-0.0284850802272558,-0.0376586392521858,-0.4636274576187134,0.8847712278366089,0.0,0.0,0.0,1.1341377536928323,-0.6900079632642913,-0.3586559622395216,1.71993992,0.3485250993681246,0.0183604077346383,0.0607915890136058,21.52832646816307,3.898046095132395,-3.884925746065748,-0.0155545113404476,-0.0931862998550546,-0.9646133306778232,0.0168696780028418,-0.0029960427691824,-0.0027096981674343,890.3245805888384,680.2208473789169,619.5237486248602,-5.771546833748113e-05
374,1724915678883570426,-0.0455226637423038,-0.1398624777793884,0.1879836320877075,-0.0283842235803604,-0.0378593578934669,-0.4634948074817657,0.8848353624343872,0.0,0.0,0.0,-1.2951639296714177,0.3739292714021314,-0.4771657397841506,1.738326161,0.0205714735796288,-0.0143796109301197,0.0149659709531312,468.2878073221733,-0.9384459676768566,147.92988043876278,-0.0152024081348846,-0.0934464177630275,-0.9643328536660783,0.0872568961742175,-0.023537267507649,-0.0144100622418363,-540.4667938996514,130.33280534283003,98.19963473321047,5.694807945346326e-06
376,1724915678885400604,-0.0453485697507858,-0.1399098336696624,0.1879545152187347,-0.0276195015758276,-0.0382739156484603,-0.4632072150707245,0.8849923610687256,0.0,0.0,0.0,-2.3587046830070846,0.6256633044604878,-0.2783789721671845,1.740156339,0.9661822918196544,-0.0159436982964164,0.3131074715041524,428.69133407865064,-0.6022320288880716,137.59234153639915,-0.0134878683806497,-0.093467382203253,-0.96375700642323,0.0839531462039103,-0.0225812596678076,-0.015254357988534,-501.3187915195049,110.89008343718446,104.0080561793382,-4.03206113423405e-05
378,1724915678895952440,-0.0451423078775405,-0.1399477273225784,0.1878333985805511,-0.0270425006747245,-0.0386081598699092,-0.4621267914772033,0.8855602145195007,0.0,0.0,0.0,-2.794137139966676,0.1740978642729327,0.5387616461226885,1.750708175,0.1369432950888191,-0.0069446470336619,0.2251522294068246,-18.792824372835405,17.650771023411814,-11.149971256872089,-0.0122656888357934,-0.0935100465602669,-0.9613699172579326,0.0253884050269039,-0.0096946421311967,-0.0070623789118773,129.51073060977143,-63.90830583423991,40.70407154627209,-0.0001326943360411
380,1724915678905266371,-0.0448578223586082,-0.1400882005691528,0.1878039240837097,-0.0245537851005792,-0.0383527688682079,-0.461676150560379,0.88587886095047,0.0,0.0,0.0,-0.1838841602399762,-0.5947178073112778,0.6158561909179381,1.760022106,0.4534927060153011,0.2955534346311145,0.0981640087976167,-7.452725615809535,-1.1766463057544092,-5.052983805986178,-0.0081237574653587,-0.0907481122049402,-0.9604800397221722,0.0220222478912899,-0.0166821553431582,-0.0039977117020262,181.48027430973863,-36.022941695271136,27.381913832819645,-5.3319410701228806e-05
382,1724915678916305145,-0.0447262153029441,-0.1402932852506637,0.1877488940954208,-0.0258242040872573,-0.0386674813926219,-0.4609342217445373,0.886215329170227,0.0,0.0,0.0,0.5271938505501323,-0.3837208527006587,1.1680648927028296,1.77106088,-0.1709293922118392,-0.1577407043324459,0.1546539695144455,-11.814393489194876,-16.43315806452766,1.8471364287647976,-0.0101689027869795,-0.0924736883082635,-0.9587497246781383,0.0223149829687652,-0.0212126470812998,0.0065529973437801,17.806235954543176,26.66166522981832,-17.960734828988606,-7.737624453421109e-05
384,1724915678926723352,-0.0443915463984012,-0.1405401825904846,0.1879306137561798,-0.0253870226442813,-0.0393994972109794,-0.4602384865283966,0.8865572214126587,0.0,0.0,0.0,0.2544072957723997,-0.0317431161063324,0.3124800203726422,1.781479087,0.1460096658670965,-0.0867631920797924,0.1417427426952345,-30.944080843467077,-1.7705272589587029,-6.586222513919418,-0.0087861446579584,-0.0933635660954982,-0.9572580534206874,0.0327302982661974,-0.0249478475933067,0.0208093739801622,-31.545402013800096,29.935873624851173,-66.21929945440739,0.0001452940196177
386,1724915678935380467,-0.0441038310527801,-0.1407651454210281,0.1881349831819534,-0.0278829857707023,-0.0389007739722728,-0.4601375162601471,0.8865566253662109,0.0,0.0,0.0,-0.0572558979717647,0.1997266135934612,-0.1463741162802767,1.790136202,-0.5633245525165066,-0.1638371261996252,0.0462607663966462,-23.64658440763153,-2.0950823888212984,-2.5632637724931753,-0.0137022029662981,-0.0947773230720886,-0.9568397329992306,0.0295711447529218,-0.0228718659058904,0.0159184886488725,-2.6670414594331397,8.327109171789978,-51.80226735054892,0.000171794962084
388,1724915678947155936,-0.043814294040203,-0.1409845948219299,0.1881992816925048,-0.0276534967124462,-0.0395395085215568,-0.4593113958835602,0.8869638442993164,0.0,0.0,0.0,0.4452480237345946,0.0029013805249122,-0.7371359030733247,1.801911671,0.0918607956700359,-0.079465436540062,0.1516783872189082,-24.5218589416828,4.0658158400707425,-12.622803461977512,-0.0127922783339335,-0.0956893235019572,-0.9550332181942888,0.0338248073999145,-0.0211618600357645,0.0208993157832715,-9.295248626705028,-9.590258144083135,-74.6225108454948,3.2310105223355623e-05
390,1724915678955790784,-0.0434637367725372,-0.141183316707611,0.1884775012731552,-0.0301670115441083,-0.0385513193905353,-0.4597688615322113,0.8866884708404541,0.0,0.0,0.0,0.0359243648117706,-0.0347971165942757,-1.536327028354399,1.810546519,-0.6274543137095896,-0.0639815736817571,-0.0939281460774507,7.179632055069545,-6.457212852411259,5.590268209299309,-0.0181330146414297,-0.096254288013953,-0.9558395038171078,0.0382014412534843,-0.0220379334589244,0.0071885487984602,-38.961158969531546,5.095932212390181,24.881349316424934,0.0002449686706216
392,1724915678965319741,-0.0431249178946018,-0.1413830518722534,0.188282772898674,-0.0290322117507457,-0.0402620360255241,-0.4583244919776916,0.8873977065086365,0.0,0.0,0.0,-0.2465561583333673,0.113258628873324,-0.0643232233313532,1.820075476,0.3924513471439926,-0.2122703356340347,0.3172299066076687,36.351828845191505,-4.257405874343591,8.329013457441517,-0.0146914263949862,-0.0982271065020341,-0.952769198249176,0.0335916003365674,-0.0216685325058154,-0.0069093410181402,26.945796426271983,9.564474871746896,110.74735923961896,-0.0002266260229978
394,1724915678976078666,-0.042787380516529,-0.14162477850914,0.1883727461099624,-0.0296846646815538,-0.0406559593975544,-0.4583987593650818,0.887319803237915,0.0,0.0,0.0,0.7307901335442393,0.1436043979340517,0.5959879170416607,1.830834401,-0.0750432530235696,-0.1207522596741255,-0.0161311784514625,-25.61488319875573,1.8995921240446896,-11.48979372732531,-0.0154835410229345,-0.0995287428090059,-0.9529238975136995,0.0338205348251805,-0.0195450825662035,0.0095894296717347,73.8093793036857,-14.167802814470043,2.771395717962509,5.26060170847055e-05
396,1724915678986737885,-0.0424010306596756,-0.1418022513389587,0.1884879171848297,-0.0308705009520053,-0.0410603284835815,-0.4580879509449005,0.8874213099479675,0.0,0.0,0.0,1.3376842322171545,-0.1868174337053396,0.0066667113370669,1.84149362,-0.1597123225720089,-0.1702732562460635,0.0672703631912495,33.3718705414325,16.52312232448249,10.2549813138379,-0.017261194291015,-0.1013317555374055,-0.95217356999994,0.0491029391210684,-0.0185821217263217,0.0060416981535151,-24.88128817860823,-27.917316504582885,10.443959249207584,8.093474468386649e-05
398,1724915678997027152,-0.0417680963873863,-0.1420126408338546,0.1885027736425399,-0.027705118060112,-0.041470006108284,-0.4570941030979156,0.8880189657211304,0.0,0.0,0.0,0.2690512753939957,-0.443461472150958,0.7669820990312032,1.851782887,0.5940081578664661,0.2099909488194404,0.1969279350877092,3.7137867464244296,-1.2853607364641162,8.077894366974672,-0.0113499272471807,-0.099142331242977,-0.950168332728928,0.0619128230796435,-0.0232571132940684,0.0094822497336881,-125.34525802572792,11.147835891369358,18.18294638746245,-3.413219623249975e-05
400,1724915679005580836,-0.0412356778979301,-0.1422315537929535,0.1886410415172577,-0.0273905396461486,-0.0419759564101696,-0.4561736583709717,0.8884781002998352,0.0,0.0,0.0,-0.9558981856215274,-0.0914704142484397,0.5263597192296476,1.860336571,0.1312907335402359,-0.0729421946956556,0.2338587914362135,-43.86608421837406,-25.284183557575457,-0.1879692665646857,-0.0104271527036093,-0.0997444312006823,-0.9481512783004904,0.0572745456605809,-0.026972872212208,0.0191189257614539,552.2362578463814,-278.42812929135306,71.83418800514536,9.212681240302734e-05
402,1724915679015443605,-0.0407273098826408,-0.1425132751464843,0.1888632029294967,-0.0287642553448677,-0.0425591580569744,-0.455387681722641,0.8888100385665894,0.0,0.0,0.0,12.399403565611962,-6.471858661197361,2.3716661818197995,1.87019934,-0.1850172088130075,-0.2336888769111548,0.1807673596224932,-19.867649036381344,-8.848328162504892,-5.74996824882182,-0.0124350715104469,-0.1020287142439892,-0.9463328753085484,0.0431427086238099,-0.0239751083522181,0.0174841099140921,-588.682686837135,322.4955938860389,-194.14919031044877,0.0001705220345857
404,1724915679040382755,-0.0401811748743057,-0.142821803689003,0.1889813393354416,-0.0276970360428094,-0.0428885035216808,-0.4551880061626434,0.8889304399490356,0.0,0.0,0.0,-124.79747838440926,62.70350886391452,-26.512290323608795,1.89513849,0.0890564735772133,0.0154498955528525,0.0142273988174821,-2864.129671009861,-1914.5354708626023,-1421.4710802209918,-0.0102498886484539,-0.1016394183421379,-0.9459807122606456,1.2246560248017744,-0.6126703960069904,0.2366451650908629,-14017.402827625105,7053.289446169103,-2954.2171199224176,6.240971321982557e-05
406,1724915679040844985,-0.0396047979593277,-0.1431101411581039,0.1890927106142044,-0.0280424989759922,-0.0429422184824943,-0.4553293287754059,0.8888446092605591,0.0,0.0,0.0,-131.34970122482156,66.00041401489423,-27.89320498343708,1.89560072,-1.2594616633012266,-0.885993465555949,-0.6549398752663221,-2704.685591642759,-1807.5599609487783,-1333.8873153417314,-0.010801552309277,-0.1020521102846408,-0.9462806357454536,1.165495857655594,-0.5829475358751339,0.224087968919227,-12818.022494048611,6450.284214975564,-2702.489204410735,5.5855472810556535e-05
408,1724915679046955883,-0.0390630289912223,-0.1433723270893097,0.1891003549098968,-0.0302929151803255,-0.0431796722114086,-0.4543178975582123,0.8892767429351807,0.0,0.0,0.0,-100.03086857042916,50.293266509163495,-21.38167613235864,1.901711618,-0.6010898746389469,-0.4076475329425792,0.3880763152715631,128.2182416830551,75.73386401516319,89.0517349409845,-0.0147238436555741,-0.1045127436614355,-0.9438647234590708,0.0912908070097859,-0.0425082080261276,-0.0050699431087046,8276.632261302799,-4187.686637339537,1745.8472003507757,-4.350504997705265e-05
410,1724915679054919670,-0.0383086651563644,-0.143706738948822,0.1889943778514862,-0.0277899708598852,-0.0436949767172336,-0.4533422589302063,0.8898310661315918,0.0,0.0,0.0,-1.409159205313248,0.1579088613743227,-0.4177665621550204,1.909675405,0.6325739386157377,0.1690815298106802,0.2500733129977346,57.55887284874576,33.126520700728875,-16.766556005897133,-0.0098919300564045,-0.1031418089441699,-0.9418792570104568,0.0808813270926098,-0.0378744767741014,-0.0080664649380004,7152.34645208407,-3641.3431234232417,1524.6930831240052,-0.0001748497612539
412,1724915679065690767,-0.0376391485333442,-0.1440547108650207,0.1889838427305221,-0.0287156719714403,-0.0435018315911293,-0.453001856803894,0.8899845480918884,0.0,0.0,0.0,-0.5819787935416585,-0.3987801337955619,-0.1323022614309704,1.920446502,-0.1656543122016024,-0.0465219603938693,0.0776701261716467,-23.380664542499964,-19.41781326496664,-2.829545344416577,-0.0117635712396552,-0.1036338257416635,-0.941032860472744,0.0642163625363509,-0.0423496072279423,-0.0131708139544901,81.92430743385187,-0.2721857824742342,60.00353493546787,-7.640179142351799e-05
414,1724915679075718868,-0.0369759686291217,-0.1445731669664383,0.1887379288673401,-0.0289605185389518,-0.0446954853832721,-0.452182412147522,0.8903340697288513,0.0,0.0,0.0,0.2874433319889151,0.0784856261088546,0.7821940153896412,1.930474603,0.0734938378855225,-0.2356528824461736,0.1723161216919906,-11.576621891377012,-2.6677967439050763,-5.936647338727564,-0.0112111795426035,-0.1059769629644039,-0.9392680691819448,0.0673918039300298,-0.0461927377125945,-0.0113083398829569,23.7544354724818,30.925701357185194,66.40982024426074,-0.0003276234569802
416,1724915679084665948,-0.0363629534840583,-0.1449424922466278,0.1887422353029251,-0.0304693989455699,-0.0445818565785884,-0.4522416293621063,0.890259325504303,0.0,0.0,0.0,-0.0024812757131846,0.2221334167838928,1.1785310579308104,1.939421683,-0.312861839572092,-0.1302653723783028,-0.0035296959780191,5.8893622695457495,17.197076762281654,-7.36907114492633,-0.0140085750558041,-0.1071427629260489,-0.9392850443059322,0.0697304030996737,-0.041804784168276,0.000451377449675,-5.041117693280466,-17.268110670220914,-3.980307719884692,-6.241387276943222e-05
418,1724915679095115271,-0.035619493573904,-0.1453857421875,0.1887465864419937,-0.0285959634929895,-0.0448544174432754,-0.4518554508686065,0.8905038237571716,0.0,0.0,0.0,0.2787782026436081,-0.3649784413800507,0.547761818059733,1.949871006,0.347538882845437,0.1155537463020399,0.0693911552014654,13.34492136674991,15.08942180929886,-4.4935711986467295,-0.0104529815726784,-0.1059265235042127,-0.9385707034707256,0.0664843503634939,-0.0427579280816043,0.0111085548850002,18.376321357741254,-18.679498152963745,-78.63286640958891,-7.639459837905823e-05
420,1724915679106199189,-0.0349374301731586,-0.145863652229309,0.1889954209327697,-0.0285550616681575,-0.0437392964959144,-0.4524756968021393,0.8902456164360046,0.0,0.0,0.0,0.3820522034218854,-0.1310475874793906,-0.538579349771163,1.960954924,-0.0906998236871086,0.1836274810367513,-0.1152932438923583,-0.7473298848325971,-2.882221409965867,6.0867193780660145,-0.0113213998240206,-0.1039052412379965,-0.939877854312031,0.0765042102362842,-0.050021960296025,0.0116290465988342,647.4493342674867,-341.8685130651708,-232.8432816252248,0.0001687698807669
422,1724915679115049694,-0.0341545492410659,-0.1463551670312881,0.1890218704938888,-0.0276887491345405,-0.0437091030180454,-0.4520617723464966,0.8904846906661987,0.0,0.0,0.0,10.622063745203072,-5.721938953941917,-3.552239633200291,1.969805429,0.1768262182682606,0.0943454139389264,0.0993480003508472,24.4287009271414,-8.504671231086753,19.536263721237017,-0.0098467914305784,-0.1030609720929582,-0.9390027404714908,0.0761968959016212,-0.0474763677654418,0.0027242731286342,385.3468007389862,-979.0343858737228,7144.043048673369,-5.869828136525359e-05
424,1724915679155990353,-0.0333566814661026,-0.1467726677656173,0.1890833675861358,-0.025832075625658,-0.0435968227684497,-0.4519049823284149,0.8906255960464478,0.0,0.0,0.0,-119.7393021810476,-111.58298753553844,1706.3781670623323,2.010746088,0.0788134050979287,0.0459754440556024,0.0061197067039267,-32229.285487892874,-72589.27298004132,9930.811700213788,-0.0066441997189498,-0.1011767112815854,-0.9387665434304844,2.529288247100311,-1.419846452582192,-0.6248970028298118,11943.188271754188,-621897.7863312132,-601363.9442386525,-1.7812155662435807e-05
426,1724915679156260527,-0.0326688587665557,-0.1471587866544723,0.18891341984272,-0.0280952788889408,-0.0454264990985393,-0.451559841632843,0.8906407952308655,0.0,0.0,0.0,-116.48559236564596,-280.70778499754397,1542.7586143195315,2.011016262,-8.686159597167155,-19.695177679243848,2.7068767468964707,-14166.67501534765,-25138.397503171007,5046.0795486489205,-0.0090715508195105,-0.1064919511296565,-0.937989388576972,2.4966174855765573,-1.4501324531459543,-0.1608083169878682,-58704.401437349414,-428837.45040826173,-1869522.5139199449,-0.0002423467649694
428,1724915679156592580,-0.0318599417805671,-0.1476488709449768,0.1890511065721511,-0.0296261217445135,-0.0462249144911766,-0.4512149393558502,0.8907247185707092,0.0,0.0,0.0,-164.85089645804055,-342.6478785999261,406.169021956911,2.011348315,-5.9320242093319235,-8.48205714021142,2.3622107120253824,22263.125505063737,27739.02536298559,-317.068761567959,-0.011129334817907,-0.1093003426698931,-0.9371715782738484,2.459749792459476,-1.6121526546822338,0.2800586393198614,-158829.13065040758,167272.1591012432,-3057113.062030916,4.556212562133219e-05
430,1724915679156892517,-0.0311157666146755,-0.1481693238019943,0.1890986412763595,-0.0291595757007598,-0.0467603877186775,-0.4508465230464935,0.8908988237380981,0.0,0.0,0.0,-216.0587588384132,-196.62029154357177,-411.6662632009134,2.011648252,4.530055889598074,-1.7958000846018844,2.4624259094820653,33607.9091908953,21499.614330613287,310.7769913770183,-0.0098524703272101,-0.109831216080849,-0.9364230852154656,2.3957232384221063,-1.6755632566089709,0.1522157560632389,-164362.09948934603,470759.379080746,-2626927.5489203036,-4.41752793723846e-05
432,1724915679164939900,-0.0302715003490448,-0.1487752944231033,0.1889705508947372,-0.0285365208983421,-0.0466765090823173,-0.4511089622974396,0.8907905220985413,0.0,0.0,0.0,-164.10413532508198,115.2366919263482,-11.47513158884245,2.019695635,0.1247194542756087,0.0890271682995718,-0.0768753410368228,-312.54667349526693,139.042600050872,-175.91545425223515,-0.0087800753233775,-0.1091205707674613,-0.9370521143162536,0.0973503591284556,-0.0638851773324207,-0.0155869183848471,10167.927514559338,17677.12308740328,29013.153257513328,-0.0002321209793571
434,1724915679175743010,-0.0293294750154018,-0.1492999047040939,0.18880695104599,-0.027290990576148,-0.0460311286151409,-0.4508727490901947,0.8909826874732971,0.0,0.0,0.0,-0.4279563025491431,0.5575131035389798,1.5204654455578686,2.030498745,0.1545627198663834,0.210864760277058,0.0476499664997634,-23.63329498083184,-10.490047729074384,-0.8939252159990487,-0.0071641467863934,-0.106838540237133,-0.9365525884485804,0.0865819345349061,-0.0522179095855808,-0.0035684205526997,6973.588510772445,-4899.768807214454,525.0844224370768,-0.0002640388662365
436,1724915679184933796,-0.0285385474562644,-0.1498084217309951,0.1888646632432937,-0.0284958314150571,-0.0457091741263866,-0.4511584639549255,0.890816867351532,0.0,0.0,0.0,-0.2738970921090025,0.2157396605067605,1.0461114069562925,2.039689531,-0.2690368390954806,-0.0557535495422925,-0.0576847576797981,-14.055955238184197,-8.564648016684362,-2.0548583051372393,-0.00958027284175,-0.1073553738037851,-0.937081432580913,0.0870964392935118,-0.0511792349250326,0.0135957452284003,2.571278988579934,-21.120994964483433,-82.40047130693362,-3.3487245077603326e-05
438,1724915679195256009,-0.0276274643838405,-0.1502885967493057,0.1890898197889328,-0.0284833349287509,-0.045178260654211,-0.4510435461997986,0.890902578830719,0.0,0.0,0.0,-0.4118718556006659,0.1839707789275153,-0.1613732288606528,2.050011744,-0.0427619174831943,0.0928536730708876,0.0301481379330398,10.615832723566722,-8.753569798040417,5.295788117737084,-0.0100540462745959,-0.1063939169863192,-0.936777985768692,0.0804449694462705,-0.0477614172668925,0.0148711642764514,9.023281229277408,-6.240171038053558,-76.12443614495146,0.0001300015889588
440,1724915679205268441,-0.0268979556858539,-0.1507788747549057,0.1891712993383407,-0.0291973501443862,-0.0460458919405937,-0.4507906436920166,0.890963077545166,0.0,0.0,0.0,-0.1040757459936707,0.0907779312929331,-0.5267842403136748,2.060024176,-0.0462683999585473,-0.2196263975737801,0.0519641949286247,3.8285848437287258,-6.930868981373247,-3.915595484803438,-0.0105758934873344,-0.108587434525902,-0.9362319387444444,0.0785792772143569,-0.0473484587526273,0.0104881631000441,86.84745604465145,-6.46620699581517,-19.884558997459106,-5.519323086815791e-06
442,1724915679215756648,-0.0260109677910804,-0.1512576937675476,0.1893071234226226,-0.0290583409368991,-0.0462680794298648,-0.4510389864444732,0.8908303380012512,0.0,0.0,0.0,1.4232126631641453,0.0541774800401175,-0.5528374884498771,2.070512383,0.0397973278241216,-0.0255826299970689,-0.0560610705582355,5.060361811026671,13.87066445097602,-3.506985368366517,-0.0100946145231124,-0.1088617978073381,-0.9368204778435576,0.0783914861677924,-0.0458521583502307,0.0039850230574609,84.24660075419726,1.595051577563611,-2.5285333335537707,4.0371585560545795e-05
444,1724915679228520503,-0.0251063629984855,-0.1518460363149643,0.1892187297344207,-0.0285151042044162,-0.0459748618304729,-0.4510105848312378,0.8908774256706238,0.0,0.0,0.0,1.545201754776901,0.1535188678403605,-0.5858022662741385,2.083276238,0.0555257907305756,0.0795341894214319,0.0046890676947014,1.9014180087153845,-0.6276029096164768,5.928352348395604,-0.0093913251641156,-0.1078460949173539,-0.9367701882946547,0.118942414025108,-0.0465351445874198,-0.0020273930802261,-221.4641444001441,-23.891460239719684,-2.6043816483677276,-0.000193000883996
446,1724915679235150877,-0.0241521652787923,-0.1521560996770858,0.1892221570014953,-0.0282473377883434,-0.0459431894123554,-0.4508622586727142,0.8909627199172974,0.0,0.0,0.0,-0.7188833844754146,-0.1139851711372201,-0.6031450837405332,2.089906612,0.0704376279798655,0.0448462139745501,0.0480219223414431,8.809183401224988,1.2328527315648057,6.854581584041993,-0.0089584257975269,-0.1075458496938278,-0.936452767238232,0.1235673213053214,-0.0448042007440339,-0.0063067156509806,-258.22286035015236,-45.99221496712341,61.341706817393586,-7.885789204029561e-05
448,1724915679245981823,-0.0231737866997718,-0.1526066958904266,0.1890331208705902,-0.0264975056052207,-0.0457792095839977,-0.4502005577087402,0.8913595080375671,0.0,0.0,0.0,-2.042782166831307,-0.7120347262633042,1.1928238405830671,2.100737558,0.2819166093653423,0.1725743301440038,0.1279088273409441,-10.475394111699092,-17.46994257126881,15.463732460633242,-0.0060517460839398,-0.1056663755810126,-0.9350737406024452,0.090720860053143,-0.0526743885907166,-0.0120915315060425,-12.825680785711093,11.657812213083847,105.11471371740782,-0.0002843412255539
450,1724915679255301976,-0.0223251339048147,-0.1531864255666732,0.1889634281396865,-0.0272752083837986,-0.0465537086129188,-0.4487845599651336,0.8920097351074219,0.0,0.0,0.0,-1.2848621935576183,-0.0670416289955766,1.685660419283145,2.110057711,-0.0563253024804021,-0.2249389736160382,0.3368991834670282,-31.765127881994445,-26.484559971920792,-10.38964680663882,-0.0069144806489247,-0.1077424398924445,-0.9319021956906414,0.0796206497867093,-0.0591935334129587,0.0128758738277934,53.00691990282162,70.00472385183298,-61.139610042762854,-0.0001714271450792
452,1724915679266222028,-0.0216019786894321,-0.1537943333387375,0.1893644481897354,-0.0296599082648754,-0.047233410179615,-0.4497813582420349,0.891395628452301,0.0,0.0,0.0,-1.0682851654482457,0.7076568418078624,-0.4408034557568571,2.120977763,-0.3452896532415209,-0.3073095188190322,-0.1963869275351198,-5.211565832810654,0.4228783275071333,-22.44279956663869,-0.0104526623396373,-0.1111167758861502,-0.9340302659331128,0.0643888333072718,-0.0518340008436011,0.0185757640867372,43.84297531572271,27.75716159716761,-144.41904047330115,0.0002989504068396
454,1724915679279880618,-0.0207538474351167,-0.1544367969036102,0.1893081367015838,-0.0304765850305557,-0.0480869337916374,-0.450081467628479,0.891170859336853,0.0,0.0,0.0,-0.0592673459850296,0.349002315848606,-1.5538531337954526,2.134636353,-0.0534352243346547,-0.1654443974677176,-0.0520337980051749,18.639054918480554,9.300776092995225,9.23847480235978,-0.0111051473603598,-0.1133840273402158,-0.9347208105849358,0.0553765370959842,-0.0415925047872037,-0.0038928383153141,923.3647724799732,-617.798584906278,-232.2556541537074,-0.0001680781439952
456,1724915679369007152,-0.0197256878018379,-0.1549772024154663,0.1890949159860611,-0.0290025155991315,-0.0472339317202568,-0.4501692652702331,0.8912213444709778,0.0,0.0,0.0,576.2822695310695,-398.7400812643088,-109.93554603012636,2.223762887,0.0208028732014691,0.0320606065449951,-0.0022531374457568,693.3777935519038,127.69928457535838,-250.52023260888149,-0.0092252163490774,-0.11052876890284,-0.9349521401552532,0.3993662485117113,-0.2435945063292024,-0.0893638998588528,-218156.83081868791,223543.6175094919,242711.96447874696,-0.0003225438105018
458,1724915679371096672,-0.0188722051680088,-0.1554978340864181,0.1889039278030395,-0.0274324771016836,-0.0476732887327671,-0.4506045877933502,0.891027569770813,0.0,0.0,0.0,109.43545081715229,79.52899646189235,409.1654024512521,2.225852407,1.5035557410144087,0.3050379386275825,-0.5380199170408639,-1579.8701382999427,1468.5587863042826,4552.459308149545,-0.0059585641689941,-0.1098999241418892,-0.9360879331673444,1.6315611832973185,-1.096192166759863,-0.324414920725701,-391913.05591078463,305436.3718188374,379994.3978991825,-0.0002890612050164
460,1724915679371589293,-0.0179264135658741,-0.1561362147331237,0.1887170523405075,-0.0272268317639827,-0.0474491529166698,-0.4501104354858398,0.8912956118583679,0.0,0.0,0.0,-103.19747310558591,238.88347580515497,611.6383404740309,2.226345028,0.4593793708639125,1.1838656903146474,2.263115600487442,-1083.406168998178,763.2858908448679,1138.8962053591167,-0.005854569297964,-0.1093101616801106,-0.934969899620195,1.629693504883587,-1.0003891374434772,-0.0622666919507111,678230.2868291868,-686564.3877962261,-58964.10181035355,-0.0003008244031951
