seq,stamp,px,py,pz,ox,oy,oz,ow,lx,ly,lz,ax,ay,az,timestamp,wx,wy,wz,aa_x,aa_y,aa_z,roll,pitch,yaw,vx,vy,vz,jx,jy,jz,fw
752,1724815050865296002,-1.8452664613723757,-0.4506265819072723,0.1971916109323501,-0.0044137053191661,-0.0445940196514129,0.4835495054721832,-0.8741691708564758,0.0,0.0,0.0,-0.778396307880731,-0.6097152238801128,-1.856104269545905,0.0,0.0,0.0,0.0,-28.73916602805596,21.392241758885515,-67.33269299020938,-0.0355380019618112,0.0823268909668748,-1.0119856174270248,0.0111769524886959,0.0101907507984152,0.0283650390887483,-13.413633965155526,-2.3265632789275545,-10.817688461741945,0.0
754,1724815050867834423,-1.8452380895614624,-0.4506007134914398,0.1972636133432388,-0.0043564178049564,-0.0447000004351139,0.4837347269058227,-0.874061644077301,0.0,0.0,0.0,-0.812445758024195,-0.6156210209651714,-1.883564117108648,0.002538421,-0.0729521025681038,0.0543025157178319,-0.1709187218729002,-22.6708455221985,16.98515768308942,-52.90561407935547,-0.035759399358089,0.0824491942958906,-1.012425730882204,0.009201054954449,0.0086430368700982,0.0236534650327433,-5.189591021545431,2.6897507476838207,5.873788866819304,7.249366453024867e-05
756,1724815050879068772,-1.8452329635620115,-0.4505805671215057,0.1972950845956802,-0.0042877257801592,-0.0448992662131786,0.4839630126953125,-0.8739253282546997,0.0,0.0,0.0,-0.461847030342753,-0.3359916855525635,-0.9876736625171793,0.01377277,-0.0259266678108078,0.0259989545952933,-0.0479627556918099,0.7475363623056763,-2.342128614646023,8.849958238459454,-0.0360961054122706,0.0827217235465294,-1.0129764919631905,-0.0016191869915331,0.0014332985273917,0.0011275414534424,48.15489527434475,28.494095364535102,97.91177094698618,3.0697679403325334e-05
758,1724815050887904469,-1.8452616930007937,-0.4505704045295715,0.1972934156656265,-0.0041379621252417,-0.0450166016817092,0.4838937819004059,-0.8739583492279053,0.0,0.0,0.0,0.0814038556440102,-0.0591849280788059,0.0036847734978637,0.022608467,-0.0432152154831122,0.0065363475961008,0.0156764303516158,0.6992440583801395,-2.0598353285126336,4.232636080379809,-0.0364666347260275,0.0827844630178919,-1.012839697528654,-0.0022163566156905,0.0005894068120184,-0.0005290055159514,38.19383854924253,20.2264234008411,70.64221012212042,-4.323893277962177e-06
760,1724815050899363332,-1.8452717065811155,-0.4505719840526581,0.1972822993993759,-0.0041230642236769,-0.0449294708669185,0.4837948679924011,-0.8740176558494568,0.0,0.0,0.0,0.1729565754402811,0.0076051237237333,0.1955934877397302,0.03406733,0.0042663460553483,-0.0149435743400411,0.0200429365916489,0.7203949882946387,0.9014448543937108,-3.58918432721897,-0.0363982046706154,0.0826217048818214,-1.0126031251787748,0.0009305480658099,0.0004510249256739,0.0023541308863208,-20.6321110847226,-21.505239587859027,-57.32237638685545,-1.173745839835468e-05
762,1724815050907903260,-1.845252275466919,-0.4505643844604492,0.1973235607147216,-0.0040952824056148,-0.044992484152317,0.483926385641098,-0.8739417195320129,0.0,0.0,0.0,-0.1854046873884296,-0.3500158503048932,-0.7653568113697105,0.042607258,-0.0113689939563101,0.0104224639457461,-0.0358772059667019,-1.3946193004517715,2.1550718815318484,-4.631476221632981,-0.0365209302609948,0.0826994825719416,-1.0129135951476511,0.0017605041897894,0.0006412359831449,0.0036679815788636,-6.383517297959777,5.863000022521199,-6.155189545782861,4.2158624260947885e-05
764,1724815050933381269,-1.8452465534210205,-0.4505669474601745,0.1973285675048828,-0.0039583249017596,-0.0451150834560394,0.4840095639228821,-0.8738899827003479,0.0,0.0,0.0,2.3563923929687576,3.4280797542192687,7.1630574124512805,0.068085267,-0.0137426468365795,0.003364032606031,-0.0081948260286333,1324.71680278815,-843.7379099698904,4483.945013307843,-0.0368886300602964,0.082777474235083,-1.0131261385146304,-0.0244432072349809,-0.0365745505728227,-0.0857015128975717,275.1298916061478,349.1451120915317,893.1987053589473,5.54518051836766e-06
766,1724815050933689630,-1.845254182815552,-0.450578361749649,0.1973018199205398,-0.004002456087619,-0.0450493842363357,0.4838250875473022,-0.8739954233169556,0.0,0.0,0.0,2.441886203400568,3.5364921073384905,7.440657186586826,0.068393628,0.3996926759723126,-0.2599597143202673,1.3912094234914432,1284.7299739267062,-818.3864736488425,4348.513714995148,-0.0367295880854283,0.0827131696252467,-1.0126931582832317,-0.0237039550211939,-0.035499219042645,-0.0834528809636012,262.1298448977884,330.62407557271774,853.3788006751159,-2.663196737792312e-05
768,1724815050941059539,-1.8452460765838623,-0.4505728185176849,0.1972659826278686,-0.0039585358463227,-0.044958908110857,0.4837376177310943,-0.8740485906600952,0.0,0.0,0.0,1.710040305795007,2.282616633663037,5.475224611196514,0.075763537,0.0003352193713895,-0.02778066761738,0.0272881145171709,-24.731597700042887,22.39887576529545,-90.15488458902892,-0.0367098469228427,0.0825159342439621,-1.012483793977146,0.0021355572443724,-0.0007617434895692,-0.0024673121352876,-177.18881793834123,-245.63900974276845,-522.260861524591,-3.5364719782868686e-05
770,1724815050947996597,-1.8452244997024536,-0.4505879878997803,0.1972645074129104,-0.0041402438655495,-0.0451298058032989,0.4836744368076324,-0.8740739226341248,0.0,0.0,0.0,-0.0277015631932977,0.0855878435774279,0.1834448086127911,0.082700595,0.0211072684240777,0.0681508206006002,0.0216143833238159,-0.801072545475176,4.796080842294564,-1.499074434667626,-0.0365524333934267,0.0829938769484296,-1.012350837992355,0.002270713386224,-0.0007993435570128,-0.0004861787760717,-151.20368578998293,-190.84813991859565,-470.0068165652602,9.187362240837166e-07
772,1724815050957951261,-1.8452138900756836,-0.4505761265754699,0.1972557604312896,-0.0039291912689805,-0.0451716147363185,0.4836786687374115,-0.8740703463554382,0.0,0.0,0.0,-0.1144251022413038,-0.0163284612261125,-0.3123919294607927,0.092655259,-0.0410845991912876,-0.0131381174001241,-0.0030391052712277,-4.057958882668166,-5.430053677409263,-2.169832860399236,-0.0369635270309924,0.0828620608232807,-1.012376279205311,0.0013209228407227,0.001352697151403,-0.0001191401626448,15.24568481062907,9.278602562261783,-1.8833017024692644,-8.513316856683215e-06
774,1724815050981961906,-1.8451673984527588,-0.45053431391716,0.1972968876361847,-0.0038726783823221,-0.0453980267047882,0.4840637743473053,-0.8738457560539246,0.0,0.0,0.0,1.6391022590891675,1.3367373940389236,2.4179699888699204,0.116665904,-0.0117138525363207,0.0149265347005331,-0.0373735337925515,364.7268434030403,-639.4451123351777,986.8456135631928,-0.037320521752687,0.0831869024460361,-1.0132896329575347,-0.0025276385304096,-0.01250501791867,-0.0278469692249814,64.84584209485729,203.92833918955444,460.25431389063306,4.235015455581041e-05
776,1724815050982678711,-1.8451693058013916,-0.4505435824394226,0.1972762942314148,-0.0038852614816278,-0.0452092178165912,0.4838520884513855,-0.8739726543426514,0.0,0.0,0.0,1.6854089215239856,1.486072251777719,2.7552982658106404,0.117382709,0.257502871106511,-0.4571395668856889,0.6911506765251456,321.0017661611321,-563.2480679571337,870.2084705533903,-0.0370937217192341,0.0828778691490839,-1.0127805200604525,-0.0013142163132897,-0.0115058821725373,-0.02603730140686,42.17434964538077,182.8315165602911,424.23360056830336,-2.0183721493748616e-05
778,1724815050987603901,-1.845130205154419,-0.4505520462989807,0.1972391605377197,-0.0038640934508293,-0.0452072583138942,0.4837833642959595,-0.8740109205245972,0.0,0.0,0.0,1.1341660733411474,1.5235189313422224,3.275645024086563,0.122307899,-0.0084495461196752,-0.0054486103172486,0.0315231808933029,-37.85929297744335,64.96802759895266,-94.34254720161432,-0.0371223699754571,0.0828568161147421,-1.0126238764890705,0.0067359257279733,-0.001066595241923,-0.0046608768528129,-106.72886019898526,-32.58655778477197,-3.2390261148435986,-3.360974457170942e-05
780,1724815050999016358,-1.8450851440429688,-0.4505469799041748,0.197262093424797,-0.0038756018038839,-0.045388787984848,0.4837706983089447,-0.8740084171295166,0.0,0.0,0.0,0.0534883001221321,0.0888311105616992,0.3591618615631754,0.133720356,-0.0137263220147664,0.0288086217992597,0.001696028042437,-0.3337404930751987,2.916710479274368,-5.185982988948756,-0.0372784254240466,0.0831860776926671,-1.012616655495036,0.0064489029661558,0.0005582175032721,0.0045700426923964,-47.42588700765007,-62.011944718497865,-142.72553323907937,2.598708651006216e-05
782,1724815051008065052,-1.845008850097656,-0.4505411088466644,0.197321817278862,-0.0039194384589791,-0.045640405267477,0.4840182960033417,-0.8738580346107483,0.0,0.0,0.0,-0.0365366168157017,-0.0152757325329918,-0.1228380770335362,0.14276905,-0.0158233842308048,0.0545909945346593,-0.0636862293792253,-1.659483059114737,0.2810244126319967,-1.8523259357505473,-0.0374713029921422,0.08365817835214,-1.013213079385541,0.0074970936881726,0.0009778940311342,0.0045937225304886,-12.5606743788642,-10.441293448260636,-34.44199415642313,6.49698214849389e-05
784,1724815051017710187,-1.8449461460113523,-0.4505282938480377,0.197345495223999,-0.0037897741422057,-0.0458796694874763,0.4841183423995971,-0.8737906813621521,0.0,0.0,0.0,-0.184536967488693,-0.1050457281486307,-0.2614943579035625,0.152414185,-0.0465076580244536,0.0308974344585132,-0.0263101066329163,0.5707883006923434,-2.2332246751921714,2.8001940477366007,-0.0379421219018142,0.0839464140109111,-1.0134788701764172,0.0055781371764993,0.0001966838728648,0.0021191435015008,-4.151429815021947,-1.358322054959718,-2.7980120423858015,2.772086832383429e-05
786,1724815051029317966,-1.844894289970398,-0.4505418241024017,0.197365403175354,-0.0038737328723073,-0.0458856932818889,0.4841662347316742,-0.8737634420394897,0.0,0.0,0.0,-0.0763601456400559,-0.0097675042535827,-0.1322341328246794,0.164021964,0.0125341190357176,0.008094180061496,-0.008822662672276,-1.4960080120999906,-6.025398997510772,1.5380958724786944,-0.0378055426816805,0.0840364215532039,-1.0135851127219933,0.0036375023297523,-0.0013586438559229,-0.0009851235774025,11.704384980314629,12.689929309188765,15.916619223782082,2.447993684697573e-05
788,1724815051037475127,-1.8448693752288816,-0.4505540132522583,0.1973418891429901,-0.0036141339223831,-0.0457302182912826,0.4841463267803192,-0.8737837672233582,0.0,0.0,0.0,0.0327862097585653,0.1194372799056731,0.0250062142424647,0.172179125,-0.0374013840652261,-0.0643343747011035,0.003904789578897,-3.2028719648166692,-3.151900317239742,-0.0857415807476361,-0.0381062889414115,0.0835132269049332,-1.0135332338414544,0.0035352499012546,-0.000726237603791,-0.0012887959941076,4.969171664061082,5.7230477047349275,11.156036629253514,-2.0894433684237912e-05
790,1724815051050472644,-1.8448134660720823,-0.4505475461483001,0.1973581463098526,-0.003541192272678,-0.045864999294281,0.484318196773529,-0.8736817240715027,0.0,0.0,0.0,-0.0768248065171839,-0.0156883949830244,0.0018345153650539,0.185176642,-0.0185820887273126,0.0133102830660415,-0.0312988675363082,5.794202507112775,6.256626441523437,1.308823511618248,-0.0383824228328185,0.083670543089419,-1.013947769137285,0.0049000011836426,0.001694100364368,0.0003250921650259,-14.473254432470076,-12.971072835240832,-5.804793274590337,2.014997650034128e-05
792,1724815051058355073,-1.8447719812393188,-0.450528472661972,0.1973562836647033,-0.0038278193678706,-0.0459939613938331,0.4843320846557617,-0.8736661076545715,0.0,0.0,0.0,-0.2197826533292766,-0.1302404234786227,-0.0631479939908882,0.193059071,0.047867080472286,0.0639796729299945,-0.0017779879406747,3.7607793715853286,0.389343046519756,2.578091789250899,-0.0380079167188064,0.0841739657370325,-1.0139812543389557,0.0034252443828677,0.0006052667448521,-0.0002452489184765,-9.268179723016024,-2.628183315503263,-1.5782694461443598,3.481221825444577e-07
794,1724815051068232679,-1.8447608947753904,-0.4505449533462524,0.1973537504673004,-0.0039308099076151,-0.0458988063037395,0.4842984676361084,-0.8736891746520996,0.0,0.0,0.0,-0.2015626878502986,-0.0088503882822439,0.0037691675349245,0.202936677,0.0272194559958056,-0.0069215996439172,0.0092417772316007,-2.1258469534496323,-4.484885077160784,0.8600090935742364,-0.0377311340416063,0.0841090851039908,-1.0138869401842914,0.000849706995055,-0.0005834883507596,-0.0007550250206183,8.676188230710851,9.86116541123376,7.406241774296516,-8.296044934376824e-07
796,1724815051078596940,-1.8447550535202024,-0.4505392014980316,0.197340503334999,-0.0038956755306571,-0.045777253806591,0.484230488538742,-0.873733401298523,0.0,0.0,0.0,-0.0373473256225063,0.0669463104308224,0.0873980614473367,0.213300938,0.0048005655853985,-0.0241169849352291,0.015375273231857,-4.063526858947879,-1.4246160974294475,0.2898539157405422,-0.0376671818877025,0.0838653161018399,-1.0137177034579723,-0.0005957388977151,0.0005373139570821,-0.0001137257406487,6.8917729448568466,-2.5032364427672333,-3.76056914885176,-1.3040136747786631e-05
798,1724815051088089897,-1.8447707891464231,-0.4505342543125152,0.1973495483398437,-0.0036086209584027,-0.0457449220120906,0.4841558933258056,-0.8737776279449463,0.0,0.0,0.0,-0.0497661222907314,-0.0421704160063383,-0.0511575277310825,0.222793895,-0.0502983809549521,-0.0356019563159385,0.0155015142054926,0.8952016752759882,3.22205130902163,-2.564520971804445,-0.0381312487567009,0.0835331613421199,-1.013557232471405,-6.237713212442486e-05,0.0008146479821498,0.0009378518955482,-7.457187124300566,-8.87933841581415,-13.333023306894376,7.553629178675152e-06
800,1724815051097731607,-1.84475576877594,-0.4505235254764557,0.1973584443330764,-0.0037925699725747,-0.0458533614873886,0.4843057096004486,-0.8736882209777832,0.0,0.0,0.0,-0.1818818079639437,-0.1021727534465644,-0.1673463266343813,0.232435605,0.0239386772442973,0.0388647390091483,-0.0344689070294182,4.366561714993383,1.7591547343624865,1.1426474144350194,-0.037929506672102,0.0838949895894145,-1.013904923712739,-0.0015797651345366,-0.0002910068089967,-0.0011411612032592,-17.57809251309952,-10.512585687046077,-16.889515129465792,9.459017799139231e-06
802,1724815051108879722,-1.8448138236999512,-0.4505448639392853,0.1973191201686859,-0.0039025987498462,-0.045682419091463,0.4840224087238312,-0.8738536834716797,0.0,0.0,0.0,-0.4278001140207227,-0.274657863059674,-0.4180050645342056,0.24358372,0.0296554887421012,-0.0184022798258437,0.0598028580990028,0.0659410660844165,-3.6999808145397504,5.929021700336636,-0.037542291375004,0.0837151390367626,-1.0132286161147177,-0.0039232622773699,-0.001268899078632,-0.0023844251665452,126.68193123193868,527.4845561275699,1149.3072961426883,-4.248540357414373e-05
804,1724815051143264852,-1.844812512397766,-0.4505200684070587,0.1973583549261093,-0.0037230998277664,-0.045913178473711,0.4840753078460693,-0.8738130331039429,0.0,0.0,0.0,19.703231333031397,75.44739931333334,163.37794931076135,0.27796885,-0.0154702514909187,0.0067714735196012,-0.004362483898664,673.5630811812056,223.0581211056963,465.6193187618156,-0.0380875704196301,0.0839421341381963,-1.0133878208218057,-0.0417097158065189,-0.0305393339136799,-0.0492622632258985,6737.982070141643,-6990.894708040636,-23385.79982000141,3.790522816465453e-05
806,1724815051143945863,-1.844841480255127,-0.4505412876605987,0.197324126958847,-0.0038893236778676,-0.0458863191306591,0.4839872419834137,-0.8738625049591064,0.0,0.0,0.0,24.374854586478115,70.56252984725234,147.0722924166928,0.278649861,0.4523361269129222,0.1616751719789359,0.3190346922143213,-2116.787327581161,378.050659236588,-3196.093415762975,-0.0377615957850325,0.0840603958971885,-1.0131741381463024,-0.0280110255807812,0.0218702675238091,0.0642218965833194,2689.4017947931643,-22248.291997423148,-56230.20282701004,-3.5210134224929704e-05
808,1724815051144302100,-1.8448487520217896,-0.4505236148834228,0.1973683387041092,-0.003776712110266,-0.0460089072585105,0.4842143058776855,-0.8737307786941528,0.0,0.0,0.0,24.55576853826943,59.82761365930159,121.02442685306605,0.279006098,-0.8242078394638087,0.3244127640571901,-1.503608947654916,-3224.77443405618,407.6023528862636,-4599.764897178744,-0.038100705941375,0.0841555715020372,-1.0137157264321914,-0.0185340287404471,0.0458153729690931,0.1129679592764336,-112.39487107484304,-29180.38902552777,-70214.74880408475,4.2561193855159994e-05
810,1724815051147750974,-1.844849944114685,-0.4504922926425934,0.1973859965801239,-0.0038831862621009,-0.0461161844432354,0.4843936264514923,-0.8736252188682556,0.0,0.0,0.0,3.4582886274876325,-8.96425727397445,-24.148467782334553,0.282454972,0.0288404904198136,0.086675903919749,-0.1178923196840399,186.48916313537495,-54.582970817600675,305.2094905233046,-0.0380365291552635,0.0844388092621835,-1.0141348415210332,-0.0022034545583906,0.005429327195813,0.002416935806929,-4666.201183996624,-14718.97046260151,-30921.0085170028,1.587877247942231e-05
812,1724815051158017110,-1.844929337501526,-0.4505481719970703,0.1973282098770141,-0.0041866274550557,-0.0457486920058727,0.4841266274452209,-0.8737910985946655,0.0,0.0,0.0,-0.1044966455584592,-0.3337284316685444,-0.1897269554989741,0.292721108,0.0837993487992496,-0.0351989520377753,0.0640998208338758,-3.3004517155293867,-5.98612038110235,7.885427157653609,-0.0371195378157518,0.0841024260965176,-1.013461245024655,-0.0057163771929253,-0.0026946580299664,-0.0039034844226648,-160.59177768112986,435.69730418879743,1170.092008418896,-6.068433042233538e-05
814,1724815051167970598,-1.8449667692184448,-0.4505484700202942,0.1973060071468353,-0.0039643347263336,-0.0456609763205051,0.4839129745960235,-0.8739151358604431,0.0,0.0,0.0,0.0963716743572662,0.0947560390154381,0.2269123721274284,0.302674596,-0.0325645733284835,-0.0379852915738027,0.0476085031280757,-3.3808997777702676,0.6767999969326052,-1.97194005240027,-0.0374026545484867,0.0837422658558775,-1.01297200398078,-0.0044627001672097,-0.0016003206262737,-0.0016815488704153,11.658983602315727,23.892454017696934,14.637243687489336,-2.493793442427597e-05
816,1724815051179121256,-1.8450253009796145,-0.4505859315395355,0.1972941160202026,-0.0040834033861756,-0.0454799234867095,0.4838162362575531,-0.873977541923523,0.0,0.0,0.0,0.1199253158689796,0.1218765701035056,0.0500826856677772,0.313825254,0.0335415459605031,-0.0184871531515141,0.0216838767934521,0.3873845361873611,3.672562545206158,-2.760644109580811,-0.037007740910491,0.0835452515916301,-1.0127217708280694,-0.0037576238775614,-0.0007334676610248,0.0008946497894832,-2.7820935232323523,-1.1703380576093023,-20.65222902723161,-1.434737056815444e-05
818,1724815051187632558,-1.8450475931167605,-0.4505751132965088,0.1973144710063934,-0.0041376603767275,-0.0455722659826278,0.4838332533836365,-0.8739631175994873,0.0,0.0,0.0,0.0644487049077786,0.0885109887701625,-0.1568397597033602,0.322336556,0.0008401606096793,0.0252704486153713,-0.0046434202598087,-1.8423115747911103,2.473617901368972,-1.5641839075709465,-0.0370045728013202,0.0837587355853705,-1.012769481220404,-0.0023685837069749,0.0005906013522984,0.0001453255685284,-2.759607983263414,-3.3602311276699965,-8.613077022204255,1.802796044192996e-05
820,1724815051203408589,-1.845077633857727,-0.4505856931209564,0.1972510814666748,-0.0042994380928575,-0.0453618057072162,0.4837384521961212,-0.8740257620811462,0.0,0.0,0.0,0.1308138365915715,0.0518727432986392,0.1663251005241113,0.338112587,0.0302529743235185,-0.0137073355868364,0.0153911481300339,-22.580463432535936,-11.31290566671813,-0.945669933640928,-0.0365062885063847,0.0835515570615272,-1.0125180096696829,-0.0042394591417291,2.616566568747203e-05,-0.0043408279714824,20.02335405014301,-2.0499934470050736,16.56182016603707,-6.483961415388378e-05
822,1724815051207840444,-1.8450993299484253,-0.4505847096443176,0.1972314417362213,-0.0040258783847093,-0.0453242138028144,0.4837127029895782,-0.8740432262420654,0.0,0.0,0.0,0.2392463452021619,0.0431266181554687,0.234840845408216,0.342544442,-0.1002544980923472,-0.0748531445413614,0.0084416199443107,-17.996653621450257,-7.367641391601194,-1.9739150396759464,-0.0369464564945371,0.0832214104066494,-1.0124682104394476,-0.0033492008835764,0.0003651843857674,-0.0030425847254429,18.796703454638525,0.9800596157585226,9.994288775732407,-2.1242941893862768e-05
824,1724815051218074035,-1.845097064971924,-0.4505775868892669,0.1972331255674362,-0.0039631989784538,-0.045366384088993,0.4838049113750458,-0.8739902377128601,0.0,0.0,0.0,0.297621899220672,0.1229491112995746,0.2079654271004586,0.352778033,-0.013834872944225,0.0016749294831731,-0.0213485191393311,8.405259619268426,4.5973019457017585,0.3871989723674194,-0.0371062987008709,0.0832304444162208,-1.0126878521532403,5.82750361388662e-06,1.7996084991978023e-05,-0.002012094358001,-4.817760379289779,3.2644946042379264,-0.4005486011421553,1.4857622852011512e-06
826,1724815051229373066,-1.845099687576294,-0.4505858421325683,0.1971832364797592,-0.0044159111566841,-0.0452327169477939,0.4837057888507843,-0.8740499019622803,0.0,0.0,0.0,0.1119189054336021,0.1032519213513766,0.2312054520998602,0.364077064,0.0806443582407601,0.0176805762879007,0.0241729825295245,-5.777221126362024,3.025695036220214,-5.419616709393011,-0.0361729106345245,0.0834400953008883,-1.0124213623183125,0.0029916253818242,0.0033642853186961,0.0016759314539065,-21.844987436504677,-18.840781358502383,-18.320672184586204,-4.945420062517772e-05
828,1724815051237762676,-1.8450545072555544,-0.4505321085453033,0.1972352415323257,-0.0043034646660089,-0.0455422699451446,0.4839880168437958,-0.8738781213760376,0.0,0.0,0.0,-0.1050508096604275,-0.1613212132804551,-0.0494362337034296,0.372466674,-0.0559005518004728,0.0530888938586017,-0.0801529111411592,-5.953713794809925,-1.2937997663864758,-2.936018927006968,-0.0366995987844006,0.0838606960573348,-1.01311198149733,0.0029816425397086,0.0030288553280151,0.0030226432185731,-14.37834974003002,-16.491950900682497,-24.59136464854111,5.24224677557302e-05
830,1724815051247709648,-1.8450531959533691,-0.4505417943000793,0.1972278505563736,-0.004273057449609,-0.0454184673726558,0.4839784502983093,-0.8738900423049927,0.0,0.0,0.0,-0.1126436062539083,-0.1479475523390876,-0.1895592045443878,0.382413646,0.0066069909318462,-0.0248129430152526,0.0026696662864578,1.312243720157086,-3.3970323585761504,3.373981952551526,-0.0366308944070244,0.0836150261658404,-1.0130763167633825,0.000711829098634,-6.812175580961366e-06,5.4782638311934306e-05,5.503328955701582,6.992646917547557,-3.842816393461302,-6.763391147420896e-06
832,1724815051258777116,-1.8450381755828855,-0.4505299627780914,0.1972382813692093,-0.0040530068799853,-0.0454886220395565,0.4840699732303619,-0.8738367557525635,0.0,0.0,0.0,0.0254330735029397,-0.001004280273039,-0.1059407149028804,0.393481114,-0.0400938716538214,-0.0078000059366238,-0.0209740216223788,-2.44015843408085,1.2924915087477618,1.253391255315073,-0.0370937966403911,0.0835202047483267,-1.013305919783481,0.0008880264046382,0.0002920350131958,-0.0007032631961187,9.86369060628124,8.044200641725826,15.20138984766579,1.0917614024969109e-05
834,1724815051269456012,-1.8450335264205933,-0.450534850358963,0.197213813662529,-0.0038455424364656,-0.0456278584897518,0.4839307069778442,-0.8739075660705566,0.0,0.0,0.0,0.1038502296260504,0.0309798473916526,0.135177982456866,0.40416001,-0.0478162284954619,0.0034808848383275,0.0273383168209079,5.782174040212581,-2.369433351862245,-0.2726566971643882,-0.0375801072279312,0.0835682482924736,-1.0130145486319797,0.0012576429488291,-7.268547850713958e-06,-0.0022204514454262,4.999413245894991,-1.8906482165591831,17.128003417423912,-2.376294841829224e-05
836,1724815051278398688,-1.8450161218643188,-0.450531542301178,0.1971944868564605,-0.0039550331421196,-0.0453447662293911,0.4839852154254913,-0.8738915920257568,0.0,0.0,0.0,0.1310064368276217,-0.0225155313433586,0.2475271493362419,0.413102686,0.0526084868521782,-0.0433631514154224,-0.0110215791967989,2.2760929324004926,0.8237734997313579,-1.4985787952737872,-0.037116665079775,0.0831770508504207,-1.0130988048993386,0.0027048498493371,0.0007116653167109,0.0010646652432857,6.758676763244236,-0.7872499362884702,1.159310487736935,-1.8102060211300867e-05
838,1724815051288559059,-1.8449798822402952,-0.4505203664302826,0.1972425431013107,-0.0039197816513478,-0.0455678924918174,0.4839516282081604,-0.8738987445831299,0.0,0.0,0.0,0.2426431587332142,0.029453641019681,0.1276603958848164,0.423263057,-0.0276263704738641,0.0349860200685358,0.0059707222255818,-2.9961661837382065,3.6810856610887592,0.3051202655025756,-0.0373934004032639,0.0835345345388473,-1.013051255695078,0.0036800828615639,-0.0007050709724829,0.0021963810034897,9.563847560647018,8.981247441330162,0.4112393094779047,5.0034472587819114e-05
840,1724815051299562118,-1.844938039779663,-0.4505496323108673,0.1972365230321884,-0.0039805960841476,-0.0457059554755687,0.4839839935302734,-0.8738734126091003,0.0,0.0,0.0,0.3309114256552706,0.1743449628856306,0.2776599477980486,0.434266116,-0.0021986674760058,0.0274672291803776,-0.0069641461805351,-3.208233634860675,-0.5274975776573518,-3.365785472787298,-0.0374249686289385,0.0838336920798186,-1.0131395558627174,0.008097437408324,0.0016314544327826,0.0037949642780041,-16.556705245392617,-7.935884457482688,-7.717383421903822,-1.315087924648163e-06
842,1724815051308808501,-1.844829797744751,-0.4505012035369873,0.1973053514957428,-0.0037202173843979,-0.0459703728556633,0.4841903150081634,-0.8737463355064392,0.0,0.0,0.0,-0.0131600602431604,-0.0630161041904586,0.0404096723485931,0.443512499,-0.074748329070654,0.0238006782307355,-0.0551038246319315,-3.763981392987509,0.4664519876656299,-3.5232587229714976,-0.0381596518398041,0.0840343464107595,-1.013658768168925,0.0106089500844746,0.0029481910356388,0.0073908871444103,-34.5201844378376,-22.46430265170775,-40.06998449370928,7.437036260852535e-05
844,1724815051317776146,-1.8447442054748535,-0.4504946768283844,0.197371169924736,-0.0034964280202984,-0.0462690852582454,0.4844569265842438,-0.8735836744308472,0.0,0.0,0.0,-0.2993178921691212,-0.2365810183006284,-0.4442630270594243,0.452480144,-0.0729974081242275,0.0354893534928006,-0.0720610061205909,1.3767421909644058,-1.1801298749309224,1.125043530114855,-0.0388697871504805,0.0843274809034516,-1.0143190720614548,0.0080141054223759,0.0005964689062771,0.0047223341731887,-13.99730299162605,-6.948602724539429,-23.80937878115817,7.183184071540319e-05
846,1724815051329488572,-1.844673752784729,-0.4504896998405456,0.1973864436149597,-0.0032481695525348,-0.0462959073483943,0.4845119714736938,-0.8735527396202087,0.0,0.0,0.0,-0.1892435566459038,-0.1281879772700579,-0.2605768343822396,0.46419257,-0.038798734577086,-0.016324599075553,-0.0127477217425856,4.999920730233616,-1.0717129487663826,8.025457675154989,-0.0393361833833041,0.0841305978108955,-1.014461377634826,0.0043559812558413,-0.0017818751337195,-0.0027249868902909,16.5877633074182,15.490377887573263,26.387771921500043,2.043310465470369e-05
848,1724815051338383291,-1.8446462154388428,-0.4505204558372497,0.1973349899053573,-0.0033340658992528,-0.0462397783994674,0.4842105209827423,-0.873722493648529,0.0,0.0,0.0,0.0068653701310103,0.0517169572633172,0.0464443017120582,0.473087289,0.0197246979549919,-0.0032139392547875,0.0786398596312574,3.6121676922230352,0.5062130038139748,1.746954184786588,-0.0391017004000694,0.0841294548565111,-1.0137587934203476,0.003504136795513,-0.0024163088285327,-0.0025078340260673,12.014637237409117,14.326684282234432,13.204730953536313,-4.753996372513186e-05
850,1724815051347937848,-1.8446085453033447,-0.450532853603363,0.1973446607589721,-0.0034158348571509,-0.0461499541997909,0.4841832816600799,-0.8737419843673706,0.0,0.0,0.0,0.0186861750422392,0.1280549716287954,-0.0461279356103885,0.482641846,0.0237818826629607,-0.0083098489758454,0.0078114931630537,0.5086391928170858,2.147314700221602,-4.5449588054299355,-0.0388679253964216,0.0840530216065472,-1.0136807886646175,0.0046231112538634,-0.0006593336876541,-0.001837971499528,-6.513238052107827,-2.769069583067999,-2.3610870726306175,1.3170847106037242e-05
852,1724815051358241152,-1.8445533514022827,-0.4505325555801391,0.1972940564155578,-0.0036577228456735,-0.0462716035544872,0.4842217862606048,-0.8737131953239441,0.0,0.0,0.0,-0.1345345888969186,-0.0200133099845359,0.010961336389048,0.49294515,0.0299559115185636,0.0435987050999067,-0.0071500703281913,-1.9388334612516616,0.5534195302469209,2.1038463949510113,-0.0385669654842073,0.0844990385645874,-1.0137720590995625,0.00372203350814,3.970221964877396e-05,-0.0036047209185152,-5.448640703766701,-7.675995567096568,11.87270325527661,-4.6134298039592886e-05
854,1724815051367829390,-1.844532251358032,-0.4505320787429809,0.1972711533308029,-0.0036410354077816,-0.0463342443108558,0.4840317070484161,-0.8738153576850891,0.0,0.0,0.0,-0.1027033511701088,-0.033874838407925,0.1812973112596828,0.502533388,-0.0112806972827539,0.0088895739183784,0.0447512211966766,-0.2339293149791699,-2.3236117781055663,0.4494919586347002,-0.038639073981585,0.0846007843526141,-1.013345198886788,0.0020120041410791,-0.0009361393196201,-0.0018717866475643,5.923148848273016,4.247864888855549,7.083932043049812,-2.119435367386511e-05
856,1724815051378327512,-1.8445132970809937,-0.4505532383918762,0.1972574442625045,-0.0037890609819442,-0.0462477542459964,0.4840745031833648,-0.8737955689430237,0.0,0.0,0.0,-0.0105978545505695,0.0761633697665618,0.1328922472629148,0.51303151,0.0330089385230745,-0.0006031938752063,-0.0075824479966881,-3.5378531193953284,-1.612993721123108,-2.5604038081595673,-0.0382992642591921,0.08459139015121,-1.0134247319271923,0.0018032814882786,-0.000511294927044,3.7953160539672126e-05,-3.4270404540355495,3.653299098353392,-10.847327573681248,-1.1100106168637338e-05
858,1724815051388387574,-1.844495177268982,-0.4505438804626465,0.197270780801773,-0.0033891182392835,-0.04633229970932,0.484100729227066,-0.873778223991394,0.0,0.0,0.0,-0.1626909389504066,0.0470880415137271,-0.036354123084677,0.523091572,-0.0773585456668618,-0.023662645468268,-0.0099659924980925,-3.6911420493541063,-0.1786150098795803,-0.1473406114278588,-0.0390852005046965,0.0843496454435127,-1.0135160634440334,0.0017861672602705,0.0005990208254083,0.0009022882154781,-11.644966016584029,-2.5262290649095824,-14.65286639609089,1.4211436059129707e-05
860,1724815051403460250,-1.844468593597412,-0.4505423307418823,0.1972748190164566,-0.0036703476216644,-0.0463587455451488,0.4841780364513397,-0.8737328052520752,0.0,0.0,0.0,-0.2597691201831853,0.0172299450870305,-0.2081907294970935,0.538164248,0.0314032375968029,0.0213755667370354,-0.010163588467702,-19.666978193375098,-20.228514661179577,4.090390791395108,-0.0386258938538651,0.0846656317544064,-1.0136821823559758,-0.0043016386160843,-0.0001202978675394,-0.002406915098156,32.01621624480595,0.2573621002150523,21.790551669873615,6.00030703231245e-06
862,1724815051407934068,-1.8444958925247192,-0.4505431652069092,0.1972604990005493,-0.0033831419423222,-0.0462632253766059,0.4841427206993103,-0.8737586140632629,0.0,0.0,0.0,-0.0654673873827516,0.0213535863468597,-0.066629229668701,0.542638066,-0.0922809902057748,-0.0999524923566083,0.0135851247547181,-16.619865538655556,-17.62434150691505,4.012853795773246,-0.0390321334831659,0.0842211614708014,-1.0136038388565165,-0.0052724108193658,4.303743719447084e-05,-0.0033232387630466,39.33327285117897,3.584191353755904,31.175696787337905,-1.6333652152759957e-05
864,1724815051419691814,-1.844532251358032,-0.4505355656147003,0.1972176432609558,-0.0036220073234289,-0.0460411682724952,0.4840508699417114,-0.8738202452659607,0.0,0.0,0.0,0.2703847005747993,0.145767880987153,0.2855109821647489,0.554395812,0.0530306056061481,-0.0137645235933762,0.0207345221571657,1.165125065547605,6.583292226278868,-1.7169111483544444,-0.0383875359968409,0.0840688736935465,-1.0133530393607235,-0.0013599993791757,-0.0001742117657279,0.0001635323207533,-1.810613894374852,2.375914103174731,-4.734481604591201,-4.585782763747272e-05
866,1724815051429094556,-1.8445320129394531,-0.4505433738231659,0.1972478181123733,-0.0036330588627606,-0.0462619960308074,0.484098732471466,-0.8737820386886597,0.0,0.0,0.0,0.0249577085884857,0.1064068416359736,-0.0198109475215752,0.563798554,-0.0201840651205227,0.0425192970686522,-0.0128915987368482,-4.1012589328570925,-0.971085272978178,-4.349478133093813,-0.0385888532964894,0.0844637140054947,-1.0134900625768124,0.0007133929258031,0.0024314348744596,0.0027651039343865,-26.9414039322076,-20.97464047970642,-29.60966492538941,3.0462642424998263e-05
868,1724815051437882795,-1.844520092010498,-0.4504952132701874,0.197268471121788,-0.003472453681752,-0.0462292097508907,0.4843144714832306,-0.873664915561676,0.0,0.0,0.0,-0.2187075171301131,-0.2158224438920313,-0.2565202513885467,0.572586793,-0.0259565297245696,-0.0231587397553363,-0.0574674477108982,1.425073968917994,-3.256973096233664,1.2083737778949315,-0.0388589729362866,0.0842407970283639,-1.0139886868698684,-0.0006735134140001,0.0019643795154529,0.000155636483254,-10.04188390591931,-16.012126346897517,-4.821751113630438,1.9038289051342303e-05
870,1724815051449278230,-1.844557762145996,-0.4505247771739959,0.1972378194332122,-0.003595748450607,-0.0461802594363689,0.4840754866600036,-0.8737993836402893,0.0,0.0,0.0,-0.0718325808269411,-0.0931042713725563,0.0152782586885037,0.583982228,0.0210453827927696,0.0020290193624968,0.0491051529424883,4.19876973889667,1.086601623342161,1.5715079513328023,-0.0385719951435935,0.0842855512378649,-1.0134283498911711,-0.0040655510503739,-0.002898742651304,-0.002170465644216,19.712441904411683,23.49345392557356,16.932249810009388,-3.192160931073428e-05
872,1724815051457702516,-1.8445967435836792,-0.4505510926246643,0.1972227692604065,-0.0038163277786225,-0.046079471707344,0.4840353429317474,-0.8738259673118591,0.0,0.0,0.0,0.1367262127121704,0.1840563738882297,0.1148284442375561,0.592406514,0.0568787702267799,0.0041844486178617,0.013887203419779,-0.4613340934187844,-0.7115658274986956,-3.247189297521846,-0.0380830645613634,0.0843252533436577,-1.0133123261809251,-0.003264239585448,-0.0016051319968362,-0.0006753507008969,13.63776308314393,15.837179258949895,9.346342765556468,-1.663161689666668e-05
874,1724815051468073257,-1.8446131944656372,-0.4505483508110046,0.1972299516201019,-0.0037387232296168,-0.0460295230150222,0.4840694367885589,-0.8738101720809937,0.0,0.0,0.0,0.1362033050010582,0.1304573425829349,0.1802136336226453,0.602777255,-0.0081006036110763,-0.0155460610411827,-0.0078727071546105,-2.33556086348401,-0.9280571151811452,-1.4485403577205576,-0.0381734524961204,0.0841610522512479,-1.013388218599284,-0.0013150938124226,0.0006930484612865,-0.0002843212399348,-6.8260337243470985,-10.75268264243998,-0.7441603366608085,5.7478277817537205e-06
876,1724815051480823838,-1.84462571144104,-0.4505327939987182,0.1972110122442245,-0.0038288233336061,-0.0458892472088336,0.4841666519641876,-0.8737632036209106,0.0,0.0,0.0,-0.0570507346370048,-0.094189500280252,0.0602222527892515,0.615527836,0.023729740331827,-0.0121031731138823,-0.0161579912537133,-5.425315564382516,0.5630123957280702,1.0454086229717237,-0.0378877345460059,0.0839989940627148,-1.013588793745818,-0.0003895786690861,0.0009276173780392,0.0042475482944155,-6.707200147708084,-6.289184713547166,-22.44084598044127,-2.0611790694187787e-05
878,1724815051488164017,-1.8446260690689087,-0.4505272209644317,0.1972664147615432,-0.0036576881539076,-0.0459557548165321,0.4841626584529876,-0.8737627267837524,0.0,0.0,0.0,-0.0705798853781406,-0.0924804021389456,-0.1595572870028856,0.622868015,-0.0495665901642406,-0.0067324991592183,-0.0013213290733451,-4.844142112969224,0.6012010559987414,1.4050148038381107,-0.0382522244965192,0.0839492536555851,-1.0135967403099786,-0.0013561283686769,-0.0002394892231674,0.0034421980996786,4.485834274804105,7.284619430975532,-10.86530614045838,5.48559452195764e-05
880,1724815051499785405,-1.8446658849716189,-0.450548380613327,0.1972308754920959,-0.0035954562481492,-0.0459764562547206,0.4841410517692566,-0.8737738132476807,0.0,0.0,0.0,0.0980030244884544,0.1219271699601043,0.0651768443323448,0.634489403,-0.0112606661619549,-0.0021465036981116,0.0036675710567303,5.242790961941022,0.9314319158587872,-5.321637148899956,-0.0383794215723854,0.0839259512360959,-1.013552958070934,-0.0010521571346089,-9.025766144787896e-05,0.00067089705772,-0.4770981740735227,3.849318243850615,2.8051163486414468,-3.737359698019933e-05
882,1724815051507673500,-1.8446614742279053,-0.4505398273468017,0.1972561329603195,-0.0037379758432507,-0.0459278933703899,0.4843863844871521,-0.8736397624015808,0.0,0.0,0.0,0.0140172547742325,0.0741207282011949,-0.0012146757149924,0.642377498,0.0405174326362754,0.0080748798929041,-0.0691010111809648,0.3120652092177123,1.139489381808109,-2.5342212421917667,-0.0381058511383648,0.0839687559430225,-1.0141019620890253,0.0001055749785194,0.0014555728047049,0.0028107493035811,-11.921062845008052,-12.08464531949468,-16.317800366639975,2.505176217323857e-05
884,1724815051517743898,-1.8446662425994873,-0.450520396232605,0.1972794085741043,-0.0036172443069517,-0.0460947751998901,0.4844154417514801,-0.8736155033111572,0.0,0.0,0.0,-0.1224105285647116,-0.1250245494806783,-0.2671218795103723,0.652447896,-0.0367186953054222,0.0175404076538703,-0.0086004743760359,-1.679142493360636,0.074590144254593,4.794066652367518,-0.0384834936397189,0.0841419690434864,-1.0141958004305325,-0.0014599891518614,0.0006354479090191,-0.0007047485564735,-3.039773464485282,-6.41898292363167,-4.032350074688714,2.1818207258912188e-05
886,1724815051530977933,-1.8447027206420896,-0.4505344927310943,0.1972176283597946,-0.0039002196863293,-0.045969046652317,0.484234094619751,-0.8737214207649231,0.0,0.0,0.0,0.0201048877973027,0.0223135009259142,0.0686057307158385,0.665681931,0.0452430787460037,0.0034778464309756,0.0337363764395637,-3.0820342313541977,-3.781048774505494,-0.5844238599409352,-0.0378472495478437,0.0842049939143359,-1.0137498036456667,-0.0025051586830073,-0.0017771479500119,-0.0028142583290602,4.085341966616549,11.00160089637942,4.113258430877089,-6.35860214523196e-05
888,1724815051540130514,-1.8447240591049192,-0.4505552649497986,0.1972036063671112,-0.003627399681136,-0.0458680503070354,0.4842083752155304,-0.8737420439720154,0.0,0.0,0.0,0.0151905274847784,0.1221731122450202,-0.0282902797285338,0.674834512,-0.0416768866102416,-0.0483359035757727,0.0044382424583906,-0.9962414119097308,-0.2080748167484871,-0.2166123884673236,-0.0382238597356274,0.0837644435942151,-1.0136920167999677,-0.001693978569591,-0.000277729727923,-0.0007430896825155,3.934606818484172,-1.448862520636678,-5.869729080419841,-1.4543659891382571e-05
890,1724815051548731120,-1.844733476638794,-0.4505415558815002,0.19720359146595,-0.0036894022487103,-0.0458064600825309,0.4841118454933166,-0.8737986087799072,0.0,0.0,0.0,0.0851691888426421,0.0098243103405213,-0.0406509906726716,0.683435118,0.0184554296149889,-0.0060544970234255,0.0266954630323173,1.311066563553568,3.7787108068058246,3.584351604211399,-0.0380457141202046,0.0837211781566517,-1.0134599450539328,-0.0021568511349983,0.0004364088343677,-0.0030439280337688,14.543479469691322,-5.0828577344223405,9.07979825021895,-1.4314824615730802e-06
892,1724815051557981752,-1.844763994216919,-0.4505490362644195,0.1971451640129089,-0.003638731315732,-0.0459344089031219,0.4838240146636963,-0.8739514350891113,0.0,0.0,0.0,0.2834538383805245,0.0422043170232957,0.1479846749264739,0.69268575,-0.0259368396761183,0.0175842243056239,0.0697677941009249,-3.863591285751922,-0.1651697632419473,-5.338581418138261,-0.0382319809668169,0.0839083226082409,-1.0128188574258323,1.3916486480525236e-05,-0.0002011260504275,-0.0011626723125566,2.233438302490896,4.3034681099589465,0.5614453853068708,-6.014204813987935e-05
894,1724815051567685257,-1.8447301387786863,-0.4505448043346405,0.1971863359212875,-0.0033639958128333,-0.0460127741098403,0.4841673374176025,-0.8737582564353943,0.0,0.0,0.0,0.1096848981910511,0.0921381057026015,-0.0484100595838282,0.702389255,-0.0539077792966997,-0.0117095752710681,-0.0837670198811389,3.946470653551664,-0.1872266521822725,-2.777122316345615,-0.0388229615088844,0.0837634738774684,-1.0136295542949618,0.0032610469373821,0.0013394674893554,-0.0002903946603343,-15.6976946660614,-2.518259165142233,-6.37208017386745,4.339517305537267e-05
896,1724815051577991374,-1.8446990251541135,-0.4505211114883423,0.197133719921112,-0.003691490041092,-0.0459369122982025,0.4840446710586548,-0.8738288879394531,0.0,0.0,0.0,-0.0279046500712445,-0.0177090137431817,0.0377141594856263,0.712695372,0.0615166262287308,0.0173566478869874,0.0304095767473318,0.171933733621012,-1.0882046018563325,3.5396903271308,-0.0381632186555634,0.0839542821880364,-1.0133221880123704,0.0019291363570488,0.0015597267366196,-0.0023032013481554,1.467634449455003,-6.878806484977295,12.15624196123492,-5.1212330940810634e-05
898,1724815051588067120,-1.8446903228759768,-0.4505126774311065,0.1971381157636642,-0.0034115260932594,-0.0459063723683357,0.4840707778930664,-0.8738171458244324,0.0,0.0,0.0,0.1328470909651711,-0.0497867581099907,0.1976257154631979,0.722771118,-0.0453793260822096,-0.0321085320335575,-0.0081868986684665,-5.591828071413936,-1.6813863354018923,-2.0774441019005203,-0.0386263276631466,0.083627833460745,-1.0133924103393013,0.0026461328495912,0.000996329679836,0.0003721296813292,9.36798916316426,-2.069454744295846,-0.95732706760946,4.621506094160813e-06
900,1724815051600679127,-1.8446288108825684,-0.4504975974559784,0.1971417963504791,-0.0032001913059502,-0.0460055507719516,0.4840971827507019,-0.873798131942749,0.0,0.0,0.0,0.1470197432679324,-0.0582971262833296,-0.080110799058732,0.735383125,-0.0366952397137162,-0.0023556009510067,-0.0067105964950044,5.94512190778681,2.551381444604126,-0.4378909496920081,-0.0390961212037236,0.0835948633856826,-1.013476164525109,0.0052954264908748,0.0004651817801715,0.0017927305893792,-4.966780839135501,5.7537743130051275,-13.17286081600272,7.663818982291612e-06
902,1724815051609733323,-1.8445781469345093,-0.4504981338977813,0.1971677839756012,-0.00344835431315,-0.0459803342819213,0.4841640293598175,-0.8737614750862122,0.0,0.0,0.0,0.0624609295993554,0.0355845106833453,-0.1418633939200715,0.744437321,0.051300905771026,0.0219949706639816,-0.0142825160246796,2.5492299029531003,-0.0792396558770659,1.6157115219146934,-0.0386431216483806,0.0837888341207352,-1.0136135994069282,0.006216800332524,-0.0001678396785926,-0.0001854868757149,-10.881576270966448,9.416915077399205,7.918183688751039,2.980599855600628e-05
904,1724815051617749052,-1.8445239067077637,-0.4505002498626709,0.1971446126699447,-0.0035276769194751,-0.0459456369280815,0.4841115772724151,-0.8737920522689819,0.0,0.0,0.0,-0.0357082120079935,0.1043126401282962,0.0261965375282697,0.75245305,0.0208567536853789,0.0017123497866989,0.0160688850636127,-5.070628138850782,-0.8667077372760492,0.9032400030794832,-0.0384651736023876,0.0838075152646002,-1.013484978314208,0.0064385747522877,0.0008660574407866,-0.000778881267915,29.62015500627221,-4.675095968851443,56.76618799797132,-1.879582917185292e-05
906,1724815051631169596,-1.8444448709487915,-0.4504632353782654,0.1971816122531891,-0.0031612301245331,-0.0463537164032459,0.4843020439147949,-0.8736663460731506,0.0,0.0,0.0,1.3025540911587676,-0.2561364192233822,1.592442988247755,0.765873594,-0.0757882442516091,0.0274622567702151,-0.036594681558413,-3.625673505487065,0.926379640562594,-2.0946308073234157,-0.0395248137644868,0.0841566470057105,-1.013991879035221,0.0045353202177054,0.0017116421259864,0.001824722334681,-71.41450359111427,909.4985043051728,-962.151218281248,4.113301952557805e-05
908,1724815051656647594,-1.84439480304718,-0.4504702389240265,0.1971830129623413,-0.0032325147185474,-0.0463584177196025,0.4843211472034454,-0.8736552596092224,0.0,0.0,0.0,-8.794299136063046,68.20600126080782,-75.10365026266965,0.791351592,0.0047823733208083,0.0030680719401148,-0.00147340098084,-1323.7553280623183,1429.0993528192878,-470.97200026930784,-0.0394063953424419,0.084233275360939,-1.0140326379544196,0.107583485091709,-0.0202506006933163,0.1100371726840876,-10265.992730935575,-912.8701342915884,-8048.878414714272,5.647566725500093e-06
910,1724815051657014710,-1.8443547487258911,-0.4504777789115906,0.1972239911556244,-0.0032003039959818,-0.0464877635240554,0.484345018863678,-0.8736352324485779,0.0,0.0,0.0,-12.61531828947885,67.85182877218094,-78.08517557744682,0.791718708,-0.4882085504067761,0.5352780606091031,-0.1768734094117188,-929.9214236896456,892.4140919379175,-527.4422779039569,-0.0395917623397681,0.0844270613889868,-1.0141054818013335,0.1042870416673622,0.0051542713667345,0.0820456684049872,-9928.308479978874,-3506.9989324133676,-5188.263101867964,4.431124919019866e-05
912,1724815051657822742,-1.8442790508270264,-0.4504279196262359,0.1972376853227615,-0.0030609117820858,-0.0466811284422874,0.4845792055130005,-0.8734955787658691,0.0,0.0,0.0,-19.784210662774775,60.49665938202131,-77.06073237203724,0.79252674,-0.5051768651345083,0.2652350395170069,-0.6913912622281039,-16.78967120691491,-314.6732291407253,-592.7472647344619,-0.0400479820519455,0.084618974737206,-1.0146743176456303,0.0876267970181903,0.05758084295379,0.015681204497028,-8232.09699123349,-8860.06207768521,1586.3268804623349,1.706062688480214e-05
914,1724815051669883102,-1.8443121910095217,-0.4504757821559906,0.1971988528966903,-0.0033037371467798,-0.046453308314085,0.484164297580719,-0.8737368583679199,0.0,0.0,0.0,-3.8713230509869665,-2.705150252542898,-0.5961571318880535,0.8045871,0.050147238248503,-0.0151446490738726,0.0814854650547643,25.354781553303717,-12.486989871219414,34.94296535102427,-0.0393593509903046,0.0844754736259513,-1.0136815176711442,-0.0008354337723162,-0.0021685950203398,-0.0010126004803323,849.6100471445968,-2961.1301896968885,3666.25583673919,-3.88188759141401e-05
916,1724815051686396360,-1.8442827463150024,-0.450470894575119,0.197232037782669,-0.0033987346105277,-0.0466077029705047,0.4841668009757995,-0.8737268447875977,0.0,0.0,0.0,-0.4643999640754082,-0.0668984615183889,-0.5118867969906802,0.821100358,0.0010173375082178,0.0219643604830873,-0.0003794114432248,-167.27640249806026,83.57638829247259,-148.90989870945037,-0.0393442908400569,0.0848376436022884,-1.0137020621436514,0.0135500372094838,0.0040121304933791,0.0069604725421754,-114.13209098458348,-42.74742079879567,-78.5333940980095,3.509154403581543e-05
918,1724815051688277690,-1.844254732131958,-0.4504625499248504,0.1972461938858032,-0.0031878801528364,-0.0469292066991329,0.4844067692756653,-0.8735774755477905,0.0,0.0,0.0,-0.7478036401076988,-0.1907265206170887,-0.6775604443474923,0.822981688,-0.3489006119842474,0.1966309778141607,-0.3113823946637293,-149.5264490602601,74.8864354292374,-133.83814380127345,-0.0400518252976348,0.0851840403687586,-1.0143043696935237,0.0123900905182949,0.0037917096723596,0.005784240219762,-124.0299915536717,-55.229389280062094,-67.20984871658297,1.5878024544526272e-05
920,1724815051698238905,-1.844263195991516,-0.4504587352275848,0.1972120255231857,-0.0035509103909134,-0.046704426407814,0.4843599796295166,-0.8736141324043274,0.0,0.0,0.0,-0.5798146228881891,-0.1823347444611007,-0.2472612886732222,0.832942903,0.0850714445979822,-0.0044331564131571,0.0153363829856782,16.396440293705695,-10.379226107337026,17.25742324600345,-0.0391912337811145,0.0851459768070677,-1.0141495100361473,-0.0019812149911331,-0.0019881132120005,-0.0037260035695112,47.98785983932049,23.31062723430516,50.466122940048805,-3.487625995297106e-05
922,1724815051707713392,-1.844292163848877,-0.4504989385604858,0.1971740573644638,-0.0035081305541098,-0.0466542840003967,0.484198659658432,-0.8737062811851501,0.0,0.0,0.0,0.1553168976331816,0.2409944500142861,0.2963812238271149,0.84241739,-0.0044219097792466,-0.0144085647753153,0.0387872465573197,-5.271438956881845,1.0985549581243876,-3.817626912826922,-0.039201344881009,0.0850239498638372,-1.0137754155273675,0.0003015022031007,-0.0001299671873731,0.000306681894683,29.089802181836937,12.569944571503775,15.258770861068024,-3.800227739894925e-05
924,1724815051717830609,-1.8442528247833252,-0.4504558145999908,0.1972237676382064,-0.0034850449301302,-0.0467746555805206,0.4844950437545776,-0.8735356330871582,0.0,0.0,0.0,-0.0743564269014157,0.0212543717426776,-0.0042971723705399,0.852534607,-0.0126571504459524,0.0199487839722202,-0.0678209332155841,-1.2861866416371153,0.5149356783170369,-1.927063207584614,-0.0393885736739777,0.0851986668680865,-1.0144715160420603,0.0009479185413141,0.0027930182707436,0.0019088217111367,-14.155246179075256,-19.388964271188723,-15.559167839131437,5.03563122204562e-05
926,1724815051729289315,-1.8442801237106323,-0.4504428803920746,0.1972066462039947,-0.003291085595265,-0.0468095168471336,0.4843769669532776,-0.8736000061035156,0.0,0.0,0.0,-0.1256467912343747,-0.1706732625289051,0.0011883689095806,0.863993313,-0.0335234791493545,-0.0115404480300269,0.0218417029964408,3.920888930218273,-1.178342289351065,3.6952058394906167,-0.0397509205795827,0.0850764339209372,-1.014215287904232,-0.001698316676638,-0.0004371134535858,-0.0002513652989506,2.0928473227460476,-0.6345272336799301,-0.5908217390591124,-1.985255604962697e-05
928,1724815051740253209,-1.8442915678024292,-0.4504640996456146,0.1972169280052185,-0.0036085406318306,-0.0465858168900013,0.4843038022518158,-0.8736512660980225,0.0,0.0,0.0,-0.0337897815829589,-0.0085768159678817,-0.0165093381941557,0.874957207,0.069699747784756,-0.0079926056274975,0.0190337441966763,-4.891599588111649,-0.4193643775370228,-1.6695593352268956,-0.0389686705983183,0.0849970823778517,-1.0140025389593257,-0.0019713568392205,-0.001141609537079,0.0017517822847175,0.9738405651824786,9.602672563322535,-10.88609744830613,1.043663834306158e-05
930,1724815051748083414,-1.8443121910095217,-0.4504685997962951,0.1972351968288421,-0.0034126713871955,-0.0466252267360687,0.4843018054962158,-0.8736510872840881,0.0,0.0,0.0,-0.0675705987162112,0.0376359618805633,-0.1535999749240369,0.882787412,-0.0486066781380889,-0.0154310704357141,-0.0019435182108425,-5.497206688234438,-0.0150962660898575,-0.8079215868755825,-0.0393501648359671,0.0848757551827422,-1.0140130970137418,-0.0022856310532688,-0.0008973994773402,0.0005084730308109,-0.2696899530621325,5.859673999004631,-2.64873977793955,1.680706734756194e-05
932,1724815051759757856,-1.8443328142166135,-0.4504846930503845,0.1972093731164932,-0.0036983501631766,-0.0464740693569183,0.4842085242271423,-0.8737096786499023,0.0,0.0,0.0,-0.0003208748928446,0.1053100870668222,0.0741165233775957,0.894461854,0.0545191198839405,0.0006651180340612,0.0211927687107022,-1.3478214839531255,-0.9490033724849344,2.297842469659145,-0.0386926739607837,0.0848931657313363,-1.013765278177629,-0.003552004422616,-0.0003457909743396,-0.0011944922787723,6.462199486499491,-2.537912702948718,10.229401077788651,-2.6484095789827292e-05
934,1724815051768489784,-1.844375491142273,-0.450480967760086,0.19720558822155,-0.0035683128517121,-0.0464364998042583,0.4840388000011444,-0.8738062381744385,0.0,0.0,0.0,0.0606899354358458,0.0287148030914798,0.1028557158187825,0.903193782,-0.0237446406673692,-0.0228242539062924,0.043321526737422,-4.536129254744292,-0.5031081376752897,-1.5341696519289574,-0.0388672209467072,0.0847086791905088,-1.013378137529845,-0.0028484509675763,0.0009529684293028,0.0008894427467378,1.2041925167346683,-8.769393331481105,-7.217690727571979,-7.2751111625696e-06
936,1724815051779100386,-1.844379425048828,-0.4504640698432922,0.1972320824861526,-0.0034935376606881,-0.0464751459658145,0.4841529726982116,-0.8737412691116333,0.0,0.0,0.0,-0.0010945518045181,-0.064301885159999,-0.1092254137740713,0.913804384,-0.0147987191820008,3.4813347286795404e-05,-0.0254128016228029,1.5391815979674792,0.1284272764266838,1.777925368126286,-0.0390471254408288,0.0846985520491236,-1.0136486191890124,-0.0024608497946019,-0.0002898511113293,0.0002298547240631,4.801528004517218,3.4787965587177667,-0.2292760820560326,2.5209380491709837e-05
938,1724815051788748825,-1.8444215059280396,-0.4504833817481994,0.1972144097089767,-0.0034953465219587,-0.0463901236653327,0.4838840961456299,-0.8738946914672852,0.0,0.0,0.0,0.1384463868070087,0.0766965245502718,0.0619131127744348,0.923452823,0.006158967779273,-0.0165006428864241,0.0641740131340736,3.345906123702797,-0.1402374534810009,0.853189206808077,-0.0389346856743851,0.0845636005240532,-1.0130214268714373,-0.0028015070276694,-0.0004467753999612,-0.0012369022838569,8.729211573353119,6.661084229792003,10.36321070071426,-1.9880873758096237e-05
940,1724815051799087889,-1.8444331884384155,-0.4504707753658294,0.1972082108259201,-0.0037320090923458,-0.0462536849081516,0.4839892387390136,-0.873842716217041,0.0,0.0,0.0,0.1651780077565885,0.0574590199182345,0.0873591098858857,0.933791887,0.0537568890274463,-0.0005169178098557,-0.0204230952722408,-6.681521963242017,-0.1733572103731804,-6.491276940908326,-0.0383967560342032,0.0845500972688497,-1.0132329704332037,0.0005549339726798,0.0013761183651119,0.0017734141707101,-12.842532637119495,-12.147876586695787,-17.171474280023247,-7.721005005494826e-06
942,1724815051807928648,-1.844415545463562,-0.4504574239253998,0.1972418278455734,-0.0033364652190357,-0.0463905110955238,0.4842220544815063,-0.8737080097198486,0.0,0.0,0.0,-0.0649892110767831,-0.127704488235413,-0.2128642295372858,0.942632646,-0.0906243961711682,-0.0150468097818075,-0.06502763712619,-4.431709700878173,-0.4294725998009779,1.68903327362763,-0.0392461448894305,0.0843948502426616,-1.0138042103888072,0.0008097905898267,0.0009856259895038,0.0010050890832342,-14.235864208833576,-8.100779125155235,-14.964846417928175,3.416709575121676e-05
944,1724815051818017830,-1.8444210290908811,-0.450453519821167,0.1972197592258453,-0.0033375660423189,-0.0463621206581592,0.4840923249721527,-0.8737815022468567,0.0,0.0,0.0,-0.0727659241209148,-0.0615557403225785,-0.145150544257756,0.952721828,0.0016741992611143,-0.0054015137216982,0.0295520896139321,4.851525699897836,0.2221235776739439,4.799138809547389,-0.0392038830657526,0.08435210293432,-1.0135032304667886,-0.0009260929163303,-0.0012646205179116,-0.0025927938854586,7.732103354820076,10.332781836201772,15.093780081561512,-2.2597840221272628e-05
946,1724815051828611742,-1.8444350957870483,-0.4504852890968323,0.1971877813339233,-0.0033404717687517,-0.0462961792945861,0.4839572608470917,-0.8738597631454468,0.0,0.0,0.0,0.103732646086564,0.0899168664169822,0.1079950577790626,0.96331574,0.0052742778741723,-0.011211960160596,0.0294993641147307,-0.4652447008929933,-0.2960003867876765,-0.9935079303718054,-0.0391212253355061,0.0842456454966391,-1.013185119116582,-0.0005924995515158,-0.000120452365774,-0.0017782761174292,14.559339530738852,6.078799936881307,19.12839507193911,-3.132371214557123e-05
948,1724815051838682946,-1.8444340229034424,-0.4504589438438415,0.1971817463636398,-0.0032827842514961,-0.046261541545391,0.4839116632938385,-0.8738870620727539,0.0,0.0,0.0,0.2302467875037466,0.0724439525227853,0.2550005023005554,0.973386944,-0.007119266721208,-0.0117758208129639,0.010029064241155,1.3125231292566877,1.7393659096255818,-2.649713273242415,-0.0391840157891118,0.0841310925295964,-1.0130791667684642,0.0011438929543032,0.0006119624480511,-0.0003927836270261,0.4788498079644778,-5.090737887878214,-3.539085599446014,-7.25638357138608e-06
950,1724815051848706674,-1.8444122076034544,-0.4504728019237518,0.1971798688173294,-0.0034720222465693,-0.0462889894843101,0.4840222597122192,-0.8738236427307129,0.0,0.0,0.0,0.1144997124014505,-0.0120632763925805,0.0385953351232317,0.983410672,0.0314084361809719,0.023570408934143,-0.0236785760182386,-2.886030389248025,1.5573308476612313,-5.061722032522895,-0.0388899933684405,0.0843579154459979,-1.0133264566411446,0.0040288153646201,0.0013353304301517,0.0033348176279375,-16.78917903831006,-11.199925448278552,-29.57952630041703,5.270774879258127e-07
952,1724815051858551963,-1.8443546295166016,-0.4504333734512329,0.1972467601299286,-0.0032318097073584,-0.0465238839387893,0.4843946099281311,-0.8736057877540588,0.0,0.0,0.0,-0.1014836386505891,-0.1491080839791989,-0.3298894500096954,0.993255961,-0.0620815555824633,0.0198632239887458,-0.0899414602461057,2.2340342037712166,0.3884018898025549,4.39169655742448,-0.0395767478422667,0.0845185999661537,-1.0142222173441746,0.0034801895553613,0.0004020688705566,0.0004919502235853,-0.81932192769899,-4.001816822728482,-14.585433772269472,6.910067406898573e-05
954,1724815051868382563,-1.844343662261963,-0.4504647850990295,0.1971897333860397,-0.0036424833815544,-0.046478196978569,0.4841432273387909,-0.8737459182739258,0.0,0.0,0.0,0.0977588711532968,-0.091093734199669,-0.249056595106858,1.003086561,0.0750206999258369,0.0311901055879626,0.0624054563128877,7.483737114617712,0.10506915116573,8.068099216794685,-0.0387882305505432,0.0848490101595469,-1.013619018766948,0.0020333778583747,-0.0015969091923349,-0.0031548429994456,13.358760245245186,11.13945155270325,24.68974475235121,-5.431316938414405e-05
956,1724815051886254874,-1.8442775011062624,-0.4504413902759552,0.1972193270921707,-0.0036143923643976,-0.0464771278202533,0.4844143390655517,-0.8735957741737366,0.0,0.0,0.0,0.1120267303803359,0.2781905665440117,0.7272635572921167,1.020958872,-0.0012174255689766,-0.0009560421498222,-0.0347885328676584,-78.42116548819146,78.37224643808294,27.28106603402283,-0.0388627588928662,0.0848077967438958,-1.0142418193474771,0.0117390143046804,0.0004222614093407,-0.0036450174169146,-81.19143222018185,-1.478107486102061,27.310549833548635,3.3404812424232306e-05
958,1724815051888438346,-1.8442497253417969,-0.4504407048225403,0.1972099542617797,-0.0035340599715709,-0.0467613451182842,0.4843718409538269,-0.8736044764518738,0.0,0.0,0.0,-0.0871237647400644,0.2690570503663098,0.779608404806802,1.023142344,-0.1922292725509697,0.1915536498635005,0.0335069901551137,-67.52250116024481,69.35222440546555,22.301286973443336,-0.0392776464883331,0.085228583788854,-1.0141848097246726,0.0118686422356333,0.0010737543101235,-0.0018557395501002,-82.99417328680455,-9.306777788879982,5.4560385347919125,-7.192651908481626e-06
960,1724815051897797498,-1.8441728353500368,-0.450400173664093,0.1972903460264206,-0.0036066998727619,-0.0471675768494606,0.4848471581935882,-0.873318612575531,0.0,0.0,0.0,-0.5343600949104116,-0.0235946659697491,0.0878239190048807,1.032501496,-0.0235217752767445,0.0858535391340503,-0.1179043973744446,10.42051934757293,-11.03217194968398,-1.851630963031757,-0.0395951336083829,0.0859879675887355,-1.0153232687181324,0.0051764771409352,0.0024157705191605,0.0038418369608432,-4.44276483016086,-17.77350864973264,-52.94858379029994,8.398845567364401e-05
962,1724815051908040578,-1.844153881072998,-0.4503968954086303,0.1972764730453491,-0.0035431555006653,-0.0470638982951641,0.4847409725189209,-0.8733834624290466,0.0,0.0,0.0,-0.0939688776097371,-0.0543585845343948,-0.2194855306992029,1.042744576,-0.0020440424928272,-0.0242172373958516,0.0237336614839506,1.8016963324366948,-9.259774420774004,11.933394560029509,-0.039594319069364,0.085749734095468,-1.015069678769621,0.0017284908280639,0.0003020995293415,-0.0010986435320353,3.604119933163013,-196.8208882001987,-345.8676479413226,-1.2487927152324024e-05
964,1724815051974925475,-1.844091534614563,-0.4503845274448395,0.1973146796226501,-0.0033190590329468,-0.0473936833441257,0.484882116317749,-0.873288094997406,0.0,0.0,0.0,-17.056156587754685,-97.86706449774478,-161.3049401056798,1.109629473,-0.0104239315855388,0.0054836994634436,-0.0054187567742331,-717.3824189069114,65.4288795082112,-1183.331967319613,-0.0403239748090962,0.0861017301701432,-1.0154477791773,0.1014178008540511,0.0630479454210899,0.0990137267869499,-66324.71408054055,11744.1316687394,-234641.287853946,4.235411998058194e-05
966,1724815051975454966,-1.844037413597107,-0.4503508806228637,0.1973675191402435,-0.0032253279350697,-0.0474540702998638,0.4850244224071502,-0.8732061982154846,0.0,0.0,0.0,-52.451445353608065,-91.59329478190472,-286.51883841375616,1.110158964,-0.3932779851236858,0.0404000984855256,-0.6369407166525115,-1684.4496281919862,-61.64695622585171,1248.1686154654726,-0.0405613785737265,0.0861094775217024,-1.0157869689625458,0.0923089777857057,0.0108140549341442,0.0129217984633669,-190794.4822445276,-4830.130037544062,-111393.54069310227,5.517797605319179e-05
968,1724815051975811298,-1.844006896018982,-0.4503596723079681,0.1973512917757034,-0.0030371691100299,-0.0475577227771282,0.4849528670310974,-0.8732408881187439,0.0,0.0,0.0,-150.16017744169113,-97.31402085976916,-296.2161185128643,1.110515296,-1.2240433940793682,-0.0121629681462801,0.3931436572364483,2009.744664432231,249.9951206543932,3064.019692750582,-0.0409854398949065,0.0861108441998971,-1.015646167211615,0.0651662305863283,-0.0201315413530664,-0.1188913972882801,-29202.80470212677,113525.33448847728,509536.8298723776,-1.325664455739101e-05
970,1724815051976150682,-1.8439913988113403,-0.4503650367259979,0.197287231683731,-0.003193367505446,-0.0475158877670764,0.4847390651702881,-0.873361349105835,0.0,0.0,0.0,-80.8754715727247,-16.899688023571493,50.21304295278066,1.11085468,0.861284230182716,0.2011722445865783,1.4890149674549025,3960.8111707352177,-1076.8655914704907,2999.7625068741195,-0.0406497672689279,0.0861996894956929,-1.0151422176679703,-0.0097116188876498,-0.0565424421923808,-0.1955992439984299,338203.91007203946,290876.2197991938,911768.2064262964,-6.225423817207289e-05
972,1724815051976660989,-1.8440388441085815,-0.4504251480102539,0.1971821635961532,-0.0032918711658567,-0.0469950251281261,0.4841211140155792,-0.8737318515777588,0.0,0.0,0.0,194.57466904841615,172.92080769037904,431.8651065150448,1.111364987,1.2069836791104742,-1.6569795575023931,2.843917370291312,-2344.5130804653345,3704.6755397263073,-7136.151308638795,-0.0399061725115722,0.0854132457222482,-1.0136525994120689,0.0562513134691471,0.0041874147229918,0.0419822260044497,231926.3417929097,162236.59277836056,159366.60828074248,-0.0001052657981723
974,1724815051977007020,-1.8439843654632568,-0.4503950774669647,0.1972548514604568,-0.0033418256789445,-0.0472262315452098,0.4844084680080414,-0.8735600113868713,0.0,0.0,0.0,202.5957331503601,179.84751875308328,348.92155816784685,1.111711018,-0.3133544400662571,1.3485852261093043,-1.92280627271647,-3844.0546516147374,7544.251581953895,-11973.172806347,-0.0400732813253175,0.0858529396198324,-1.0143387344239638,0.1389051904390044,0.0766737210054451,0.1835134824547779,7936.078573958019,7266.030933208912,-230640.4846385964,7.51292492787644e-05
976,1724815051979454028,-1.8439651727676392,-0.4503844380378723,0.1972445100545883,-0.0031487161759287,-0.0474095121026039,0.4844329059123993,-0.8735371828079224,0.0,0.0,0.0,-41.77433896238474,-23.03034931914611,-58.69247328782111,1.114158026,-0.209435354862194,0.0552177416906435,-0.034440965244749,39.99703344006567,-409.200039580423,595.576263581406,-0.0405934888689939,0.0859845397462695,-1.0144286247577814,0.0070826877517049,0.0040040267004073,-0.0025211169523355,-76060.53864036854,-63462.23929841508,-127148.83033063626,-9.310805858782523e-06
978,1724815051987785199,-1.84392774105072,-0.4503608345985412,0.1972718685865402,-0.0033940591383725,-0.0474164113402366,0.4846918880939483,-0.8733922243118286,0.0,0.0,0.0,-0.2480245725226185,-0.1584334839882509,0.3591112720741163,1.122489197,0.0537040074034999,0.0314327709844421,-0.0683801507281556,18.265732574005664,-3.487403480820552,0.3676028083845104,-0.0401961186490967,0.086223192940988,-1.0150105893644843,0.0021674382685148,0.0012415536840997,0.0001415503483128,3196.295913576315,1759.2225645327846,4527.655738357392,2.8987190831698105e-05
980,1724815052002608523,-1.84395694732666,-0.4503844082355499,0.1971910893917083,-0.0031067512463778,-0.0472722612321376,0.484332412481308,-0.8736004829406738,0.0,0.0,0.0,-0.0300931800124021,-0.0893763971827286,-0.054697418634929,1.137312521,-0.0268247494834837,-0.0369431557328103,0.0542078980045523,3.814060509131626,17.357073805799644,-30.30823230220123,-0.04052265385743,0.0857084373870254,-1.014182522285678,0.0075098920027016,0.0034597791431849,0.0065067860368408,-43.139351450312574,-21.22670329188345,-60.81877848756372,-8.15335598409298e-05
982,1724815052007616150,-1.8439033031463623,-0.4503585398197174,0.1972438991069793,-0.003210469149053,-0.0474545285105705,0.48468878865242,-0.8733925819396973,0.0,0.0,0.0,-0.3439679200305697,-0.2394616037479245,-0.4149160759140844,1.142320148,0.0079169887607294,0.0871404770356288,-0.1628263717952479,4.972444647950027,13.061559741865269,-23.013444684602895,-0.0405546976794565,0.0861114055620306,-1.0150180393421573,0.0066985923026834,0.0026078688860255,0.0054139321490476,-41.87421628167688,-19.015887454948736,-48.02447180353286,5.5515497311180754e-05
984,1724815052017897071,-1.8439191579818728,-0.450385719537735,0.1971912384033203,-0.0032319941092282,-0.0472940318286418,0.4845604598522186,-0.8734723925590515,0.0,0.0,0.0,-0.3353341243114096,-0.2037231000062545,-0.4039869321796521,1.152601069,0.0175557560750111,-0.0258963344250892,0.0296279800309186,1.2367827402387328,-5.745225361539866,10.181924501846552,-0.0403470445625335,0.0858577004816469,-1.0147017228731177,-0.0006782904894251,-0.0013175751677447,-0.0030031271434287,14.077294186851107,7.647567330433801,14.707789285971316,-5.228509039324861e-05
986,1724815052031272730,-1.843913197517395,-0.450380265712738,0.1971879452466964,-0.0034301509149372,-0.0470997467637062,0.4844723641872406,-0.8735309839248657,0.0,0.0,0.0,0.0833176127895174,-0.0288417909912128,0.0301847342605154,1.165976728,0.0393059651804093,-0.0113893431134921,0.0172462161133677,-1.2342529207059014,2.341176179287426,-1.7333605551141302,-0.0398009535180896,0.0857147222349552,-1.0144642286818848,0.0014873777716104,-0.0009432985260673,-0.0011897779883405,-27.816610422652268,-47.84553602101202,-50.15028314541589,-3.0893942247946857e-06
988,1724815052037786818,-1.843900203704834,-0.4503906965255737,0.1971772015094757,-0.0035061929374933,-0.0470870211720466,0.4844660460948944,-0.8735349178314209,0.0,0.0,0.0,-0.2854240308968583,-0.5337766733618722,-0.5585734399260599,1.172490816,0.0221916516379173,0.0078477434905994,0.0033926864784758,-2.396935413134206,2.518433903400798,-1.885399794758708,-0.0396546747930532,0.0857666874148279,-1.014444170350384,0.0017807835510721,-0.0013114457437508,-0.0013274819806132,640.3423471328963,1047.2569969618974,431.6124370471774,-9.131256288894229e-06
990,1724815052078435445,-1.8438820838928225,-0.4503704905509949,0.1972048729658126,-0.0031956818420439,-0.0472525730729103,0.4846636354923248,-0.8734174966812134,0.0,0.0,0.0,202.52609573629945,327.33616908397005,149.39083951654575,1.213139443,-0.0168138993593225,-4.824226545606029e-05,-0.0120392404815455,3841.106160764123,-1389.755110303834,2109.0220539677207,-0.0403801625051134,0.085745140765123,-1.014934794737146,-0.0936445830398042,-0.1440669330507944,-0.1603538941325268,-355887.7168535938,-323773.9894181145,-954447.7887119884,2.794855094047509e-05
992,1724815052079263756,-1.843961238861084,-0.450492262840271,0.1970693320035934,-0.0041628121398389,-0.0461769849061965,0.4840873479843139,-0.8737905025482178,0.0,0.0,0.0,-98.35077899083004,53.549559716250954,-657.3609386438729,1.213967754,3.2296659568138284,-1.174651775405832,1.7704910470084234,-8045.0099046530595,-976.44587679109,-9023.614504508272,-0.0375764690878032,0.0848300559419239,-1.013426046808702,0.0775680267197458,0.1326535279500831,-0.0340242502814476,-504844.1150771048,-585355.3710090473,-1006571.2731550246,-0.0001346968652641
994,1724815052079685834,-1.8438912630081177,-0.4503761231899261,0.1970828473567962,-0.0034619974903762,-0.0461856052279472,0.4848807454109192,-0.873353123664856,0.0,0.0,0.0,-341.88971548083043,-248.3216009927594,-1089.2238358255113,1.214389832,-2.739212876880513,-1.49180519314549,-4.441786172675878,-4606.905484839817,-12711.332222000094,-883.7496746342167,-0.0388892382836069,0.084129202449638,-1.0152820642531637,-0.0295529711420385,0.0949206824491852,-0.4856666848027089,-371243.0348151274,-525888.7422001307,-477028.4598575664,1.2963490437585243e-05
996,1724815052080131342,-1.843996286392212,-0.4504185914993286,0.1966230422258377,-0.0020390118006616,-0.043731365352869,0.4845605194568634,-0.8736615777015686,0.0,0.0,0.0,-410.52666262945775,-393.586690949498,-1044.921024047144,1.21483534,-0.3080215556006139,-12.778822997481354,1.6700435344707214,5172.898318825555,-23922.125350258688,12986.477179154956,-0.0389478375650497,0.0784693802084604,-1.014313840598534,-0.223293433348596,-0.0904406859400253,-0.97994326798323,-143176.91808759587,-306311.40765780455,101496.92829241148,-0.0004639090620353
998,1724815052088163052,-1.8439877033233645,-0.4504376649856567,0.1963033825159073,-0.0017203066963702,-0.0424787700176239,0.4847983419895172,-0.8735921382904053,0.0,0.0,0.0,16.00402284556331,6.646480629294371,67.62427085033396,1.22286705,0.084430272986017,-0.3103260875683812,-0.0629523125015642,20.97477615844065,910.4652517219994,-129.4392461673202,-0.0383013613622978,0.0759592667536806,-1.014724073771292,0.0051050045666869,0.0035359034368589,-0.0263097544898309,29904.23267408595,28394.652842138465,76999.20404863358,-0.000317038582891
1000,1724815052099050803,-1.8438725471496584,-0.450311928987503,0.1962160319089889,-0.0015421293210238,-0.0433496236801147,0.4857158362865448,-0.8730399012565613,0.0,0.0,0.0,-0.8476178352835985,-0.5962125849571877,-2.0236639607802926,1.233754801,-0.0988117233231462,0.1278998381535752,-0.1980769571859521,-1.3736499604585708,-30.7905882629218,11.979317222837429,-0.0395467848605314,0.0772668352841527,-1.0169397840030616,-0.0041515973971826,0.0013040194828626,-0.0443753317508157,-640.8808228433121,-294.59451597276797,-2753.3563422559823,-8.411147755189718e-05
1002,1724815052107721114,-1.8440102338790896,-0.4503713548183441,0.1955802887678146,-0.000215282823774,-0.0409746617078781,0.4854366779327392,-0.8733111619949341,0.0,0.0,0.0,-0.1427122911169129,-0.5914970977323063,-0.7392831021602939,1.242425112,-0.0040028606057741,-0.629558841524849,0.07418793171051,-3.435514842723082,-34.646498200480885,10.232181086240397,-0.0395173722887598,0.0718380444273841,-1.0160789449302223,-0.0114829830860401,-0.006566516320877,-0.0644371692277019,79.78847394073115,15.509435286105582,159.66953310173545,-0.0006410470616531
1004,1724815052117649854,-1.844074249267578,-0.4504332840442657,0.1950415521860122,0.0015732665779069,-0.0398379787802696,0.4856764376163482,-0.8732290863990784,0.0,0.0,0.0,0.6322887990348453,-0.2673521136267792,0.9771740570297752,1.252353852,-0.2015020698765539,-0.3741852369116767,-0.0649161546893131,-1.1606384176509756,19.981591184730256,-6.793569610398507,-0.041552622943178,0.0680997907990798,-1.0165736551794606,-0.0049085300637443,-0.0088435185640136,-0.0538747259457501,32.27960015424422,22.85165075642701,96.99241163212147,-0.0005393493177851
1006,1724815052128222844,-1.844108819961548,-0.4505561292171478,0.1944762766361236,0.0021824522409588,-0.038794495165348,0.4859296679496765,-0.8731337189674377,0.0,0.0,0.0,0.4581783914073085,-0.136029702034197,1.1482787304866595,1.262926842,-0.0028799968476735,-0.2275363396485626,-0.0554916273444938,-19.16183563606364,10.907181282957383,-10.05583327437823,-0.0416156299266882,0.0656717214745311,-1.0170607082805978,0.001440288220337,-0.0120982721924001,-0.0445186828119368,-7.580649620986524,-61.852625349548646,-73.54660562901611,-0.0005618205827968
1008,1724815052138182323,-1.8440502882003784,-0.4506811201572418,0.1941168159246444,0.0049775601364672,-0.0394838787615299,0.486942857503891,-0.8725268244743347,0.0,0.0,0.0,0.4660513887643399,-1.4488485052845212,-0.4260132713191742,1.272886321,-0.5497302087161436,-0.1467037352308858,-0.2583444888972338,-36.14470776871103,7.229868153635698,-12.945596663402544,-0.0472534800715073,0.0640977942348724,-1.0195717402581166,0.0046685391387928,-0.0118412388036657,-0.0306115233070769,182.29264669872583,-133.00236549003745,186.96917346875543,-0.0003502848902271
1010,1724815052167514072,-1.844017744064331,-0.4509672224521637,0.1936923861503601,0.0049161296337842,-0.0392628572881221,0.4869085252285003,-0.872556209564209,0.0,0.0,0.0,21.492110970277132,-5.452523880623886,34.864369961668956,1.30221807,0.0109107222972354,-0.011200501416411,0.003108580923683,-385.7038350625224,-381.6447545126591,-262.013638522681,-0.0469266203244946,0.0637739094813711,-1.0194648352265845,0.0305978106471229,-0.1817269765875835,-0.2005345279789594,-2126.553694409926,7659.216586680546,6542.646076325029,-0.0004122304692363
1012,1724815052168971515,-1.8439710140228271,-0.4512445330619812,0.1933866441249847,0.0055079273879528,-0.0390888266265392,0.4871429800987243,-0.872429609298706,0.0,0.0,0.0,18.186868194826125,6.27489592757756,44.78657840354704,1.303675513,-0.5805466253388321,-0.5953983894287496,-0.3983813150894921,-34.377466963549935,-32.19965800244262,-237.43351580488593,-0.0478069047277944,0.0628796310527026,-1.0200047872674682,0.0634137309355082,-0.189649144507797,-0.1467773692951794,-3818.0964813020646,8034.960060680516,3737.707371973165,-0.0002934552965662
1014,1724815052170267025,-1.8438527584075928,-0.451489508152008,0.1932690441608429,0.0057033016346395,-0.0390285849571228,0.4875113666057586,-0.8722252249717712,0.0,0.0,0.0,11.455254976353206,16.670895266096704,46.09321208240992,1.304971023,-0.1973429908920002,-0.2126013990255039,-0.6621707949892441,259.11331947309554,259.4063817236909,-167.548565088451,-0.0481155473462855,0.0625633898922146,-1.0208500677729146,0.0819896009795613,-0.1680344384403937,-0.0796562015499113,-4770.816321977895,6925.048708198506,271.1802259245605,-0.0001016402657918
1016,1724815052178752881,-1.8436734676361084,-0.4517447650432586,0.1932111233472824,0.0058887279592454,-0.039043229073286,0.487797349691391,-0.8720634579658508,0.0,0.0,0.0,-5.389608477626964,14.31616061181925,7.406356732062758,1.313456879,-0.0373878089974468,-0.0164225950251229,-0.0790629307363456,16.761707138179712,20.47988774062087,61.08346428582629,-0.048474319234979,0.0623918062042099,-1.0215148107862952,0.0189261001791472,-0.0273139378257418,-0.0063124233766018,-1368.5081263412203,-1705.995464957579,-4004.4750748946058,-3.739997182017106e-05
1018,1724815052244962339,-1.8435579538345337,-0.452124148607254,0.1930582672357559,0.0064168567769229,-0.0384707935154438,0.4871279597282409,-0.8724592924118042,0.0,0.0,0.0,222.5013258292413,-836.5861518876759,28.723345168851324,1.379666337,-0.0061965007873112,-0.0234472990228467,0.0227413656810716,-5654.713855673887,4626.473816415968,-8074.687123593257,-0.0487870922844074,0.0609144060327835,-1.0199324793872342,0.716952401792696,-0.250443622661578,-0.1548087150416677,-852086.3388034941,-432547.7021573134,-1552958.2825547075,-0.0001339431286776
1020,1724815052245382181,-1.8432550430297852,-0.4522299468517303,0.1929928660392761,0.0066854343749582,-0.0390648581087589,0.4877316355705261,-0.8720934987068176,0.0,0.0,0.0,-137.51795225357137,-1019.3051874609092,-627.4090140041765,1.380086179,-2.395338491926742,1.9312579155218408,-3.3888524983350075,-1498.670874725392,-4086.398076414659,-4606.53667352008,-0.0498824038901928,0.0616540746290244,-1.0213962072028309,0.8109320940520774,-0.6038958701815318,-0.1426670081204406,-1089708.3370877649,785131.2621423707,-1471291.5178889572,-3.978317204872582e-05
1022,1724815052245653213,-1.8430196046829224,-0.4524551928043365,0.1929564923048019,0.0069977901875972,-0.0391144752502441,0.4881952404975891,-0.8718293905258179,0.0,0.0,0.0,-473.49051033214175,-592.990645376646,-1010.1637972504492,1.380357211,-2.068083032796883,-0.7058817846811641,-4.021600263465513,21033.391469258553,-9284.196692076606,11400.281066295254,-0.0505093980435406,0.0614083101566942,-1.0224772746534596,0.7104337994373964,-0.9112054898222368,-0.4275505602495855,1421297.2578410844,3564131.721931468,1799856.4903255887,-1.273881419913082e-05
1024,1724815052245928368,-1.8428683280944824,-0.4527283012866974,0.1927569061517715,0.0060821338556706,-0.0381193608045578,0.4878875017166137,-0.8720526099205017,0.0,0.0,0.0,660.8848229715197,943.9215574642632,382.3373849137148,1.380632366,9.257554756315916,-3.1359456191507227,2.9519519889495167,10109.964458342203,-3762.833152397173,12240.0919231811,-0.0479099987280796,0.0605864411150151,-1.0216220267469838,0.55146449461472,-0.9232858032825106,-0.694065158902788,4222372.500417065,4373730.566131811,4872296.373421385,-0.0001807746416431
1026,1724815052246211527,-1.8427116870880127,-0.4529695510864258,0.1925694942474365,0.0058769881725311,-0.0375730134546756,0.4875806868076324,-0.8722493052482605,0.0,0.0,0.0,1885.5382989608815,1829.2422180741096,1707.0462163946318,1.380915525,3.0721581238501603,-2.724402947218155,2.599394677891676,-30032.499776899596,36181.27679502248,-25231.29936214981,-0.0469935560155595,0.0598507835833879,-1.0208488194574514,1.0995314163042167,-0.3681577690078939,-0.192145934243058,1970115.867544557,1243147.1098332524,2122239.5406273445,-0.0001693389501568
1028,1724815052246482902,-1.8422712087631223,-0.4529436230659485,0.1926395148038864,0.0057165618054568,-0.0399499535560607,0.4887959659099579,-0.871464192867279,0.0,0.0,0.0,1807.725367467848,1676.754111518136,1618.179589480089,1.3811869,-7.207522417495366,16.126366608966755,-10.486117259988331,-37283.64663041562,68367.83296492256,-47459.144462180455,-0.0491389129406763,0.0640852999500174,-1.023907316979594,1.5982136187783709,0.0941198921779288,0.2540621451816176,-283929.13122130313,-554664.2154694035,-323810.7434489702,0.0001021702603336
1030,1724815052263641107,-1.8418852090835571,-0.4528727233409881,0.1927035301923751,0.0052328072488307,-0.0406389571726322,0.4898489117622375,-0.8708440065383911,0.0,0.0,0.0,-19.12991402384901,19.498449519426913,29.775043586198876,1.398345105,0.0143735769999423,0.1011405215691327,-0.1395815563614791,2609.037401278958,-747.3084341756535,1178.6932099745509,-0.0490532772862635,0.0657010723780529,-1.0263899068482132,0.1917277617133095,-0.1127628593905569,-0.2625807843074881,-5049.204655607915,-2503.651075562844,1487.8786468173348,9.092387659919438e-05
1032,1724815052264649523,-1.8416818380355835,-0.4529933631420135,0.1924229562282562,0.0041505345143377,-0.0396747402846813,0.4894278943538666,-0.8711309432983398,0.0,0.0,0.0,-18.210707223872586,22.549683562505287,36.85014404599042,1.399353521,2.7750513555282583,-0.6413946036139473,1.0831502485461724,2009.3773894964495,-546.9676653009236,892.331565150632,-0.0461813911587165,0.0651070006195228,-1.0252656445297117,0.1761612439049429,-0.0912301154235244,-0.229005958337721,517.1896990590155,2257.637226488361,5614.585313512509,-0.0002609842103574
1034,1724815052268521699,-1.8413790464401243,-0.4529243111610412,0.1922681331634521,0.004573855549097,-0.0400261618196964,0.489782452583313,-0.8709133863449097,0.0,0.0,0.0,-22.071429984539257,19.870595857606745,37.75292098785783,1.403225697,-0.2725080297052115,0.0563260411759423,-0.2224494193405494,-576.0470416792645,131.93871005842382,-245.01824901031503,-0.0472934263047439,0.0652846167294605,-1.0261380207865851,0.064399104342975,0.0138787052239504,-0.0334499819876032,-236.3943078886464,-996.0392290159712,-713.7083410225604,-0.0001340109403588
1036,1724815052279404020,-1.8411002159118652,-0.4528942108154297,0.1921039372682571,0.0049637132324278,-0.0403378494083881,0.4900969266891479,-0.8707200288772583,0.0,0.0,0.0,-1.38063248017741,-0.2708415576434735,1.027987930140564,1.414108018,-0.0883062693132354,0.016482725968522,-0.07034559922917,4.635153997201794,3.494883907497936,3.2793954857958028,-0.0483050175820769,0.0654272148824772,-1.026913028044189,0.0319173159698351,0.007650796488793,-0.0125491569610485,1011.4464829148682,-869.2233882626615,-1656.383246340105,-0.0001436400743706
1038,1724815052289201537,-1.8407319784164429,-0.452776163816452,0.192003384232521,0.0053620021790266,-0.0411834940314292,0.490634948015213,-0.8703749179840088,0.0,0.0,0.0,0.6795707366566613,-0.1283759940807256,-0.0431425247923847,1.423905535,-0.1513151550920115,0.1138474445614171,-0.1325789615593673,-0.4339660012532038,2.995678018495098,1.0771133376335824,-0.0498768276689912,0.0664775419711432,-1.0282679470341332,0.0325408613431861,0.007656306609185,-0.010351220386723,105.76123141991552,-5.660023673488759,-99.31382827615698,-7.553833914474708e-05
1040,1724815052302752343,-1.8403855562210083,-0.4527547359466553,0.1918614655733108,0.0055393567308783,-0.0414766892790794,0.4904980063438415,-0.8704371452331543,0.0,0.0,0.0,0.1538732812185061,-0.5836797263897306,-1.2012639550128188,1.437456341,-0.0447977577822667,0.0243345571052758,0.0212517975044925,-35.045071204658385,2.899605938947732,8.43629201411063,-0.05046578621,0.0668213312662654,-1.027996381937656,0.0532932610893226,0.0035001545227615,-0.015948900747297,-147.17682728109494,-32.875237931005884,-12.484911475792115,-0.0001151907451186
1042,1724815052308581155,-1.8400053977966309,-0.4527295231819153,0.1917547732591629,0.0063434443436563,-0.0421525724232196,0.4902955293655395,-0.8705132007598877,0.0,0.0,0.0,-0.9757325623589624,-0.7734867789280645,-1.0910576233597151,1.443285153,-0.3566434590538501,0.0650679074364839,0.0631146219772383,-31.124302456536228,-5.344904925980278,8.927191837883734,-0.0525212395577096,0.0672190256194231,-1.0276476383218018,0.0507362482259381,-0.0005964358354191,-0.0249269835822811,-107.2295057258402,1.8738676069294655,77.34720877742348,-7.680422328883654e-05
1044,1724815052319387434,-1.8397473096847536,-0.4528345763683319,0.1913527250289917,0.0080852080136537,-0.0416795685887336,0.4893154501914978,-0.8710728883743286,0.0,0.0,0.0,-0.4001743267354203,-0.0633098254133534,0.9155781526515604,1.454091432,-0.2446872069558289,-0.2397762213868721,0.194546874322353,10.41043791551252,-1.7860569324848203,3.5018092316555007,-0.0550174908733541,0.0647446740889493,-1.0254043208946904,0.0294328858604302,-0.0103707556881182,-0.0277171635700028,79.1222915948103,53.09285104383693,107.516813348456,-0.0003770111638135
1046,1724815052329339910,-1.839403510093689,-0.452943742275238,0.1911638379096985,0.0087009919807314,-0.0419614538550376,0.4886351525783539,-0.8714352250099182,0.0,0.0,0.0,0.6243321415440548,0.3493633138853609,1.2690757956186642,1.464043908,-0.1406179685856944,-0.0153474127102564,0.1500127629993298,-0.6877948756369534,17.94620329159938,-13.468003021620714,-0.0563198400325727,0.0646752356373861,-1.0239019844346993,0.0398521068194241,-0.0032903507724633,-0.0078458896857132,4.113075796976558,0.9393028496655876,-32.11660665391192,-0.0001573055460019
1048,1724815052338735679,-1.8389819860458376,-0.4529065489768982,0.1911888718605041,0.0094608133658766,-0.0429839640855789,0.4888213574886322,-0.8712730407714844,0.0,0.0,0.0,-0.21363589703361,-0.0012767486020043,0.3673779462942941,1.473439677,-0.2459335254522809,0.11243393664364,-0.0563021067576174,-6.166323869496235,4.872167223547684,-8.808792642095266,-0.05866901579349,0.0656994972023197,-1.0244920901734906,0.0419699483479121,-0.0032193426828079,-0.0023753763787333,-64.4277005137427,-3.9010579199735407,-43.83144497343501,5.945875542751677e-05
1050,1724815052347832644,-1.83862566947937,-0.4529990553855896,0.1911228746175766,0.0103081446141004,-0.0438724085688591,0.48885577917099,-0.8711998462677002,0.0,0.0,0.0,-0.5816724882305107,0.2575688539321462,0.4278504575435642,1.482536642,-0.2576156796761238,0.0798850963017561,-0.0206191777272514,5.754694933866078,0.2098154849891189,1.7615535415645824,-0.0610278008588325,0.0664136909791108,-1.0247233243198997,0.0361595966064527,-0.0033087659022577,-0.0009257104637061,-21.908888841817145,6.183149208228079,-10.483527633721218,-3.259353132510127e-05
1052,1724815052358406046,-1.8382803201675415,-0.4529497325420379,0.1911908686161041,0.0104901203885674,-0.0447483547031879,0.4889684915542602,-0.8710898160934448,0.0,0.0,0.0,-0.5853767045981022,0.0492481853495069,0.1064721572845118,1.493110044,-0.1102649535064968,0.1286536486279637,-0.0285505523474177,0.3802779410956258,-3.142491361250954,-1.7128904480725238,-0.0622195430415355,0.0677528194831308,-1.0251092015908687,0.0307103395240915,0.0027008019700467,0.0068977641103398,1.2747320192166145,-27.567180498617404,-36.71451308633518,9.691586337837418e-05
1054,1724815052367811391,-1.8380078077316284,-0.4529407620429992,0.1912596523761749,0.0113241523504257,-0.0453920066356658,0.4891394972801208,-0.8709499835968018,0.0,0.0,0.0,-0.5597915847880074,-0.2758305406843191,-0.2917118039863658,1.502515389,-0.2200997193888883,0.0342176577260493,-0.0527156851870267,1.842824691369115,-3.5138238796068335,2.652684224223043,-0.0643246822363247,0.0680426463345903,-1.0256254557743774,0.0246190047789269,-0.0011791145508581,0.0025995387875976,4.12043255092248,5.699126428309917,-2.8944778451062803,9.282732007739408e-05
1056,1724815052378567974,-1.8377965688705444,-0.4529796838760376,0.1912296265363693,0.0112715670838952,-0.0458430871367454,0.4889481663703918,-0.8710344433784485,0.0,0.0,0.0,-0.498245136162615,0.2807775630144912,0.1623601649566847,1.513271972,-0.0339458378181873,0.0767138833049691,0.0400586920416932,7.679609333393849,2.2257404595409627,0.3398937287769867,-0.0646639802655908,0.0688938779909071,-1.0252477162702125,0.0196783415866974,-0.0024645309799353,0.0014950608886916,-3.6908316081362,28.21539416173755,15.274066607556,-9.713128751712493e-06
1058,1724815052388309200,-1.837604522705078,-0.4529935121536255,0.1912820041179657,0.0112670324742794,-0.0462992563843727,0.4890689253807068,-0.8709425926208496,0.0,0.0,0.0,-0.6172334261999259,0.3480515250077096,0.0734972193270286,1.523013198,-0.0440586538414894,0.0831780684115536,-0.0297182087881607,-26.746142440955303,-3.227112025257595,-0.4446512007444347,-0.0651168624905044,0.0696836592933295,-1.025589989072383,0.01448139532161,0.0038017242499215,0.0054147495198595,7.295295869746781,-22.591949710040485,-13.321834139351257,7.00992001371708e-05
1060,1724815052397745065,-1.8375157117843628,-0.452909916639328,0.1913334429264068,0.0134049504995346,-0.0475972704589366,0.4888392686843872,-0.8709713220596313,0.0,0.0,0.0,-0.3700711446239342,-0.1347375618941017,-0.0905893462145786,1.532449063,-0.5314046894579648,0.0171661572284336,0.0274928109308887,-4.53906188496069,-1.437445669176109,1.1858566155094512,-0.0701138129485198,0.0698628000759683,-1.025341576954845,0.0078919361979927,0.0043875563391821,0.0031022324280343,1.3343247303298824,-36.43926096673391,-26.442663975585443,5.777655771058702e-05
1062,1724815052408974442,-1.8374474048614504,-0.4529204070568084,0.1913368850946426,0.0129740396514534,-0.0478341914713382,0.4889766275882721,-0.8708876967430115,0.0,0.0,0.0,-0.6873058760433637,-0.3471317677163488,-0.5085063075216552,1.54367844,0.0471818894802646,0.0753059011838182,-0.024369813233612,37.10546011794567,0.4281600121096225,-5.243647786214575,-0.0696073531707111,0.0706872657103331,-1.0256743240599802,0.008123207781594,0.0002442332162679,0.0041495160037339,-31.15198158351426,-2.4089335101413045,-27.99173213952425,1.0236700510945849e-05
1064,1724815052418986186,-1.8373478651046753,-0.4529074430465698,0.1914127320051193,0.0116385864093899,-0.047281190752983,0.4894073903560638,-0.8706948757171631,0.0,0.0,0.0,-1.025091201285734,-0.223921413523062,-0.7064116848775821,1.553690184,0.2899670118377365,0.0371995272352711,-0.0824482321556645,-10.785284738115326,-10.7073644353875,13.779058590404077,-0.0667645295711587,0.0710026039694319,-1.0265255118521637,-0.00507674874666,-0.0030362141943456,-0.006312996047475,31.271594740118783,21.359110002390537,33.865574916964626,8.447958960196584e-05
1066,1724815052428186484,-1.8375215530395508,-0.4529719948768616,0.1912372261285781,0.0122847706079483,-0.0470505729317665,0.4885371029376983,-0.8711870908737183,0.0,0.0,0.0,-0.1877441514136806,0.0491244359804521,0.0586074259987505,1.562890482,-0.1054710926122399,-0.1196584092202873,0.2098653993690027,3.5386251053961253,-3.0931079900263216,0.6673495072860041,-0.0675935982846988,0.0700338065212159,-1.024520150641182,-0.0120276794315401,-0.0042192882105211,-0.0099493564702122,46.9660342929187,21.73698288827684,54.66525675023318,-0.0001894136735439
1068,1724815052437615417,-1.837568759918213,-0.4529847502708435,0.1912316083908081,0.0107854772359132,-0.0461189784109592,0.4889658987522125,-0.8710161447525024,0.0,0.0,0.0,-0.170541736464088,0.1773455839470699,0.2987722273506706,1.572319415,0.3774252238966034,-0.0139616876831473,-0.0844160657167395,21.632817942041896,6.167606139318732,-12.253221980631231,-0.0640899089516198,0.0698500746915536,-1.0253075928173865,-0.0083114290270884,-0.0020387901290241,-0.0050110735586219,-13.584736904634012,3.0915514435799105,6.31683310500541,-9.54745496442317e-06
1070,1724815052449721788,-1.83772075176239,-0.4530200958251953,0.1911023110151291,0.0098740747198462,-0.0454985275864601,0.4886880815029144,-0.8712154626846313,0.0,0.0,0.0,-0.574525114894997,0.0514490873691786,0.0775112459369563,1.584425786,0.1795026258805838,-0.017671136263182,0.0619151810181273,-14.3465494897027,-4.121081526063219,-0.4945944425148368,-0.0618635643400288,0.0696837378917854,-1.0245441685661818,-0.0191534222674363,-0.0007297684964839,-0.0048909026680448,21.621128498971323,-10.153786364980718,-11.236030587222643,-0.0001412896122
1072,1724815052457588899,-1.8379051685333252,-0.4530146420001983,0.1910934299230575,0.0097455419600009,-0.0451120138168334,0.4887206852436065,-0.871218740940094,0.0,0.0,0.0,-0.1233006191077399,-0.0271772805978552,0.0251086902951473,1.592292897,0.0768719781192287,-0.069593925608801,-0.006297420535077,-4.125329198819268,-2.478005459187985,-4.158199153545773,-0.0612599020751571,0.0691342263564817,-1.0245600015876513,-0.0220320426366242,-0.0006147658062864,-0.0039355981330047,39.41505597358037,-2.014715223030675,3.556282013548431,-2.524388208165727e-05
1074,1724815052467693072,-1.8381094932556152,-0.453037828207016,0.1910172402858734,0.0091803791001439,-0.044558722525835,0.4887077808380127,-0.8712605237960815,0.0,0.0,0.0,0.042132392414271,0.0560197784524468,0.1936348538750383,1.60239707,0.1509495981352581,-0.0411397609633148,0.0102465025596412,2.2665561412992385,0.5078314549500105,0.5290562136373148,-0.0597258041867591,0.0687255544630188,-1.0244311214245596,-0.020129521195173,-0.0014317641307428,-0.0049318937101592,4.739231656464851,2.040396064188864,8.371461554842432,-9.293345228472016e-05
1076,1724815052478739888,-1.8383307456970217,-0.4530432224273681,0.1909942626953125,0.0087983282282948,-0.0439437814056873,0.4887197017669678,-0.871289074420929,0.0,0.0,0.0,-0.046016743457101,0.0037578616692577,0.1857809797623426,1.613443886,0.1148178153456404,-0.0634074885321751,0.0027057541082304,-1.0069051664889583,2.9017080615463606,-3.827888751501274,-0.0584525630392331,0.0680280987441223,-1.0243598461606338,-0.0214293043841991,0.0008401979478733,0.000736621082872,3.270570487377703,-12.144603813119293,-17.33002108893084,-4.1581543846233374e-05
1078,1724815052487664380,-1.8385320901870728,-0.45302614569664,0.1910211443901062,0.0083385026082396,-0.0436672568321228,0.4889539182186126,-0.87117600440979,0.0,0.0,0.0,0.0642841376536852,-0.1580783515839617,-0.0887025825897274,1.622368378,0.1221540846243168,-0.0020567137684483,-0.0541333344058887,-3.4334918715723157,2.344010357460113,-4.184686456401304,-0.0573951689101846,0.0679817967765124,-1.0248420809835856,-0.0213234292858146,-0.0005820096760551,3.442419967747412e-05,1.643015202206724,0.8684036938440185,-18.72068565075525,9.333458978835709e-06
1080,1724815052498619571,-1.8387490510940552,-0.4530660808086395,0.1909814774990081,0.0083249686285853,-0.0434128753840923,0.48929563164711,-0.8709970116615295,0.0,0.0,0.0,-0.0618290978862534,0.1069779475292948,-0.1319380031918831,1.633323569,0.0273113340703211,-0.0373025026192501,-0.0706043214561176,-0.825152410089685,-3.828664035085188,0.9096271954859928,-0.0571467867617391,0.0675295413265428,-1.0255926854085646,-0.0199142327276575,-0.0022965517820345,-0.0010720859213435,-2.2819058985574645,17.75529716723652,-3.0212401513577225,-5.6569619711784025e-05
1082,1724815052508240576,-1.8389415740966797,-0.4530767798423767,0.1909926980733871,0.0081618437543511,-0.0428775660693645,0.4894839525222778,-0.8709192276000977,0.0,0.0,0.0,-0.0057977111459464,0.2233942516030027,-0.1531869825830074,1.642944574,0.0855490228051311,-0.0793039666693945,-0.0414636588151666,4.770095849133384,0.3224961310061542,11.615973160806153,-0.0563475862716637,0.0667451566697038,-1.0259484499725957,-0.0221183609715751,0.0009589310147646,-0.0026028390641492,14.092113199038783,-4.03866166814171,4.238790797442332,-4.442209473040131e-06
1084,1724815052518172200,-1.8391828536987305,-0.4530460238456726,0.1909282058477401,0.0076775285415351,-0.0424717292189598,0.4888077080249786,-0.8713232278823853,0.0,0.0,0.0,0.2189282344683553,0.0178235573059721,-0.0449884757346801,1.652876198,0.1197692795749666,-0.0280374171178446,0.1619392499804649,-3.56696812097973,2.8190063866290775,1.598163439118075,-0.055049858674298,0.0665566659247745,-1.024323508495479,-0.0198866328574922,0.0019988112719531,-0.0040635581071537,14.495014345885227,-10.90900025591576,3.158371932667966,-8.478632612260484e-05
1086,1724815052528391274,-1.8393397331237793,-0.4530371427536011,0.1909122318029403,0.0076988730579614,-0.0423407517373561,0.4888991117477417,-0.8712781667709351,0.0,0.0,0.0,0.2815440303072731,0.0092797676988062,-0.0940553531522229,1.663095272,0.009582266618083,-0.0238654712139169,-0.0202719986649945,-4.78825196465384,-1.275027877460194,-6.291073436315837,-0.0549648091520549,0.0663017662887344,-1.024517428453126,-0.0177101758565072,0.001267417784593,-0.0034498478924618,17.23960757255115,3.823952065623808,-2.48511388708222,-2.891913705973288e-05
1088,1724815052537576852,-1.839521884918213,-0.4530222117900848,0.1908649653196334,0.0077462280169129,-0.0421094931662082,0.4888314008712768,-0.8713269829750061,0.0,0.0,0.0,0.5316493344144637,0.0828808747932342,-0.0977570838437943,1.67228085,0.0150914114590251,-0.0494755046460749,0.0172173666551509,2.5287455878306,1.9177910639017548,1.142063412435799,-0.0548140895072111,0.0658566704677931,-1.024334239118082,-0.0145579240714965,0.0020202139010478,-0.0055862317822032,9.054290417675688,8.58553228340974,1.5738051035388514,-6.225250720985493e-05
1090,1724815052547399766,-1.8396095037460327,-0.4529982209205627,0.1908054649829864,0.0074440073221921,-0.0420453138649463,0.4888549745082855,-0.8713194727897644,0.0,0.0,0.0,0.4296832000286268,0.1732333189675293,-0.061532504864891,1.682103764,0.0601940324766482,0.0187953728387024,-0.0024396727096613,0.1479677923793093,2.2600931768132493,-1.5006342516809914,-0.0542250517772552,0.0660397134822783,-1.02436827575474,-0.007355744936234,0.0028440804984146,-0.0051302453029435,-13.703715684370826,6.843746552548168,-6.624689745951165,-6.701588780522516e-05
1092,1724815052560684679,-1.8396791219711304,-0.4529532194137573,0.1907539665699005,0.0076651647686958,-0.0418969020247459,0.4889256954193115,-0.8712849617004395,0.0,0.0,0.0,0.1879209621769534,0.2218505333634763,-0.334825418960562,1.695388677,-0.0176787520150063,-0.0354463093089224,-0.0133828257180974,-7.178443675608821,-0.6283976332492198,1.2880948489544095,-0.0544699192543707,0.0655598429473191,-1.0245204618731574,-0.0071007804376392,0.006751032052513,-0.007887301177444,7.7261456358543725,-5.962864281949392,-21.82357810856047,-5.815866411421419e-05
1094,1724815052567782925,-1.8397365808486936,-0.452892541885376,0.1906827688217163,0.0079387938603758,-0.0419418774545192,0.4889023602008819,-0.8712934851646423,0.0,0.0,0.0,0.3410853621067401,0.1430300375400528,-0.4944825815737017,1.702486923,-0.073626891924001,-0.0268048904948922,0.0037698040876502,-1.672744369027656,0.9924406043441388,1.3287054168362618,-0.0549901111600436,0.0653713288603359,-1.024483319611316,-0.0051269405475409,0.0080518047439177,-0.0107467512051,19.831089500021054,-3.977781389626207,3.4812483961855367,-7.723285953777952e-05
1096,1724815052578773974,-1.8397424221038816,-0.4528124928474426,0.1905524581670761,0.0079264119267463,-0.041810717433691,0.4889053106307983,-0.8712982535362244,0.0,0.0,0.0,0.5293233556892314,0.2205930334980871,-0.0141800287630138,1.713477972,0.0136609969696361,-0.0197254851084737,-0.0001385405649493,-4.048610726904337,-2.689850777055278,3.3268139553504175,-0.0548392848289726,0.0651547691662166,-1.0244729291457009,-0.0003056863814379,0.0089393162434632,-0.0177412918970549,5.280913944845739,0.3054629475843189,37.53869588826238,-0.0001324765024068
1098,1724815052587985344,-1.839743494987488,-0.4527173638343811,0.1903436034917831,0.0085395099595189,-0.0417926311492919,0.4886437356472015,-0.8714399933815002,0.0,0.0,0.0,0.4865217114697323,0.1712864463450645,0.2840428125865842,1.722689342,-0.1161959434993412,-0.0702403720313821,0.0589336356073483,-1.3948891958099232,20.360647298628372,-1.58758906189325,-0.0558720803215477,0.0645387783998107,-1.0238937978441118,0.0052700708873771,0.0120508596842192,-0.0130685739927223,-19.163958137397717,-12.83238554147971,-20.826364327517386,-0.0002106512918222
1100,1724815052597732808,-1.8396365642547607,-0.4525821208953857,0.1903152912855148,0.007601985707879,-0.0434648022055625,0.4888254702091217,-0.8712650537490845,0.0,0.0,0.0,0.1499787836805352,-0.030946924483543,-0.4677259390909816,1.732436806,0.0012313936931614,0.3948052946741467,-0.0390650930953934,4.058944576278565,6.571872005951894,-3.097468935743403,-0.055899694279554,0.0683598673020038,-1.0244904362848355,0.0087871256430105,0.0120029853216081,-0.012602485548582,-40.159546008820705,-15.817780364338546,-80.36244309774004,-2.3263855318829564e-05
1102,1724815052607978019,-1.8395700454711912,-0.4524793028831482,0.1900817453861236,0.0077459309250116,-0.0436586141586303,0.4887982308864593,-0.8712693452835083,0.0,0.0,0.0,-0.3221261815973558,-0.1399207142805925,-1.325922997818214,1.742682017,-0.0432018401613891,0.0191511701654884,0.004108707290133,-4.022720401143473,-16.662099054846287,1.6533539957760677,-0.0563401759362348,0.0685581233970264,-1.0244592918505628,0.0080533004723122,0.0114055679952969,-0.0229459895481589,-24.61059653699773,-5.273042859400592,-39.20309509275035,-0.0002300638480586
1104,1724815052618295162,-1.8394707441329956,-0.4523473978042602,0.1898434460163116,0.0079742986708879,-0.0441113039851188,0.4888064563274383,-0.8712398409843445,0.0,0.0,0.0,-0.3529734178481793,-0.1385987727752538,-1.2674004009105189,1.75299916,-0.0814398384651094,0.055081304790703,-0.0054379277263686,-3.987091516812134,-21.71028226567684,5.707711999448104,-0.0571864847626196,0.0691223036012516,-1.02454771424892,0.0021272886180838,0.0091141042711555,-0.039912251713039,28.606683576337588,10.16195988201528,86.35436347693452,-0.0002327903765229
1106,1724815052627980347,-1.8395183086395264,-0.4522925019264221,0.1893040090799331,0.0093775745481252,-0.0427845679223537,0.488299697637558,-0.8715761303901672,0.0,0.0,0.0,0.2113617438458613,0.0510486270017213,0.3025131910735317,1.762684345,-0.1226088739190595,-0.3842385735550034,0.110149403389139,-0.0434155261650888,-9.979724462077035,1.383206495334353,-0.0582877222958616,0.0654686406374378,-1.0232650221797976,0.0007217355110924,0.0085309605122319,-0.0487589397822407,405.80564502590306,349.9914908084407,-626.9305056708323,-0.000542746503588
1108,1724815052637682671,-1.839456558227539,-0.4521819055080414,0.1888983696699142,0.010045469738543,-0.0424000322818756,0.4881874024868011,-0.8716503977775574,0.0,0.0,0.0,7.526510617571123,6.658200230785699,-13.449091345967632,1.772386669,-0.0821372116901878,-0.1371868552910464,0.021017005202212,3.205083395639964,19.889386800795396,-6.9675680664304265,-0.0590663684733763,0.0641518598122047,-1.0229828330371251,0.0062372967605881,0.0101076270798499,-0.0340055576977837,-798.9289610758524,-715.349329915883,1763.502806781632,-0.0004015707661755
1110,1724815052663918113,-1.8393019437789917,-0.4520083367824554,0.1885597705841064,0.0108784800395369,-0.0427025370299816,0.4881984889507293,-0.8716194033622742,0.0,0.0,0.0,-123.59806382543276,-111.16760722952222,258.4720953094793,1.798622111,-0.0665980054358733,-0.0107916015384305,-0.0043510199021654,-22126.932517824007,5749.0998604772785,-11501.504694827294,-0.0608198110468184,0.0638624052883716,-1.0230799885130095,0.6973125911845273,0.6456035551786954,-1.4488225197281963,-12096.59824750974,-11322.6422582136,25641.998688640888,-0.0003280775513114
1112,1724815052664163047,-1.8391295671463013,-0.4518487453460693,0.1882016211748123,0.0114000663161277,-0.0431803315877914,0.4884752631187439,-0.8714341521263123,0.0,0.0,0.0,-126.5771644209646,-113.95652901290372,264.7876273744989,1.798867045,-5.536835172495446,1.4104938909635545,-2.847758885203737,-20999.475673140903,5457.945082125422,-10914.380120665248,-0.0622219629546581,0.0641643495620108,-1.0237989547812036,0.6666963562548425,0.6180652308114105,-1.3847995499887316,-11221.212951699108,-10536.087629911162,23816.74597693572,-0.0003453897616562
1114,1724815052668249993,-1.8389328718185425,-0.4516075253486633,0.1878222227096557,0.0118925105780363,-0.0439281798899173,0.4886125028133392,-0.871313214302063,0.0,0.0,0.0,-108.22186243443682,-99.02893513372504,227.92684738412976,1.802953991,-0.3865432955055198,0.2045245460288546,-0.0936684158283201,896.6993741888688,-200.9970263550105,476.48628205619303,-0.0638298491294094,0.064974455763312,-1.0242345207583536,0.0416851306114764,0.0483402228892444,-0.0708361826299324,6419.152768072105,5526.5233972337055,-13214.205456664951,-0.0003658398059118
1116,1724815052677974907,-1.8386765718460083,-0.4513846039772033,0.1876423358917236,0.0112118069082498,-0.0459191016852855,0.4887363314628601,-0.8711501955986023,0.0,0.0,0.0,-1.1824302254533985,-1.9182755646325649,2.344182639391164,1.812678905,-0.0773646560360823,0.4269344780160001,-0.0275513765099663,15.219736261477175,3.81847802513765,3.659677991336219,-0.0646180650208739,0.0691006123044753,-1.024769677134176,0.0237745234435848,0.0195255710845252,-0.0196541504459233,6480.314772446103,5885.421507064117,-13631.316019731408,-0.0001614200202414
1118,1724815052691505725,-1.8384034633636477,-0.4511843621730804,0.1873546242713928,0.0119078513234853,-0.0472295843064785,0.4889067113399505,-0.8709752559661865,0.0,0.0,0.0,1.2865328464436645,0.522553738346089,-2.0252669322351693,1.826209723,-0.1834297668749114,0.1199318969180014,-0.0371292664793749,-8.576095824659726,-30.4180490661539,8.63795582040756,-0.0671425930018074,0.0706867928690076,-1.0253792676141416,0.0201872615534028,0.0132373901056688,-0.0428852709102862,67.56529832011415,67.11178940081221,-32.317115789051314,-0.0002657913336172
1120,1724815052701755922,-1.8381965160369873,-0.451060801744461,0.1867471486330032,0.0137456934899091,-0.0468069650232791,0.4882698655128479,-0.8713282346725464,0.0,0.0,0.0,1.086860726390093,0.3308568045655966,-0.0999533324815731,1.83645992,-0.2770616785519811,-0.2518739514771335,0.1239815403819483,-32.34440537400159,19.865752021281217,-32.45688580477695,-0.0698820618633069,0.0681980969616095,-1.023931257533134,0.0454230144427469,0.0262599101434091,-0.0660390852914609,-171.68598348172915,-103.99794713155624,271.77746475629135,-0.0005876140168162
1122,1724815052708015087,-1.837815761566162,-0.4508421421051025,0.1863079071044922,0.0152007127180695,-0.0479011684656143,0.4889073669910431,-0.8708869218826294,0.0,0.0,0.0,-0.5694953502899895,-0.6460928909923194,1.9219940701788472,1.842719085,-0.568220375743905,0.0870364411772722,-0.2632994091594072,-8.258991330536714,33.18571064073878,-20.339679070508097,-0.073553942419519,0.0686233685900139,-1.0256178987939792,0.0469700394339298,0.0247395317336867,-0.0584131599260073,-139.80850820114816,-85.41772425637207,191.38742768264356,-0.0004040484260161
1124,1724815052718205126,-1.8375670909881592,-0.4507591724395752,0.1859078109264373,0.0150329004973173,-0.0483058914542198,0.4879392683506012,-0.8714102506637573,0.0,0.0,0.0,0.0765682405339904,-0.3441946755352997,1.6882141818654068,1.852909124,-0.0176927032257296,0.0774734501673314,0.2184788931312477,20.90667980997734,1.9092036884978445,17.106913253204436,-0.0735845820168282,0.0695743295410756,-1.02345044495029,0.0276188675333202,0.0114670929565043,-0.0271549984656864,64.92659176642263,24.961153413545883,-74.61424573716667,-0.0003752023279542
1126,1724815052731806741,-1.8371330499649048,-0.4505428373813629,0.1857582926750183,0.0165328476577997,-0.0503256767988204,0.4884162545204162,-0.8710015416145325,0.0,0.0,0.0,0.9873636478883938,-0.0893891609516197,-0.2647887894723646,1.866510739,-0.3346227274765743,0.1551421759802335,-0.0966310081352437,-33.16011750247977,28.04718926381102,3.876556373219324,-0.0782399706086467,0.0715787679756047,-1.024924814273152,0.0645280049029679,0.0241837224027321,-0.0292343901121867,-123.25733611617056,-59.89450300450184,26.36597884242587,-0.0001080226525191
1128,1724815052737937921,-1.8366472721099856,-0.4503716826438904,0.1855286359786987,0.0174594298005104,-0.0522101446986198,0.4883426427841186,-0.8709137439727783,0.0,0.0,0.0,-0.2940674497986308,-0.6739206633975019,0.3665696646060591,1.872641919,-0.5651816888764668,0.388838080213167,0.0018785577055785,-14.761316676690504,19.8074604371838,11.098041981879716,-0.08171824387956,0.0739560957654159,-1.0251041796713156,0.0658108771993895,0.0208046919247877,-0.0311671497007095,-129.3611314877951,-66.5375873484549,62.43585459272434,-0.0001793264550154
1130,1724815052750407122,-1.8361669778823853,-0.4502925872802734,0.1852995157241821,0.017855392768979,-0.0536605156958103,0.4882280230522156,-0.8708817958831787,0.0,0.0,0.0,0.1125294829310354,-0.7732519100315575,0.1170593838187923,1.88511112,-0.169965935322499,0.1715345276836967,0.0142545864917712,15.050187430478893,8.345139756258657,-5.673558405873342,-0.0838375597807369,0.0761023637519447,-1.0251038559735963,0.0493807516282629,0.0092873902878238,-0.0093064042850574,18.47775061165147,3.2214538198607663,-73.76437264362086,-0.0001760750740465
1132,1724815052761934352,-1.8354820013046265,-0.4501541554927826,0.1852888762950897,0.0172395315021276,-0.056859266012907,0.488840639591217,-0.8703474998474121,0.0,0.0,0.0,0.1749478566906441,-0.6168979144521747,-1.3060672871197028,1.89663835,-0.1738568456828321,0.5423719764867138,-0.1221824345453783,-30.797941978135608,-14.413989967216082,21.084561058302185,-0.0859950519181943,0.0822124523147451,-1.027043670098711,0.0659185676175582,0.0019767488354958,-0.0253922136254729,-78.1213009496729,48.82284643764269,42.948804589871145,6.523483085689989e-05
1134,1724815052768396903,-1.8350324630737305,-0.4501777291297912,0.1850361227989196,0.0181310903280973,-0.058418620377779,0.4883916079998016,-0.8704782128334045,0.0,0.0,0.0,-0.6325767839805505,-0.1736302374402131,-0.4255968799261962,1.903100901,-0.4832518787976239,0.2804393025029045,0.1333530678088355,-28.319433920796072,-26.468118187012163,16.934742343592536,-0.0890597500084912,0.0840932059617858,-1.026341198555803,0.0624850354057642,-0.0019472751355458,-0.0335088527465092,-68.81355155053046,57.12262146902222,117.16052669053224,-0.0001965797555729
1136,1724815052779345749,-1.834479570388794,-0.4501675069332123,0.1847731471061706,0.0195425730198621,-0.0607580989599227,0.4887561798095703,-0.8700827360153198,0.0,0.0,0.0,-0.3446185725787076,0.2390784208498664,0.5032248226356251,1.914049747,-0.4305694465595741,0.2515008665149691,-0.1005656578920731,-1.6473103475517128,-2.789916487961701,-8.113355927229431,-0.093889406743271,0.0867347481038657,-1.027694036178441,0.0536803530701206,0.0041940795765356,-0.022765999575748,22.435566825443527,-0.9564567269681028,33.38350301910393,-0.0001920738972746
1138,1724815052788059551,-1.8339897394180296,-0.4501083493232727,0.1845834553241729,0.0209383536130189,-0.0626513883471489,0.4889452755451202,-0.8698096871376038,0.0,0.0,0.0,-0.1759216201815121,-0.0372990277796238,0.437320443148518,1.922763549,-0.4897169951217542,0.226171622328756,-0.0793656983800187,7.626015454032272,0.212873532016891,5.441525162993726,-0.09823383688522,0.0886301413611381,-1.0285747991683702,0.0538643759377635,0.0040454329539407,-0.0216956623795887,9.985601642436023,-24.721044359722537,-13.43946225659474,-0.000126089899269
1140,1724815052797992311,-1.8334813117980957,-0.450099229812622,0.1843687891960144,0.0213787741959095,-0.0643998831510543,0.4888561069965362,-0.8697214722633362,0.0,0.0,0.0,-0.1828732554345311,-0.2036350421390705,0.2372972607194174,1.932696309,-0.2507729917353876,0.26360767738953,0.0087478330011603,14.64260137398986,-1.4333117040947083,2.0002821476711072,-0.1007403775273329,0.0912441899810118,-1.0287492299119858,0.0498860534252258,0.0034457855330032,-0.0137911555629397,4.03674157074828,-8.863657901556294,-35.14266639327436,-0.0001453430656934
1142,1724815052809123519,-1.832942247390747,-0.4500293433666229,0.1843128353357315,0.0218944288790226,-0.0658362731337547,0.4890684187412262,-0.86948162317276,0.0,0.0,0.0,-0.0788537467101617,-0.2039693771798551,-0.3410585582760643,1.943827517,-0.2052102149644951,0.1827588681863036,-0.0546937259815299,0.1520390762293306,-5.0057625975590305,4.627826176356132,-0.1030997607805425,0.0932060055728367,-1.0295652076780897,0.0505655015624455,-0.000608034882024,-0.0181166771784884,-6.597145463712264,2.943430236655848,-47.477009943206326,1.6005456821769526e-05
1144,1724815052818467269,-1.8324530124664309,-0.4500890374183655,0.1840408891439438,0.0224752351641654,-0.0670039057731628,0.4887290000915527,-0.8695684671401978,0.0,0.0,0.0,-0.2655340784716962,-0.153144844978309,-0.749525653823386,1.953171267,-0.2347017632190069,0.1536925218389888,0.0695475475776011,-3.2625683934445444,-1.5801489000134188,0.8261384509532856,-0.105245927345392,0.094701860085944,-1.0290660414328707,0.0487314805340375,-0.0012572498008864,-0.0209306065541632,-18.850330750143527,-2.9118695498808957,-30.814281855740433,-0.0001998955077229
1146,1724815052831010289,-1.8319028615951536,-0.4500184059143066,0.1839159876108169,0.0235533937811851,-0.0687063336372375,0.4893431067466736,-0.8690615892410278,0.0,0.0,0.0,-0.4829671547481124,-0.3302849854164127,-0.9188021333979876,1.965714287,-0.2774137742269458,0.159644997110468,-0.1300662971711949,-3.8477737614608927,-26.80234468849816,15.106699196209808,-0.1089016266787495,0.0965184775126605,-1.030910571551341,0.044234854864527,-0.0045868529059376,-0.0378814345167661,-10.06228342947579,16.173367646025884,99.80790337710032,-4.706078498897801e-05
1148,1724815052839110137,-1.8315426111221311,-0.4501090049743652,0.1834630966186523,0.0250011999160051,-0.0686327517032623,0.4886928796768188,-0.8693927526473999,0.0,0.0,0.0,-0.5264295129405268,-0.0408169999543637,0.4822725482280167,1.973814135,-0.3108948672006985,-0.2001245608978647,0.1545543435391338,1.6755089913672505,-18.88497768934166,15.688693917822787,-0.1112831686772288,0.0950448507833294,-1.0294816015219554,0.0396718366518484,-0.0076012126754179,-0.0430607656059276,-14.549496556062316,22.14134165441467,115.1413226984488,-0.0003941247768632
1150,1724815052851086691,-1.8311525583267212,-0.4501365721225738,0.1831749826669693,0.0259049348533153,-0.069316953420639,0.488629549741745,-0.8693476319313049,0.0,0.0,0.0,-0.8633133240884256,-0.0164097016809743,0.8371014995883252,1.985790689,-0.1879571856995138,0.0258345797955732,-0.0019891427436832,23.573851558932745,30.91953899283327,-8.292007628699588,-0.1135398280617064,0.0953496390414136,-1.0295402856965163,0.0340207711784614,-0.0022225773014739,-0.0174208001332996,-37.102997720215626,3.935474999470799,-50.600297404214146,-0.0002274487248036
1152,1724815052859334383,-1.8308637142181396,-0.4501544535160064,0.1830689907073974,0.0249191913753747,-0.070399172604084,0.4888447523117065,-0.8691684007644653,0.0,0.0,0.0,-1.2203001454687423,0.0268265969343606,-0.0359089218297565,1.994038381,0.082065067591793,0.3493066043552567,-0.0432363227785043,23.138346124056724,7.452390004808466,4.980531530959469,-0.1129289527648147,0.0981718567287546,-1.030223207158519,0.0246769617345705,-0.0050019045446774,-0.0179216555999772,-2.0713186757149167,32.877540972095304,-51.61467063499867,-6.196837052169935e-05
1154,1724815052869877357,-1.8307429552078247,-0.4502453804016113,0.1828117072582245,0.0239655710756778,-0.0699101686477661,0.4882584512233734,-0.8695641756057739,0.0,0.0,0.0,-0.686724180636526,0.7458952638952413,0.1508367976917551,2.004581355,0.1966221155864288,-0.0002517084581592,0.1437953523341643,0.4073702923437539,-15.444376914872448,-2.418585154434304,-0.1107074395367501,0.0983383903838271,-1.0287090799509944,0.010633474273817,0.0001839886126226,-0.017965772194227,24.554447702094865,7.790735057154906,-1.9942479247710072,-0.0002345470091021
1156,1724815052880210363,-1.8306413888931272,-0.4501542747020721,0.1826912611722946,0.0235207099467515,-0.0697478801012039,0.488678514957428,-0.8693534731864929,0.0,0.0,0.0,-0.6968694317051374,0.2145827357231559,-0.0693475047376881,2.014914361,0.0949174282711268,0.0195265944021787,-0.0853456646907061,-18.098364794170028,0.6410179120556698,-18.48273972629299,-0.1098153903231246,0.0984419123689567,-1.0296123371079269,0.0100726355122162,0.0104637827000324,-0.0148372403948666,-39.14966416409358,-70.31074494401959,-23.706964724162724,-0.0001069737753959
1158,1724815052888522665,-1.830556035041809,-0.4500562846660614,0.1825466603040695,0.0239496920257806,-0.0700108259916305,0.4894219934940338,-0.8689022064208984,0.0,0.0,0.0,-1.2775125360822257,-0.496186234360248,-0.2824426919908395,2.023226663,-0.1107253154324044,0.0163421976368684,-0.21428623201889,-0.3148583575949155,-4.016773754863932,14.917988328116992,-0.110912027907168,0.0983807342730964,-1.0314062617889217,-1.68208571977857e-05,0.0070299947682173,-0.0179019443443024,2.6769598665408303,-27.66483583265279,19.38004546608269,-0.0001332688124409
1160,1724815052897495783,-1.830655813217163,-0.4500392973423004,0.182381123304367,0.0235232487320899,-0.0695496276021003,0.4886188805103302,-0.8694027662277222,0.0,0.0,0.0,-0.5509282170215032,-0.1841293585611156,0.3275044036700811,2.032199781,0.1230385700626162,-0.0548983052503781,0.2143339048704843,12.743151136553616,-2.1037480178317973,20.28282662868461,-0.1096142474642651,0.0981027539018623,-1.029430999796944,-0.0120972594365298,0.0017728169977999,-0.0196008560089939,73.32793177008875,33.4157546782247,50.34526892690883,-0.000178572278122
1162,1724815052907577715,-1.8307888507843015,-0.4500227868556976,0.1821704506874084,0.0230686068534851,-0.0692703276872634,0.4881817996501922,-0.8696827292442322,0.0,0.0,0.0,0.1017523906595528,0.1373477202374606,0.6353773265026675,2.042281713,0.1007594471446102,-0.0100041139216288,0.107488258512818,-7.274053401781932,4.086862132805714,-16.281417888306645,-0.1084912837857754,0.0981204358631028,-1.0283374979307554,-0.0086419859124475,0.0044673826596906,-0.010444361887048,14.183185663424316,5.520670510695529,-24.72737882637975,-0.0002279064658647
1164,1724815052917827864,-1.8308299779891968,-0.4499475061893463,0.1821723133325576,0.0231589376926422,-0.0694479048252105,0.4887043535709381,-0.8693726658821106,0.0,0.0,0.0,-0.2797046699056106,-0.0808269860123405,-0.1940026245890977,2.052531862,-0.0265760714286084,0.0280719197375546,-0.1186293388993455,1.1305038993425898,0.652366714995475,-1.2476611877634638,-0.1088858582690228,0.0982745841807606,-1.0295835644153306,-0.0101101673991905,0.0045213081326629,-0.0067748681046779,-0.047811289333457,-7.1369232569468615,-44.54523446649575,-6.133077816650836e-06
1166,1724815052927999635,-1.8309943675994873,-0.4499300122261047,0.1820331811904907,0.0225834418088197,-0.0691713839769363,0.4883993864059448,-0.8695811033248901,0.0,0.0,0.0,0.0949721215503879,-0.010611276604818,-0.280001104646262,2.062703633,0.1217300688795598,0.0037966677758556,0.0787586463048331,1.236606388604136,-1.177520129962479,5.598454914461581,-0.107569468241764,0.0983994932232742,-1.0287873095478997,-0.0143327816754492,0.0028301836231143,-0.014320069975902,39.55307024802342,7.648391726279826,19.74266255433132,-0.0001615561884558
1168,1724815052937422136,-1.8311134576797483,-0.4498936533927917,0.1818926483392715,0.0225030779838562,-0.0691469684243202,0.488360196352005,-0.869607150554657,0.0,0.0,0.0,0.4913857712761715,0.0679618188931017,0.1521419953405564,2.072126134,0.0169137281756101,0.0032542464861159,0.010996628424388,-4.028260420097218,0.4302286940327966,-5.8274493261557,-0.1074002538155323,0.0984410972071724,-1.028687114637746,-0.0089855134264809,0.0040887375416964,-0.0129277912744409,11.474433996652866,-4.201088742421838,16.954804727946186,-0.0001570186838768
1170,1724815052947942497,-1.831165075302124,-0.449847936630249,0.1817799806594848,0.0222160685807466,-0.0690560117363929,0.4885396659374237,-0.8695209622383118,0.0,0.0,0.0,0.2527099633817122,-0.1235313406451718,-0.0090456590801302,2.082646495,0.0578830575392389,0.0135101183524815,-0.0342877878787703,-2.1498710457736427,1.1924297736802978,1.0387607452506322,-0.1068282466428873,0.0985438521096388,-1.0290628054049376,-0.0047100046127468,0.0040330895643663,-0.0112757434472356,-14.968004396364524,-9.36127959120772,-12.893921947324564,-0.0001201195886062
1172,1724815052957738158,-1.831209421157837,-0.4498112797737121,0.1816643625497818,0.0222206693142652,-0.0692182183265686,0.4884315431118011,-0.8695686459541321,0.0,0.0,0.0,0.1764928444565228,-0.1345947491469772,-0.1132085428519483,2.092442156,-0.0183044256079695,0.0271751907719604,0.0246223985081839,0.0413304199295598,-1.669824059235541,3.991707483912527,-0.1069866107726675,0.0988342602484912,-1.0288502974668805,-0.0036363617814174,0.0017445489747629,-0.0128791390080751,-0.1048590669987437,16.2854715274429,-5.243753796340384,-0.0001217590137461
1174,1724815052968941051,-1.8312387466430664,-0.4498173296451568,0.1815062910318374,0.0218870360404253,-0.0688483268022537,0.4882480204105377,-0.8697095513343811,0.0,0.0,0.0,0.2736632152261478,0.2709742099273264,-0.1028978399838965,2.103645049,0.082337949606145,-0.0307992361978743,0.0434320818190273,-1.348509880767145,0.271429450720544,-1.6336625669078089,-0.1060126589131211,0.0985429001782345,-1.0283273060421572,-0.0008021312732608,0.001505540619231,-0.0135006928187824,-9.96157411905498,10.061188323933058,-9.962258846129023,-0.0001603837820023
1176,1724815052979244881,-1.83122980594635,-0.4497824311256408,0.1813729554414749,0.0219614021480083,-0.0690277218818664,0.4882616996765136,-0.8696857690811157,0.0,0.0,0.0,-0.0055840023767107,0.1269070765751001,-0.3086809689084385,2.113948879,-0.0294734938392446,0.0236124385438893,-0.0047947572615478,1.097872664371815,4.591075029877967,0.2962504317119214,-0.1063237619464263,0.0987795921468804,-1.0284025685970624,0.0022135573918973,0.0070677990603158,-0.015010295070672,-16.657553669060178,-14.743089563452148,-6.394687077822853,-0.0001316904492503
1178,1724815052988378371,-1.8311986923217771,-0.4496880769729614,0.1812191009521484,0.0215086638927459,-0.0690973401069641,0.4881403148174286,-0.869759738445282,0.0,0.0,0.0,-0.0731721654692266,-0.0139114267242801,-0.2571676580373772,2.123082369,0.0772965548689855,0.0599615286723156,0.0382030299935074,6.526736142547158,1.235778148197805,1.3008571360893548,-0.1055890527416296,0.0993610887810263,-1.0281121629263108,-0.0002521849605585,0.0048838919062959,-0.0191425882065052,5.954330960594426,8.858975101811597,15.328732367315755,-0.0001506846632758
1180,1724815053001034213,-1.8312660455703735,-0.4497217833995819,0.1809365451335907,0.0210442934185266,-0.0690336674451828,0.4882022738456726,-0.8697413802146912,0.0,0.0,0.0,0.2363750788374695,0.5239387407577913,0.1067369350576681,2.135738211,0.069352679719248,0.0274812521579875,-0.0050780674961936,-8.634233316981812,1.6247195000567958,-8.833092303273144,-0.10472136429083,0.0997002208005741,-1.0282130831175849,0.0022728742511617,0.0086570446472862,-0.0189729701304983,-3.5475851209697264,4.018967380699557,11.622562096458084,-0.0002880462472937
1182,1724815053009037156,-1.831209421157837,-0.4495952129364013,0.1808016747236251,0.0210923999547958,-0.06931833922863,0.4885553121566772,-0.8695192933082581,0.0,0.0,0.0,0.0662525444754808,0.3613715717665924,0.1130556013000184,2.143741154,-0.0402651349376932,0.0616938106137884,-0.1031634524153683,-5.340520256151839,1.969259739274364,-2.969203344183903,-0.1051310858209857,0.100104765884952,-1.0290902186399358,0.0043510958398655,0.013992814439824,-0.0176464245911054,-37.90009593673231,-28.162609658148725,-25.065166051597295,-0.0001293915299948
