seq,stamp,px,py,pz,ox,oy,oz,ow,lx,ly,lz,ax,ay,az,timestamp,wx,wy,wz,aa_x,aa_y,aa_z,roll,pitch,yaw,vx,vy,vz,jx,jy,jz,fw
34410,1724913277969717155,-1.3661547899246216,-0.3356900811195373,0.2066278606653213,0.0060342410579323,-0.0640209391713142,-0.2863140702247619,0.9559755325317384,0.0,0.0,0.0,0.5454134953595752,0.0457392932257153,0.0477655377490225,0.0,0.0,0.0,0.0,7.148388007021722,-73.83512179996606,26.1036026681842,0.0485610821621731,-0.1192318303676165,-0.5848939239323576,-0.1552098716003313,0.0184184264680067,-0.0984680958797337,25.945295637069066,-17.109000608647612,28.956293464861456,0.0
34412,1724913277979420727,-1.3676608800888062,-0.3355113565921783,0.2056723684072494,0.0052819834090769,-0.0674473717808723,-0.2851366996765136,0.9560962915420532,0.0,0.0,0.0,0.7971755396351607,-0.1202791260283405,0.3287450162384351,0.009703572,0.0693648977100717,-0.7164644205147402,0.2532981879501175,6.265021400066536,-35.95189002347217,1.4843044332524982,0.0489730851369597,-0.1262956703088138,-0.5827618345650094,-0.149917412478338,0.0188622609930515,-0.0980045995450673,11.952261331287286,-31.01250527389327,40.23793996385366,-0.0007428957627985
34414,1724913277989913529,-1.369173884391785,-0.3353084027767181,0.2046492844820022,0.0049199513159692,-0.0709637776017189,-0.2851615250110626,0.9558362364768982,0.0,0.0,0.0,0.7638201606686463,-0.6034394706741169,0.8789578324801086,0.020196374,0.1250796520911544,-0.6638688805415851,-0.0104633524820769,12.167627083121989,11.1794574548039,-12.54138493284494,0.0503449637128311,-0.1332474878370219,-0.5832211073490077,-0.1386962590324572,0.0157165138976758,-0.0913670873018368,-3.0923952617018244,-23.204133232330506,54.7002217021517,-0.0007969261909778
34416,1724913277999818618,-1.3704962730407717,-0.335186630487442,0.2038016617298126,0.0056923064403235,-0.073745958507061,-0.2851435840129852,0.9556266069412231,0.0,0.0,0.0,0.7339983864528605,-0.6196924685590848,1.44192861966228,0.030101463,0.3097237174179667,-0.4954728212054213,-0.0169106334465452,-7.148929799652891,7.550823414778524,4.3942288442511295,0.0534704130833325,-0.1381398771460945,-0.5836468605046478,-0.1339879483775945,0.0069002782883771,-0.0803572046849705,23.4040210992965,18.180416823253907,12.942500128580464,-0.0006438720192896
34418,1724913278009450644,-1.3717913627624512,-0.3351706862449646,0.2030765265226364,0.0049611739814281,-0.0760997310280799,-0.2848225235939026,0.9555419087409972,0.0,0.0,0.0,1.2068402623460104,-0.2589222879849467,1.155458186434449,0.039733489,-0.0006992219227074,-0.5112577464302211,0.0726699012225435,-12.780897495480566,10.394133477265015,-0.7756259342013072,0.0534019724434958,-0.14309469324378,-0.5832066003911474,-0.1244953596964677,0.003463885310353,-0.063373909845863,29.655203484218575,18.209232540476822,-82.64325467644127,-0.0005241519396284
34420,1724913278019564580,-1.372944712638855,-0.335116446018219,0.2025620490312576,0.0049464674666523,-0.0775538682937622,-0.2850035727024078,0.9553711414337158,0.0,0.0,0.0,1.3003680840297065,-0.2791474154665682,-0.2422052752258268,0.049847425,0.0765652011888182,-0.2783429531988655,-0.0421804125193932,7.006136490450552,10.727171684349104,-2.2943267847969953,0.0542603782823652,-0.1458828247040193,-0.5837902163138708,-0.1099390808114577,0.001884272853637,-0.0581419891204291,-8.552553699910213,-13.621804048117758,-95.56348308170504,-0.0003322168778459
34422,1724913278029147867,-1.373961091041565,-0.335129976272583,0.2019388079643249,0.0051789912395179,-0.0790575742721557,-0.2848758697509765,0.9552847743034364,0.0,0.0,0.0,1.056774202066772,-0.5152230920017361,-0.7709316016122831,0.059430712,0.1379566632002865,-0.287248752438598,0.0181135529855748,-4.870744218588613,-1.953574597432402,6.183866197482814,0.0555791652950457,-0.1486409997253953,-0.5837677867815894,-0.0987382119553288,-0.0019074639542413,-0.067359767468119,-3.953990114218584,2.071539407650741,21.538874395617313,-0.0004593746237068
34424,1724913278040020247,-1.3749443292617798,-0.3351568281650543,0.2011777609586715,0.0043646316044032,-0.0806436538696289,-0.2844713628292084,0.9552767872810364,0.0,0.0,0.0,1.2785483821560266,-0.1632897717336218,0.4094626861170329,0.070303092,-0.054098339954562,-0.321122991737835,0.084018325921337,-8.106815837106984,-8.859797785335239,8.439860348431393,0.0548819635204796,-0.1521774699034699,-0.5830401975553878,-0.0886302863712558,-0.0089839436430949,-0.073386553559267,54.62382992422431,68.57532824171165,141.4886578625527,-0.0005981942496964
34426,1724913278049172559,-1.3757416009902954,-0.3352892398834228,0.2004799991846084,0.0034782043658196,-0.082527607679367,-0.2837146818637848,0.9553444981575012,0.0,0.0,0.0,2.04217154443984,0.74327617747912,1.958042655352117,0.079455404,-0.0546586418896329,-0.4464658593851044,0.1795850191079626,9.612698511713443,0.5720019500025426,-3.7123752016838822,0.0541611291365061,-0.1563471480342332,-0.5816045884157852,-0.0742408670518699,-0.006721943768273,-0.0622136810012943,20.992218062960717,64.29541188178393,58.6181243756177,-0.0005662699363262
34428,1724913278059247415,-1.3763468265533447,-0.3352710604667663,0.200008749961853,0.0037999870255589,-0.0841002687811851,-0.2837283015251159,0.955202043056488,0.0,0.0,0.0,1.5611502062763194,1.005565523226398,1.3222048835757283,0.08953026,0.1494754520865633,-0.2824740158677917,-0.0147920701941433,13.228056293004895,20.898974248661737,-15.930892074782689,0.0557156046438949,-0.1591805495717299,-0.5819134710556755,-0.048454301468837,0.0062686830141629,-0.0343100464195123,-69.59879655596535,-6.792555410692506,-109.72516700846316,-0.0003652899203471
34430,1724913278071837513,-1.3767740726470947,-0.3351218998432159,0.1997728943824768,0.0052161053754389,-0.084142193198204,-0.2845948040485382,0.9549338817596436,0.0,0.0,0.0,0.3410583995043326,0.4035762253433863,-0.7926341159302308,0.102120358,0.2053550653819753,0.0533596211708028,-0.1624620478069592,-11.66758945761159,-18.39113363235858,-3.6839528717023313,0.0586219104019936,-0.1583929818016509,-0.5839427135261525,-0.0445065436412761,0.0144630353435815,-0.0404361247709363,12.2696558763694,-49.085978556469975,4.517492613954329,-0.0001569181744482
34432,1724913278079675471,-1.3771744966506958,-0.3349957764148712,0.1993500590324401,0.0050518973730504,-0.085341103374958,-0.2851583957672119,0.9546602368354796,0.0,0.0,0.0,0.9699656783633746,0.0126382090856302,0.0844603926755078,0.109958316,0.0353156623627219,-0.3106874344317299,-0.1520805005417784,-10.90088511917361,-23.87861033127733,-0.3738720309161234,0.0591132858210364,-0.1607538008225945,-0.5852931117130018,-0.0416991659441166,0.0164196387523425,-0.048142158130247,-285.8715355421045,7.9789844418151326,-776.1526729525057,-0.000345332405286
34434,1724913278089455943,-1.3774677515029907,-0.334831178188324,0.1989500522613525,0.0050328020006418,-0.0866758003830909,-0.2859632670879364,0.9542992115020752,0.0,0.0,0.0,-6.294150896388374,0.796780963687361,-18.34487775245057,0.119738788,0.0604277015007789,-0.2688017092140845,-0.1764650372926583,1.1583806744109688,5.535093250559517,0.0634115386854222,0.0600114662007394,-0.1632753923416676,-0.5871973389670846,-0.0247459277208399,0.0136508803114532,-0.0342863177551455,266.2663069354831,-54.97336220035115,713.0255509598262,-0.0003380407735929
34436,1724913278112583273,-1.3777536153793335,-0.3346892893314361,0.1985187083482742,0.0049410406500101,-0.0875050500035286,-0.2863454222679138,0.9541093707084656,0.0,0.0,0.0,55.04301267464257,-7.865548275482979,140.18772842432918,0.142866118,0.0101524016104231,-0.0722928715616508,-0.0351835635875,3356.3484119366026,-43397.1612631247,9138.456790048134,0.06039740084343,-0.164895336042931,-0.5881225588934365,-0.6093213692215613,0.0911341886906029,-1.539272519301676,7090.489661872183,-1002.5425086358264,18147.576575298328,-0.0003704023163669
34438,1724913278112925195,-1.377964973449707,-0.3346576988697052,0.1979847103357315,0.0043450528755784,-0.0900328680872917,-0.285828173160553,0.9540322422981262,0.0,0.0,0.0,57.489843268450386,-8.211514174254017,146.4498701992624,0.14320804,1.174739383913789,-15.130156401977516,3.1356206679120917,3236.0384608703816,-41838.23690229045,8810.120749483012,0.0606710400568084,-0.17012408189746,-0.5873546764609587,-0.5900949307059271,0.0883880876502525,-1.490301635392531,6774.849727408039,-958.0460803086804,17341.231352509134,-0.0004871228959109
34440,1724913278119759513,-1.3781658411026,-0.334600418806076,0.1975601762533188,0.0041295755654573,-0.0915679410099983,-0.2856453359127044,0.953941822052002,0.0,0.0,0.0,51.709993421112465,-7.412423705261787,132.00848202672367,0.150042358,0.0731745377940223,-0.448748479374994,0.0511120463019437,-103.74059985343544,1345.8907240364506,-281.7358328637345,0.0611430506466846,-0.1732065380766736,-0.5871902367393682,-0.0251571713528235,0.0076591585934799,-0.0485291953184239,-2510.104078198982,325.08104723133005,-6127.103409355681,-0.0003792896373832
34442,1724913278130983878,-1.37837016582489,-0.3345277607440948,0.1972659677267074,0.0037371856160461,-0.0922222658991813,-0.2855840921401977,0.953898787498474,0.0,0.0,0.0,-7.146396104973354,0.073663722631121,-10.76056479951697,0.161266723,-0.0323629265335978,-0.1318488681688268,0.0151033577847622,-6.090257545963497,20.320886241371134,-2.163230835501502,0.0607659097349717,-0.1746940513765096,-0.5871100139395262,-0.015324463233199,0.0055681412344172,-0.0222522867142411,-1691.3971750847634,494.4101332664277,-5590.780913820099,-0.0002495013435556
34444,1724913278156183715,-1.3785934448242188,-0.3344386518001556,0.1969292163848877,0.0034904545173048,-0.0930390134453773,-0.285348504781723,0.953890860080719,0.0,0.0,0.0,151.20232432299144,2.771084706027878,251.67212979171063,0.18646656,0.0015595050720344,-0.0674137393496776,0.0197040154959487,-698.8192775946227,-22172.936612589227,12114.710880421042,0.0607355833346993,-0.1764198617387353,-0.5867113497341191,-0.649289899303767,0.0221317989766021,-1.0346567371786932,16199.766244351747,-603.6121819512664,25777.887784202117,-0.000286698702193
34446,1724913278156556134,-1.3788387775421145,-0.3344303071498871,0.1965382695198059,0.0029153204523026,-0.0945283100008964,-0.284541368484497,0.9539875388145448,0.0,0.0,0.0,157.29000141577083,2.5423767371389197,261.35686503964206,0.186838979,-0.2625476710160955,-8.447087024055213,4.598128971943791,-595.3889112959295,-19568.82378532406,10687.526316234394,0.0603644865247649,-0.1796636028316725,-0.5851681002214357,-0.592008624224249,0.0231754375505808,-0.9393229736775704,13957.654389317686,-640.66751302985,22060.02634989803,-0.0003388963923648
34448,1724913278159401090,-1.3790724277496338,-0.334347665309906,0.1962658464908599,0.0034404131583869,-0.0952831655740737,-0.2843436002731323,0.953969657421112,0.0,0.0,0.0,145.0862706041264,0.1426333081197117,238.3818528712576,0.189683935,0.5163288015076821,-0.401992827611857,0.0957096931191923,207.2501366971666,2223.474283566369,-1241.7016554860788,0.061796616079078,-0.1808217421430713,-0.5849628000861576,-0.0688660190883254,0.0247589663205571,-0.0790325635592301,-6361.411271633948,-679.908243563133,-11263.938140446297,-0.0002206009357957
34450,1724913278169708482,-1.3792870044708252,-0.334252655506134,0.1960757672786712,0.0041757766157388,-0.0957929417490959,-0.2841269075870514,0.953980267047882,0.0,0.0,0.0,2.146876625772658,-0.7559576105492811,3.2181466634662037,0.199991327,0.1682436608632474,-0.0534487635440482,0.0274407162502494,-23.642122362431653,18.755966376818563,-8.772464784974947,0.0634853988186918,-0.1813892970087582,-0.584710916973252,-0.0222807550987127,0.0107695842622668,-0.0123188735715036,-7187.52340412238,-24.280050334691555,-11811.093944819037,-0.0001424420981656
34452,1724913278180482860,-1.3795435428619385,-0.3341191411018371,0.1960119903087616,0.0043325549922883,-0.0959408432245254,-0.2845821976661682,0.9538288712501526,0.0,0.0,0.0,-0.0590521840488249,-0.3091562442180767,-0.1067090576999343,0.210765705,0.0275848657571637,-0.0209671448728045,-0.091282119387392,-3.956714628863831,-6.505457729738354,4.32962377556669,0.0639653313806862,-0.181552074979697,-0.5857233206479905,-0.0258723150021182,0.0093963236017557,-0.0142965799529282,-63.173378065832765,14.742997478725602,-108.91041175538604,-8.828433433511268e-06
34454,1724913278189085994,-1.3797802925109863,-0.3340588808059692,0.1958314478397369,0.0043670516461133,-0.0965943709015846,-0.2843507528305053,0.9538317918777466,0.0,0.0,0.0,0.3699307622940093,-0.3659120228225132,0.328000385190383,0.219368839,0.0560443684514919,-0.1423326611047003,0.0514026008474887,0.6558954197600815,1.495777352633579,8.128807606389987,0.064380657619897,-0.1828024249514047,-0.5853544416833071,-0.0244961275634381,0.0054884335429292,-0.0146867140531252,31.543068670490833,5.769258924224163,34.62270944376364,-0.0001301444754536
34456,1724913278199297524,-1.3799937963485718,-0.3340212106704712,0.1957578212022781,0.0045904163271188,-0.0963372737169265,-0.2841788530349731,0.9539080262184144,0.0,0.0,0.0,0.4699779017370562,-0.15711102524967,0.4887546942092242,0.229580369,0.0305964315283193,0.0620584549018157,0.0319133870496466,-2.1373470277939988,8.19878544749021,-0.9840298556296784,0.0646255453547873,-0.1821910561629054,-0.5849822636375095,-0.0181736344491056,0.002822505548444,-0.006812114362968,-10.299495735636128,15.472757012057835,-0.25795166020864,-3.072649454006209e-05
34458,1724913278212444355,-1.3801864385604858,-0.3339987695217132,0.1956750005483627,0.0045654457062482,-0.0965433418750763,-0.2839572429656982,0.9539532661437988,0.0,0.0,0.0,-0.0055866931654491,-0.0378964461757111,0.2145428329834734,0.2427272,0.0085012391156395,-0.0301655385774354,0.0346248299768427,3.1754138126362097,-4.444506753649222,2.58731147472651,0.0646582408186618,-0.182616200189312,-0.5845463524144282,-0.0145198242341564,0.0025165973221064,-0.005166293077373,-10.640534939254987,10.788932330793989,23.654615831027655,-4.42550419551609e-05
34460,1724913278221408434,-1.3803157806396484,-0.3339712619781494,0.1956356167793274,0.0047499849461019,-0.0968617871403694,-0.2836200594902038,0.9540204405784608,0.0,0.0,0.0,0.0550896142831649,0.0693353128678266,0.698647920448519,0.251691279,0.0666466211360314,-0.0542958199911645,0.072371016509015,-3.4420695807663653,-1.3504893604195505,0.2496912759507856,0.0651417812512484,-0.1831439792418747,-0.5839201553605543,-0.0163027442961265,0.0020874837050293,-0.0026969667765435,19.73313913450036,7.200928406378903,28.302755885610186,-1.3127897528945393e-05
34462,1724913278229781414,-1.3804669380187988,-0.3339614570140838,0.1956263035535812,0.0045078578405082,-0.0970354825258255,-0.2834636270999908,0.9540504813194276,0.0,0.0,0.0,0.3217068387419485,0.0923898682553556,0.7346127123079709,0.260064259,-0.0398235955616628,-0.0551125646774006,0.0434821937233692,-5.48858320473,7.61267789256709,-6.122015876409979,0.0647465139117719,-0.183628099536965,-0.5835811364164664,-0.0138550939610837,0.0035846758216369,0.0064624204067103,-14.042648451778485,6.478028619994689,-19.681496272326314,1.969121099459451e-05
34464,1724913278242512331,-1.3805620670318604,-0.3338690996170044,0.1958552002906799,0.0050892238505184,-0.0959271639585495,-0.2839625477790832,0.9540112018585204,0.0,0.0,0.0,-0.7452717757100166,0.246958053067377,0.01992824970284,0.272795176,0.0302018429620806,0.1910510319873323,-0.0861743244946768,1.3026682951434254,2.271041878129616,1.822965914463565,0.0653037592614837,-0.1811296723963325,-0.5845335733331286,-0.0091907688082173,0.0030879989593728,0.0088595433002582,-31.529918661739657,-0.6355906026102769,-44.41405856631216,0.0002464935381776
34466,1724913278255468796,-1.3807038068771362,-0.3338840305805206,0.1958497315645218,0.0049702287651598,-0.0959431603550911,-0.2833758890628814,0.9541847109794616,0.0,0.0,0.0,-0.4644219665727327,0.0702486104892547,-0.4009328393411596,0.285751641,-0.008271822102827,-0.0045415186438955,0.0957738625892202,-14.221458712816446,36.83584884012624,0.2670218254354388,0.0649704356335804,-0.1812691839047816,-0.58327866953972,-0.0335050775050831,0.0100585249883664,0.0068977042324647,161.98147784667327,-51.369568405769186,-30.36904076818868,2.0313080487317183e-05
34468,1724913278259771996,-1.3808802366256714,-0.3338247239589691,0.195889875292778,0.0049177771434187,-0.0954233184456825,-0.2832324802875519,0.954279601573944,0.0,0.0,0.0,0.4331423433797872,-0.204730300160384,-0.5285960156442004,0.290054841,-0.0855510948209304,0.2281923011169906,0.0772340623531137,-9.05009771532008,32.03000632986858,-2.3038806309907844,0.0645300455965881,-0.1803107601387322,-0.5828768375398363,-0.033485254090479,0.0096923088427995,0.004815800206873,150.4154241729355,-47.82378573089659,-19.714187331303144,7.468289467734034e-05
34470,1724913278270918438,-1.3810365200042725,-0.3338347673416137,0.1958132535219192,0.0051546720787882,-0.0958120971918106,-0.2826142013072967,0.9544227719306946,0.0,0.0,0.0,0.4303764288314111,-0.2736087641863796,-0.4609777752744053,0.301201283,0.0707800615122488,-0.0515330251683398,0.1094283073578535,7.084584095926941,-6.746724976819048,-7.691829099999586,0.0651035066837786,-0.1809629958982184,-0.5816774370140316,-0.0162844586713788,0.0039563883900228,-0.0023694210084439,-40.9305505706876,-1.184773843164164,10.637737282864688,-4.661792815689488e-05
34472,1724913278280350462,-1.3812081813812256,-0.333758682012558,0.1958268582820892,0.0055878702551126,-0.0957797020673751,-0.282790333032608,0.9543713331222534,0.0,0.0,0.0,-0.280379927977806,-0.2449198786007933,-0.324156792837837,0.310633307,0.08220684812291,0.0312785971855081,-0.0475643571893014,-3.0746275236933345,-2.8570174519577334,-1.5373343069819354,0.0659571740165462,-0.1806392028642362,-0.5821127953456549,-0.0211066325273066,0.0032990992208965,-0.0052516698330151,-47.57650475769965,6.2822822248551216,18.399818606870753,4.858986016392584e-05
34474,1724913278290095860,-1.3814431428909302,-0.3337745368480682,0.1957082748413086,0.0054315919987857,-0.0963235646486282,-0.2823725938796997,0.954441249370575,0.0,0.0,0.0,-0.4643185248741823,-0.1510659845882341,-0.10563570774653,0.320378705,0.009085691796456,-0.1137377882847741,0.0895719661273694,-4.4456627805247635,-6.774915273470132,7.667863422028697,0.0658995083265918,-0.1818027454889881,-0.5813015835670973,-0.0215143182833728,-0.0008521948232562,-0.0085977482639405,-11.382107131645377,12.277307122813715,20.53818623934178,-7.315084813042265e-05
34476,1724913278304405268,-1.3816964626312256,-0.3337704539299011,0.195660263299942,0.0053717154078185,-0.0966214090585708,-0.2819253206253052,0.9545436501502992,0.0,0.0,0.0,-0.4697701279968171,0.080224888433171,0.1486519720987461,0.334688113,0.009711256440061,-0.0403775593081231,0.0647401364913684,20.813502949127297,-18.17436965537361,16.665029606049472,0.0658752337781812,-0.1824402471764714,-0.5804002843220972,-0.0370352101044488,0.0027622101672051,-0.0051147604263661,59.19118945662343,-34.67459779902543,-6.460181497019041,5.625362308398006e-07
34478,1724913278309851135,-1.3819382190704346,-0.3337502777576446,0.1956287622451782,0.0056084566749632,-0.0972394421696662,-0.2813809812068939,0.9546401500701904,0.0,0.0,0.0,-0.0239543846088531,-0.213974758668479,0.0632501911273833,0.34013398,0.1661059764370372,-0.1876462386829626,0.1936320256804538,14.552963901712255,-16.232857320876104,14.816302658625473,0.0665976313487613,-0.1835297012137325,-0.579399033621996,-0.0383190969413149,0.0028418640720078,-0.0045016062058067,58.09141569691474,-39.38590534616499,-9.015081580943804,1.563158712492765e-05
34480,1724913278322510816,-1.38224458694458,-0.333739697933197,0.1956095248460769,0.004998514894396,-0.09757861495018,-0.2806950509548187,0.9548108577728271,0.0,0.0,0.0,0.0118816754833579,-0.2818428420052551,0.1453225767361134,0.352793661,-0.0665255427574106,-0.0750362412615657,0.120708111679814,8.143195387921203,-6.434634335467106,13.302331364939295,0.065483252971985,-0.184578414269027,-0.5779118187840645,-0.0323892477154004,-0.0065945404879137,-0.0051529321053855,10.882959504491218,45.43690826143315,22.60296441351969,3.955623035952883e-05
34482,1724913278329726421,-1.3825119733810425,-0.3338178396224975,0.1955574005842209,0.0050567127764225,-0.0983220338821411,-0.2796459496021271,0.9550420641899108,0.0,0.0,0.0,0.1235249150800741,0.2549262815869229,0.3747126682535655,0.360009266,0.1012960528921465,-0.184512278586669,0.2950907044832698,10.283454680613172,-6.914603669907417,8.339847448958842,0.0658322389545941,-0.1860466042947075,-0.5758389762025521,-0.0341810363494445,-0.0067217939467507,-0.0032950879867854,18.33307132458912,48.42289515303172,12.014971672899966,-3.683832473111941e-06
34484,1724913278339436616,-1.3828063011169434,-0.3338294327259063,0.1955767422914505,0.0049273008480668,-0.0990355983376503,-0.2788494527339935,0.9552019238471984,0.0,0.0,0.0,0.3389227011098801,0.3858037191924158,0.2329648893754011,0.369719461,0.0316072750876339,-0.14375163621065,0.1692498355042019,-2.599006349191059,7.055282215979422,-8.171396823365003,0.0658465735966194,-0.1875475751159465,-0.5742635541165321,-0.0281225892077614,-0.0006847808834944,0.001875404048639,-7.98699170647652,-10.970874155202516,-36.84263433624062,7.492518922318922e-05
34486,1724913278350854014,-1.383098006248474,-0.3338304162025451,0.1955965906381607,0.005154141690582,-0.0992758423089981,-0.278049498796463,0.9554089307785034,0.0,0.0,0.0,-0.1572878754704572,-0.0676799746111347,-0.4863131472953584,0.381136859,0.0633900369468293,-0.0248365502918227,0.1402350597540141,-0.5546818163607876,6.459590190102351,1.6934036749039816,0.0662703595570613,-0.187936205907245,-0.572656374880228,-0.0280790785062379,0.0005529887018056,0.0005143300619661,-27.344211971559915,-21.51923902549652,-32.30048291616094,7.558342910147261e-05
34488,1724913278361182112,-1.3834116458892822,-0.3338187336921692,0.19559046626091,0.0051906686276197,-0.0992947742342948,-0.2770622968673706,0.9556936025619508,0.0,0.0,0.0,-0.2891276438704158,-0.1199006464788728,-0.5331133181420766,0.391464957,0.0264715223523864,0.0049220632363703,0.1972881592776951,-5.991636383247824,-7.377644701696515,3.981171314875086,0.0661563778823587,-0.1880203320543251,-0.5705834380404976,-0.0312086647493003,-0.0017911846422329,-0.0079380986016861,0.7882475781588107,16.239521132582702,41.31402659277251,5.4951623939341846e-05
34490,1724913278371659714,-1.3837475776672363,-0.3338685631752014,0.1954292207956314,0.0045011318288743,-0.1001190468668937,-0.2759846448898315,0.9559228420257568,0.0,0.0,0.0,-0.1368059256799307,0.2766083006139221,0.3870614443119938,0.401942559,-0.0619981050510151,-0.1814233287084455,0.2226014387546691,1.1000364010068466,4.68607280169106,-2.958089093699897,0.0650853445321734,-0.1900700471438483,-0.5683407749083007,-0.0340903985275247,-0.0019093817282715,-0.0104915478302896,24.513345999605264,42.09692341039676,78.64056625923456,-9.519519406943888e-05
34492,1724913278380159420,-1.3840513229370115,-0.3338651657104492,0.1953738182783126,0.004501991905272,-0.1000832915306091,-0.2753270864486694,0.9561161994934082,0.0,0.0,0.0,0.1403332547573148,0.6637480347845972,0.9921683476918176,0.410442265,0.0131576409403946,0.0133499283746199,0.1604036131152927,5.936294483090805,18.024716905312015,-4.70129594455879,0.0649340316556067,-0.1900453941537013,-0.5669478373928647,-0.0343000762148903,0.0024267569463773,-0.0028523847044876,7.008185593067603,30.92247044318875,24.222678219719036,4.752145558578189e-06
34494,1724913278389596030,-1.3843599557876587,-0.333821028470993,0.1953853070735931,0.0047807227820158,-0.0995401963591575,-0.2746587097644806,0.9563636779785156,0.0,0.0,0.0,-0.0617133241904459,0.8023287810460792,0.7286658763340154,0.419878875,0.038732020870394,0.1322046241782003,0.1434502414995477,-1.726248390296924,9.323313480149675,-6.301558269233396,0.065024943296266,-0.1888883385877045,-0.5654898417406861,-0.0312471144849482,0.010299485328451,0.0074889806291889,-19.966269492441796,-10.8235869744255,-54.719611444616945,7.284251399057302e-05
34496,1724913278400470225,-1.3846814632415771,-0.3336385786533355,0.1955453306436538,0.0048730517737567,-0.0984859764575958,-0.2745767831802368,0.9564959406852722,0.0,0.0,0.0,-0.2607277268595434,0.3649829228033499,-0.2021430601494613,0.43075307,-0.0356307583041034,0.1925905702979215,0.0184746245126459,-2.4454792470714657,8.576346557467586,4.863443151979663,0.0645736086978825,-0.1868114998703008,-0.5651478078647608,-0.0367455119781539,0.0186238530316167,0.0108111904073879,25.247091222618693,-29.043483165518495,-18.684221128694407,0.0002265117608645
34498,1724913278409355318,-1.3850600719451904,-0.3334597051143646,0.1956130415201187,0.0050405375659465,-0.0972232595086097,-0.2738145887851715,0.956842601299286,0.0,0.0,0.0,0.2797508936709276,0.1880590351580549,0.117628718960405,0.439638163,-0.0254667257707399,0.2907401797160533,0.180430866461305,6.179898845867382,-3.2037880963257113,7.381885559268632,0.0640158207262667,-0.184336553653262,-0.5633510614860188,-0.037284099362651,0.0189589573031305,0.0053296293015616,45.834619975142246,4.9848117317995,79.34432514819065,0.0001457126279211
34500,1724913278419945052,-1.385387659072876,-0.3332737386226654,0.1956405639648437,0.0056140068918466,-0.0969867035746574,-0.2731424868106842,0.9570555090904236,0.0,0.0,0.0,0.5758666327341018,0.5550854773698521,1.5050609055302495,0.450227897,0.1035376697360439,0.0769534735296802,0.1217114867517038,1.964163672526272,-8.268766960938432,-8.753222632604631,0.0648631620687123,-0.1836063338207292,-0.5619894118880923,-0.0300256870259545,0.0228480030168256,0.0158465728528423,16.48936875851959,13.220684536701032,55.34438038610038,9.667653791954888e-05
34502,1724913278429723060,-1.3856730461120603,-0.3330025970935821,0.1959151178598404,0.005891784094274,-0.0965423211455345,-0.2730916738510132,0.9571133255958556,0.0,0.0,0.0,0.63351436012063,0.4908042349715666,1.363010812038315,0.460005905,0.0304912982878867,0.1037152156891726,0.0071563667870604,-1.6076373435713935,7.765460049398778,-8.645716943053639,0.0651361852624682,-0.1825989126413434,-0.5618514656402903,-0.0253839586617061,0.0299715354129013,0.0351850731447633,2.0360165473218537,-4.265400380648877,-57.560683251973856,0.0003343151748085
34504,1724913278439392825,-1.3858821392059326,-0.332691341638565,0.1963233053684234,0.0065419431775808,-0.0955847203731536,-0.273269772529602,0.9571543335914612,0.0,0.0,0.0,0.6162935524729097,0.4716359122041598,0.394898319091703,0.46967567,0.0710105063565534,0.2268917973282518,-0.0470893595455146,-1.168062607535581,7.070411972205155,-0.440981750775266,0.0658798590414884,-0.1803798037340592,-0.5621673506620117,-0.0177394319663903,0.0324442309341854,0.0424864445255712,-4.871860949337165,3.4270540365310396,-89.10667504146005,0.0004520632795307
34506,1724913278451239153,-1.3860359191894531,-0.3323032855987549,0.1968305855989456,0.006782024167478,-0.0942573323845863,-0.2731436192989349,0.957320272922516,0.0,0.0,0.0,0.5137212374380679,0.5907387810430516,-0.5008908483598868,0.481521998,-0.020591646322553,0.2283928986158086,0.0227011346636135,-6.897464584978323,6.28172952991887,8.348483696593629,0.0655552008973196,-0.177697679131121,-0.561714060330236,-0.0129677086035542,0.0411650170371089,0.0419374025386503,-5.880608768921839,-59.70858850174945,-95.0545588040454,0.0005414846658024
34508,1724913278459380600,-1.3861414194107056,-0.3319211006164551,0.1971670687198639,0.006810185033828,-0.0929564386606216,-0.2727554440498352,0.95755797624588,0.0,0.0,0.0,0.4813879845252976,-0.285714553593331,-1.3835279470525448,0.489663445,-0.0720745582530876,0.3139741107216864,0.1044183228504349,-11.804269357855732,0.3344022263595576,3.9524406120231848,0.064787475500917,-0.1752022840269807,-0.560683327715973,-0.0081646529934573,0.0451608207032006,0.0353161401691064,2.219260185037207,-72.17590051691555,-26.21679723933019,0.0003642057637663
34510,1724913278469445009,-1.3861639499664309,-0.3314887583255768,0.1974476873874664,0.005791563540697,-0.0916840806603431,-0.2725396752357483,0.9577487707138062,0.0,0.0,0.0,0.580745491693884,-0.5707284846106633,-0.6247376916064056,0.499727854,-0.2590661710941708,0.190717009599332,0.0684936019013015,-10.770443984233877,-28.118753238654048,7.372822910825905,0.062037594456343,-0.1733303727320405,-0.5598612827474077,-0.0046704623021298,0.0326242458807435,0.0142969522405831,22.97006353327947,36.550233707503914,147.87930936005074,0.0002967201157374
34512,1724913278479811927,-1.3862383365631104,-0.3312608897686004,0.1974508315324783,0.0038588682655245,-0.0926275178790092,-0.2713839411735534,0.9579958319664,0.0,0.0,0.0,0.9587404221218392,0.5008921034498843,1.6823569299011232,0.510094772,-0.287333401642211,-0.2702764482134595,0.2617746637879886,8.689535008269525,17.687072147289385,-6.530350363594514,0.0586102325370337,-0.1762908052204947,-0.5572819856090435,0.0038441813163316,0.0339145473320421,0.0234508119070717,5.615560463762371,34.67466895590716,86.65771482455024,2.621893982643909e-05
34514,1724913278490628300,-1.3860723972320557,-0.3307593762874603,0.1979657113552093,0.0044847899116575,-0.0893053263425827,-0.2718833088874817,0.9581669569015504,0.0,0.0,0.0,0.6713726182488811,0.1007062851474955,1.0861605466381832,0.520911145,-0.0645086194397447,0.6224701407486818,-0.0929607544391477,8.576742937160516,23.7554426520735,-9.735090226448891,0.0580192550590579,-0.1695107652394634,-0.5579026254576978,0.0157650137542475,0.043580499720818,0.0506689462836469,-38.86085866226754,-68.81602676762034,-121.82818877456812,0.0004978869274372
34516,1724913278500085076,-1.3859198093414309,-0.3303702771663666,0.1984702348709106,0.0045714327134191,-0.0875627920031547,-0.2718846201896667,0.9583269953727722,0.0,0.0,0.0,0.2022346537776473,-0.8131441212345971,-0.6174914351677732,0.530367921,-0.0828152379929884,0.3611129128839328,0.0056473323610803,4.3385206148789335,-18.869605747472622,3.3595805065198667,0.0571937506499004,-0.1661045411509535,-0.5576491386834806,0.0185526643929421,0.0379768121990622,0.0491153350229058,-0.198204486788569,-50.7257108518025,-68.08991694608585,0.0004858953781399
34518,1724913278509472807,-1.385723114013672,-0.3300432860851288,0.1988918483257293,0.0049959742464125,-0.0863879397511482,-0.2720009684562683,0.958398461341858,0.0,0.0,0.0,0.6608393709894613,-0.861511123880257,-0.212378457218354,0.539755652,0.0163854018551256,0.2656754488681558,-0.02867870561187,6.244252048348312,-10.683462146253529,0.0055367823040106,0.0573685315841235,-0.1635991208899201,-0.5577768470755139,0.0195887587784184,0.0282875491859559,0.0390949793539388,45.90476408386828,3.5965800845095295,59.55868303304189,0.0003944301740864
34520,1724913278521722069,-1.385504961013794,-0.3298013806343078,0.1992777734994888,0.0053305448964238,-0.0856856554746627,-0.2718088030815124,0.9585142135620116,0.0,0.0,0.0,1.1760411146956344,-0.6776244182011943,0.7793768496535343,0.552004914,0.0237814275751679,0.1265433558221567,0.0299192314046783,6.313862789904585,9.42924649126451,-10.8295743906739,0.0575850961512073,-0.1620726699748716,-0.5573158192466103,0.0364817739986591,0.0204615178587275,0.0501591534371712,-61.15619906123881,-6.982346320250947,-51.44925624300474,0.000352565947714
34522,1724913278529693387,-1.3851172924041748,-0.3296345770359039,0.199774369597435,0.0061090881936252,-0.084612488746643,-0.2722914516925812,0.958467960357666,0.0,0.0,0.0,0.153122082159407,-0.8473768851788304,-0.3176255854031478,0.559976232,0.1037316901847444,0.3095408984726212,-0.1373996466176378,3.414081151360408,10.84949358489098,-7.062836822136682,0.0585661111794045,-0.159545822759022,-0.5582784791702484,0.0448029980080733,0.0148590694220587,0.0557292217332747,-74.45473469826983,1.0806730101874322,-66.00575941146906,0.0004310128532614
34524,1724913278539624675,-1.384719729423523,-0.3295620679855346,0.2002465575933456,0.006751028355211,-0.0834137052297592,-0.2724272608757019,0.9585301280021667,0.0,0.0,0.0,0.0802361345706228,-0.5597813351710746,-0.0870686037285968,0.56990752,0.0557812103863763,0.2674821029617708,-0.0352181230676351,-5.26751718966111,-8.728550609281324,8.320542373148553,0.0591508643970358,-0.1568734027075058,-0.5584738004871866,0.0353020040301288,0.0046549709790202,0.039998831069278,24.122269161654916,35.60129594878563,45.24429930305114,0.0004028948204156
34526,1724913278553056893,-1.384331464767456,-0.3295476138591766,0.2006467282772064,0.0067059276625514,-0.0829319059848785,-0.2721743881702423,0.9586440324783324,0.0,0.0,0.0,0.975817780173518,0.0391039269764323,0.9208712176483678,0.583339738,-0.0229539967736294,0.0686023378873147,0.0407864385011011,-21.91705689699278,38.49811044823522,0.4057702458436827,0.0587477171720592,-0.155985783949692,-0.5578651296828294,0.0552175688512477,0.0056324928053896,0.066023069298879,-59.868186071600874,21.315649508570974,-121.3165747017021,0.0003319437825882
34528,1724913278559274147,-1.383912444114685,-0.3294994831085205,0.2011614739894867,0.0064768260344862,-0.0813837349414825,-0.2721333801746368,0.9587899446487428,0.0,0.0,0.0,0.2394478649552214,0.1046638073393903,-0.3984422649496413,0.589556992,-0.2054209206568168,0.4613500132407435,0.0281936487177882,-18.389394535370723,37.81166743719292,0.5236873193490363,0.0574173584982624,-0.1531324723678714,-0.5575195372321521,0.0598258899835713,0.0057787173980141,0.0688229267253968,-66.21081473743814,22.906207752959176,-122.03350684325471,0.0004425486490908
34530,1724913278569972737,-1.3834117650985718,-0.3294737935066223,0.2016405910253524,0.0059946845285594,-0.0790480300784111,-0.2717919647693634,0.9590852856636048,0.0,0.0,0.0,0.4926214513173534,0.5773012766954109,-0.0440248669612279,0.600255582,-0.2004045203685313,0.3990228210831555,0.080726213203705,-6.637213239374605,3.925710149673222,2.915608755858627,0.055105546758047,-0.1489188048527951,-0.5564044963284287,0.0531500992278637,0.0083923478884173,0.0489341113834651,10.440440763594772,5.8346725284555045,41.70005384582765,0.0003963551702629
34532,1724913278579887301,-1.3828264474868774,-0.3293355405330658,0.202163890004158,0.0050935540348291,-0.0760955512523651,-0.2714707851409912,0.9594203233718872,0.0,0.0,0.0,0.4746340396228765,0.2828554095562758,0.4481776800136883,0.610170146,-0.3315003759141966,0.5275407798629009,0.0913066119430118,14.383440892403838,20.342944299235775,-2.7123783970472486,0.0516445058114618,-0.1437442403840792,-0.555208829748417,0.0682936260487139,0.0171756821297819,0.0651737216684704,844.8034588588972,-76.1399398523903,464.7024526010493,0.0004344882142162
34534,1724913278589472661,-1.3820860385894775,-0.3291409611701965,0.2029034495353698,0.0063975248485803,-0.0725398063659668,-0.2712875604629516,0.959739625453949,0.0,0.0,0.0,16.418059134855362,-0.8773518774510816,8.748897061867144,0.619755506,0.0621972349906757,0.7909300479261713,0.0302822033114251,25.277710921696347,7.662251640213209,-3.2638324775561465,0.052144438659362,-0.1361881098478022,-0.5545188586825898,0.0630870701832257,0.0142984658665659,0.0584438956708308,427.98200249471216,-55.74282470373447,201.16507144659028,0.0006313211283316
34536,1724913278608640328,-1.3814194202423096,-0.3290969133377075,0.203306496143341,0.0062608225271105,-0.0707526803016662,-0.2705199718475342,0.9600905179977416,0.0,0.0,0.0,-22.727693846319426,0.5569598605707355,-12.877038787215156,0.638923173,-0.0587017522024944,0.1782641992593322,0.0866418608982334,-3412.149874821839,7433.009616471721,1039.4163443896484,0.0507710040203476,-0.1328611342977902,-0.5526678391623642,1.0278940990301637,-0.0246413440666515,0.5883890506087255,-7517.845730888628,196.62806960330477,-4248.910235034269,0.0003073128896802
34538,1724913278609268502,-1.3807532787322998,-0.3291129469871521,0.2036877870559692,0.0059836385771632,-0.0690528973937034,-0.2703307867050171,0.9602693915367126,0.0,0.0,0.0,-27.562933906874544,0.6829839496702115,-15.610338384807523,0.639551347,-2.272241277322823,5.001168132309154,0.7609139966870351,-3343.45716223647,7284.161362098702,1018.004975322872,0.0492598582409725,-0.1297473739088057,-0.5520279566173669,1.0121130166349408,-0.0242381872894466,0.5794657479819074,-7338.212953163158,189.1184000758793,-4149.934475892604,0.0002867151232017
34540,1724913278621500614,-1.3798842430114746,-0.3291031122207641,0.204221561551094,0.0052936053834855,-0.0664820149540901,-0.2702776789665222,0.9604697823524476,0.0,0.0,0.0,-31.79533933630571,0.2568067860340037,-18.4376440489639,0.651783459,-0.2215706086501241,0.375463835493137,0.0224711975454027,69.25162346237418,-134.42871310817807,-26.744715481530587,0.0464862197943493,-0.1251730649065041,-0.5515295550542951,0.0935909414101985,-0.0060722512098294,0.0538157292871162,1708.3476630250968,-51.128431481588045,934.9215020185078,0.0004158101019293
34542,1724913278631082254,-1.3788182735443115,-0.3292129039764404,0.2048135995864868,0.0051102247089147,-0.061879489570856,-0.2702604830265045,0.960783064365387,0.0,0.0,0.0,-0.0076515176068197,-0.3553335024746513,-0.7277311333455536,0.661365099,-0.2965268252964058,0.916741079398917,0.018580718893237,-2.686554517884746,31.908627086139028,-6.465186003395404,0.0435753899510507,-0.1164060604526536,-0.5509520318530972,0.1138943347973651,-0.0128305627699454,0.0613020655300804,1740.6221886621777,-8.59288921996822,928.8602691738816,0.0004551850255226
34544,1724913278639954675,-1.3777860403060913,-0.329338014125824,0.2053534984588623,0.0051452764309942,-0.0572900958359241,-0.2706888020038605,0.9609468579292296,0.0,0.0,0.0,2.4802184844740216,0.0227047776944611,-0.0404741354428277,0.67023752,-0.2781644036639105,0.9978858143614812,-0.0885612862246268,4.11862183532228,-10.979515438342537,-2.4027684526348234,0.0411534778937967,-0.1075270236530355,-0.5513646477434333,0.0963546093286638,-0.0131076857991772,0.0424474131804828,133.807027954036,45.49442463594376,90.77807888992984,0.0004171531773584
34546,1724913278656191777,-1.3768154382705688,-0.3295213282108307,0.2054958492517471,0.0043845009058713,-0.0552373342216014,-0.2695015072822571,0.9614045023918152,0.0,0.0,0.0,0.2967105579847597,0.8471650786160534,1.829247195648378,0.686474622,-0.1504035524957354,0.2215898948642155,0.1598597139160739,-19.43480030589663,440.77997197789097,99.78233748850252,0.0384207807759021,-0.104035150393804,-0.5486126209195319,0.2690686421431678,-0.0111362321863168,0.1037343347967834,-1334.9609280713914,-18.440792244442548,-626.450523862375,3.2182016916653867e-05
34548,1724913278659643437,-1.3757331371307373,-0.3295596539974212,0.2059235870838165,0.0049138339236378,-0.0516438782215118,-0.2685667872428894,0.9618632197380066,0.0,0.0,0.0,-5.191974915833466,0.7327257486942339,-0.8771964951559439,0.689926282,-0.237519608091757,2.1015148815350093,0.566263545444538,-19.021667665692537,376.055562482694,68.7097575838567,0.0373763896443926,-0.0968606955084643,-0.5463734219341018,0.2625056104081125,-0.0076795891726515,0.1086209478425246,-1214.1885563330482,-48.05659722228826,-676.9620445911542,0.0003143528750039
34550,1724913278669140734,-1.3745741844177246,-0.3295431137084961,0.2065553367137909,0.005377575289458,-0.045526023954153,-0.2688801884651184,0.9620820879936218,0.0,0.0,0.0,-6.898659391427249,-0.1130934731664032,-4.506803108420232,0.699423579,-0.2557059001031035,1.2674864724566672,-0.062476699824069,-4.094927210513985,-70.18769053629104,-19.33156313430366,0.0349621857342182,-0.0848093278040961,-0.546531656810489,0.1272070455173235,-0.0077428014733413,0.0403713247395707,263.44550381527233,-53.560210997363974,-41.09329890688176,0.0005244528887153
34552,1724913278679420782,-1.3732088804244995,-0.3297282457351684,0.2066794037818908,0.0047496329061686,-0.0414177812635898,-0.2676450908184051,0.9626153111457824,0.0,0.0,0.0,0.7406149882499564,-0.2686895585739363,-1.1339484803502282,0.709703627,-0.3220598874150525,0.7421254842274433,0.2603360996136213,-2.4002862906344617,-20.881666832429417,4.763635940352444,0.0314135621458584,-0.0772732276729893,-0.5435941189990563,0.1380447313215143,-0.0100897727797768,0.0238558303447611,396.87153397064907,-6.860137983970664,207.38620933934865,8.88534231402979e-06
34554,1724913278689960145,-1.3716974258422852,-0.3297490179538727,0.2070581912994384,0.0044017056934535,-0.0366850048303604,-0.2675718665122986,0.9628292322158812,0.0,0.0,0.0,1.1821342343952308,-0.2515713996603033,-0.2525383039981524,0.72024299,-0.3035492180464954,0.8486148495073289,0.0227097567372671,-1.4369235638669622,-5.280710911752717,2.162808927956382,0.0281774265868553,-0.0683404287833403,-0.5430870236378826,0.1424615040617141,-0.0133579694023993,0.0170113862553051,37.08387025641752,-0.0613471156280578,49.28433323193394,0.0002671879086619
34556,1724913278700270382,-1.370238184928894,-0.3300015926361084,0.2070426642894745,0.0034873750992119,-0.033036146312952,-0.2661610543727875,0.9633559584617616,0.0,0.0,0.0,1.5159784171807864,-0.2692046067155375,-0.0908218187879879,0.730553227,-0.3505717573611703,0.6389981987361613,0.2942297669380849,21.939540865780085,34.46688752606174,2.914009689856663,0.0243539844204035,-0.0618341257666587,-0.5398746427202792,0.1623458843240115,-0.0153614625656395,0.018410614088216,-41.49194925298481,-13.456688022169006,-21.520209856654855,-0.0001138286824763
34558,1724913278709735986,-1.3685206174850464,-0.3300676047801971,0.207390010356903,0.0056830258108675,-0.0265752989798784,-0.2655780613422394,0.9637062549591064,0.0,0.0,0.0,0.4812737285668245,-0.4986586646918517,-0.6178433621095006,0.740018831,0.0873912505184426,1.4414501272594586,0.1182804306043236,2.7436478923583856,7.160184362803914,-2.471833132236549,0.0251009788862483,-0.0482216761331742,-0.5384158480549882,0.173109737923113,-0.0185603996776553,0.0155823103180772,-69.67411837934824,10.903481432607798,26.691402441398814,0.0002534631757584
34560,1724913278719954732,-1.3668437004089355,-0.3303850889205932,0.2073163241147995,0.0047436580061912,-0.0228461995720863,-0.2642727792263031,0.9641656875610352,0.0,0.0,0.0,0.2065699742166096,0.0004666555617729,0.563588037498373,0.750237577,-0.3647344449502286,0.6583798941500204,0.270815063106035,-4.044210915900766,-37.267954277306416,6.344485165434887,0.0212425406304101,-0.0415597668040185,-0.5354903864766116,0.1707921988114122,-0.0254289315540319,0.0057490775393524,-54.2781656732057,40.71367098555341,105.5210399955456,-0.0001526166579872
34562,1724913278729395916,-1.3651728630065918,-0.3305759727954864,0.2074836492538452,0.0052889403887093,-0.0198287311941385,-0.2630979418754577,0.9645509123802184,0.0,0.0,0.0,-0.5448481981015316,0.3139320177724107,1.4717917319063236,0.759678761,-0.052255945319531,0.649879657829661,0.255851560054146,16.760802200413718,9.219566792277975,-10.273420267515991,0.0206511620923743,-0.0354760638056381,-0.5329450318971682,0.1765225965015204,-0.0195574317631006,0.0243797863312433,-63.26796946485506,22.03166475202669,86.79574609197607,9.857788194313216e-05
34564,1724913278740173701,-1.3632758855819702,-0.3307786285877228,0.2078283131122589,0.0061461953446269,-0.0151849798858165,-0.2628791332244873,0.9646896719932556,0.0,0.0,0.0,-1.0259242449380288,0.4139501911892186,2.2916011361582704,0.770456546,-0.0726105698576964,0.8737575056196224,0.0382268992376966,-16.899905690319983,-13.174626725499111,-9.151808489539992,0.0198500187839915,-0.0260691261807211,-0.5323420480588384,0.1564789708874698,-0.0199630938224206,0.0340715309820467,-49.44468403979399,18.049540490445978,40.32434434409681,0.0002835573262838
34566,1724913278752087423,-1.361668825149536,-0.3310317397117615,0.2082617878913879,0.003851514076814,-0.012899000197649,-0.2624818980693817,0.964842975139618,0.0,0.0,0.0,-1.6783232866488564,0.7444764293139645,2.3013352393063835,0.782370268,-0.4716413395937947,0.269740482933446,0.07458684379208,36.98775344405145,1.2647953159284455,-12.626457553165263,0.0142079144248159,-0.0228711078833199,-0.5313985506895673,0.1552369249156413,-0.009084259238353,0.0797096524968807,-53.84691413325237,3.9648680359841535,53.620570829582846,0.0003902342068766
34568,1724913278759447849,-1.3604336977005005,-0.3310433030128479,0.2090454995632171,0.0047836126759648,-0.0111847780644893,-0.2627866566181183,0.9647772908210754,0.0,0.0,0.0,-2.070506008266365,0.6655305754032741,2.9361216064774425,0.789730694,0.1211066886076788,0.5153487443858698,-0.089644425515051,48.76376446720861,7.172650165435433,-6.34462442357981,0.0151119850809791,-0.0190686561785715,-0.5320028776518748,0.1357259028941513,-0.0043715444785057,0.0896938159528435,-22.77252759509102,-1.9018258696189747,49.33355722664598,0.0007537571212124
34570,1724913278772261983,-1.3594101667404177,-0.3311617970466614,0.2098204493522644,0.005039180163294,-0.011111905798316,-0.2616377770900726,0.9650890231132508,0.0,0.0,0.0,-1.6816738612877646,0.8380104800845611,2.7448807745178136,0.802544828,0.0372673806687543,0.0228572113023375,0.185283673020115,-28.77133867983561,76.26695913081957,-7.331160409611627,0.0155444799745611,-0.0188121864117634,-0.5296239834007211,0.122139819518793,0.0047200196836278,0.162557853453066,-195.3691811152154,-24.63772230892415,-489.68128547388005,0.0007505310231047
34572,1724913278779116509,-1.3584179878234863,-0.3310782313346863,0.2113090008497238,0.0051057911477983,-0.0077000469900667,-0.261531263589859,0.9651508927345276,0.0,0.0,0.0,-3.8484408885928665,0.529440325147909,-2.3524048804914233,0.809399354,-0.2414503434837945,0.966193625726998,0.0294839625200203,-24.761809975574664,49.10219679839181,-8.936206543191085,0.0138848020258338,-0.0121930685556445,-0.5293245184298337,0.1083341895279517,0.0109354013573046,0.1705879294939851,-205.03035979545305,-22.9989046116093,-454.76051984961714,0.0014704134149897
34574,1724913278789361857,-1.3578656911849976,-0.330985426902771,0.2123434990644455,0.004008000716567,-0.0068046143278479,-0.2608004212379455,0.965360462665558,0.0,0.0,0.0,-4.248062576956213,0.6309837477728794,-2.587844487316133,0.819644702,-0.251657542563642,0.1137035738395273,0.1491532318894154,4.502765202448378,-42.84375111479805,1.5385381310211304,0.0112885520111315,-0.0110474594368425,-0.5277816665145415,0.0408151364576312,0.0105816597035079,0.0925232169674199,66.75116381768574,8.760051221075901,98.08830876732492,0.0010255698292118
34576,1724913278802202724,-1.3575522899627686,-0.3308250308036804,0.2133955955505371,0.003711799159646,-0.0053071728907525,-0.2607640027999878,0.9653809666633606,0.0,0.0,0.0,-1.6888849922147016,0.7249443228393622,0.6201611281065844,0.832485569,-0.1053369677013718,0.2131642286514311,0.0056878032278732,7.1406466096517045,77.10174651036024,-21.0657576462037,0.0099349463725873,-0.0083111758611045,-0.5276796690813322,0.0239607670170443,0.0293947191662802,0.1402725832529938,5.2145690887832075,-36.16176844129656,-158.4385455335215,0.0010474846132555
34578,1724913278809128018,-1.3573880195617676,-0.3305583298206329,0.2145849168300628,0.0043835947290062,-0.0018767011351883,-0.2613428831100464,0.9652342200279236,0.0,0.0,0.0,-2.377665329193844,0.3121222825029606,-2.001917272801231,0.839410863,-0.0717752673531398,1.0061564878007456,-0.1771491089834012,0.0684201123578498,39.47349573641653,-10.538536149110756,0.0094434649815327,-0.0013316701367541,-0.5288387811553387,0.0108591843243601,0.0316507721037524,0.1329951376198881,-77.7636119096969,-12.721326203590325,-157.72504886544493,0.0011863003591557
34580,1724913278820163711,-1.3574943542480469,-0.3303296864032745,0.2153713256120681,0.0037342903669923,-0.0010016174055635,-0.2614185512065887,0.9652177691459656,0.0,0.0,0.0,-2.854317203449892,0.9963197069493386,0.1421417809095349,0.850446556,-0.1550419328800278,0.1222591305468317,-0.0144901129922584,-2.187593289770549,-28.6939355924301,-1.0555701067994088,0.0077325666363126,1.8867719577271477e-05,-0.5289871013285512,-0.0239235176784404,0.0348552526085583,0.0941773587318639,-1.729856271672929,0.1726735930745064,149.74270957671814,0.0007852699764814
34582,1724913278830099163,-1.3578598499298096,-0.3298569321632385,0.2165120095014572,0.0035028967540711,0.0005926334997639,-0.262210488319397,0.9650042057037354,0.0,0.0,0.0,-2.50063068321313,0.4450084398545322,1.2314853648068018,0.860382008,-0.1288532618103625,0.2969442129574328,-0.1662617557641631,4.259926007418837,16.752067773129614,-13.443161268276386,0.0064499041352285,0.0029807845903423,-0.5306180921581404,-0.0496211662931642,0.0510687535272786,0.1283245234690149,10.172923979105748,-70.34459574249097,-75.62166942347523,0.0011375654196101
34584,1724913278839662827,-1.358452558517456,-0.3293364346027374,0.2178636789321899,0.0037281149998307,0.0027633039280772,-0.2634845376014709,0.9646525382995604,0.0,0.0,0.0,-2.6374021112891723,-0.3644983566335265,-1.1972337180498809,0.869945672,-0.0731621478411977,0.4495152120584575,-0.2779570590874353,10.871660243892476,-10.045973262848712,5.344133917665665,0.0057366796265462,0.0072959223377423,-0.5332502103693271,-0.0727462319274465,0.0443985433414031,0.1197994461371401,36.05596281194619,0.7383196862234342,-128.01102232674785,0.0013451140661209
34586,1724913278850541871,-1.3593772649765017,-0.3289774954319,0.2189004868268966,0.0043189954012632,0.002706239465624,-0.2635337114334106,0.9646366834640504,0.0,0.0,0.0,-1.6219612432856678,0.7001691608666207,-1.0312990991690372,0.880824716,0.1075875552060128,0.0184760640412566,-0.0091492673049131,21.211544877252933,-19.952331217522584,6.636445192907803,0.0069064011557306,0.0074975477444309,-0.5333483586375131,-0.1041536582238507,0.0445535819870741,0.1029899266966865,141.8364431942583,23.01271715616183,-22.010338716899255,0.0010305282193049
34588,1724913278859453405,-1.360445261001587,-0.3284960687160492,0.2198743969202041,0.0057186549529433,0.002252408536151,-0.263889878988266,0.964533269405365,0.0,0.0,0.0,-0.0039578731161542,0.3588437918605125,-1.4994596238453384,0.88973625,0.3301728336908053,-0.0157510276204627,-0.081933698947558,4.834529632973975,16.691019605072338,-10.956921168136075,0.0098433160764716,0.0073633028031944,-0.5340797583854963,-0.1093734729113151,0.055800265106523,0.0975503485667577,88.97652729723526,-55.301842953362495,3.887329475659442,0.0009665361881878
34590,1724913278869735914,-1.361445665359497,-0.3279012143611908,0.2207382172346115,0.0069566997699439,0.0040488741360604,-0.2650080621242523,0.9642125964164734,0.0,0.0,0.0,-0.1875367786164066,-0.4114964186397327,-0.7900803228091959,0.900018759,0.1409031100603872,0.3994717862038965,-0.2276938393862873,-20.17073444809504,-9.72006781236351,7.593697801705545,0.0112704897571519,0.011495367107482,-0.5363775916680932,-0.1025117110001829,0.0487742387585861,0.0715839541632057,-2.3057037908930846,-4.956337308847051,130.89570583165155,0.0008503291355605
34592,1724913278880285660,-1.3625836372375488,-0.3274849057197571,0.2213589251041412,0.0061528231017291,0.0029248583596199,-0.2645670175552368,0.9643431901931764,0.0,0.0,0.0,-0.0435729978383774,0.2934704543737543,1.2609106243272938,0.910568505,-0.090983991916225,-0.245367900110257,0.0880464378115312,-7.104638201521388,-16.25626251167589,-0.2360683400174394,0.0103198156082146,0.0088969199703233,-0.5354766309832529,-0.1137431249070886,0.047375025865346,0.0820306739730156,85.02398899971367,19.081027687193625,11.813662380031362,0.0006123510835759
34594,1724913278889200130,-1.3636418581008911,-0.3270029723644256,0.2222649008035659,0.0059076277539134,0.0027537189889699,-0.2651751339435577,0.9641783237457277,0.0,0.0,0.0,1.2520363842192097,0.1039422353592125,-0.0092257274484874,0.919482975,-0.0422642249433565,-0.0523120522265151,-0.1412793567330422,13.37784961048863,23.230814594349575,-20.36616394063161,0.0099320949637594,0.008443364601026,-0.5367409031824872,-0.1064403834844114,0.0532008344094414,0.0953099402344523,57.55591263953673,-37.069210368084235,-164.5862502550284,0.0008974009088934
34596,1724913278899737719,-1.3646106719970703,-0.3264530897140503,0.2231905162334442,0.0072018774226307,0.0035645554307848,-0.2666395902633667,0.9637628197669984,0.0,0.0,0.0,0.7651047448186374,-0.4835919901577326,-2.01892503116773,0.930020564,0.1972673555669522,0.2120952845962156,-0.2891371988078542,8.720514044770763,10.709254513758156,-0.1201121693053979,0.0119818742465047,0.0107115881133107,-0.5397631000503396,-0.0878554351885512,0.0474504284865133,0.0765426099179471,-79.69916297839033,13.254296229768736,-46.77906715686227,0.0009138815918557
34598,1724913278910828670,-1.365537405014038,-0.3259820640087127,0.2239075750112533,0.0081374365836381,0.0042478404939174,-0.267319917678833,0.9635640978813172,0.0,0.0,0.0,-0.509777680303932,0.4689940623247191,-0.8575062174329617,0.941111515,0.1304347158778292,0.1629780117198018,-0.1280769292462319,0.6965122872173453,-6.919205663816509,11.215126895933432,0.0134122748670011,0.0125370593643475,-0.5411606010767384,-0.0910264509249998,0.0428119916148332,0.051373295817207,-20.899569611482477,45.604365622625295,113.67807774947252,0.0007049271187437
34600,1724913278920243785,-1.3664541244506836,-0.3255762457847595,0.2242851257324218,0.009099637158215,0.0043631824664771,-0.2675425112247467,0.963493287563324,0.0,0.0,0.0,0.0451320963751298,0.5763929397592795,0.2844017955329287,0.95052663,0.1907210859057284,0.0779266556374765,-0.0489135758963059,-5.578317570160466,35.74351836360192,-22.563308325257264,0.0152021304826718,0.0132772636860657,-0.541610714524948,-0.0976153267345267,0.0543186653218761,0.0545839795361207,96.34986588837684,-75.15899990749358,-9.334259590997256,0.0003661663863085
34602,1724913278929223553,-1.3673328161239624,-0.3249924182891845,0.2248993217945099,0.0101937111467123,0.0077231931500136,-0.2697445154190063,0.962847113609314,0.0,0.0,0.0,1.2307458026241802,-0.8399169713978927,-0.9181091812434818,0.959506398,0.0380132187409586,0.7823901414278225,-0.5167831721985552,-12.047183507062416,9.82543424012396,-16.65120766575924,0.0154672191944533,0.0203733131808761,-0.5461437143011361,-0.090829879767881,0.0539639291395772,0.0566529856611452,54.54076946438589,-104.10976986259408,-121.36452553252596,0.0005918659910144
34604,1724913278939291231,-1.3681679964065552,-0.3245738744735718,0.2253371179103851,0.01019521150738,0.0082920799031853,-0.2711154222488403,0.9624571204185486,0.0,0.0,0.0,0.9051747935672,-1.2829147810190982,-1.9983244703924885,0.969574076,-0.0273044504305753,0.106716374288152,-0.2842680681790698,2.875765454723195,-40.89958519269382,17.235674330401302,0.0151327583705639,0.0214913551976801,-0.5489893577757242,-0.0730763916816954,0.0364733417220826,0.0344460024753345,-43.72521803341783,18.93834701544037,-21.25848802573107,0.0004188353937369
34606,1724913278951444199,-1.3689111471176147,-0.3242054283618927,0.2256231307983398,0.0110256597399711,0.0080293519422411,-0.2720630764961242,0.9621828198432922,0.0,0.0,0.0,0.2067346516468591,-0.1294117733688611,-0.9945017197948036,0.981727044,0.1450106663301793,-0.005777039272787,-0.1607638535781865,5.038665881448951,-31.821019490553613,27.65920419496396,0.0168530957641699,0.021452404186836,-0.5509445182174917,-0.0746663590228564,0.0275480468110025,0.0132036936166812,48.56145151645126,62.7915028131159,71.66693315308066,0.0002694549636102
34608,1724913278959684745,-1.3696019649505615,-0.3239938914775848,0.2256742119789123,0.0111263655126094,0.0063076759688556,-0.2714311480522156,0.9623729586601256,0.0,0.0,0.0,1.1993789196071742,0.2085275964578905,-0.465011567382636,0.98996759,0.1354598213672038,-0.394082621243616,0.1649287945542359,-5.701868963467628,-2.3219840078534215,16.22522440692691,0.017995172483997,0.0181817596251377,-0.5496419625224315,-0.0710765601482279,0.0298621602890456,0.0092182490567154,97.62598172587842,2.5196599799045796,31.712183405424888,4.159557562568807e-05
34610,1724913278969472791,-1.3701493740081787,-0.3236528635025024,0.2257995456457138,0.0113925756886601,0.0067591359838843,-0.27117720246315,0.9624382853507996,0.0,0.0,0.0,1.8894915344380272,-0.2142967695960584,-0.5329503563842976,0.999755636,0.0268336518738716,0.1040338543435351,0.0528763605982982,-9.991799228721185,21.180398855163613,5.4408834122643235,0.0182678343732714,0.0191904939767939,-0.549105853411789,-0.0504574801204142,0.0310627507603129,0.0048832529504849,29.39052982241079,-40.74018856085769,6.32670299442206,0.0001128212902474
34612,1724913278979451587,-1.370597243309021,-0.3233813345432281,0.2257676869630813,0.0111238537356257,0.0068897530436515,-0.26983442902565,0.9628178477287292,0.0,0.0,0.0,1.7644986186604217,-0.5958304683037913,-0.3348416810706537,1.009734432,-0.0616204291489514,0.0131422119198053,0.2789837242182935,0.1299824734562151,-1.5925122958621447,3.945272733699144,0.0177065176389432,0.0192715446985444,-0.5463195232674,-0.0338108970357424,0.0254963887533214,-0.0013511904864476,-5.010231677592699,-6.215661392853829,20.54944603954403,-4.192695523348927e-05
34614,1724913278989997309,-1.3708304166793823,-0.3231315612792969,0.2257739603519439,0.0114449216052889,0.0072329980321228,-0.2692623436450958,0.9629716873168944,0.0,0.0,0.0,1.7954226137588094,-0.3045343784496206,-0.1103707405634445,1.020280154,0.0399892475251105,0.0801123799128099,0.112030092115335,3.0073272659833004,-0.0105414801091612,-7.51623001960682,0.0181517843442569,0.0200950698777837,-0.5451228690366156,-0.0141297012273895,0.0187892939054776,-0.0016511381556547,-15.230543267300476,21.636921080818656,12.578341754221906,-2.018435774695396e-06
34616,1724913279003325870,-1.3708842992782593,-0.3229635953903198,0.2257141172885894,0.0112008061259984,0.0071036187000572,-0.2682877779006958,0.963247537612915,0.0,0.0,0.0,1.2864535346164712,-0.1169719114549643,-0.0893980681694207,1.033608715,-0.0315781170893838,-0.0271839001796772,0.1519249326344267,-3.5240332864363397,-8.740189479543233,-0.0774115669906692,0.017771051897306,0.0196964387276314,-0.5431044077131023,0.0086071717769584,0.0203140990439933,-0.004502361959922,-73.75875341596382,-43.05618256244659,8.3428852859536,-6.450019908456216e-05
34618,1724913279009279120,-1.3707994222640991,-0.3228221535682678,0.2256872802972793,0.0110024828463792,0.0069045005366206,-0.2678785622119903,0.9633651375770568,0.0,0.0,0.0,0.7527607657562818,-0.5252028800760802,-0.0217307519019275,1.039561965,-0.0476504657972891,-0.0810514029583216,0.1432992427819801,-0.650537789628358,-5.39465347622858,-3.4922825650494325,0.017503800929598,0.0191989482224348,-0.542259778496005,0.0151504897594847,0.0190025051501656,-0.0047034665121366,-83.5636702797367,-50.642312637218666,9.700412474666786,-2.972073953549912e-05
34620,1724913279019855766,-1.3706223964691162,-0.3227105438709259,0.2256338596343994,0.0108249355107545,0.0065694162622094,-0.2675357162952423,0.9634647369384766,0.0,0.0,0.0,-0.0167472955774435,-0.723903337786741,0.0495611548208635,1.050138611,-0.0160247473240773,-0.0694521043128744,0.06796620039987,4.925725317196926,1.310619292680092,-3.637567490490782,0.0173476033808528,0.0184519626271965,-0.541553685193131,0.01660391586487,0.0077185900128835,-0.0047068798807483,12.097708127096958,15.50593021070739,17.43527541711619,-5.4908325527893165e-05
34622,1724913279032308183,-1.370417594909668,-0.322655975818634,0.2255802899599075,0.0111867161467671,0.0061417873948812,-0.2670995593070984,0.9635844826698304,0.0,0.0,0.0,1.3779175836726243,-0.0280574459783304,0.4234670086315995,1.062591028,0.0736896851437123,-0.0499953351796598,0.0737630100826109,5.497119087401691,1.3759170775747909,0.1263623145357538,0.0182816733216333,0.0178131379914976,-0.5406462949805504,0.0141351699543719,0.003732441023174,-0.0033583832822851,2660.344138475622,649.6491116139944,1922.912227753822,-5.3707471191011494e-05
34624,1724913279080494193,-1.3701674938201904,-0.3225972652435303,0.2255944013595581,0.0115391537547111,0.0055782091803848,-0.2667217850685119,0.9636884331703186,0.0,0.0,0.0,604.7364638245313,141.99071949461938,446.030468196251,1.110777038,0.020198884657694,-0.0184838579161616,0.0166127767580029,1396.077465045778,-1927.275018741568,1542.603100924997,0.0192685843862269,0.0169076042482217,-0.53986257771459,0.3744262978705137,0.0568369961528674,0.0758146939320454,-335718.5080975074,59020.810018799326,-184320.74908570165,1.3775740725715988e-05
34626,1724913279081172785,-1.3699098825454712,-0.3225581645965576,0.2256465703248977,0.0117402309551835,0.0050455178134143,-0.2663762867450714,0.963784396648407,0.0,0.0,0.0,373.5926329341564,182.5776325640474,319.1020561482609,1.11145563,0.9809180341363084,-1.3447414205613946,1.0781640409237896,946.7461977786538,-4440.921861916468,2210.6218927226937,0.0199459595121165,0.0159809011541485,-0.5391487788914707,0.79050330252403,0.1545371574998171,0.3827341664841697,-753875.2698163274,-15814.99982775352,-51253.53889294178,5.205612769660798e-05
34628,1724913279081501339,-1.3695847988128662,-0.3224919736385345,0.2258209735155105,0.0117945503443479,0.004482019226998,-0.2660814523696899,0.9638680219650269,0.0,0.0,0.0,60.16531155861708,165.35134898765415,323.86394398824626,1.111784184,1.2173674228528084,-3.199366054297146,1.9072800507710252,209.8070999023845,-512.6416725304011,1383.669652021165,0.0203552856780907,0.0149173254289386,-0.5385434328526033,0.8751412120191162,0.2206645516341723,0.4663896239224527,-662745.3516811269,-131453.14895481418,147682.25029540266,0.0001734531595607
34630,1724913279081915726,-1.3692818880081177,-0.3223904967308044,0.2259805649518966,0.0119633441790938,0.0042745089158415,-0.2657077312469482,0.9639699459075928,0.0,0.0,0.0,-62.26641058921655,69.5782581723742,454.67178762652816,1.112198571,1.0378339680593207,-0.7295045304263325,1.8849140442988277,2103.2710365168946,13457.140202366883,-4553.15897665533,0.0207967834649743,0.0145990209161405,-0.5377686214325337,0.7968811781217937,0.2704124194417545,0.6367860540428296,9161.16380420007,-177956.2602851801,163263.691872716,0.0001575394180025
34632,1724913279082290419,-1.368960976600647,-0.3222805261611938,0.2263044267892837,0.0127883339300751,0.0053814277052879,-0.2659372389316559,0.9638904929161072,0.0,0.0,0.0,44.3697497157859,20.911209301857067,464.2114889479749,1.112573264,2.6852917003369514,6.852738341622687,-1.3454524580493323,4163.807536671501,19195.36547595853,-8188.263004855383,0.0217958036351141,0.0171768470807195,-0.5382179923264628,0.8164395643267142,0.2793824359789489,0.8218762819712355,269883.37876887864,-123812.76352492537,20604.34168744853,0.0003218577030632
34634,1724913279089553454,-1.368666172027588,-0.3222382366657257,0.2262955456972122,0.0130055667832493,0.0044823344796895,-0.2653956413269043,0.9640414714813232,0.0,0.0,0.0,-66.80650832287641,-23.43868330134884,-69.75568558320211,1.119836299,0.1221653810611825,-0.2210490398103947,0.1582970568847319,-223.30789000888464,-604.0486964595251,126.84096013459563,0.0227013201929107,0.015546180331686,-0.5371041493236735,0.0365269675510262,0.0048990565508049,0.0026921987496733,-7456.477086563923,-3076.441040472308,-43686.36812761443,-9.526102597943696e-06
34636,1724913279101614312,-1.3683069944381714,-0.3221976459026336,0.2264064252376556,0.0129923438653349,0.0038664694875478,-0.2649280726909637,0.964172899723053,0.0,0.0,0.0,0.4952085903303742,0.1378672577147999,0.827388367280403,1.131897157,0.0243590208131525,-0.0981251596291491,0.0818493082427264,-4.272136146905973,7.7966398925636815,-4.019136626070659,0.0230094550624818,0.0143404549457702,-0.5361441599350895,0.0434121176301829,0.0096736909479346,0.0232337990615469,2177.9960798894235,736.7359039412198,2218.2015334076564,0.0001099440686437
34638,1724913279109571376,-1.3678900003433228,-0.3220875561237335,0.2266650050878524,0.0129823228344321,0.0036655205767601,-0.2646927535533905,0.9642385244369508,0.0,0.0,0.0,-0.0344766217401339,-0.3942398219568578,-0.5995615317487193,1.139854221,0.0105095367100934,-0.0486613492650785,0.0620445469701427,-2.6356002326651957,-0.8309419914882783,2.1011071109246124,0.0230999373158367,0.0139419775278616,-0.5356595516845297,0.0469553446620238,0.0094162497056693,0.0252199040893046,-43.03998002714503,-39.03539722487844,-114.4837639610093,0.0002555977149117
34640,1724913279120261079,-1.3674663305282593,-0.3220503628253937,0.2268300950527191,0.0126033890992403,0.0028801120352,-0.2639277279376983,0.964455783367157,0.0,0.0,0.0,-0.1566813238642987,-0.4117567866342468,-0.8920982367188663,1.150543924,-0.0305182096934774,-0.1587484225774863,0.1504216671205376,-7.877080963937814,-19.1076853727234,10.871167297324988,0.0227942125557869,0.012208552392731,-0.5340907036317015,0.0396969236671651,4.972763996136109e-06,0.0066160968311059,25.592580384105883,30.37757000204265,45.85653966304257,0.0001636091473413
34642,1724913279130057478,-1.3670768737792969,-0.3220815062522888,0.2268156558275222,0.0113778291270136,0.0010410425020381,-0.2626269459724426,0.964829921722412,0.0,0.0,0.0,0.4264310808437632,0.1732677234495389,0.2145059765223117,1.160340323,-0.1439465192734587,-0.4250222567153311,0.2802950215091215,-0.4313290751926955,-3.2854125898175326,-5.596334537301582,0.0214108467401486,0.007985191802427,-0.5314375218755347,0.0428513496803901,0.0001786509307919,0.0054921204584612,35.6285832421641,38.62895272462342,51.073357155701046,-1.527978857265705e-05
34644,1724913279139751991,-1.3666317462921145,-0.3220475614070892,0.2269357293844223,0.0108956610783934,2.6414567400934175e-05,-0.2624278664588928,0.9648901224136353,0.0,0.0,0.0,0.5425959780329346,0.3454318071767028,0.1159133216437174,1.170034836,-0.0411848905144899,-0.2276279977340445,0.04516585845875,9.69076392562311,13.958818339334163,-8.579613635068434,0.0210142640237752,0.0057696565021711,-0.531046466176224,0.0479872845688618,0.0033505890487504,0.0107302730096616,2.1177605866089806,-10.201042993306734,-53.80656349590696,0.0001168080064654
34646,1724913279149496836,-1.366143822669983,-0.3220163881778717,0.2270240783691406,0.010906827636063,-0.0007618995732627,-0.2618948519229889,0.965034544467926,0.0,0.0,0.0,0.4666033810101857,-0.0278558713406611,-0.8358631135352019,1.179779681,0.0443439472103059,-0.1543179765082806,0.1150947667271263,14.987349416253176,13.357947961092057,1.9426288317228164,0.0214518443104096,0.0042423779277107,-0.5299570907102231,0.0534003608553632,0.0068954646550434,0.0077025674993365,-15.862604057142464,-31.04077614587902,-41.34407417607193,8.41791253883985e-05
34648,1724913279159624907,-1.365567922592163,-0.321907639503479,0.2270877361297607,0.0122407292947173,-0.0009059514850378,-0.2615018188953399,0.9651249051094056,0.0,0.0,0.0,0.2210572925999363,-0.2657608599836578,-0.6616942054421602,1.189907752,0.2615111085580591,0.0423935605379365,0.0796815673756475,0.2212707763232733,-14.48317613921098,8.648409200663501,0.0241040762910391,0.0046532500608675,-0.5291403987683313,0.0571905944800903,0.0024909476618404,-0.0062911927862323,-22.884819667518276,9.809053686157664,65.26900850338203,5.642666436999381e-05
34650,1724913279169602793,-1.3649940490722656,-0.3219638466835022,0.2269013375043869,0.0119367567822337,-0.0030917511321604,-0.2601532936096191,0.965488612651825,0.0,0.0,0.0,0.0060769173495374,0.1594367616348868,0.4621003296734848,1.199885638,0.0551196504174851,-0.4354073813968749,0.2853583792056856,-12.000822484706148,-9.712155173689496,-0.782746100423072,0.0246607641958884,0.000240672163645,-0.526399931840976,0.0578905968058478,0.0015016659172957,-0.0058160866547911,-35.77358997239203,18.682932553834476,49.92326273492334,-0.0001921270893684
34652,1724913279180078654,-1.3643834590911863,-0.3218696415424347,0.226981908082962,0.0119022456929087,-0.0037214618641883,-0.2599486112594604,0.9655418992042542,0.0,0.0,0.0,-0.5251705535809448,0.0919462146336501,0.2954138731653205,1.210361499,0.0249140410466711,-0.1172884448163786,0.0418303667754774,-1.236042141362489,15.061388295419787,-8.218790638352615,0.0249216035963677,-0.000998510400771,-0.5259922698588954,0.0572494787374893,0.0060159903307592,0.0035835973295839,-21.809592789064247,-8.226234309115489,-14.83834110054961,7.039627794185591e-05
34654,1724913279189272143,-1.3638654947280884,-0.3218383491039276,0.2269817143678665,0.0118976272642612,-0.0042123994790017,-0.2595652639865875,0.965643048286438,0.0,0.0,0.0,-0.492492825358849,0.0019269380422586,0.1676559367556548,1.219554988,0.0268411646214189,-0.1023076821501538,0.0875166902937092,-0.190844604367653,-0.3763392701944799,5.393916276888301,0.0251672122537314,-0.0019589282765478,-0.5252114751644915,0.0486779670426784,0.0041263730657501,0.0014436429128625,40.02377597162065,2.1307743754175066,6.68166025349149,-8.257239364295379e-06
34656,1724913279201146628,-1.3634049892425537,-0.321778267621994,0.2270213216543197,0.0117873819544911,-0.0050405259244143,-0.2586680352687835,0.9658812284469604,0.0,0.0,0.0,0.5421103875332798,0.2100864590004297,0.5626118700316451,1.231429473,0.0184329593146818,-0.1375406504297724,0.1580772736457099,5.453319141847079,7.235944924030461,-5.148376278723063,0.0253809607915717,-0.0036390689134408,-0.5233763191252804,0.0495760313554285,0.0073312184857421,0.0095759042986127,35.644372007300134,2.2735816451245014,-8.171626698557676,3.109069085886625e-05
34658,1724913279210740938,-1.3628456592559814,-0.3216903209686279,0.2271615713834762,0.0123495981097221,-0.0051380107179284,-0.2585592865943908,0.9659028053283693,0.0,0.0,0.0,0.4849914132735389,0.1136325692589355,0.1630266641193806,1.241023783,0.1185169222683213,0.0109771806722726,0.0227082047851247,3.3540485003984144,5.6160951253853595,-8.87051000395207,0.0265172573266139,-0.0035394387686775,-0.5231557871555174,0.0583933556084161,0.0088832306290775,0.014026176030752,-38.17144839900117,-17.62482030059837,-52.03567253269004,0.0001292113662372
34660,1724913279220011010,-1.3623034954071045,-0.3216105103492737,0.2272862941026687,0.012705560773611,-0.0053539192304015,-0.2586150765419006,0.965882122516632,0.0,0.0,0.0,-0.1574308106766779,-0.1175678610594163,-0.4123866934203288,1.250293855,0.0862170782841,-0.0253082041652709,-0.0125992455034014,-0.5955871632646179,10.750712000650667,-5.750305545947072,0.0273169479261417,-0.0037708195323929,-0.5232788969741872,0.0590017933074875,0.0095055112333568,0.0128430787355231,-58.49573399425677,-22.53716465655035,-51.13370360788716,0.0001137671566739
34662,1724913279229451202,-1.361741542816162,-0.3215121626853943,0.2274016588926315,0.0134668415412306,-0.004491014406085,-0.2589891254901886,0.9657759070396424,0.0,0.0,0.0,-0.6057692077375747,-0.3072185099439966,-0.7899425811227361,1.259734047,0.1083652082099944,0.2171612307247315,-0.0855481840279936,1.892348770911163,-1.3551194973002771,3.3561247187847467,0.0283419851177706,-0.0016990968129019,-0.5240290674176173,0.0553711913932417,0.0066200874066986,0.0062125359543117,-23.80598981332782,1.150877281177407,-8.110255308094679,0.0001041942165319
34664,1724913279239783708,-1.361216425895691,-0.3214867115020752,0.2273979038000106,0.0139404088258743,-0.0051725953817367,-0.2586217224597931,0.9658642411231996,0.0,0.0,0.0,-0.5838700161805161,-0.055113861635393,-0.5131575338345901,1.270066553,0.1227857725710009,-0.1026394255249303,0.0744753513774537,-2.553740569043434,-15.665080407283645,8.878415204529716,0.0296090165073807,-0.0027814683278551,-0.5232906082064355,0.0466107236397448,0.0034280466844514,-0.0029398811128373,11.4925950784309,21.122648376590792,41.76085106372079,-1.3404109516817169e-05
34666,1724913279250310152,-1.3607709407806396,-0.3214402794837951,0.2273393273353576,0.0140689564868807,-0.0057793213054537,-0.2581343948841095,0.965989351272583,0.0,0.0,0.0,-0.3623760024321054,0.132094942304031,0.0870071167469136,1.280592997,0.0535506110583031,-0.1036112416605213,0.0970587149432418,-3.4059136937509034,1.1026111045955362,1.3037275979945306,0.0301694136320605,-0.0039021724415415,-0.522302025007108,0.0432956303390028,0.0055698439860414,-0.0043455002634082,8.363582395170027,1.868780923827053,23.650407707823828,-6.788268534301035e-05
34668,1724913279259218267,-1.3603779077529907,-0.32138192653656,0.2273098081350326,0.0141715696081519,-0.0062046814709901,-0.2576981484889984,0.9661015868186952,0.0,0.0,0.0,-0.3834471516246913,0.0287593235316821,0.0461661867990481,1.289501112,0.0471178116713869,-0.0847809525503312,0.1023274994655365,-1.2610233385832077,-1.4839906902254665,0.4049315118005276,0.0305853255462034,-0.0046847478671495,-0.5214137383985263,0.039709867632645,0.00620850692437,-0.0019078761108684,8.24567158143542,-4.141156485033324,3.2573806972507384,-3.849896670185703e-05
34670,1724913279270431599,-1.359994888305664,-0.3213171362876892,0.2273082584142685,0.0140854511409997,-0.0070740524679422,-0.2571446299552917,0.9662443995475768,0.0,0.0,0.0,-0.1412096724820046,0.0876077356970632,0.1933837598586069,1.300714444,0.0253709841385451,-0.1522050600665103,0.104235279721874,-4.983851499155847,-20.260627675763622,-0.3226427635043638,0.0308636227035359,-0.0064265751527958,-0.5202979273686128,0.035679470477163,0.0059249608952107,-0.004601023885689,11.896113887967084,11.741738843533565,29.16144822016033,-1.1087494980787309e-05
34672,1724913279279678621,-1.359653353691101,-0.3212612271308899,0.2272316813468933,0.0133531019091606,-0.0090304734185338,-0.2567391395568847,0.9663463830947876,0.0,0.0,0.0,-0.1052232279192808,0.2457013718864243,0.5852975041069602,1.309961466,-0.0439305165097885,-0.4482021361530739,0.0974941114321551,-6.212120580868678,-2.640682935293728,-4.770017980247855,0.0304508105380944,-0.0105968011840188,-0.5195238974098959,0.0360377362874899,0.007595948160759,0.0004932985410466,-8.088643202219277,6.379541656031318,1.78403026587526,-8.602348368861821e-05
34674,1724913279289938543,-1.359293818473816,-0.3211656510829925,0.2273366302251815,0.0127059519290924,-0.0096068596467375,-0.2567403316497803,0.9663491249084472,0.0,0.0,0.0,-0.324593348749985,0.1891531812667529,0.141435493362371,1.320221388,-0.0930684492840654,-0.1409618190469304,0.0025521774841726,-7.3588285402723645,16.08361512723917,-0.1097237630159959,0.0294961232763938,-0.0120431913199536,-0.519540963412739,0.0333192649304763,0.0108567239003303,0.0068898087619473,9.05334728081814,-2.274091713619228,-43.04335125150868,9.399880211075804e-05
34676,1724913279300504903,-1.358960509300232,-0.321034163236618,0.2273730933666229,0.0115206437185406,-0.0099661480635404,-0.2562432587146759,0.9664922952651978,0.0,0.0,0.0,0.102255533331057,0.2003542951097081,-0.3109996273262793,1.330787748,-0.1987858695850644,-0.1218628303237691,0.1008967689342058,-9.050231491011765,1.734275810646296,8.49233945854241,0.0273826087576802,-0.0133606335457469,-0.5185118404347814,0.029240570173767,0.0114552732035649,0.0031390495483535,300.8797104901583,55.3125030109386,116.87716755313426,2.580074228513971e-05
34678,1724913279419694164,-1.3585727214813232,-0.3209981322288513,0.2273280024528503,0.011664911173284,-0.0108599252998828,-0.2552482485771179,0.9667442440986632,0.0,0.0,0.0,386.17329530820234,79.73339469665382,228.3243460809425,1.449977009,0.0063004263560684,-0.0136402747426807,0.0173688285568951,2782.576323422317,-714.2637757984658,4467.556714927369,0.0281048046056697,-0.0150432116253353,-0.5164874016105739,0.6978799781954876,0.2285449117881626,0.0251901141976986,163555.94381876918,252461.13316806,-608213.3934313771,-5.613272162778577e-05
34680,1724913279420208334,-1.3582123517990112,-0.320880115032196,0.2273410111665725,0.0119920028373599,-0.0110566550865769,-0.2546676099300384,0.96689110994339,0.0,0.0,0.0,470.62444972240655,210.0998333258873,-85.75405252704415,1.450491179,1.4431858425619677,-0.3824795853703635,2.324363397539918,7018.839377897123,-809.815407551985,140.27118626199285,0.0288288210218828,-0.0152738074782282,-0.5152982078824371,0.8972828198247953,0.2697142460632449,0.1430936735143291,-149335.10982593743,98049.59574431508,-561472.3755422458,1.023358322647558e-06
34682,1724913279420597846,-1.3578048944473269,-0.3207632005214691,0.2274315059185028,0.0129749709740281,-0.0114647690206766,-0.2544510066509247,0.9669306874275208,0.0,0.0,0.0,319.9256938934709,202.4075611929078,-289.8854391874278,1.450880691,5.423590787055641,-0.7251971030076272,1.0964316994476115,1061.2207613627816,-1871.391446397558,4849.622343422869,0.0309349214689832,-0.0155689140828805,-0.5148797111410797,1.1050318296915975,0.3899195771682571,0.0167238112683776,-436226.0317941152,-103007.42138708424,1361652.110369612,7.646474421924318e-05
34684,1724913279420931379,-1.357419490814209,-0.3206075131893158,0.2273755073547363,0.0134060243144631,-0.0118730114772915,-0.253642201423645,0.967132329940796,0.0,0.0,0.0,160.33992832122044,144.27251290508468,702.8308186911743,1.451214224,3.162103097352105,-1.6325472659720448,4.999335849443028,-2708.138222791651,1470.6175392638943,5892.176602606195,0.0319634105757069,-0.0161655835402348,-0.5132299763250269,1.15078178260228,0.4270993037085304,-0.0700962997897818,-458557.8870686275,-15826.580945941969,2344624.6482477444,-7.053404739580036e-05
34686,1724913279421262876,-1.3570395708084106,-0.32047900557518,0.2273844927549362,0.0139840701594948,-0.0119980052113533,-0.2528267800807953,0.967336118221283,0.0,0.0,0.0,14.890104796591004,191.2390728830161,1271.9248895772066,1.451545721,3.6060659801394745,0.2357938584565792,5.038490094127641,-1511.1400846983056,11424.9545484318,-6916.344745607422,0.0331318030571973,-0.0161418136844507,-0.5115578805079994,1.2115686228848972,0.4857319720511555,0.4802174742392822,-486243.9200303778,-383159.5248123268,-1678464.9380591004,-5.223020175596764e-06
34688,1724913279421590530,-1.3566213846206665,-0.3202880918979645,0.227688580751419,0.0145722776651382,-0.0111620342358946,-0.2527306079864502,0.9673625230789183,0.0,0.0,0.0,-159.80544258390069,-104.2769352733486,-377.58674165752353,1.451873375,2.1878148361320657,5.85398750481648,0.4941737446774819,-4008.921778206617,-1570.55405442599,2205.638937356961,0.0338452133182093,-0.0142302262778497,-0.511331756982756,1.1618840459577768,0.5530449476079298,0.7712603819352353,-414991.977563472,-902582.6330809564,-3845490.789317091,0.0002874665413557
34690,1724913279421917543,-1.3562787771224976,-0.3201169073581695,0.2278896123170852,0.0146839115768671,-0.0113395107910037,-0.251708447933197,0.9676253199577332,0.0,0.0,0.0,-256.94280524011674,-399.6511365073266,-1247.113603736751,1.452200388,0.9811478846931524,-0.7684239701898633,6.46186126643449,-6695.891120616452,-14238.220651212592,7228.426304135359,0.0341357938096121,-0.0145531800392223,-0.5092282600049024,1.106959734485372,0.4178619713647435,0.2346451267523548,-56604.311909849435,-156662.27535702745,-183702.91001473868,0.0001869547721076
34692,1724913279422243954,-1.355898141860962,-0.3200149238109588,0.2278423607349395,0.0141873406246304,-0.0118082370609045,-0.2508945763111114,0.9678384065628052,0.0,0.0,0.0,-197.08128182856916,-207.5418890494464,-500.6001438495388,1.452526799,-2.1838253212276597,-3.45684057075618,5.23065763185615,-4917.458316787648,-3525.136234167668,-4409.651407204674,0.0333976953458914,-0.015738526786702,-0.5075597327847815,0.9940984899844808,0.2918867804337992,-0.0441073320736933,314920.5248960158,638711.5811461336,1905836.510999436,-6.082570560268237e-05
34694,1724913279422929011,-1.3554644584655762,-0.319844514131546,0.2279568612575531,0.014696629717946,-0.0116288540884852,-0.2504561841487884,0.9679465293884276,0.0,0.0,0.0,207.7630790106764,302.1324012115738,256.93139447861057,1.453211856,1.318272765371941,0.9017876187491736,1.2929184832152345,8054.099176508757,-1506.3285702142896,8024.109423150032,0.0342867922469673,-0.0151510739743371,-0.5066535159317309,1.0728580576501372,0.4062043146645919,0.1210486589652646,-696536.2093590375,306139.7006599386,364947.76930317446,9.760855945182588e-05
34696,1724913279423255709,-1.3550454378128052,-0.3196872770786285,0.2279892265796661,0.0153486570343375,-0.0119527922943234,-0.2494914084672927,0.968181610107422,0.0,0.0,0.0,-220.3859575952174,333.93103076636874,260.73566654767825,1.453538554,4.407888914220664,-0.8162763048513193,6.060074819722493,35.01678380426938,-2149.423263029154,3740.908028574181,0.0356966733375161,-0.0154868503145818,-0.5046840303249157,1.1551912879613155,0.5259837178927,0.2074567149825839,-1178018.593940104,-188349.25382025132,-287295.98200446164,1.569807716223999e-05
34698,1724913279423581785,-1.3547102212905884,-0.3195012211799621,0.228092148900032,0.0155343478545546,-0.0120969396084547,-0.2488983124494552,0.9683295488357544,0.0,0.0,0.0,-561.3815236273992,179.53795631646403,69.76357521005372,1.45386463,1.35284072693456,-0.5051644779416881,3.748371809510153,-10247.442559224988,-544.7635355517527,-1677.416362122705,0.0361188523334149,-0.0156953466155867,-0.5034683749670619,0.9295829435795896,0.6242264561845445,0.291254787771436,-298230.918571419,-437140.2438272023,-573800.5852603071,8.791993003314701e-05
34700,1724913279423908118,-1.3544390201568604,-0.3192799985408783,0.2281792312860489,0.0151169821619987,-0.0122022563591599,-0.2481206357479095,0.968534290790558,0.0,0.0,0.0,-414.5701142202724,48.755491542650795,-113.61089752195082,1.454190963,-2.278086469353416,-1.17245566206216,4.968496175402077,-10505.633594439889,-1925.777721099417,3493.3575324451513,0.0353498569813305,-0.0161356371351777,-0.5018613969109738,0.7890080367073544,0.6430532923263907,0.2528748273283008,428711.78983303887,-380298.47593682504,-530835.1487068861,7.343349715954942e-05
34702,1724913279429635091,-1.3541464805603027,-0.3190999925136566,0.2282227277755737,0.0148038621991872,-0.0128387901932001,-0.2473083138465881,0.9687387347221376,0.0,0.0,0.0,-87.08967188690677,-72.32501125664795,-29.05344575336706,1.459917936,-0.0483706337423373,-0.2372708363731349,0.2971662745888051,262.9619214684654,112.9152590996299,-547.4422432730208,0.0350449994701783,-0.0175535317738824,-0.5002082605998074,0.0430873969896268,0.0240974912469198,0.0041399546216007,40601.08957590606,-11958.622212830714,10671.371173643038,3.002428636120634e-05
34704,1724913279441026712,-1.3538367748260498,-0.3189916610717773,0.2281915992498397,0.0151249077171087,-0.0134789664298295,-0.2465440183877945,0.96891987323761,0.0,0.0,0.0,-0.291437596827738,-0.4611418791938038,-0.2427100632674942,1.471309557,0.0836511702564553,-0.0925462965663748,0.1387958607967973,4.143749781240603,6.75787995428526,-9.640609199774552,0.0359699834343258,-0.0186632492717241,-0.4986653164300378,0.0289067909310603,0.0103192347284597,-0.0010144585705642,3645.2536817515943,3014.2510535846427,1183.078023550185,-4.39574192642859e-05
34706,1724913279451386392,-1.3535211086273191,-0.3188771307468414,0.2281972765922546,0.0153022799640893,-0.0139515101909637,-0.2461493015289306,0.9690106511116028,0.0,0.0,0.0,0.030157966400929,-0.2701681899702305,-0.6677244083744118,1.481669237,0.0564321873103112,-0.0785609838596336,0.0790731252136826,1.4490396810604258,1.7632711449180096,-3.5873242031143064,0.0365395336436672,-0.019506269879761,-0.4978759460006042,0.0348696893424573,0.0125924742513561,-0.0015526242030006,-13.269838189913632,-12.979590713818062,-18.807111689050515,-7.850515026863264e-06
34708,1724913279459197080,-1.3532228469848633,-0.3187697231769562,0.2281727790832519,0.0155860912054777,-0.0142795024439692,-0.2459062933921814,0.96906316280365,0.0,0.0,0.0,-0.3344413163043005,-0.5565402946031577,-0.6837777354745753,1.489479925,0.0917557996627239,-0.0623547763940326,0.0638772469189154,-0.3924876971710379,-10.248112596333758,2.9958905906701028,0.0372467201367137,-0.0200113793533642,-0.4973953375098683,0.0318932803934899,0.0075990844174818,-0.0103942401649597,-12.239701390210142,-0.6610874017138851,51.01223321984545,-3.7506697801214614e-05
34710,1724913279470103840,-1.352970838546753,-0.3187805414199829,0.2279488742351532,0.0151541717350482,-0.0162230320274829,-0.245027482509613,0.969261884689331,0.0,0.0,0.0,0.0565846637035667,-0.0154213007452653,0.680823336798253,1.500386685,0.0126198050749603,-0.3618085966866651,0.1718108476164314,1.9805747180332431,-0.3775671849840405,-0.5269694029702672,0.0373463552251727,-0.0240246671418975,-0.4956693496560197,0.0289557485116915,0.0027895031797484,-0.0110257398215001,27.484857545144408,48.23723981892376,102.1351011599326,-0.0002332492097796
34712,1724913279479641568,-1.3526458740234375,-0.3187223970890045,0.2279229760169983,0.0154866352677345,-0.0170007292181253,-0.2446599751710891,0.9693361520767212,0.0,0.0,0.0,0.2489437138743271,0.4331763303086605,1.4632940395299123,1.509924413,0.1085453553802934,-0.1395626779780607,0.0798513433777399,7.134394284517081,20.72105356726114,-7.799519257054482,0.0383640727447215,-0.0253836491038545,-0.4949584724542533,0.0322137524216472,0.0061917453241857,0.0016291173274414,-3.2003535448061937,12.046910697096632,4.680275964821462,-4.030584088462611e-05
34714,1724913279490059969,-1.3523313999176023,-0.3186568021774292,0.2279893904924392,0.0163001753389835,-0.0169559121131896,-0.2445441037416458,0.9693528413772584,0.0,0.0,0.0,-0.0503424341531899,0.1605189424864815,0.6316764517355653,1.520342814,0.1496084261163906,0.0469480340645503,0.0195570757527852,2.255151178393513,26.85403413759792,-7.802149994087744,0.0399171523516284,-0.0249028734845069,-0.4947356690027619,0.0337529832395802,0.0115749200575585,0.0184274188218029,-47.71605880359137,-59.271000408584854,-145.65092737013194,5.196747318116248e-05
34716,1724913279499698536,-1.3519742488861084,-0.3184981644153595,0.2282744795083999,0.0174908153712749,-0.0153329065069556,-0.2448444217443466,0.9692833423614502,0.0,0.0,0.0,-0.6795870798570445,-0.7059269517055914,-1.3591932305348455,1.529981381,0.1563084071519695,0.3856082424377568,-0.0736112219731893,-6.346594664766057,-1.1639028596135377,2.4905307367780525,0.0414365957796627,-0.0211603836835483,-0.4952936260515177,0.0315014185739954,0.0099459999942759,0.0157709409141535,-43.80427660020249,-51.721247468735314,-113.14628000921846,0.0002669177675708
34718,1724913279509454145,-1.3517217636108398,-0.3184654414653778,0.2282920032739639,0.0176219791173934,-0.0152938077226281,-0.2445068359375,0.9693668484687804,0.0,0.0,0.0,-0.8948316857304124,-0.8335822344086616,-1.5407047716164972,1.53973699,0.0248630909056694,0.0158262911691939,0.0707218406726202,-7.492559861413634,-34.27082039137558,12.430054152181857,0.0416644736338337,-0.0210347828204475,-0.4945977657802733,0.0204679193939654,-0.0022424005491323,-0.0081882036349547,642.3867250544055,-84.74767965498478,-177.89134291832156,6.969349221474903e-06
34720,1724913279521435752,-1.3515561819076538,-0.3185746669769287,0.2280469685792923,0.0172392223030328,-0.0173292774707078,-0.2434665858745575,0.969601273536682,0.0,0.0,0.0,16.579729974063653,-2.9035448319767188,-6.016098338247779,1.551718597,0.0231075600589671,-0.3413209990383571,0.1848542138411302,-0.8711492104364099,-12.256156609009109,2.6269351730502386,0.0418941092652031,-0.0252133011243259,-0.492555105790497,0.0132215957983241,-0.0061114668146649,-0.013180225111931,-388.2489608494618,114.83697639630248,228.66875360447676,-0.0002489664214162
34722,1724913279540129343,-1.3513264656066897,-0.3186012804508209,0.2280126363039016,0.016971031203866,-0.0178323686122894,-0.2431814074516296,0.9696683883666992,0.0,0.0,0.0,-44.53802510551532,7.631148209640912,15.821775128071408,1.570412188,-0.0143116023169274,-0.0585242372231189,0.0327566852813821,-946.721379762084,-11553.44525081961,7847.884443055572,0.0416119750877738,-0.0263319326174462,-0.4919887235539281,0.8243524516324214,-0.1356546124894748,-0.2889540645992383,-9438.329339787017,1529.4310657494789,3262.77784552674,-4.348593349584169e-05
34724,1724913279540479629,-1.3510323762893677,-0.3186496794223785,0.2279095351696014,0.0167242772877216,-0.0185359269380569,-0.2427136600017547,0.969776690006256,0.0,0.0,0.0,-47.884630794387355,8.173226341498792,16.978428831703198,1.570762474,-0.3521357625893395,-4.181467721609982,2.833325785838733,-924.6135197715166,-11291.736884205142,7670.810340717896,0.0414634124672576,-0.0278365934867281,-0.4910576065787366,0.8081742607447877,-0.1328859534046207,-0.2832112371925919,-9186.008731802369,1486.1446527767837,3172.8421749150425,-0.000114798620134
34726,1724913279549095717,-1.3507226705551147,-0.3186748027801513,0.2278266698122024,0.0171341579407453,-0.0189491938799619,-0.2418744713068008,0.969971239566803,0.0,0.0,0.0,-49.058984564488874,7.968408867187788,16.937535198498082,1.579378562,0.1184063288477403,-0.0658424177373961,0.1997100177871128,26.831940192722712,261.9709925459884,-168.2714242085542,0.0424358670208058,-0.0284755634823757,-0.4893615603560125,0.0355294914510651,-0.0054060332975804,-0.0132085960065193,2112.868742965021,-385.80481451739007,-797.1480295346813,-9.61043342413836e-05
34728,1724913279559468488,-1.350359320640564,-0.3187619745731354,0.2276448160409927,0.017315374687314,-0.0192381329834461,-0.2410181909799575,0.9701753854751588,0.0,0.0,0.0,0.944041808645459,-0.5543880882082214,-1.2263067402274015,1.589751333,0.0498208200849764,-0.042012085842583,0.1699568592938584,1.0691222571150778,2.580089560302901,-5.518270838723849,0.042902557218545,-0.0289861444388594,-0.4876180438630589,0.0338447531874948,-0.008006484641104,-0.0173347979884388,2700.5561036545896,-449.09616845494673,-969.8002069889556,-0.0001960858506058
34730,1724913279572437787,-1.3499395847320557,-0.3188593685626983,0.2274231910705566,0.0184865333139896,-0.0195634998381137,-0.2406463027000427,0.9702395796775818,0.0,0.0,0.0,1.5900938542747296,-0.3375793266947637,-1.1344099967200745,1.602720632,0.1882432492798036,-0.0039659843734849,0.0554188425225039,16.354748398588633,-9.742167772550369,9.853317782722751,0.0453231574743791,-0.0290692257757439,-0.4869019625826951,0.0640304590435363,-0.0201210566305896,-0.0466741662472891,-120.68913279618316,60.048413136921255,139.9743530310867,-0.0002383959170788
34732,1724913279579361770,-1.3493791818618774,-0.3190453052520752,0.2269906550645828,0.0194581430405378,-0.0202417708933353,-0.2399844974279403,0.970370590686798,0.0,0.0,0.0,0.1241727692755061,0.238370911675203,0.3259982963974315,1.609644615,0.3224857491162508,-0.1182768981659172,0.1927121362788237,7.614885700613911,0.2898009928342624,1.5843536028247192,0.0475178230846244,-0.0299492099820734,-0.4856065135892571,0.0723144863008116,-0.0202534015593638,-0.0503598174977746,-149.2132574345204,35.480414394662844,155.09103715870975,-0.0004538875744949
34734,1724913279589605731,-1.3487690687179563,-0.3191527426242828,0.2266582995653152,0.0207400433719158,-0.0198156330734491,-0.240283191204071,0.9702789783477784,0.0,0.0,0.0,-0.4570740437427067,-0.1211252915405165,1.068606401982696,1.619888576,0.222060280439111,0.1392979517545428,-0.0675654623414451,-16.8769947287186,8.005015452005031,-9.73931074982539,0.0498107843021196,-0.0284902708946071,-0.4862287416847862,0.0573356285287829,-0.0139091408377929,-0.0340120441090707,4.57344182241997,-56.43240417941777,-15.788551762036583,-0.0003580494997443
34736,1724913279600260603,-1.3481827974319458,-0.319338858127594,0.2262785285711288,0.0205972734838724,-0.0195904932916164,-0.2402712404727935,0.9702895283699036,0.0,0.0,0.0,0.271152076359118,-0.9588890019446632,-0.077970245257442,1.630543448,-0.0361535873853421,0.0346508352700104,0.0023069640242279,-9.494303310349997,23.906916073769676,5.640069723162675,0.049424356704376,-0.0281227429387979,-0.4861858426952474,0.0636047852700727,-0.0234054951567017,-0.0284691772947418,-20.49407590260903,-15.468143957157372,-95.43416340427166,-0.0004015612569509
34738,1724913279609151768,-1.3475536108016968,-0.3195910155773163,0.2260786294937133,0.0210762619972229,-0.0174368750303983,-0.2400291711091995,0.9703801870346068,0.0,0.0,0.0,-0.5702104113176771,-0.6278155118679172,-0.8361495822700933,1.639434613,-0.0112066428822896,0.4974561664501353,0.0456448064789145,11.68491472031885,9.03220522778842,7.5887737626253955,0.0493085411521928,-0.023725186405901,-0.4855619836126035,0.0636619704955308,-0.0324328376438831,-0.0336006321086692,-33.25170678844684,27.82454848683463,-88.55784716077996,-0.0002190546072458
34740,1724913279619271601,-1.3469911813735962,-0.3199661374092102,0.225610539317131,0.0222037937492132,-0.0172491520643234,-0.2392458170652389,0.9705519080162048,0.0,0.0,0.0,-0.1997500839782025,-0.4546422407606152,-1.7701721122260512,1.649554446,0.2093148166791282,0.0933429654665845,0.1537084969484503,9.936364892768164,-28.448165495240683,1.9483196625863235,0.0513894807575808,-0.0228600563313956,-0.4839605431615526,0.0512496052008515,-0.03432288212543,-0.0450456636501073,54.60489061856009,15.847775438938116,-54.44403539680063,-0.0004790854011245
34742,1724913279631489012,-1.3464288711547852,-0.3203449845314026,0.2250780314207077,0.0229987278580665,-0.0179864447563886,-0.2389517426490783,0.970592439174652,0.0,0.0,0.0,0.7328396682667666,-0.2796743855620831,-1.8770262555319304,1.661771857,0.1558581597138884,-0.0848244317664191,0.0487452131004508,22.42843497453687,-26.54308518481473,-6.853760753646518,0.0532810160777549,-0.023926125099685,-0.4834198652684053,0.0639540621628356,-0.0438285386553332,-0.0761009487728898,-55.32160126381556,61.99306292059904,177.2553448571555,-0.0005437564784692
34744,1724913279639430697,-1.345828413963318,-0.3207592368125915,0.2243058085441589,0.0244798138737678,-0.0198121797293424,-0.2389373332262039,0.970524251461029,0.0,0.0,0.0,-0.3861513398358229,0.4587531439125001,0.4908812738241268,1.669713542,0.4723483358927088,-0.3573628348063541,0.0032844953886678,12.747777971950889,-7.541870188366852,-3.5316367809571143,0.0570355743645473,-0.0267613130645997,-0.4835503646475506,0.068189077019646,-0.0434768852632512,-0.0875754636354475,-104.81411938705408,21.891445047319092,228.49128269854097,-0.0007850450725639
34746,1724913279649666672,-1.3452283143997192,-0.3210896849632263,0.2235368490219116,0.0255989450961351,-0.0205154512077569,-0.2389419823884964,0.9704795479774476,0.0,0.0,0.0,-0.9829299847070576,-0.2550587018983608,1.9105437896887791,1.679949517,0.2452495295034903,-0.0813091629157612,-0.0039370807237581,-19.580590264584668,26.634147060144024,-2.2571947964473025,0.0595483466085355,-0.0275898263419344,-0.4836390504915681,0.0521065329151539,-0.0333129201521256,-0.0570126300290514,2.631471044232802,-81.11493242662257,21.5631997705975,-0.0007853622999073
34748,1724913279661058607,-1.3447173833847046,-0.321482241153717,0.2231169790029525,0.026206474751234,-0.0193791128695011,-0.2391762286424636,0.9704290628433228,0.0,0.0,0.0,-0.1804101228689267,-1.3233869252438826,0.6711618573764659,1.691341452,0.0552255377930354,0.2178603151631257,-0.0493238461108758,-9.87473800067536,-0.8170978284657537,0.0399790124096535,0.0601883444173019,-0.0250788058758859,-0.4840516551603793,0.0483671315654277,-0.0520415247273149,-0.0488807308266761,35.83911188796734,31.46440990701174,-6.2089082148210935,-0.000428272536564
34750,1724913279669498918,-1.3442871570587158,-0.3220314383506775,0.2226292192935943,0.0263095740228891,-0.0192205645143985,-0.2392679750919342,0.970406711101532,0.0,0.0,0.0,-0.0943311578579981,-0.2746124570421959,1.2602713252288529,1.699781763,0.0144395929245738,0.0416291102755002,-0.0238219639468469,-2.611838260636552,-11.055015357183184,0.5076193519068561,0.0603146786327572,-0.024715968922585,-0.4842311644837506,0.0477689219802925,-0.0612062408070634,-0.0434827357815752,-1.6209037773725807,122.7949716441838,46.97724098483336,-0.0004851978927548
34752,1724913279680331140,-1.343814253807068,-0.3226407468318939,0.2223570942878723,0.0264803115278482,-0.0189277604222297,-0.2395378351211547,0.9703412652015686,0.0,0.0,0.0,-0.2762030071679788,1.035193739097526,1.4518976180091396,1.710613985,0.017016115449863,0.0584613689795802,-0.0532703841450359,-15.41793143518745,-0.4740456321322988,-5.437415192947801,0.0605121176644127,-0.0240490190769616,-0.4847690923155601,0.0464210230915114,-0.0529034181329599,-0.0212019320064626,25.263807690355968,23.74966624972673,-43.12307696108777,-0.0002691315411365
34754,1724913279689454810,-1.343369483947754,-0.3230977058410644,0.2221937775611877,0.0254532042890787,-0.0184755567461252,-0.240101933479309,0.9702380299568176,0.0,0.0,0.0,0.2774617433204978,0.505180669292101,0.5911293399696893,1.719737655,-0.2439605650597241,0.0385523217196322,-0.1237726301059374,-13.04754182024532,-3.994152082270849,-4.175009826142203,0.0583126805963037,-0.0236308476829523,-0.4858757768943367,0.0427347545767347,-0.0413937930952084,-0.0126045064825639,60.102620512079,-54.94208932537155,-73.19096922043865,-0.0001658598698308
34756,1724913279703509055,-1.3428990840911863,-0.3234913051128387,0.2221312820911407,0.0247537493705749,-0.0186912510544061,-0.2408433109521865,0.9700682759284972,0.0,0.0,0.0,1.1095627943433657,-0.198793325832379,0.0204468211995423,1.7337919,-0.0905385837976677,-0.0568115941495719,-0.1055421986487129,-12.331965658496838,2.1007585355145486,5.094324091895187,0.0570768655595354,-0.0243424334202292,-0.4874031451315178,0.0613882201175499,-0.0506679787687502,-0.0118997110095229,-48.76207057081308,102.03378752021008,-46.58254929861813,-6.96832735568103e-05
34758,1724913279709402970,-1.34246826171875,-0.3238459527492523,0.2220427244901657,0.0241105556488037,-0.0185940135270357,-0.2410461008548736,0.970035970211029,0.0,0.0,0.0,0.5552949217015688,0.7785928193731837,-0.2688798839334922,1.739685815,-0.2206857554465157,-0.0224657158119749,-0.0661311081971125,-11.195083220816636,12.80785665065365,5.289601503207909,0.0557858402991925,-0.0244526498109059,-0.4877998778839962,0.067389831399808,-0.0506999577041735,-0.0118526129026008,-72.06546904196377,145.66258782840742,-69.98050819617607,-9.55324395223083e-05
34760,1724913279719715429,-1.3418762683868408,-0.3241978883743286,0.2219777405261993,0.0237080845981836,-0.0172375403344631,-0.2412139922380447,0.9700292348861694,0.0,0.0,0.0,0.2086325798046409,1.9168471824752344,-1.3675058210609752,1.749998274,-0.1397035085965109,0.2355675829993678,-0.0367916080531396,1.969193279892288,20.704868058429476,0.4395796865086083,0.0543508503495055,-0.0220061687723486,-0.4880450954979344,0.0647625559440001,-0.0285243179831233,-0.0196211428633343,-23.781318654380712,24.84361739178769,-68.75656672155336,-7.817987670648716e-05
34762,1724913279729483979,-1.341175556182861,-0.324424684047699,0.2216628193855285,0.0233526974916458,-0.0151399727910757,-0.2414415180683136,0.9700162410736084,0.0,0.0,0.0,0.0673259666555217,1.3680683489230865,-1.6895921957396751,1.759766824,-0.1749108007722002,0.3978808141383983,-0.0547561932201906,-5.247674444722172,-0.9358859223975048,-7.587443130752001,0.0526487636025185,-0.0180964052120326,-0.4883714304534824,0.0710885832843217,-0.0119603971781465,-0.0386630012628419,37.81616848514613,-50.60522786429487,8.41117317887096,-0.0003342993877655
34764,1724913279739639244,-1.3404604196548462,-0.3244273066520691,0.2212023586034774,0.0224069710820913,-0.0138158490881323,-0.2423840016126632,0.9698232412338256,0.0,0.0,0.0,1.0033114970388528,0.9129935476462828,-1.1672828147785088,1.769922089,-0.2455535177412073,0.203077385301208,-0.1924964257330065,-10.0849149795204,-22.053448591441494,-4.735925199933851,0.0501865189727039,-0.0159363550002102,-0.4902179706881981,0.0656462680978293,-0.0015255440046377,-0.0530794215475989,75.55851233421163,-23.62701288803307,77.45428397194391,-0.0004866582859612
34766,1724913279751860469,-1.3397283554077148,-0.3244645893573761,0.2204398661851883,0.0197978168725967,-0.0138288848102092,-0.243147388100624,0.9696887731552124,0.0,0.0,0.0,1.6824525419983871,0.935815998080714,0.1620201048955021,1.782143314,-0.4148180811685666,-0.1086671023567206,-0.1205448876357324,-19.26870033215353,12.033051802736718,-28.32141821170499,0.0451423558346385,-0.0171927007490018,-0.4917530321080061,0.1005460408606779,0.0079477932853748,-0.0636340890963467,-73.23768929058531,10.627492519550984,30.081223515841025,-0.0007871038451179
34768,1724913279759195750,-1.3388118743896484,-0.3243578672409057,0.2199676185846328,0.0178884211927652,-0.012761540710926,-0.244868516921997,0.96930730342865,0.0,0.0,0.0,0.5781295910628148,1.0523394800441008,0.0362314136803996,1.789478595,-0.5800160917119225,0.1448825542306644,-0.4789016079947056,-10.532455590105846,18.840423628522007,-25.45872213732642,0.0409452197719401,-0.0159797669645371,-0.4952173708088161,0.1077219869820638,0.0155196105430892,-0.0579299813624611,-90.70599508805635,17.131233116005014,-37.16928632122771,-0.0005055279648886
34770,1724913279771274977,-1.337853193283081,-0.3241510987281799,0.21939617395401,0.0152569897472858,-0.0116842174902558,-0.2467763423919677,0.9688819646835328,0.0,0.0,0.0,0.6728320816296733,1.2840537403157837,-0.8109838158409239,1.801557822,-0.4687727801867259,0.0596638488922495,-0.321065531996168,9.599949232164356,3.8478259500609777,7.027776589220434,0.0353426131623465,-0.0151117020977348,-0.4990657713924633,0.1067458978246804,0.0286307343800444,-0.0722395872423682,-70.97800304103865,-39.59890952206335,63.90932559883469,-0.0006048679089481
34772,1724913279779575697,-1.3368109464645386,-0.3238477706909179,0.2186543196439743,0.0138732446357607,-0.0106507064774632,-0.2479798197746276,0.9686073660850524,0.0,0.0,0.0,-0.3659282973853583,0.6200530650043029,0.4841393403970486,1.809858542,-0.3868589455653028,0.1537950229223808,-0.2971771742245137,6.215559509083107,21.71072346442694,-1.2195607506300927,0.0321663623925388,-0.0137525695943127,-0.501488322304865,0.1166297746935427,0.0404223032181594,-0.0768399055418296,-7.271223893833351,-41.93037451193513,85.48807434237223,-0.0007766258628779
34774,1724913279789895166,-1.3357219696044922,-0.3233808577060699,0.2180221527814865,0.0126996729522943,-0.0075985379517078,-0.249772623181343,0.968191385269165,0.0,0.0,0.0,1.0712092064323588,0.6756680062733968,0.4613947488772396,1.820178011,-0.3695790931504546,0.510884490705004,-0.3623290203278544,1.3299542898144914,2.4125291688087778,1.834923312298712,0.0283920500907953,-0.0083697144363199,-0.5050661742981286,0.0928829986902997,0.0365512307230559,-0.0585227095347766,71.27551445936791,-12.986310557445083,-13.001116712287113,-0.0006645310819238
34776,1724913279803755584,-1.3346699476242063,-0.3230361044406891,0.2172619551420211,0.010215108282864,-0.0073320223018527,-0.251037985086441,0.9678956270217896,0.0,0.0,0.0,0.7934053650831707,0.1535845004107576,0.0801914461473281,1.834038429,-0.3575593881098922,-0.0549557872419752,-0.1852022661501046,-63.44420774436051,84.91927006177127,-116.61197593261934,0.0234586646838001,-0.009064628380619,-0.5076522243987971,0.1705117709817045,0.065478203727217,-0.0765824138146591,-471.3670333035294,-182.7276937023748,131.54131940051514,-0.000785832592996
34778,1724913279809266704,-1.333522915840149,-0.3225862681865692,0.2167922705411911,0.0084517449140548,-0.0048774466849863,-0.2539976239204407,0.9671556353569032,0.0,0.0,0.0,-2.7933449271191373,-1.171321896427394,1.1536465539024376,1.839549549,-0.8481341192252674,0.6885871300645232,-1.1114010356132262,-39.155135009377766,73.17638196900756,-94.110318721963,0.0188273862492072,-0.0051410764897554,-0.5136958108715716,0.16434994509396,0.0620878732854652,-0.0731095372298975,-434.1883066471333,-143.4534505207385,158.66946139246866,-0.0004915810358095
34780,1724913279821192272,-1.3326927423477173,-0.3223499655723572,0.2162330448627472,0.0082489699125289,-0.0050026271492242,-0.2558760643005371,0.9666615128517152,0.0,0.0,0.0,-2.380905839715643,-0.3801418073884162,2.1140105868651875,1.851475117,-0.0283936564518016,-0.0320084569734646,-0.3253854447728893,1.899092439973064,-60.10707510209771,31.63070672624924,0.018509360317727,-0.0054502933291886,-0.5175827605428062,0.0878058529982297,0.0337674746768357,-0.0458425773450628,114.0156351653986,46.843594021238374,11.362324344145977,-0.0005738188604022
34782,1724913279829523746,-1.331855297088623,-0.3219874203205108,0.2158572226762771,0.006071210373193,-0.006703567225486,-0.2569540739059448,0.966381311416626,0.0,0.0,0.0,-0.9686536676230671,-0.1033640834037075,1.806081991566907,1.859806591,-0.401611524085272,-0.5309418380023552,-0.2613803305263918,-6.407812917725728,-12.833934522118986,-2.7063544681106997,0.0151805437295782,-0.0098365183199237,-0.519834672214006,0.0914703674024224,0.0422101417013731,-0.0292333222005556,37.28321004083922,-21.946029139803972,-35.66210953318779,-0.00039222905633
34784,1724913279839530004,-1.3310487270355225,-0.3215807378292084,0.2157554924488067,0.005943102762103,-0.0071394084952771,-0.2589548230171203,0.9658448100090028,0.0,0.0,0.0,-2.184627783605829,-0.9859396754284376,1.4648315167285195,1.869812849,-0.0043901635587136,-0.0939112448327096,-0.4133089333089633,22.263629944800694,7.387808177404029,2.9024481109304485,0.0151792524057031,-0.0107133359725561,-0.5239843856914317,0.0648509087068305,0.027755559646966,-0.0134142002294836,-48.70815881101397,0.8287782139092075,-7.991588334417699,-0.0001184838628418
34786,1724913279850633694,-1.3305227756500244,-0.3214313387870788,0.2155665308237075,0.0054396530613303,-0.0096356905996799,-0.2598164081573486,0.9655946493148804,0.0,0.0,0.0,-1.8283014607005612,0.1202584481944597,1.6978353873450178,1.880916539,0.0280097035124709,-0.4590002659348234,-0.158237101396453,-1.2722500314193002,-4.657764208373557,11.31291733082871,0.0155145753082713,-0.015782375510713,-0.5258195397141896,0.0464542325652246,0.0224588019572244,0.0014204174485588,-19.917351885559217,67.76857529517311,-23.858943707713337,-0.0002010104957485
34788,1724913279859471245,-1.3301186561584473,-0.3211695253849029,0.215708777308464,0.0050450842827558,-0.0109047889709472,-0.26042240858078,0.9654200673103333,0.0,0.0,0.0,-2.3701425241133247,0.4950960329226841,1.1715571619965863,1.88975409,-0.0127072506863511,-0.3016511451665191,-0.1402661525092693,4.8526538430474195,11.539748387713288,2.810969379908138,0.0154241845999822,-0.0184287413097433,-0.5271004635766109,0.0290902523648881,0.0277228401881011,0.0189701846012084,-62.69922138058379,25.04225865132663,-116.39307112301624,0.0001315712390118
34790,1724913279869950609,-1.330020546913147,-0.3209026455879211,0.2159432917833328,0.0054856180213391,-0.0124225281178951,-0.2609316408634186,0.9652618169784546,0.0,0.0,0.0,-3.0444380116353775,0.5416560679434681,-0.7545079823218355,1.900233454,0.155696225741143,-0.2585702297204558,-0.1011477037549905,10.745826273394988,10.252131356375504,0.4630064231427084,0.0170776153540452,-0.0211208117596901,-0.5282045370592439,-0.0007842525195087,0.0316616981654824,0.0211292013088737,-41.80219918371462,-13.334357318612222,-156.4645274393897,0.0002306981216826
34792,1724913279880526358,-1.3301371335983276,-0.3205016851425171,0.2161534130573272,0.0064622177742421,-0.0131437601521611,-0.2615892887115478,0.9650681614875792,0.0,0.0,0.0,-3.245926976441612,0.2108969277295389,-2.1175282268887456,1.910809203,0.2125162730805712,-0.0846020955177474,-0.1311507367013303,-11.756772746032553,-20.622868426018535,5.361360684520093,0.0193553828079199,-0.02199012722371,-0.5296079095493639,-0.0350482344730522,0.0391595758373419,0.0028979202021943,41.81780701759615,-53.525501985452365,-39.82447552028334,0.0002111390618885
34794,1724913279889380387,-1.3306255340576172,-0.3201457262039184,0.2160532772541046,0.0057565988972783,-0.0154372146353125,-0.2617029845714569,0.965007781982422,0.0,0.0,0.0,-2.4244673256469524,-0.4279517429610009,-1.8099896182049715,1.919663232,-0.0185523202971233,-0.5420019705780045,-0.0229101573294984,-8.910255789412435,-31.361438761192453,10.140927542864857,0.0191983206259479,-0.0267842286489433,-0.5299032514912723,-0.063832713051255,0.03733485314328,-0.0187687229759863,17.433704420608535,-35.157796460812776,45.578021538379225,-8.513713250264888e-05
34796,1724913279899636516,-1.331383228302002,-0.3197968900203705,0.2157721668481826,0.0053831222467124,-0.0186457838863134,-0.2614337503910064,0.965026319026947,0.0,0.0,0.0,-3.1407756926495276,-0.3490166824720164,-1.21370944602837,1.929919361,0.0942526737928157,-0.6224957226737066,0.0563370770035968,0.5785014793648604,-8.461048526323374,4.880563325388744,0.0201514374307148,-0.0331787717372621,-0.5294510285866064,-0.0788788975276801,0.0303099437245091,-0.0297632405726586,-54.24268655610484,20.73821996309939,56.0685621357918,-0.0002517220009473
34798,1724913279912394994,-1.3324689865112305,-0.3194689452648163,0.2153550684452057,0.0037474513519555,-0.0230983588844537,-0.2610117197036743,0.9650519490242004,0.0,0.0,0.0,-3.585247728566099,0.1225632441244441,-0.5312191924344485,1.942677839,-0.0637507010577175,-0.7401700897077146,0.0734317037749132,-16.4247429785114,-48.03664750618009,15.159288657520422,0.0193096045635395,-0.0426388940230987,-0.528700063279169,-0.1455148331732942,0.0311887017108531,-0.0474975296374395,221.91312610445576,45.048234193725264,140.66341577472974,-0.0003645297626677
34800,1724913279919727383,-1.3337905406951904,-0.3192171454429626,0.2149444073438644,0.0018131056567654,-0.027352537959814,-0.2601839601993561,0.9651698470115662,0.0,0.0,0.0,-0.8761536952416629,0.486949272099026,0.86751346022396,1.950010228,-0.2012101152063743,-1.255952314062947,0.2428202376057904,10.958946721078682,-20.92604581882268,13.642122271794928,0.0177581176345382,-0.0518794767009578,-0.5270887963423629,-0.1649023411346277,0.0323136182174845,-0.0477737515915404,261.3714618270042,31.026083132253497,97.31238546615714,-0.000336316719635
34802,1724913279929284348,-1.3351755142211914,-0.3189335763454437,0.214590385556221,0.0019965185783803,-0.0315704718232154,-0.2589752078056335,0.9653658270835876,0.0,0.0,0.0,0.2752458843928451,0.5509109007658084,0.6334880267116374,1.959567193,0.2735534703935526,-0.8403817180840368,0.2553683067855965,24.233471778566596,50.14368944185563,-26.237263084927257,0.0202444364975788,-0.0599559259278764,-0.5247977310294485,-0.1512534711827982,0.0411219996489951,-0.0282075595371988,5.728853571592147,-41.029211380247595,-126.8626107502024,-0.0002639174175544
34804,1724913279939359555,-1.3367667198181152,-0.3183976411819458,0.2144000381231308,0.0029029203578829,-0.0331761576235294,-0.2604045271873474,0.9649251103401184,0.0,0.0,0.0,-0.8858437550147,-0.3693473359726731,-1.7320623801681334,1.9696424,0.2474584848223597,-0.2644324646999657,-0.3016038375444219,4.051427941302935,7.567447080980877,-8.740253325867698,0.0229274924578753,-0.0625539354614819,-0.5278990930501671,-0.1607260428352646,0.0427344891361141,-0.0368421550957958,-51.1264206747479,-47.61900719347434,-111.2862089186563,-7.9384847848091e-05
34806,1724913279949348626,-1.338399887084961,-0.3180743455886841,0.2138542532920837,0.003711128141731,-0.0369143299758434,-0.2600067853927612,0.964893877506256,0.0,0.0,0.0,-0.7615669822110895,-0.4120296140739949,-1.6205745764107196,1.979631471,0.3537032022009659,-0.6800386094705677,0.0720179607266033,-6.42117907656102,-33.6064163831571,23.788367474965987,0.0264242500430378,-0.0693625907882191,-0.5273463694404159,-0.1690366082299306,0.0338021217027755,-0.062810038735618,3.5032392476838723,26.769045362379646,55.967212622084965,-0.0004208983338461
34808,1724913279959629541,-1.3401963710784912,-0.3177116215229034,0.2131220400333404,0.0029524962883442,-0.0417272858321666,-0.2591454684734344,0.9649319648742676,0.0,0.0,0.0,-0.8201263794880962,0.1916443309605533,-0.5710728571864827,1.989912386,0.1071997073599463,-0.9408965332056168,0.1725232197058501,-6.589071115661804,-3.4911543521657222,-0.4704233942060196,0.0274138869872443,-0.0790801294418745,-0.5258293979254248,-0.1761213036973004,0.0346682112833534,-0.0691113684416606,18.35367120423923,35.11787415982781,47.6587963274326,-0.0005764565591632
34810,1724913279969618303,-1.341969013214111,-0.3173712790012359,0.2124521732330322,0.0029628295451402,-0.045678973197937,-0.2587813436985016,0.9648507237434388,0.0,0.0,0.0,-0.4033966601836134,0.3133920701081973,-0.6231978921131138,1.999901148,0.2101294567127085,-0.7634072235557074,0.0683845559935531,-0.2608244505360728,17.625924193567343,-8.569010547929484,0.029474123471241,-0.0867219915452122,-0.525361909963173,-0.1855848398899695,0.0376248264962377,-0.0744096024815679,34.37134365841694,26.119577777914216,14.531741591888323,-0.0005019882173726
34812,1724913279979639559,-1.3439104557037354,-0.3169585168361664,0.2116326242685318,0.0026895401533693,-0.0486538372933864,-0.2587600350379944,0.9647117853164672,0.0,0.0,0.0,-0.1328335161379517,0.7152043797803351,-0.2790068385648685,2.009922404,0.1012928657062224,-0.5882107796281402,0.0011780155553485,-1.0364249224169395,4.611450205414805,4.070631331301334,0.0305040389570306,-0.0926143111930763,-0.5255275047962031,-0.1841578657428684,0.0409403247417312,-0.0815876087703628,4.430033109151001,5.584942974865426,0.5930861653195301,-0.0006224529175436
34814,1724913279990502782,-1.3457982540130615,-0.3165166974067688,0.2107485979795456,0.0027526163030415,-0.0525590032339096,-0.2578107714653015,0.9647608995437622,0.0,0.0,0.0,-0.3504787861774137,0.3694750183537905,-0.6700371471916586,2.020785627,0.2057224455924475,-0.6896839624154852,0.1723077504721248,20.936299348715224,22.714132924662145,-6.277661646764439,0.0325808176219868,-0.1001618273365949,-0.5238852775584429,-0.1888419346654188,0.0532359201729093,-0.0794692462062176,53.43004084998802,-120.3919863753846,-43.89542784613343,-0.0006753737330397
34816,1724913279999732015,-1.3476592302322388,-0.3159268498420715,0.210030123591423,0.0046660667285323,-0.0541565530002117,-0.257954478263855,0.9646268486976624,0.0,0.0,0.0,0.7186807481090458,-1.4361008678676046,-1.13709948096438,2.03001486,0.4877336168429017,-0.2287051519400068,-0.0583740941118728,4.733519101606941,-5.7644060762987195,-13.966770620806033,0.0371443874062802,-0.1022525564227912,-0.5245004994785905,-0.1914437587604709,0.0506680534544052,-0.0924359727658039,47.03010414798653,-120.84554058139577,17.132214975539654,-0.0005041403200475
34818,1724913280009701207,-1.3494579792022705,-0.3155643343925476,0.2089515179395675,0.0047829602845013,-0.0587450377643108,-0.2582821547985077,0.9642699360847472,0.0,0.0,0.0,0.4465023424612209,-1.8354472719923347,-0.2368586233934859,2.039984052,0.2568509869856191,-0.8861060153042889,-0.0788575775913635,-16.437018355083367,-25.219704409531623,14.22088897409066,0.0398254932352995,-0.1110495442028374,-0.5256323085905575,-0.1735042404468529,0.0238828017214096,-0.1008874585460422,-45.98642489189329,52.03594431404477,76.20627270457234,-0.0008552266394176
34820,1724913280020403368,-1.351235270500183,-0.3154521286487579,0.2079557478427887,0.0045661875046789,-0.0625205487012863,-0.2569046914577484,0.9644015431404114,0.0,0.0,0.0,-0.2603180655860484,-0.2204804260769963,0.4167637572267475,2.050686213,0.1581753984778483,-0.6881377726706778,0.2603269910588768,-3.31476556038505,4.548655164137443,-1.1124535298740583,0.041231777955164,-0.1185209641352036,-0.5231304590100108,-0.1842702689552027,0.0140207890859294,-0.0964036951866127,112.82387870634328,85.53443275705389,58.9682620477131,-0.0007668347296806
34822,1724913280029226391,-1.3529934883117676,-0.315302699804306,0.2070807367563247,0.00444475421682,-0.065903827548027,-0.2568203210830688,0.9641993045806884,0.0,0.0,0.0,2.036189420988624,0.0587262959612153,0.921726254469696,2.059509236,0.1718839675111827,-0.7494698669136538,0.0118897221807631,8.206555087239892,5.052831563466771,-12.262877136767056,0.0427694849369574,-0.1251321416889113,-0.5233046005203108,-0.181143329957564,0.017174565198978,-0.092742544550644,-78.6699826645908,54.34151371907088,1.970928647618825,-0.0006361342098528
34824,1724913280039716488,-1.3546675443649292,-0.3151195645332336,0.2061880677938461,0.0054043307900428,-0.0691296607255935,-0.2563015818595886,0.964106559753418,0.0,0.0,0.0,-3.0165761741770813,0.9118454942287472,0.2531720984570342,2.069999333,0.3409466481206151,-0.5467468820575015,0.0814954349493323,5.463755098094805,12.445941808276627,4.53689787490296,0.0462689893661207,-0.1308999455296423,-0.5227008797050088,-0.1388080467031898,0.0140648995912595,-0.0767530059673688,-232.45972491898695,34.003631836040974,-0.8241508918220717,-0.0006517198721453
34826,1724913280055286328,-1.3563486337661743,-0.3149789869785309,0.2051858454942703,0.0056768241338431,-0.0733345821499824,-0.2554461061954498,0.964021384716034,0.0,0.0,0.0,-0.8768340406641357,0.3476812927565351,1.694101713699979,2.085569173,0.1798399584595812,-0.5119406110022472,0.1036396798690112,-33.172060143545856,13.557852305917066,-11.05653549852366,0.0489017659905906,-0.1389385441031922,-0.5214569273717168,-0.348750451698379,0.0561849076068199,-0.1021850311760985,1258.847163512654,-328.4942743611492,148.22954631398994,-0.000745081114947
34828,1724913280059026576,-1.3578693866729736,-0.3147264719009399,0.2047696709632873,0.0055179083719849,-0.0741651207208633,-0.2553538680076599,0.963983118534088,0.0,0.0,0.0,4.839157753832403,-1.1435633684243065,2.298548294382103,2.089309421,0.0352602985266975,-0.4510577749034175,0.0510733409848786,-27.552735391455695,18.759489062913783,-13.32560547585408,0.0490184114029088,-0.1406329160253864,-0.521347544979686,-0.3407026032433862,0.0553670707766302,-0.0928589058569815,1185.582356841457,-322.3509742815374,80.13160512324225,-0.0001829580579174
34830,1724913280071757909,-1.359351634979248,-0.3145479261875152,0.2043852806091308,0.0064050620421767,-0.0750735327601432,-0.2558130323886871,0.9637856483459472,0.0,0.0,0.0,5.083895779496936,-1.938780576373658,-0.2120327328013358,2.102040754,0.1656076909212971,-0.1046763566175984,-0.0870034289341519,0.8670527660496248,-40.49057311361827,12.435226642008612,0.0512936629884062,-0.1419084026318011,-0.522532530051037,-0.1626298983752008,0.00072644053688,-0.0720415995871626,-269.0006409350765,112.8429857044873,-62.15611452763362,-0.0001560195750954
34832,1724913280079652763,-1.3608617782592771,-0.3146072924137115,0.2036116421222686,0.0060863136313855,-0.0780794620513916,-0.2553173005580902,0.9636802673339844,0.0,0.0,0.0,1.5491186490560267,-0.1896647997882122,-0.0416270969399779,2.109935608,0.1265741089400384,-0.755770186530153,0.1251458533357996,-0.9203984845757472,-32.42784477750709,8.553684685277938,0.0521939881229273,-0.147918204940282,-0.5218472047133411,-0.1660799907563372,-0.003060170752418,-0.0827586817908869,-245.94594939420912,131.34223986222767,27.285200490250677,-0.0005338681939007
34834,1724913280089497289,-1.362187385559082,-0.3145826756954193,0.2029839307069778,0.0063050077296793,-0.0804738402366638,-0.2553398013114929,0.9634758830070496,0.0,0.0,0.0,1.6049555554646862,-0.004041102782053,0.2969640436445004,2.119780134,0.1669078759669334,-0.460697404384596,-0.0155150116205889,-3.5779857986750336,21.760115210125782,1.7942157952152842,0.0538965855649472,-0.1524390722994316,-0.5222446453925645,-0.1264486332362153,-0.0013678073004186,-0.0670155308300515,-59.403269692930614,-4.7269567507097054,20.03254070149336,-0.000408989646763
34836,1724913280101720683,-1.363608479499817,-0.3146581053733825,0.2021154016256332,0.0057227727957069,-0.0823742747306823,-0.2538729906082153,0.9637066125869752,0.0,0.0,0.0,-0.1088060062460236,-0.4197342400714668,0.3238666617248169,2.132003528,0.0066875676902302,-0.3193670442765272,0.250501312134874,4.894178417326887,-16.963043144322807,-4.5912349207912655,0.053534881770227,-0.1565016291985128,-0.5193624676133031,-0.1435708951371594,-0.0040876169744876,-0.0831494568689663,124.30115129397362,-5.495437738035118,152.901267125434,-0.0006292528707748
34838,1724913280109162765,-1.3648006916046145,-0.3146790862083435,0.2014417946338653,0.0055970917455852,-0.0845553427934646,-0.2534988224506378,0.963616907596588,0.0,0.0,0.0,2.0147318956590348,-0.3314404346883693,2.1445984997315426,2.13944561,0.1246774235021386,-0.5748565637498521,0.0969216130166888,1.5367197098869338,-13.129220142972503,-11.763479913346874,0.0543844163725344,-0.1608124264988782,-0.5188666913687147,-0.1385266722399549,-0.0081049494420515,-0.0732911564709315,164.9403492441819,21.150265253644225,141.45337266540605,-0.000466942298767
34840,1724913280119688601,-1.3659361600875854,-0.314843088388443,0.2009267359972,0.0046533774584531,-0.0864772796630859,-0.2530085742473602,0.9635801911354064,0.0,0.0,0.0,1.9584012007850304,0.0294302095613954,2.0971314565682886,2.149971446,-0.0723005183557242,-0.3974224816361822,0.1051996667930472,-8.945014777908566,14.807398901392354,-0.5346329036120276,0.0534786934699376,-0.1650492364616134,-0.517974653443161,-0.0974164592875013,-0.0084915124446762,-0.0385108591915415,-49.24523806366762,7.822471170799249,-63.91657589880577,-0.0003211327714375
34842,1724913280131818306,-1.3669716119766235,-0.3148469924926758,0.2006052881479263,0.0039744786918163,-0.087851844727993,-0.2525694370269775,0.9635740518569946,0.0,0.0,0.0,0.7475281910218072,-0.245567615010066,0.4914533964715479,2.162101151,-0.0442537877776629,-0.2464624347962223,0.080248666437764,46.325721062829174,-16.61820724995134,12.862205740440473,0.0528051791542715,-0.1680862243619468,-0.5171499753472668,-0.1008801771436225,-0.0072098154054387,-0.0299467345689734,51.85369201961079,0.9868438918661546,-33.96246858940114,-0.0001392347252564
