seq,stamp,px,py,pz,ox,oy,oz,ow,lx,ly,lz,ax,ay,az,timestamp,wx,wy,wz,aa_x,aa_y,aa_z,roll,pitch,yaw,vx,vy,vz,jx,jy,jz,fw
18,1724914230060734958,-0.2317944318056106,0.1081703677773475,0.1715911924839019,0.0676756128668785,-0.087317019701004,-0.2696012556552887,0.9566143751144408,0.0,0.0,0.0,0.2209899884468066,0.0322062572331336,0.3787091685633556,0.0,0.0,0.0,0.0,10.362142823405057,-2.9039956579185104,-3.8529083513568287,0.1790399707678839,-0.1309404222887676,-0.5611770076636138,-0.0204983633096057,-0.0074209841908423,-0.0148287284455779,-0.0724293800057415,1.4520514269745834,12.057022344249226,0.0
20,1724914230070864195,-0.2320020645856857,0.1080951988697052,0.171440988779068,0.0681612119078636,-0.0875894501805305,-0.2697539329528808,0.9565118551254272,0.0,0.0,0.0,0.2202563340909654,0.0469144302731474,0.5008376054025516,0.010129237,0.1049606004861189,-0.0294152602660275,-0.0390270218301725,-0.1513392854675494,-5.726723412888709,-3.4627980521325363,0.1801613928342703,-0.1311629433298858,-0.5616229194685725,-0.0182599033420007,-0.0070947593784449,-0.0109926935231268,4.231215031148315,4.9497629129779535,-15.504849135637954,-9.782739459424292e-05
22,1724914230081168241,-0.2321667522192001,0.1080255135893821,0.1713679283857345,0.067995548248291,-0.0881367400288581,-0.2701463997364044,0.9563626646995544,0.0,0.0,0.0,0.3089652175276012,0.1345795785123182,0.0521749224376189,0.020433283,-0.0067997784255848,-0.1180111522804087,-0.0706187660920084,-5.353049431055947,-11.54274803535608,-9.03132080215522,0.1802150444553103,-0.1322288585433322,-0.5625649466771129,-0.0159980620146615,-0.0064571817461871,-0.0045519051767772,3.241507382498849,14.236013392015655,-48.811880799301775,-3.1691603315085185e-05
24,1724914230090391827,-0.2323144376277923,0.1079684793949127,0.17134690284729,0.0677203759551048,-0.0891567394137382,-0.2711246013641357,0.9560106992721558,0.0,0.0,0.0,0.2945461796123861,0.3131809029230623,-0.4415528762283833,0.029656869,-0.0108198191816234,-0.248788394313458,-0.2031724975727266,6.373062842816829,-2.68202134525235,-0.6600211707210017,0.1804173738194266,-0.1341502798714368,-0.5648401651554936,-0.0124097150021178,-0.0046156076905665,-0.0088007587700946,-11.989560253987737,11.353415868701909,-9.598086342216492,1.4728265179331353e-05
26,1724914230099896600,-0.2323971092700958,0.1079399660229682,0.1711993813514709,0.0680729150772094,-0.0900171026587486,-0.2714686095714569,0.9558074474334716,0.0,0.0,0.0,0.0784675834863652,0.3426370741309816,-0.1024993925814705,0.039161642,0.1164447494556126,-0.1616771015768525,-0.0751515510804623,-0.9132788816383316,8.26540702389953,5.110398088962378,0.1816570318336361,-0.135533275274622,-0.5658285003176527,-0.0105356464982815,-0.0005270025987345,-0.0128105619919418,-7.218851818455587,-11.821361149665488,23.689715269783207,-0.0001241652014103
28,1724914230110311348,-0.232527807354927,0.1079626977443695,0.1710968911647796,0.0677263438701629,-0.0903232619166374,-0.2721092402935028,0.9556209444999696,0.0,0.0,0.0,0.1803379961759746,0.0492507036908889,0.007484006762547,0.04957639,-0.05628837794892,-0.0858610418483727,-0.1173164858408947,-9.259771187905654,5.926549314785749,-3.704892473565996,0.1812571305563355,-0.1361923071161171,-0.5672042568388821,-0.0110730546162489,0.0020426399607318,-0.0102334305701594,23.690381202083323,-19.83041338306588,13.605180688492863,-7.432309762639723e-05
30,1724914230121037165,-0.2326302677392959,0.1079830601811409,0.1709827929735183,0.0673634484410286,-0.0903494283556938,-0.2729442715644836,0.9554060101509094,0.0,0.0,0.0,0.5880781863791116,-0.0713230347418483,0.1870444077153272,0.060302207,-0.0746864082157337,-0.0372409082196385,-0.1532580572937206,7.947573645078375,-3.8846806375782066,2.8559301470793956,0.1806876017834862,-0.1362893717901831,-0.568908971477726,-0.0065767465483066,0.0003894902253547,-0.0128038674821873,12.858786282939164,6.687851410847511,42.791167195041815,-9.1360033432452e-05
32,1724914230130181869,-0.2326672077178955,0.1079748570919036,0.1708488166332245,0.0675435811281204,-0.0910212323069572,-0.2733005285263061,0.9552276730537416,0.0,0.0,0.0,0.5095346550626714,0.1296241611697438,0.7814617793045456,0.069446911,0.0733300238008035,-0.1383950098068066,-0.0787485272429195,19.061528018508973,-1.0800454394045826,3.883138278846249,0.1814871196765015,-0.137404565760692,-0.5698541016160312,0.0001177080520733,0.0003828655663156,-0.0077666117470691,-26.15938421881181,12.910931081626895,27.147319204042063,-0.0001220961877529
34,1724914230140325217,-0.2326192408800125,0.1079931408166885,0.1708474904298782,0.0689811408519744,-0.0915851593017578,-0.2735979557037353,0.9549857974052428,0.0,0.0,0.0,0.0465052639770932,0.158613390894531,0.6309298498570279,0.079590259,0.2990301298739236,-0.0370485080424996,-0.0873428027959677,-3.0936570808044537,4.7709399197130065,-2.4674820182221437,0.1846502812425428,-0.1376127786779779,-0.57080253959719,0.0027824733376338,0.0031642468216768,0.002754779878332,109.77143819221811,45.55162510319418,47.578754062663016,-1.2985129955661006e-05
36,1724914230150613965,-0.2326109260320663,0.1080399081110954,0.1709059476852417,0.0689957216382026,-0.0917514562606811,-0.2742486000061035,0.954782247543335,0.0,0.0,0.0,2.797915290794837,1.0728436413757736,1.7718770532728527,0.089879007,0.0026970611735436,-0.0424437051842876,-0.1296388877847413,-20.86898618219513,0.0481747305360959,-2.0192125388086604,0.1848708869925576,-0.1377970314614728,-0.5722073027257187,0.0010045849277648,0.0035898139275905,0.0050055968586986,45.015101104107686,6.5048112514191345,-8.138526435115608,5.133690615652459e-05
38,1724914230174122863,-0.2325767576694488,0.1080729663372039,0.1709873080253601,0.0683379098773002,-0.0916181355714798,-0.2750503420829773,0.9546116590499878,0.0,0.0,0.0,-8.090449037541589,-3.1978642604176173,-4.8133085963035,0.113387905,-0.0617996752376154,-0.0105560237713328,-0.0647513233276839,392.43693534069814,-3624.499466750749,-11153.28977483124,0.1836318249634704,-0.1377620870063431,-0.5737639261708256,0.2263547878162626,0.0842180223193622,0.1300871285594667,-1355.2986061496413,-572.409462784899,-667.2715743948975,6.932629472078744e-05
40,1724914230174506239,-0.2324885725975036,0.1081057712435722,0.1710379719734192,0.0683569982647895,-0.0918254777789115,-0.2758743166923523,0.9543525576591492,0.0,0.0,0.0,-8.615615633077887,-3.4197552467311803,-5.071545001000442,0.113771281,0.0911218874374886,-1.4227709093317034,-4.410402343612878,386.2649083270854,-3567.4780254026027,-10977.6505906438,0.1839112496302561,-0.1379893728690298,-0.575542842952404,0.2231425926427228,0.0829506025811282,0.128178464546697,-1315.108082879142,-555.3837745101974,-644.2726393256766,2.7935989912400623e-05
42,1724914230186650408,-0.2324252873659134,0.1081060618162155,0.1710659712553024,0.0679301396012306,-0.0920098945498466,-0.2769365608692169,0.9540576338768004,0.0,0.0,0.0,-3.528874286566448,-1.163512944108179,-1.6194523317441218,0.12591545,-0.0714546678720101,-0.0647967431493943,-0.1718214999091208,111.61991159500968,13.010367199683596,-80.73809244092966,0.1833488081533493,-0.1383820433030267,-0.577759267926868,0.0273767619497533,-0.002361358176504,0.0308219890978307,798.7940843750342,427.6516883325124,348.9205167663746,1.3752158104059175e-05
44,1724914230189993139,-0.2323133796453476,0.1080959737300872,0.171195238828659,0.0686712712049484,-0.092286542057991,-0.2782197296619415,0.9536043405532836,0.0,0.0,0.0,-0.5091457974973431,0.4885502955640387,-0.3936100913816678,0.129258181,0.416679731124907,-0.1122223329796649,-0.8371294089701669,97.13194398830552,-9.568312796732124,-134.5171282689042,0.1851341249507102,-0.1382381522484131,-0.580606036802589,0.0271659182886851,-0.000857577031045,0.0312947274314794,671.2561758561704,363.1413558426873,254.81795079795057,0.000102676698353
46,1724914230200037360,-0.2322310209274292,0.1081525608897209,0.171286940574646,0.0682870522141456,-0.0924167186021804,-0.279436856508255,0.9532633423805236,0.0,0.0,0.0,-0.7723372909811329,0.1797917949676558,-1.211421549626886,0.139302402,-0.0834475594095503,-0.0689123449783768,-0.2411600127604257,-21.835675958142605,4.177277983050693,30.335417194796836,0.184645203419546,-0.138473211013774,-0.5831384221141064,0.008589169367644,0.0052170529212736,0.0111934876332302,42.63589131980056,-36.22128627008466,-4.744962808602299,6.71813193922157e-05
48,1724914230210159230,-0.2321401089429855,0.108201116323471,0.1714212894439697,0.0682618170976638,-0.0924450159072876,-0.280564546585083,0.9529312252998352,0.0,0.0,0.0,0.3613853746333482,-0.24274599584806,-0.4773437660934929,0.149424272,-0.0193020699863763,-0.0280039572167657,-0.2299035412658891,12.087948767821,0.8837961043336815,4.060795914869199,0.1847757413946409,-0.138324480198305,-0.585500656491407,0.0117588214250776,0.002701864401752,0.0069882268852285,51.483997809773584,-8.114597055198294,59.76212421840156,0.0001075024910248
50,1724914230220575151,-0.231987863779068,0.1082068011164665,0.1714267134666443,0.0690949112176895,-0.0928965881466865,-0.2812762558460235,0.9526174068450928,0.0,0.0,0.0,0.2489194401506858,0.0332013105845087,0.0083462066234799,0.159840193,0.1682432893248787,-0.0526452020501632,-0.1560009082472707,6.4693005499075475,-5.809755443585267,0.3480877663791411,0.1867647721062942,-0.1385632698747542,-0.5872152782538934,0.0160400067127302,0.000235013818175,0.0013529802099689,-23.18055841178712,24.5162018166627,47.57352971358432,-2.803619708395394e-05
52,1724914230230386483,-0.2318173348903656,0.1082062348723411,0.171447679400444,0.0695821940898895,-0.0936574041843414,-0.2822713851928711,0.9522129893302916,0.0,0.0,0.0,-0.0929548873161496,0.2554701592812628,0.4838297729991308,0.169651525,0.125098753924066,-0.1414757711244524,-0.214941046118139,-5.772286736931248,-0.0953436767120607,-8.623655432207729,0.1883183342022217,-0.1395338082828468,-0.5895686499274158,0.0169841014923566,0.0030563906379157,0.0065120423691737,-23.279660680929993,11.432234806786015,31.116932946515043,-1.6674687548379934e-05
54,1724914230239940655,-0.2316587567329406,0.1082644090056419,0.1715506017208099,0.0699064135551452,-0.0938959866762161,-0.2837283015251159,0.951732575893402,0.0,0.0,0.0,-0.2077731739446274,0.2602883915032823,0.6197456516287925,0.179205697,0.0571579025145573,-0.0590387488655231,-0.3216743601586577,-3.916260652748271,2.9957427193682715,-4.809756561118592,0.1893032142242499,-0.1395110002078656,-0.5927238422259141,0.0143359123088924,0.0051986119233644,0.0107439044968753,5.400375666930515,1.8263624207366256,4.63018636552858,6.0827347769246417e-05
56,1724914230250174945,-0.2315368354320526,0.1083078533411026,0.1716602444648742,0.0701739117503166,-0.0943027213215828,-0.2852018177509308,0.951232135295868,0.0,0.0,0.0,0.0384460917510653,0.2934733772066431,0.5619371535347577,0.189439987,0.0521024172469835,-0.0901290468617233,-0.3011574228620658,-2.2191566525346667,3.2096823475371967,-3.716976357770823,0.1902864483045606,-0.1398353801587783,-0.5959561405810901,0.0129703545566446,0.0082579075752935,0.0190249222780609,15.16696715241237,-9.798792896627186,-42.04000554127055,7.639592344127722e-05
58,1724914230261768281,-0.2313725799322128,0.1084562912583351,0.1719899624586105,0.0704716220498085,-0.0939773693680763,-0.2874996066093445,0.950550377368927,0.0,0.0,0.0,0.0975137125825391,0.0086028935918922,-0.4033709543255218,0.201033323,0.0037184316172326,0.0291298883549378,-0.4193918494138924,-1.5753920914755222,2.676028981461304,-7.6178212881021246,0.1909895135422245,-0.1385824766297314,-0.6007122325509302,0.0156732921183468,0.0115886341849957,0.0222931126032133,-7.451715587342633,-17.773787428953646,-49.81190348310746,0.0002727516762484
60,1724914230270888890,-0.2312188297510147,0.1085532680153846,0.1721491813659668,0.070706270635128,-0.0938411206007003,-0.2895347476005554,0.9499284625053406,0.0,0.0,0.0,-0.0604764882716428,-0.1047263478511004,-0.6176571109796591,0.210153932,0.0079915687361652,-0.0010729363325063,-0.4703540397869649,-1.6634872088478856,-5.349252376212686,2.1536637483400938,0.1916483464042005,-0.1377763305300689,-0.6049662570685533,0.015589477484097,0.0096673902268928,0.0136970904553219,-7.492924702755239,4.278673923630524,12.862707111250336,0.0001133589811712
62,1724914230280638341,-0.2310800552368164,0.1086374595761299,0.1722435355186462,0.0706287324428558,-0.0940157324075698,-0.2912811040878296,0.949383020401001,0.0,0.0,0.0,-0.0310897665398554,0.1110747013824491,-0.1133483957006037,0.219903383,-0.0304454933984317,-0.0744620346053171,-0.3686804014766532,2.371459453446908,-1.3093379995611942,10.493480374146705,0.1918600421473486,-0.1378039839146259,-0.6086683621623377,0.0144653707952819,0.0097502509734379,0.0110604981183879,7.951018074484258,10.457083099244697,16.082160004227887,5.4582128205459785e-05
64,1724914230291019373,-0.2309273332357406,0.1087509989738464,0.1723736375570297,0.0710410550236702,-0.0941125974059104,-0.292533129453659,0.9489575624465942,0.0,0.0,0.0,0.1060193445001885,0.0905512957185716,-0.3403989109299424,0.230284415,0.0639640596586934,-0.0193215691624453,-0.2590306712290077,3.098054654809561,-2.0918161276229448,8.12156281577546,0.19289496636194,-0.1374867313874529,-0.611371635944625,0.0150734413890614,0.0120371441615141,0.0116201854027213,0.6961459276931425,4.805855436076614,6.774852464550568,8.38008197774351e-05
66,1724914230300003709,-0.2307890951633453,0.108867697417736,0.1724709421396255,0.0711945369839668,-0.0945143550634384,-0.2934184968471527,0.9486327767372132,0.0,0.0,0.0,0.0149898003882816,0.1864692654548364,-0.0567887199463804,0.239268751,0.0451728844851889,-0.095681254496559,-0.2050435250084938,2.1745437895893955,-4.3411199549958095,9.255230745387532,0.1935743038256218,-0.1379766149519622,-0.613363520966319,0.0163948597179501,0.0118418552138122,0.0054959219399703,-2.8223951001702647,-1.1617121642223736,13.489351479178357,5.472510609752205e-05
68,1724914230310853523,-0.2305980026721954,0.1089811474084854,0.172460675239563,0.0717273354530334,-0.0951431766152381,-0.2937080860137939,0.9484400749206544,0.0,0.0,0.0,0.0801427813280152,0.0187579499464251,-0.1472989882980301,0.250118565,0.1246633258327893,-0.0882997742424282,-0.0620922159725391,5.446314890154255,20.003141037403143,-10.761723387347953,0.1950446753047007,-0.1387865214152435,-0.6142176053262506,0.014826763566532,0.0165930572978032,0.0130672358330805,7.399945209412615,-18.097593572268472,-37.69479130061252,-6.160952035218435e-05
70,1724914230320581776,-0.2304780632257461,0.1091960966587066,0.1727100312709808,0.0730374753475189,-0.0939742922782898,-0.2952693998813629,0.9479717016220092,0.0,0.0,0.0,0.1642990328912096,-0.1803283230646815,-0.7700360744338154,0.259846818,0.1612468766922474,0.2748415408043002,-0.375580178050619,11.61136412348285,-9.209386935559914,1.1525030154737574,0.1970359637572258,-0.135452294542895,-0.6173095485474586,0.017566128143029,0.0131194635208995,0.0042625365547266,-2.8787559605907784,39.751079823759504,41.92227409845837,0.0001979123165326
72,1724914230330419185,-0.2302531599998474,0.109235867857933,0.1725393831729889,0.0742960423231124,-0.0957755371928215,-0.2953555881977081,0.9476667642593384,0.0,0.0,0.0,0.0212868743080156,0.8097337318529688,0.6961948013962116,0.269684227,0.3535708948340352,-0.2787043094272296,-0.0322152543945503,-5.852042400207689,-25.25732701124968,8.49198083387088,0.2006314920011775,-0.1380774158017106,-0.6181698555923681,0.0180156335491403,0.0131036139203155,-0.0019693859563583,-8.96412760695739,61.90889521262993,95.7124623350788,-0.0002196801675064
74,1724914230341825640,-0.230111762881279,0.1095051690936088,0.1727202981710434,0.0739219263195991,-0.0964185670018196,-0.296986848115921,0.9471207857131958,0.0,0.0,0.0,-0.0072488457521109,1.0036125447651276,1.082552164241593,0.281090682,-0.0491450858023887,-0.1566416165519397,-0.2846708976425759,0.7276918276128104,11.816340753019311,-16.106262055485708,0.2005645333114717,-0.1391812999299569,-0.6217420508367963,0.0179356454616783,0.0330704584885097,0.0235578514392518,-0.3498861214499402,-22.368605950338676,-57.83611636401783,0.0001212545671457
76,1724914230350178100,-0.2299280762672424,0.1098392531275749,0.1729641407728195,0.0747137293219566,-0.0967225357890129,-0.298443078994751,0.946569800376892,0.0,0.0,0.0,0.0029896632760413,0.5760119453289012,0.0385788492850989,0.289443142,0.177320218625389,-0.0511257011358453,-0.3823392114584005,13.31750556266208,10.30819175554458,-3.227386991214522,0.2024955360200549,-0.1389604616647389,-0.6249877582857336,0.0178736544139868,0.0368850995884071,0.0255331522296691,-5.009795649303181,-29.936681191250113,-79.69143818984415,0.0001667649560778
78,1724914230364360350,-0.2297737598419189,0.1102873980998992,0.1732380986213684,0.0751781463623046,-0.0964131355285644,-0.2999038398265838,0.9461027979850768,0.0,0.0,0.0,-0.2182205403510246,0.6633552653717762,-0.0007888932002799,0.303625392,0.033967498424079,0.039085821964612,-0.2242411129143822,9.384928074863756,-11.652087607753684,-12.29357777805167,0.2033955033408439,-0.1377765189780454,-0.6280199981782557,0.0181667759845538,0.0479271955293736,0.0213142945085174,-45.47346351311411,-44.48809328306087,28.486545310283574,0.0001928232138216
80,1724914230371154195,-0.2296266257762909,0.1106661483645439,0.1733894050121307,0.075721263885498,-0.0967963561415672,-0.3011102378368377,0.9456371068954468,0.0,0.0,0.0,-0.6243913545745401,0.1962795693078756,0.2944881676936606,0.310419237,0.1611669149649642,-0.0987000933491151,-0.3840514250696318,7.426466206212206,-8.70036205457528,-11.20006538361865,0.2048637548822617,-0.137904242188552,-0.6307367670832622,0.0159067527314871,0.0520589095831027,0.0222745023227979,-33.22396424874957,-46.94766391174246,35.05643564319744,8.092859648111406e-05
82,1724914230380239741,-0.2295519709587097,0.1110942959785461,0.1735918223857879,0.0762108638882637,-0.0969647392630577,-0.3025261461734772,0.9451283812522888,0.0,0.0,0.0,-0.6035236682120588,0.0346369317610371,0.5108597215784563,0.319504783,0.0913874395583455,-0.0370396918156411,-0.3360853108777941,-10.945057204258395,5.706490094093172,2.6585648032023013,0.2061179645042105,-0.1376105997645225,-0.6338238532321706,0.0066891667463444,0.0488378073800968,0.0268109430786402,28.013614798562873,33.73017104407854,54.011926460029635,0.0001425746802322
84,1724914230390918890,-0.2294997125864029,0.1116373538970947,0.1739350259304046,0.0760683044791221,-0.0966664031147956,-0.3042746782302856,0.9446090459823608,0.0,0.0,0.0,0.0184422863418589,1.0415564190698032,1.466702096129734,0.330183932,-0.0664769063911218,0.01034233431957,-0.3405913691912315,-9.560552472428313,-2.8826196109854965,9.02253146228512,0.2058964625988474,-0.1367584978901541,-0.6373952099273346,0.0054031471800986,0.0540926335494322,0.0324115527221327,36.25434037242317,37.735718705530786,62.47677254651768,0.0002747583614021
86,1724914230401334185,-0.2294382601976394,0.1122336611151695,0.1742753833532333,0.0754391998052597,-0.0968901440501213,-0.3051098585128784,0.9443671107292176,0.0,0.0,0.0,0.1727007663859643,0.8601255451369143,1.8428595632648976,0.340599227,-0.1130087115280673,-0.0940321118925788,-0.1506823842566531,-20.07310685985037,-6.68473476790273,4.254769840660799,0.2049589221626104,-0.1373971323062644,-0.6391477885717584,0.007005821268347,0.0705224716790438,0.0572591136014093,14.92604258391346,-77.04999250662584,-84.1177267242634,0.000266310016438
88,1724914230410413653,-0.2293659001588821,0.112978994846344,0.1749898195266723,0.0735638588666915,-0.0967837050557136,-0.3062919974327087,0.9441433548927308,0.0,0.0,0.0,0.3091337159402686,-0.3114196596308778,0.1274701195804195,0.349678695,-0.4187786199114631,-0.1283174019033158,-0.222693850938805,-5.375179765892531,6.443767331673067,-6.21299431528954,0.2014638170313111,-0.1381301752813112,-0.6413845342028923,0.0087228420794875,0.0726541775037583,0.0696948910683605,18.2589376515057,-54.005231363049326,-83.76119386366153,0.0006174896373791
90,1724914230420985846,-0.2292644083499908,0.1136309504508972,0.1756159514188766,0.0731718763709068,-0.0961462184786796,-0.3076648116111755,0.9437924027442932,0.0,0.0,0.0,0.5419626703788611,0.0412354973980964,0.5366010553340912,0.360250888,-0.1272003554747961,0.0656177306353411,-0.2672266147569441,25.17221943482353,-0.8169250554010485,3.672788254940908,0.2004829012749713,-0.1368864113945022,-0.6440392786008022,0.0134685916207946,0.0626378512400753,0.0557507690748479,30.386013585283116,56.35232230183918,102.491912897224,0.0005333861312923
92,1724914230430128207,-0.2291106879711151,0.1142112836241722,0.1760981827974319,0.0734778344631195,-0.0966095402836799,-0.3083980977535248,0.943481981754303,0.0,0.0,0.0,0.8858816092797187,0.7382287392849336,1.97796166464226,0.369393249,0.0838995825021692,-0.0933344872424058,-0.1713102541753087,-11.493995088458266,0.8119379142916108,-9.747275355570435,0.2014852725247804,-0.1374098811279572,-0.6457604885126987,0.0191592354163017,0.0708310728631609,0.0753263281449001,15.888618443864676,11.699184934768716,4.394869881663983,0.0003871506790088
94,1724914230440164394,-0.2288925647735595,0.1150031760334968,0.1771029382944107,0.0719415619969368,-0.0952432751655578,-0.3108837902545929,0.9429233074188232,0.0,0.0,0.0,0.8059395319008118,0.1445964977428397,0.3335150858042843,0.379429436,-0.4124854157934858,0.115312008874897,-0.4921135516384732,3.7186915712078665,22.063060658173303,-8.286215694024039,0.1979781317954884,-0.1352956621275038,-0.6504147939212916,0.0309524630263542,0.0764998375399468,0.0933791367201077,-70.61527746353568,-72.66585384766859,-150.36819058963698,0.0008666499589947
96,1724914230450301755,-0.2284843921661377,0.1157540678977966,0.1779806017875671,0.0734683126211166,-0.093706339597702,-0.3122671246528625,0.9425024390220642,0.0,0.0,0.0,-0.5514200592468075,-0.7304482090065836,-1.0527561269127483,0.389566797,0.1697335281955291,0.3520147438478677,-0.3336571882393375,-0.0355249331682578,18.80073941602514,7.825710254656524,0.2000485847849382,-0.1311288957382543,-0.6530483356365474,0.0353428258416546,0.0736626347246867,0.0817565245485969,-31.16828958415013,-16.924157079857654,-35.55601056393537,0.0007019036130563
98,1724914230460000463,-0.2281872779130935,0.1164647042751312,0.1787288039922714,0.0727001428604126,-0.0907877907156944,-0.3137644529342651,0.9423503279685974,0.0,0.0,0.0,0.0995087837524717,-0.2506754011830439,-0.4586326394448639,0.399265505,-0.3638634239915213,0.4921491243925921,-0.3301828086237415,-33.56193661688516,-1.2358562753708369,-1.5486869444346407,0.1968035747167625,-0.1258180587969636,-0.6552651472647056,0.0208594840826972,0.0623973539960953,0.0724161200097865,65.91355788004479,47.221454933798626,23.029183417001946,0.0006066822643475
100,1724914230475769195,-0.2281089574098587,0.1171698495745658,0.1797494888305664,0.0706142112612724,-0.0891829952597618,-0.3169646561145782,0.9415909051895142,0.0,0.0,0.0,1.1080796111069624,0.4363583502463246,-1.0755919867669554,0.415034237,-0.3430250862178499,0.070542995141883,-0.4034927002116777,-21.13944801987944,-94.77631904729331,69.09085634090165,0.1921497813777847,-0.1234970564878526,-0.6613399484036584,0.0632653116807091,0.0817966124369853,0.0781163522735077,-244.19110885977324,-132.31459221120105,-126.6103932385836,0.0009237059372967
102,1724914230480658285,-0.2277112752199173,0.1176259666681289,0.1801517009735107,0.0691139549016952,-0.0899601727724075,-0.3170485198497772,0.9416001439094543,0.0,0.0,0.0,-0.5529071132509791,-0.4771551874769506,-1.8272165221689547,0.419923327,-0.4804254143880563,-0.4959653242300553,0.046078165965536,-8.8507157273535,-58.60801140667272,52.7686231936615,0.1898309442411078,-0.1259205712268591,-0.6615810460191024,0.0662860011683239,0.0827266000797957,0.0706792707904782,-253.81029492867424,-133.8432664708106,-81.93103018958865,0.0002737109942813
104,1724914230490274998,-0.2273585945367813,0.1182216554880142,0.1806122064590454,0.0683194100856781,-0.089483842253685,-0.3179772198200226,0.9413902759552002,0.0,0.0,0.0,-1.3684232096582578,-0.7616714149850785,-1.2568913265602497,0.42954004,-0.2013587396183749,0.0236125881723202,-0.187682849006076,8.683032327316319,22.234029637507852,-6.2680700102244,0.1881130351803487,-0.1253584773404976,-0.6633248332962397,0.0388231504540659,0.0655140418477584,0.0473181166422076,55.540705567018925,60.270448086605185,151.04726497613177,0.0003313649150015
106,1724914230500076292,-0.2269566059112548,0.1188994497060775,0.1810703128576278,0.0667574778199195,-0.0893139019608497,-0.3184602558612823,0.9413552284240724,0.0,0.0,0.0,0.5778890815632067,0.7266665764351177,1.1400128757674692,0.439341334,-0.3193975168593695,-0.0760747846928767,-0.0689117720096057,-14.804438123238825,-0.6140829288454148,8.585712161414913,0.1850838561605423,-0.1259658711964696,-0.6641332790279644,0.0402682805455274,0.0683196695853363,0.0467098803943208,120.57976596287943,102.80425181149074,188.2555360371636,0.0003153954554411
108,1724914230511608008,-0.2265023589134216,0.1196759790182113,0.1816085577011108,0.0639881715178489,-0.0880854502320289,-0.318809300661087,0.941545069217682,0.0,0.0,0.0,0.910140930373024,1.246724814210081,2.547142079303452,0.45087305,-0.5275818211329183,0.0465064411617288,-0.0178272144443109,-21.88752626683354,37.929742004680456,-41.30417600175192,0.1790131796358264,-0.1254012012119865,-0.6642391305660222,0.0527724756872398,0.0826747876228317,0.0761654383349963,9.021560367094771,-71.104827950435,-174.18662275519165,0.000381649521602
110,1724914230520620504,-0.2259324938058853,0.1205291077494621,0.1825027167797088,0.0619141496717929,-0.0843351483345031,-0.3219575881958008,0.9409557580947876,0.0,0.0,0.0,0.8520512409888918,-0.212596873363386,-1.1091004074462123,0.459885546,-0.7518506641374251,0.5806377960224434,-0.71221474821464,0.5733929185892173,43.353222225101845,-50.00264226862747,0.1729010798358184,-0.1191253749040895,-0.6696835777112501,0.0597481888585669,0.0939241801852608,0.0990710699345456,27.485922513359945,-103.24202951687356,-311.5089996409727,0.000708346366036
112,1724914230530385941,-0.2253858745098114,0.1214385256171226,0.1834686845541,0.0614120103418827,-0.0794680640101432,-0.3260954320430755,0.939986765384674,0.0,0.0,0.0,1.4795008136743166,-0.5998907410245744,-3.1546096730729065,0.469650983,-0.4768771616511237,0.8356271665716583,-0.9143463713029636,8.019810276913464,-35.91057835678515,46.26353293412139,0.1690950771846265,-0.1095645827265498,-0.6771423145681857,0.0688946752974821,0.0763909812635388,0.0496117502220574,11.61913374075644,41.712106129413606,101.72472793837358,0.0007850626023495
114,1724914230540326977,-0.2245702445507049,0.122028574347496,0.183462917804718,0.0582742504775524,-0.0792579427361488,-0.3253337144851684,0.9404681921005248,0.0,0.0,0.0,1.0623726113083416,0.6382361564880128,1.0058067190503637,0.479592019,-0.6009445083698771,-0.1490108850446752,0.2232047461032701,-10.418887461881257,-13.215493349415423,33.26530568045432,0.1629054796064145,-0.1113922118871577,-0.6751869043603417,0.0890963051573745,0.0825260969495778,0.0375817020078468,-25.53319214989265,61.788902801050895,255.74987045356852,-0.0001924211095431
116,1724914230550005903,-0.2236414551734924,0.1230456978082656,0.1841862946748733,0.0560898035764694,-0.0756998658180236,-0.3264423012733459,0.9405099749565125,0.0,0.0,0.0,0.9700426956699206,0.644870553549747,1.9473900178366632,0.489270945,-0.6823617374055017,0.5319378412761322,-0.2196951890886559,8.317333831421802,35.58888995486418,-27.91149261977072,0.1564406547284564,-0.1059710172439044,-0.6764752484935618,0.0902400577980309,0.0889022426173049,0.0681993103075395,26.35090896335997,-8.231056933916689,-4.938002454993951,0.0004872261234156
118,1724914230563658360,-0.2225196063518524,0.1239477694034576,0.1849914789199829,0.0554149933159351,-0.0728149935603141,-0.3280848264694214,0.9402061104774476,0.0,0.0,0.0,2.020943863239294,0.3607889670618336,-0.0884989421153479,0.502923402,-0.2466523583151176,0.3483377540863273,-0.2570576743732802,-76.2654051134804,0.056542423789466,3.507117625866023,0.1533567594432371,-0.1007308280026468,-0.6792236001801987,0.1198882689145861,0.0974387252903881,0.0713703550305311,-147.4989570401739,-144.71548706177936,-103.1465250984705,0.0005464040817531
120,1724914230571424892,-0.2214218527078628,0.1248431056737899,0.185600534081459,0.0511835478246212,-0.0696013420820236,-0.3291029036045074,0.9403336644172668,0.0,0.0,0.0,-0.1163790312400072,-1.3105937291958685,-0.6864594314551167,0.510689934,-1.3169277807472892,0.4084429958626801,-0.2022332825313831,-45.18252805142336,16.386215302631484,-0.5913549153428068,0.1432365553203543,-0.0973614075483458,-0.6803137761833414,0.1349181947969349,0.0990722758832483,0.0692658137893573,-70.11103736349533,-66.71990601672775,-37.835936527240605,0.0003741206485044
122,1724914230580155077,-0.2203070521354675,0.1255489587783813,0.1861153990030288,0.0488893054425716,-0.0657727271318435,-0.3303604125976562,0.9402903318405152,0.0,0.0,0.0,1.2841261045572558,-0.4359438359785432,-0.6325202494464814,0.519420119,-0.8024269913297025,0.6363562556926449,-0.2824725166642795,39.94468912762689,12.249387229231557,-7.961468434804313,0.1363891319544695,-0.0915164287195519,-0.6819889501485361,0.1137690385211751,0.07270508831769,0.0591955852419676,197.62545146257372,139.90731627006113,-28.705357292958855,0.0002998260491559
124,1724914230592674632,-0.2191327363252639,0.1263129264116287,0.1868604570627212,0.0463691651821136,-0.0611472949385643,-0.3325736820697784,0.939949870109558,0.0,0.0,0.0,4.4262666858724415,2.0287631290574666,-1.6181928497745877,0.531939674,-0.6432578539904568,0.5409291770988734,-0.3600716852832434,27.924236050428853,24.675716068517048,0.4551219212247339,0.1286505346399947,-0.0842079400232713,-0.6855763624768928,0.196394018535102,0.1136448469691639,0.0606301534397992,-294.91931860909466,-125.25342043021531,-158.625504583093,0.0005295529495497
126,1724914230599735898,-0.2173373401165008,0.1273249834775924,0.1872930377721786,0.0461516752839088,-0.0578399300575256,-0.3336130976676941,0.9398015737533568,0.0,0.0,0.0,0.1696219488442052,-0.1385958983369128,-3.0564860180968303,0.53900094,-0.3854983488501777,0.8438036520631625,-0.3303596978232482,-11.666615720816772,7.863078492479364,13.68690689982664,0.1260549841161048,-0.0780015806292894,-0.6871386227284019,0.2189930629586065,0.123026765389735,0.0423025455167556,-444.05480216226175,-231.76646163882612,-79.49108791860522,0.0001286332299178
128,1724914230610207772,-0.2155917584896087,0.1282980740070343,0.1874416023492813,0.0406509973108768,-0.0537549965083599,-0.3340891003608703,0.9401289224624634,0.0,0.0,0.0,-2.0149308262414554,-1.3982511310669663,-1.960156131212761,0.549472814,-1.2557394798061026,0.3821463598659698,-0.0398224731855229,-27.451227581489796,-20.969509047117004,7.767538105676365,0.1129001115717455,-0.0739786039533256,-0.6870754261270471,0.1737015332444205,0.0987894230418326,0.0031365844781827,49.14935164781959,-11.482928507083113,154.99475777949186,-0.0001160564735173
130,1724914230619894570,-0.2138463407754898,0.1293075829744339,0.1873729676008224,0.0366545654833316,-0.0503123328089714,-0.3349284529685974,0.9401851296424866,0.0,0.0,0.0,0.770855033855022,-0.5345151212233024,-0.0080186145858378,0.559159612,-1.022984445493783,0.3861511918293199,-0.1435853189694528,42.39062675686901,16.569357797403185,-15.055066419963104,0.1030613102044205,-0.0701099227521409,-0.6880576390268979,0.1748834402436561,0.0934551298217822,9.836577335775588e-05,213.8688698491881,85.1652804261827,170.86549104557758,-0.0003116423143878
132,1724914230631295342,-0.21192367374897,0.1302286684513092,0.187470480799675,0.036701001226902,-0.0454298295080661,-0.336844265460968,0.9397474527359008,0.0,0.0,0.0,2.2199899458651675,0.382748980441189,1.5285824489064108,0.570560384,-0.2933094742145948,0.7918351195964032,-0.3735029861632888,-52.71711773330128,-27.76726750296052,26.25676407837882,0.0999348838768382,-0.0606973525322181,-0.6913864444800302,0.19237796643813,0.0875781000831184,0.0041078509234715,121.87753005323827,70.36495503687335,150.49196861394387,-0.0001502027499009
134,1724914230640477937,-0.2099816054105758,0.1310830563306808,0.187475323677063,0.0296827666461467,-0.0426319651305675,-0.3362550437450409,0.9403372406959534,0.0,0.0,0.0,3.300453792278418,0.9542462195227772,3.0266916340181433,0.579742979,-1.6406452005373546,0.068314641570884,0.2109510602004866,-61.38577296250092,2.284252534897533,4.669714996902972,0.0847490606694594,-0.0602513366058477,-0.6893961138321966,0.2178330881591552,0.0977361295245389,0.0268485289242459,63.674700742466925,-19.64895026529786,25.10709425840168,-0.0002128590310254
136,1724914230651148086,-0.2075787037611007,0.132184088230133,0.1880881488323211,0.0255498029291629,-0.0348275378346443,-0.3387087285518646,0.9398992657661438,0.0,0.0,0.0,3.310472123343583,-0.2706890038397596,1.5830800275249053,0.590413128,-1.237520270205829,1.0979340302988685,-0.4704757373363694,-2.2382825936914372,21.479732850539506,-16.043257798870382,0.0717660583242963,-0.0481795093545321,-0.6934908587020188,0.2596002451182375,0.1060337242864388,0.0659654560076816,-128.5822766758755,-115.69092469842823,-205.60093645468288,0.000384729795744
138,1724914230660080862,-0.20500248670578,0.1331525444984436,0.1887412071228027,0.0201561208814382,-0.0293825902044773,-0.3399329483509063,0.939774453639984,0.0,0.0,0.0,1.193278213499127,-1.310791229673863,-0.7792797337119262,0.599345904,-1.5567874357132296,0.7288192645774801,-0.2561772331782074,17.236003106488432,2.004418726640658,14.818125737038091,0.0579429974574818,-0.0415344970449059,-0.6953544009801468,0.2846556542669649,0.0957759678084322,0.0645299593379977,-185.65189968565664,-59.47512823892099,-209.3213510186554,0.0004564794467082
140,1724914230670148732,-0.2021791040897369,0.1339733749628067,0.189293548464775,0.0186097342520952,-0.022152891382575,-0.3409118056297302,0.9396499991416932,0.0,0.0,0.0,-0.0930236998970812,-1.2632256065989491,-2.2610333102755074,0.609413774,-0.7821158454183237,1.2406262164632371,-0.211066906446097,8.63059674605934,6.673697832275138,9.060755839524452,0.0501196071884183,-0.0289474151169847,-0.6968026547176269,0.278382198103273,0.0807355887528826,0.049665123052506,-41.109271938021095,52.23160773920351,-82.83842317068482,0.0003817401232828
142,1724914230680501175,-0.1993190199136734,0.1348007321357727,0.189752385020256,0.0131919709965586,-0.0155560215935111,-0.3413145244121551,0.9397278428077698,0.0,0.0,0.0,0.4038296794799034,-0.2167848415836277,-2.433731012032693,0.619766217,-1.4199782727791883,0.8396084306810502,-0.0685101577539927,-14.46706050223915,-34.980607256183234,39.41886928744843,0.0354273772353486,-0.0202330110683245,-0.697139674013467,0.2830620452573775,0.0701136477056465,0.0179061055529281,-30.782742059478085,71.67757903495632,100.65058305734944,0.0003373516642951
144,1724914230690366619,-0.1964626461267471,0.1354002505540847,0.1896806955337524,0.0088514778763055,-0.0112515557557344,-0.3387554585933685,0.9407655596733092,0.0,0.0,0.0,-0.6404621999333457,0.2139093488158621,-0.3376847193261687,0.629631661,-1.1194508011080104,0.5298200302283844,0.5615053222429756,-1.0597278494971505,-21.961158005054028,9.350106481912215,0.0242825643233277,-0.0151737616698514,-0.6914457199559352,0.286592645052421,0.0755829912586927,-0.0001428123076632,-37.20281519007111,8.774042440380565,135.40161840483023,-0.0001546739840195
146,1724914230700548211,-0.1935755759477615,0.1363254636526107,0.1897540986537933,0.0025462070479989,-0.0067929970100522,-0.338408887386322,0.9409711956977844,0.0,0.0,0.0,-0.2978734166419841,-0.0633009628287322,0.2311634822536116,0.639813253,-1.46147350428194,0.4054169515506325,0.083912585285337,37.87210935646079,-9.773698131412177,-31.780709340433532,0.0093901484979001,-0.0110609363885692,-0.6905218716745015,0.2695813171665691,0.074183159455802,0.012094916392856,29.042397461089603,-1.4696596460934703,-32.73477882031776,3.1331993668943354e-05
148,1724914230711306989,-0.190834105014801,0.1369338631629943,0.1899397671222686,0.0019238103413954,-0.0046914806589484,-0.3388478755950928,0.940827488899231,0.0,0.0,0.0,-0.0377707601747516,0.2137100157792559,-1.1283454508260142,0.650572031,-0.2415600213590357,0.3280572983210405,-0.0860376288627189,81.37125426475369,-7.435514148823721,-12.272684178205395,0.0067995886753416,-0.0075240608318792,-0.6914189461264334,0.2819848470623558,0.0743455107892003,0.0035454276171531,-227.83871895242828,-16.607386259494763,85.59757173074547,0.000157615660842
150,1724914230720205253,-0.1881249547004699,0.1377263814210891,0.1898704022169113,0.0033528457861393,-0.003973510582,-0.3395487070083618,0.9405741691589355,0.0,0.0,0.0,-3.919838171771074,-0.2457767368299586,1.1932439839496385,0.659470295,0.2468779518852489,0.2600900350493469,-0.1693102935453112,38.453430107551966,-24.965739121916737,14.67183614240414,0.0090058444340495,-0.0051978773316019,-0.6929073127105185,0.2728862066332631,0.0777088996977219,-0.0089506982226907,-358.6673358678328,-35.66069922060371,318.50364468513885,-9.863993948478428e-05
152,1724914230730094052,-0.1857734024524688,0.1383700370788574,0.1897691935300827,0.0051270383410155,-0.0055512115359306,-0.3384262025356293,0.9409626722335817,0.0,0.0,0.0,-6.613778374899773,-0.4228363361796234,4.975863452532895,0.669359094,0.4464897506133248,-0.1772131621773044,0.2398581351661241,-9.384699181553389,-4.482455279364139,-16.320443613313138,0.0134067821768604,-0.0069767740493364,-0.6905551625252822,0.2022833369884793,0.0684235985556727,0.0313953790067031,-63.12074311584871,-18.219772216914627,131.73825500858038,-0.0001377161863386
154,1724914230740182625,-0.1840981990098953,0.1390946507453918,0.190514400601387,0.00568533455953,-0.0047331978566944,-0.3408803939819336,0.940077543258667,0.0,0.0,0.0,-5.096353568796848,-0.6098869144830719,3.723818442886392,0.679447667,0.0474622115354127,0.1865806263862798,-0.5186356062700953,-38.107847617443014,-10.553102109320823,-19.88335679156368,0.0139168441867601,-0.0050231289803719,-0.6957612296012743,0.1409725414873008,0.069470044757284,0.0908155420942211,116.8002647862703,-27.208868312075047,-225.4111469003317,0.0007183171156085
156,1724914230750148384,-0.1829401701688766,0.1397637873888015,0.1915863007307052,0.0035581970587372,-0.0059561752714216,-0.3417049646377563,0.939781665802002,0.0,0.0,0.0,-4.263221783078936,-0.966375862682642,0.4801255766903045,0.689413426,-0.3180903464927331,-0.3774687867550557,-0.1723898765655927,-7.092297923783045,-22.33506787485011,20.59956847078332,0.010758986727782,-0.0087634136040028,-0.6975255753657694,0.0998399010570931,0.0563669402637181,0.1066028695151217,32.443678020028045,20.377260704474978,-262.8765516396834,0.0010542654406554
158,1724914230761332448,-0.1820289045572281,0.1402589380741119,0.1927665621042251,0.0030485112220048,-0.006940446794033,-0.3423376381397247,0.9395464658737184,0.0,0.0,0.0,-4.542441109550724,-0.0337365267523872,-1.6741001949608387,0.70059749,-0.0260360393907718,-0.1972117793547581,-0.1195282735420493,-4.8285802301497895,13.282622052036295,-2.228536265456256,0.0104812090041641,-0.0109547233547104,-0.6988858557389666,0.0504549731742027,0.0499322654983505,0.0981155881360109,26.47100488650773,64.28191901997745,-136.01937478222885,0.0011658557001931
160,1724914230770525024,-0.1817995011806488,0.1407607048749923,0.1936124712228775,0.0015890480717644,-0.0068759168498218,-0.3431797623634338,0.9392432570457458,0.0,0.0,0.0,-3.9104630717645694,0.4128047742242773,-2.496844041525928,0.709790066,-0.3042117587987905,-0.0965283108157978,-0.1925645273230869,-22.346179574444857,7.565271790842512,-2.751669009906613,0.0077049713992144,-0.0118259344413665,-0.7006641083836608,0.0077402528168439,0.0537143582036536,0.0758111091087592,9.808466351088072,132.6990416096805,-56.28122921421388,0.000843481850132
162,1724914230783058983,-0.181996688246727,0.1414190977811813,0.1942856609821319,-0.0011762965004891,-0.0062595638446509,-0.3440122604370117,0.93894362449646,0.0,0.0,0.0,-4.794807087629341,3.513697717190524,-2.634550045682276,0.722324025,-0.4490359634574473,-0.0595961766023449,-0.1382980691713471,29.627399669502925,3.1898430696245033,-4.217879016873365,0.0020979483480367,-0.0125644065402375,-0.7024013538335132,-0.0286919071785423,0.0589119474927803,0.0433111670473653,6.977275331365547,64.26300495965415,8.659860899123998,0.0006795833215298
164,1724914230793796220,-0.1824239641427993,0.1421103626489639,0.1946550607681274,3.933436892111786e-05,-0.0068354862742125,-0.3453248739242553,0.9384583830833436,0.0,0.0,0.0,-4.006735237571314,2.5192037976857566,-2.3608572022221264,0.733061262,0.2478749525042221,-0.0231083931839239,-0.262206345121425,-1.088577487204279,-34.834638089945884,21.58432283860976,0.0047951655708397,-0.0128028222747131,-0.7052177910839484,-0.0975420514943614,0.1251443357219948,0.0146407481927504,397.0613797218506,-486.3727774091832,96.27433333978732,0.0003780710448212
166,1724914230800008097,-0.1832374185323715,0.1431061178445816,0.1946749836206436,-0.0003532274859026,-0.0079382881522178,-0.3453510701656341,0.938439965248108,0.0,0.0,0.0,-0.3770526838520776,-1.9171466744038868,-1.5084288113144977,0.739273139,0.0039420021848769,-0.3768979860970113,-0.0090850123953045,-13.273675810924695,-35.12901323505484,11.509459703892045,0.0048205984584847,-0.0151437675186523,-0.7052854498132226,-0.1137863747058585,0.1276785881720537,0.0010870572012997,384.7482448718447,-537.203329955493,70.92380052628576,3.796157469596795e-05
168,1724914230810366636,-0.1841195821762085,0.1438652276992797,0.1946496218442917,0.000545599090401,-0.010271456092596,-0.3472550809383392,0.9377143979072572,0.0,0.0,0.0,0.1612385286212436,-4.424958355404768,-1.919009252848063,0.749631678,0.3154664860806863,-0.3637992837704054,-0.3949079198170341,27.26069502635906,1.3911675574577724,-33.73041635209926,0.0081584082324602,-0.0188855830369066,-0.7094011594711572,-0.07903472037258,0.0676574378058583,-0.0029050320109049,309.4564978683385,-247.43494009469433,182.8271652507153,-3.390215575886047e-06
170,1724914230920797187,-0.1856327950954437,0.1447132378816604,0.1937912255525589,6.859321729280055e-05,-0.0136961005628108,-0.3462088704109192,0.9380574822425842,0.0,0.0,0.0,337.4733186665153,-38.028989287816785,280.1733222700518,0.860062229,0.013628272788104,-0.0610861092834652,0.0200479391110878,-3644.8983695371535,-52996.22568115778,-6377.691919320403,0.0096154230093001,-0.0256507768421388,-0.7072466425675248,-3.821040968332227,1.1911820485227054,-2.0203210651957875,769028.9910447429,-283845.6975064542,367918.5585292971,-0.0008111867612106
172,1724914230921322557,-0.1876497715711593,0.145342007279396,0.1927247792482376,-0.0029398349579423,-0.0204304214566946,-0.3470313549041748,0.9376264810562134,0.0,0.0,0.0,743.4125806901395,-187.86169578753288,474.3798979878971,0.860587599,-1.9103953270472345,-28.036180501507346,-3.3465500627961857,1746.780593189506,-19493.756374566263,-1335.460005064925,0.0086742333112359,-0.0403635974750972,-0.7091406129260982,-3.6428144245761302,1.1710822782389272,-1.8723804715262984,456362.81049517146,-206488.15578371097,170086.06598269034,-0.0009799959619841
174,1724914230921961248,-0.1898239552974701,0.1460699886083603,0.1916512101888656,-0.0035008192062377,-0.0250829383730888,-0.3470700085163116,0.9374972581863404,0.0,0.0,0.0,789.28668319497,-258.63177701922837,428.0546573946557,0.86122629,3.405108132279434,-14.277729388993444,-0.2608570504187136,6136.666572670436,17363.975310164806,3706.656192494445,0.0108605601088185,-0.0494806189635565,-0.7093964635789523,-2.8541816925659944,0.9349364012984084,-1.4197080553059005,-816090.8449679896,6413.619144338234,-381205.5632959916,-0.0009577691727459
176,1724914230923806533,-0.1921588033437729,0.1467030048370361,0.1904238909482956,-0.0022977525368332,-0.0299655888229608,-0.3464753031730652,0.9375775456428528,0.0,0.0,0.0,-5450.41280457549,378.134471313288,-1921.0233914994265,0.863071575,3.075612999125739,-4.508779035005631,0.58324895432206,3461.3759427447503,-14882.08803416845,8130.502212999517,0.0164843178071655,-0.0578145578251929,-0.7084326004638796,-3.772713009444203,1.0500112392939798,-2.126308000902469,3600478.736479705,-877655.7487385513,1925015.7472658504,-0.0010817525617168
178,1724914230924373318,-0.1947336345911026,0.1474212110042572,0.1889643520116806,-0.0024621209595352,-0.0348902121186256,-0.3446773290634155,0.938069462776184,0.0,0.0,0.0,-2194.2368392193457,-332.17298082290154,-273.20867066852225,0.86363836,5.671144662492444,-16.456174863030714,6.527297376116168,30903.054889601313,-66428.94611454036,-26076.579016287844,0.0194776492748008,-0.0672067408341765,-0.7048945183449741,-7.724129305449139,1.3193050195127969,-3.4828829833103327,8801344.514393324,-897210.6084253637,3403629.5436096443,-0.0012712006842708
180,1724914230924643763,-0.197233110666275,0.1477847397327423,0.1879052817821502,-0.0021040102001279,-0.040812149643898,-0.3452406525611877,0.9376240968704224,0.0,0.0,0.0,580.4481662346216,-528.8777800802029,711.3343715835856,0.863908805,17.425645552503326,-40.27368250991918,-5.2433521687439955,25354.702353387333,-48897.16918961328,-28289.53691054702,0.0243109117624981,-0.0780649552130997,-0.7065550101995347,-7.7010530576036444,1.1252931046293495,-3.2831645989257794,5308853.369908579,155604.43155361974,1539468.974986236,-0.000856193254993
182,1724914230925304327,-0.199833795428276,0.1481748968362808,0.1867576241493225,-0.0016466655069962,-0.0442796237766742,-0.3449644446372986,0.937569260597229,0.0,0.0,0.0,-3900.574725946241,998.4763167186644,-1661.548465918716,0.864569369,4.95663614801644,-9.374148310656382,0.6481935844058618,-3136.136434599801,-41586.12607284901,-1845.2250483047137,0.027563346275068,-0.0842662010879722,-0.7062866030309451,-6.518785154953491,1.0800716043978014,-2.857081324011176,-3448627.649154951,1681346.9193996144,-5212104.195630822,-0.0009170457241893
184,1724914230925623205,-0.2023099064826965,0.1485946476459503,0.1856742054224014,-0.0026747903320938,-0.0500470846891403,-0.3451427221298218,0.9372111558914183,0.0,0.0,0.0,-4486.896102800014,1437.5116602121725,-3572.9308370274375,0.864888247,6.379536873689371,-36.237205142912416,-1.597181281272514,-11277.26772761214,-31254.44122898936,-20136.86655273432,0.029673490398017,-0.0958022202851146,-0.7071298490676222,-8.638531853049358,1.5627012155215994,-3.7419730712913406,11520437.329190878,-1596361.666665648,957720.184798894,-0.0008336597782443
186,1724914230925900373,-0.2049146592617035,0.1490871310234069,0.1845540851354599,-0.0042099994607269,-0.0541983246803283,-0.3464728593826294,0.9364835023880004,0.0,0.0,0.0,1924.600870866434,278.7726050235369,-1632.6954698591926,0.865165415,-0.5380178339778311,-32.13440069896097,-10.333333851335402,18772.904166897468,23440.816590554357,-13093.208544650002,0.0298388589723881,-0.1046197193109364,-0.7102733197202264,-9.361632724586173,1.942820948868075,-4.924503687239678,19954946.94832714,-4472662.040369164,10259175.044448975,-0.0008343067253993
188,1724914230926156319,-0.2073021978139877,0.149623617529869,0.1830849349498748,-0.0034634917974472,-0.0577378645539283,-0.3474741876125335,0.9359038472175598,0.0,0.0,0.0,6281.056788421659,-935.0069327824044,1763.351193970444,0.865421361,14.60257985279507,-24.093182162217992,-9.329491985097476,34579.52504992219,26104.24274347303,5315.332507732797,0.0338555281454673,-0.110707127607117,-0.7128713555707109,-7.797553159574179,1.7559205483909397,-4.719894405740675,12212675.247752491,-3591444.6390853827,10439825.00445613,-0.0011820305835339
190,1724914230926851950,-0.2098323404788971,0.1502019464969635,0.1817304342985153,-0.0078758969902992,-0.0619986392557621,-0.3485807776451111,0.935192883014679,0.0,0.0,0.0,5685.754227037879,-1257.420245973621,3677.402151017565,0.866116992,-7.807105581711344,-15.979992940868058,-2.9978476590265877,-25979.74125874629,10443.387416895988,7576.962196618654,0.0287085372862375,-0.1217527269530374,-0.7153200438011137,-3.106691106025176,0.7183477252402533,-1.670809852682705,-984324.8432863024,-319000.4005942472,2076514.7401796312,-0.0010308967935691
192,1724914230930068644,-0.2119347304105758,0.1508314609527588,0.1804664134979248,-0.0059833140112459,-0.0635775849223136,-0.3504053354263305,0.9344186782836914,0.0,0.0,0.0,607.3531003470762,-134.4457869364553,316.41216292531806,0.869333686,1.3685495632730238,-0.5288226446894854,-1.3093937574618837,2127.1334086362963,3604.164162242336,429.5487331503621,0.0336357492772063,-0.1233216826807745,-0.7196150943258596,-0.5480481306599545,0.1562543042823199,-0.3399666975429465,-1204176.428468584,266233.1330724809,-794805.0544956664,-0.0009776417619469
194,1724914230939893920,-0.2141521275043487,0.1511828303337097,0.1787164211273193,-0.0056156776845455,-0.0695204883813858,-0.3499841094017029,0.934155523777008,0.0,0.0,0.0,17.720988397715388,-5.7933391142225625,11.5742843227953,0.879158962,0.4989493074336553,-1.1080786576566215,0.0493541422535782,-79.07527119172998,-19.395276059530516,58.73159593641644,0.0385262450399353,-0.1342193191519995,-0.7195224458878785,-0.2248917214329999,0.0446325685129425,-0.1517340142920247,-31398.438828962702,6954.480544326238,-16250.943239994856,-0.0014328888585582
196,1724914230950115848,-0.2164425402879715,0.1517333984375,0.1774459183216095,-0.0081281308084726,-0.0733797550201416,-0.350966602563858,0.9334729909896852,0.0,0.0,0.0,1.0594415989213548,0.0032619838265197,2.5838007559801017,0.88938089,-0.2090557192431374,-0.885626775124663,-0.1963783101466099,-11.030227535122062,19.64626226552751,-10.773490157162964,0.0367168385329146,-0.1431902580312602,-0.7218916336997399,-0.2050686549913472,0.0446197905647309,-0.1140722928631587,-897.0837035682284,278.80937613729,-518.1561046579028,-0.0009192296744551
198,1724914230961245569,-0.2184946537017822,0.1521180123090744,0.1763001680374145,-0.0074752089567482,-0.0777141079306602,-0.3515870273113251,0.9328941106796264,0.0,0.0,0.0,-0.0435042805882925,-0.3869103150941009,1.1960346402429902,0.900510611,0.3738577450897488,-0.6926108593703514,-0.1555221075835145,21.642641666863423,46.49650227398003,-8.326177636521816,0.0411783750105338,-0.1508256296855998,-0.7239436491206814,-0.2039392296489737,0.0447107729956588,-0.0986525792133292,-9.65611370445326,-47.023492145824775,-65.84344229834204,-0.0008186348639013
200,1724914230970382673,-0.2205047756433487,0.1526027023792266,0.1754309684038162,-0.0059861578047275,-0.0784819275140762,-0.3528340458869934,0.932369589805603,0.0,0.0,0.0,0.539200166013023,-0.9063339115476988,1.0358390189821658,0.909647715,0.3410819480108674,-0.0490755597768133,-0.3215922493120832,-13.823604378312304,1.0303662682424104,4.377770535221805,0.0447444608946184,-0.1511474160754546,-0.7269325851723869,-0.2054242815304174,0.0382119068657074,-0.0891451638284976,50.62612101062832,-23.437704098600086,-63.008481329311394,-0.0005404894677233
202,1724914230981184186,-0.2225376069545745,0.1528260260820388,0.1745444685220718,-0.0074454322457313,-0.083250306546688,-0.3527050018310547,0.9319942593574524,0.0,0.0,0.0,0.9181594618348594,-0.7328803266212762,-0.2254366192160724,0.920449228,0.0610551861353815,-0.9241302478386016,0.0136776754287909,4.126220564805131,7.79094244816957,3.674629612498663,0.045451565618474,-0.1611259743352479,-0.7272387379961615,-0.1906396367557192,0.0259312224971086,-0.0780164132723406,76.00218770370661,29.59660859003463,-74.87236550436494,-0.0005531261514872
204,1724914230990077500,-0.2242508977651596,0.1530951261520385,0.1738803386688232,-0.0063922959379851,-0.0846016183495521,-0.3532182574272156,0.9316859245300292,0.0,0.0,0.0,1.893683344621264,-0.3705377068811485,-0.5845280059779814,0.929342542,0.3177908827373203,-0.2046067323509248,-0.1540117724399123,-0.1134642737590309,28.676397797151985,-6.637593155598186,0.0485153522517019,-0.1628792589375303,-0.7287116007721176,-0.1857735286159716,0.0223721089340225,-0.0892160365716367,82.74483069657765,16.900856275182917,-0.17427691306656,-0.0003729266983757
206,1724914230999792634,-0.2259827405214309,0.1532287746667862,0.1728592962026596,-0.0071386815980076,-0.0867935568094253,-0.3536005914211273,0.9313337206840516,0.0,0.0,0.0,2.411574730517585,-0.4593806250191915,-0.1595465392953063,0.939057676,0.0091070701898958,-0.4803203488544991,-0.0888276196488526,-19.212713510076288,-11.989923272810866,4.489131538926492,0.0487853479644239,-0.167498129256276,-0.7298154193776896,-0.1530856777850893,0.0190870994303979,-0.08773319280363,-18.083929563575367,-21.96468457134692,12.270572860823991,-0.0007243350257302
208,1724914231012195903,-0.2274828255176544,0.153549924492836,0.1720460951328277,-0.0080871200188994,-0.0888640657067298,-0.3539941310882568,0.93098121881485,0.0,0.0,0.0,1.0567743165288324,-0.934820005825462,-0.5057436219375697,0.951460945,-0.0302908239435884,-0.3694975378216917,-0.0683084421777787,44.7034373988106,-37.961552641702546,24.67433599913556,0.0485929439157333,-0.1720344682270347,-0.7309004063234772,-0.1382661195218091,0.0114693010943618,-0.0946555063953376,-261.1471049460671,28.622287613349332,-98.11976436973052,-0.0005355928685846
210,1724914231020625547,-0.2287476062774658,0.1535639762878418,0.1710815131664276,-0.0071821887977421,-0.0935398340225219,-0.3526589870452881,0.9310373067855836,0.0,0.0,0.0,-2.0149468833549444,-0.3099613802068344,-1.7350831806912002,0.959890589,0.6208490966993896,-0.9581722334193804,0.2715700624684442,62.74718685138127,-55.53684072969637,32.78883404976031,0.0534929860830061,-0.1802178272505692,-0.7289968065955666,-0.1301487049112751,0.0017521207849883,-0.0986187702799131,-6032.674652764124,813.0243350104557,-3933.552683094657,-0.0007325977078916
212,1724914231064538927,-0.2299125790596008,0.1536604017019271,0.1703672409057617,-0.006911854725331,-0.0965884998440742,-0.3527448177337646,0.930695414543152,0.0,0.0,0.0,-1563.6188726249666,204.42470780670936,-1040.9577069045329,1.003803969,0.059951950143235,-0.1263601192642582,-0.0112797531280385,705.2689600001177,-2535.3445207656114,-968.568308230532,0.056273528347183,-0.1857311820908957,-0.7298092513585737,-0.8998648547180892,0.1809364597554861,-0.4641793784408889,1649146.0301256632,-193556.4754846703,1027674.8841694827,-0.0004892968818818
214,1724914231065620306,-0.2309089303016662,0.1538608223199844,0.1698533594608307,-0.006991621106863,-0.0982304215431213,-0.3532350063323974,0.9303370714187622,0.0,0.0,0.0,264.5955035187326,-10.161616551940142,98.34473585059914,1.004885348,0.8417359093098091,-2.9360471888013486,-1.0842899117367293,9964.495832556917,-37820.76546112877,14786.257048278738,0.0574398047443051,-0.18883443385383,-0.7311844616257582,-2.631900712366928,0.4073320651694985,-1.6173474321046797,3723516.736584284,-481809.4395953778,2398824.087412258,-0.000310211685505
216,1724914231065875498,-0.2316835820674896,0.1539781391620636,0.1693718433380127,-0.0072323237545788,-0.1001506522297859,-0.3527397811412811,0.9303184151649476,0.0,0.0,0.0,1337.2318303138516,-150.18078553365314,791.5198673502384,1.00514054,3.941141134746621,-14.708779533413912,3.6392607073447407,8554.301300359399,-23800.695131886012,13247.161494540997,0.0583084595451936,-0.1926354393463389,-0.730461326591343,-2.451986243588692,0.3915189464528481,-1.5221080306169483,3437003.4686899525,-458659.1098609652,2237892.373826228,-0.0003215395245732
218,1724914231066367201,-0.2323363423347473,0.1541060358285904,0.1689690053462982,-0.0067298635840415,-0.1017544120550155,-0.3514309823513031,0.9306434392929076,0.0,0.0,0.0,2301.2639048896112,-290.4164493542058,1438.6601250252097,1.005632243,4.745082179558482,-5.25391907919357,5.167053818035837,1331.3247325255545,17220.4561819624,2633.610076505673,0.060173397090022,-0.1953647071189886,-0.7280325379406801,-1.1954968765956622,0.2340984959949157,-0.7366007627090809,1682592.9934407547,-246299.82348128824,1132247.1365140271,-0.0002631691091724
220,1724914231070288264,-0.2328948825597763,0.15421062707901,0.1686657071113586,-0.0063749058172106,-0.1030339896678924,-0.3500763475894928,0.9310155510902404,0.0,0.0,0.0,206.05290361154377,-39.70458703075751,128.86714271940468,1.009553306,0.469447524707802,-0.5291115413326507,0.6869176376660813,-817.8973710694798,914.2795560468315,-864.6808780645003,0.0615040931697795,-0.1975992858367063,-0.7254198469290235,-0.1179699526892434,0.0251863126182692,-0.0629281391044265,-401930.48772469064,48439.99389189318,-251257.1763381213,-0.0001833829210106
222,1724914231081662059,-0.2334291338920593,0.154448002576828,0.1684258133172989,-0.00499450834468,-0.1018710955977439,-0.3498836457729339,0.9312243461608888,0.0,0.0,0.0,3.26983622809107,-0.1246382117371077,2.289172210432014,1.020927101,0.158127641791922,0.2789221191703657,0.0206946027983269,-22.619630395178977,30.328789005791265,-30.034457134851827,0.0632166973943614,-0.1944477097325175,-0.7249787539898186,-0.0426202244474733,0.0214555042178581,-0.0139411306354579,-9107.007580370657,1741.9871916820532,-5717.76116027151,-0.0001162769556311
224,1724914231093248332,-0.233871579170227,0.1547034978866577,0.1683486849069595,-0.0049547716043889,-0.1009657680988311,-0.3498644828796386,0.931330382823944,0.0,0.0,0.0,0.6964619857811742,-0.4538881083378863,-0.0920621463941882,1.032513374,-0.0478624524053038,0.1497759643000352,0.0095663355271933,25.86220115605646,-15.012639014124828,-2.2459553045252125,0.0626190774721275,-0.1927227789939794,-0.724754881414623,-0.0443333426966603,0.0224118455130764,-0.011234089806333,-2.159255390985919,-50.01982458582875,-71.19266585198143,2.6530773199138835e-05
226,1724914231099652061,-0.2341772317886352,0.1548482924699783,0.1682605445384979,-0.0040952474810183,-0.101151667535305,-0.3498049080371856,0.9313367605209352,0.0,0.0,0.0,1.461098749369954,-0.8506603757453972,-0.0725235572755047,1.038917103,0.2722123815153088,0.0399554443810283,-0.0093659216611026,28.87280654949289,-15.33219526092211,-1.55308934724966,0.0643707580006925,-0.1924636234571249,-0.724799318279639,-0.0368850559280105,0.017606665122436,-0.0129764084068364,68.363565368261,-31.25551995581924,16.478967233048007,-1.8269557655026768e-05
228,1724914231110196717,-0.2343778610229492,0.1549470573663711,0.1681373864412307,-0.0032289875671267,-0.1019819006323814,-0.3496974110603332,0.9312900304794312,0.0,0.0,0.0,1.2957234143600411,-0.647115993008535,0.3343929007387,1.049461759,0.2101313578222093,-0.0901635258540526,-0.0013758924884685,-8.872410657093297,-9.460895244123684,0.7000727295714884,0.0666015095414706,-0.1934113929597435,-0.7248775077248741,-0.0163043321785547,0.0068954124020388,-0.0102762106823242,-32.15751012674842,24.973874988377595,30.506445564539614,-7.529897600860679e-05
230,1724914231121629816,-0.2345305234193802,0.1549952626228332,0.1680372953414917,-0.0031759091652929,-0.1029909178614616,-0.3496209383010864,0.931207835674286,0.0,0.0,0.0,0.7238429415075188,-0.2912898282885515,0.582971290943122,1.060894858,0.0716893172213253,-0.1626428002345657,0.0059133341430253,-15.069239227978212,-2.6912033986670973,-0.091807551213449,0.0674323679004441,-0.1952712409329114,-0.7249356145438443,-0.0096227897852205,0.0040672144856337,-0.0054821742121706,-16.43734046708274,5.923442609778505,11.108371091184525,-6.526562348291638e-05
232,1724914231130246801,-0.2345892190933227,0.1550293415784835,0.1680113077163696,-0.0037308055907487,-0.1035248339176178,-0.349651426076889,0.9311351776123048,0.0,0.0,0.0,0.8003039209425367,-0.4039030022724313,0.6096317252573802,1.069511843,-0.0773881784088488,-0.1621394299977603,0.000385375570434,-8.204870513157926,4.143751979495951,1.522293995939192,0.0667834629322973,-0.1966654917077526,-0.7250278218610767,-0.0024798541162578,0.001271932009236,0.0006041678521917,-4.660584265631524,-3.834659991653675,-3.676337523505442,-1.156306035952798e-05
234,1724914231140626063,-0.2345608025789261,0.1550090014934539,0.1680628359317779,-0.0041135163046419,-0.1037642285227775,-0.3494673669338226,0.9311760067939758,0.0,0.0,0.0,0.5827307726210024,-0.3282599206649238,0.486832412438191,1.079891105,-0.0488365599615188,-0.0680556940774707,0.0432375351600236,6.593296336555868,8.058257705235926,6.196972320504292,0.0661965554756028,-0.1974001124740545,-0.7246190516385891,0.0054687436949816,-0.0039143231722622,0.0057229135171557,-23.637667588328107,18.666998951718117,-13.514454373898973,4.337622237704204e-05
236,1724914231150086051,-0.2344855219125747,0.154955118894577,0.1681235134601593,-0.0039675515145063,-0.1038412228226661,-0.3489171862602234,0.9313743114471436,0.0,0.0,0.0,0.3360513007577375,-0.053558283123333,0.344472750247339,1.089351093,0.0466661708725684,-0.0005013878802708,0.1196943181117502,-0.7310177164976817,5.483674813883415,3.642011643976327,0.0664120584353223,-0.1974798509182365,-0.7234671139486337,0.0094027906039908,-0.0055416966690646,0.010273694602862,-24.9921890253602,21.850158052506178,-27.23358104673617,4.071115981567074e-05
238,1724914231159990032,-0.2343774139881134,0.1549018323421478,0.1682652831077575,-0.0042966036126017,-0.1035442873835563,-0.3484492003917694,0.9315810799598694,0.0,0.0,0.0,0.0997678720460605,0.088313136546132,-0.0515918048780236,1.099255074,-0.0728313108918881,0.036623746573464,0.1097260551197737,-5.281430114847998,4.491661834489485,0.369598851884219,0.0654691545754512,-0.197189522073914,-0.7223369039585906,0.0119034970165543,-0.0048437568476655,0.0122691432808004,59.38065236530037,-13.34417140698016,-15.32409785241832,0.0001139202948807
240,1724914231170464776,-0.234241783618927,0.1548570394515991,0.1683711409568786,-0.0044573144987225,-0.1029962226748466,-0.3478512465953827,0.9318645000457764,0.0,0.0,0.0,1.643909648204282,-0.3579903111492373,0.0611557916840916,1.109729818,-0.0529951828639305,0.0919057294093946,0.1288423768063067,1.6075969556549736,4.223187741446818,1.3338575755980533,0.064633121092882,-0.1963165978574306,-0.7208998563744029,0.0112565669240048,-0.0037210329738914,0.0089251077367834,-740.7852304959555,37.540497320965656,-383.8144881398627,7.441136841166066e-05
242,1724914231232386641,-0.2341640293598175,0.1548298746347427,0.1684915274381637,-0.0065877162851393,-0.1033047884702682,-0.3471180498600006,0.9320910573005676,0.0,0.0,0.0,-369.3560108517386,31.305075003215904,-168.14212564573995,1.171651683,-0.0581825004089705,-0.0325745348532973,0.0316559003752007,-3884.408429342546,-8169.4759699712195,14564.183771231868,0.0606643504554875,-0.1984524275682313,-0.7190335093080786,0.7374173167206663,-0.1961671368185875,0.1519599586235358,36436.42323856579,686.8996401469776,7340.370617433917,0.0001009064962568
244,1724914231232748163,-0.2338958829641342,0.1547585427761078,0.1685467809438705,-0.0071234279312193,-0.103712111711502,-0.3462440967559814,0.9323669672012328,0.0,0.0,0.0,-356.0938900222588,31.55377488981888,-165.4671934496386,1.172013205,-1.4706802283332698,-3.003258853569695,5.327672604943878,-2046.7736939911224,-5580.177914107133,9719.572527240303,0.0597580239887866,-0.1996521308529585,-0.717138935374488,0.6030826429447558,-0.1847770282363114,0.0908131088247898,217568.9856856966,-42484.27625011617,82817.88515738887,-2.546840133211005e-06
246,1724914231233741886,-0.2336752563714981,0.1546091586351394,0.1684676110744476,-0.0067028366029262,-0.1046012490987777,-0.345453143119812,0.9325640797615052,0.0,0.0,0.0,354.1904172982174,-128.58726813007036,122.83480371337548,1.173006928,1.5767766706246342,-1.3455790114242736,1.5210556310338428,812.2619643535977,-148.1029032304427,-1472.553684378014,0.061034876718748,-0.2010780410611832,-0.71568167580857,0.2915262379852947,-0.1532907940382983,-0.0635907113207281,861849.9517394898,-451587.6906960939,713381.1344714952,-0.0001321151409525
248,1724914231234222750,-0.233518898487091,0.1545347571372985,0.1684407740831375,-0.0065663624554872,-0.1051312983036041,-0.3451085090637207,0.9326330423355104,0.0,0.0,0.0,802.8469670470422,-413.3211016226819,564.36235455268,1.173487792,1.44277570850595,-1.8394218744742885,1.3616676641114844,-15733.723561250474,-4457.018836468233,-698.4239172580274,0.0616062019627694,-0.20200101562212,-0.715069949626888,0.6172147442883897,-0.2524176905959621,0.0602139439585585,-539415.1661962364,-102579.69259507756,328082.97108001076,-6.250433420096937e-05
250,1724914231234466583,-0.2333322912454605,0.1544611304998397,0.1684698015451431,-0.0072114476934075,-0.105330191552639,-0.3450306355953216,0.932634711265564,0.0,0.0,0.0,489.2661016702941,-377.80494260861303,571.3975742058952,1.173731625,-4.304504785931699,-3.3502824413497945,1.1459972614751708,-6214.925216311295,-6487.09910870803,4874.99493852112,0.0605096185696259,-0.2028334776798666,-0.7148361901400945,0.8284982632363835,-0.3788146953479554,0.2357694781093187,-1439305.0425624666,388612.5747090432,-332110.41933692724,-1.3695469108787672e-05
252,1724914231234710322,-0.2331149578094482,0.154350072145462,0.1685557067394256,-0.0076505616307258,-0.105828545987606,-0.3446217477321625,0.9327259659767152,0.0,0.0,0.0,101.11093566427726,-223.8901580551538,402.502461145813,1.173975364,-1.5907100395825255,-5.00229509998335,3.73749611984884,10674.409842429595,-6451.691320759486,10154.03244644544,0.0599494266506357,-0.2041053538444358,-0.7139826454563205,0.8558381040295968,-0.4366512242069564,0.3388393306227293,-1526565.0990255752,606885.0983100893,-666966.307681797,3.2525614996441445e-05
254,1724914231240204375,-0.2328496873378753,0.1543032228946685,0.168732076883316,-0.0074467631056904,-0.1061152592301368,-0.3438133001327514,0.9329932928085328,0.0,0.0,0.0,-120.1349465883589,65.3099329735209,-45.97182602040795,1.179469417,0.1370564969877086,-0.0637364621290352,0.2993875338252826,264.56145328560723,758.1743445275182,-528.7348640042768,0.0603665460528827,-0.2045537591550781,-0.7123273108863711,0.0419776476396376,-0.0074318966551957,0.027924474146853,-35248.64426180149,44382.83727942659,-69939.06613618325,0.0001171413204317
256,1724914231269695064,-0.2326098978519439,0.154257446527481,0.1688942909240722,-0.006942793726921,-0.1060211583971977,-0.3427954912185669,0.9333823919296264,0.0,0.0,0.0,-364.7577140198955,67.29095001175,-258.016485160412,1.208960106,0.0372151032489981,0.0199911771129322,0.0698938060440412,19144.210090759192,12571.608561874826,26137.9974169995,0.0610303188639535,-0.2040903588139981,-0.7101897641452534,0.9314524815996492,-0.109901107669998,0.3532097363446951,-80558.49426253582,8560.558714839222,-25253.632531859213,0.0001083140984193
258,1724914231270034253,-0.2322903573513031,0.1542197465896606,0.1690154522657394,-0.0058077522553503,-0.1057083904743194,-0.3412505090236664,0.9339916110038756,0.0,0.0,0.0,-392.3641840540047,70.2277317821896,-266.65270855707075,1.209299295,6.605419245826439,4.3331758403352945,9.037615016461393,13381.558763022224,7457.1283402816525,16099.769584813692,0.0626208647312508,-0.2028128246533802,-0.7069730739509958,0.8061900182733126,-0.0868006867043149,0.2646437772910843,-65823.4109504984,5868.076333967016,-14854.235981068065,5.348613600492729e-05
260,1724914231270798715,-0.2319081723690033,0.1541953384876251,0.1690582782030105,-0.0034934054128825,-0.1062041521072387,-0.3397266268730163,0.9345021843910216,0.0,0.0,0.0,-415.8640113522517,69.9063595938202,-259.7327222123075,1.210063757,6.526974155852069,0.9728577557085796,3.5318993819583016,-141.71013206519888,-4089.4478930491337,-6711.629500937479,0.0670473249611355,-0.2022455636692331,-0.7041732066258183,0.4665041394672236,-0.0294566827809259,0.051249784236802,-25745.13827958733,-877.9875787017571,10238.740853157798,-3.5016918377424453e-05
262,1724914231280775082,-0.2316072583198547,0.1542232781648636,0.1689483821392059,-0.0035396795719861,-0.1060385406017303,-0.3377215564250946,0.9352473616600036,0.0,0.0,0.0,-22.3637818368482,1.571055126368837,-3.094470318067578,1.220040124,0.0232637937720044,0.0423360820106262,0.4274887500462287,-331.6982294679042,-45.92408039503518,-162.6524032961647,0.0664014090282981,-0.20210852534443,-0.699800779178583,0.0259008248545349,0.0032034689060154,-0.0128873089286365,20834.60285150661,-3516.3103054909625,13055.930722894209,-0.000164201032806
264,1724914231290768313,-0.2313910871744156,0.1542593240737915,0.1688008606433868,-0.0039982222951948,-0.1056199222803115,-0.3364181518554687,0.9357624650001526,0.0,0.0,0.0,-0.4335304764095106,-0.2004194374835032,0.561315137544269,1.230033355,-0.0860968557615866,0.0573706522743991,0.2888099279535458,2.6434543229934255,-7.151319277792819,-13.0777643732274,0.0649437760183049,-0.2017258344630177,-0.6968226887846045,0.0206443294678297,0.0018591794289664,-0.0104329852470694,1127.730591999603,-96.4384119044466,208.52037633294216,-0.0001835431701554
266,1724914231300675706,-0.231196254491806,0.1542605757713318,0.1687400192022323,-0.0039088688790798,-0.1061957105994224,-0.3356029391288757,0.935990273952484,0.0,0.0,0.0,0.2611146192969562,-0.3619462573366382,1.082104933699579,1.239940748,0.0735476528996363,-0.098500023882551,0.1670964110730834,11.234233716709246,-9.21332598016282,-9.997431509145922,0.0653466848433085,-0.2028073766164737,-0.6952010626730902,0.0172574902763678,-0.0007737381992045,-0.0017707555981525,50.7383329525365,-3.170378218606311,40.24632170670562,-9.758976419745696e-05
268,1724914231315049561,-0.2309984117746353,0.1542306840419769,0.1688057035207748,-0.0032957049552351,-0.1071539670228958,-0.3350200057029724,0.9360923171043396,0.0,0.0,0.0,0.586365893329063,-0.1336366577145488,1.4036911625482529,1.254314603,0.1332715606092502,-0.0949753761419591,0.0711020003150802,-12.919042236825106,-19.35729696193475,20.612900888276226,0.0670705008395256,-0.2042371915305052,-0.6942521094884117,0.0335848667059011,-0.0079823088124104,0.0181163930911125,-91.26481568203984,43.65499546523583,-48.23974550203219,2.2591195471096165e-05
270,1724914231322017885,-0.2306974232196808,0.1541551202535629,0.1689777076244354,-0.0038029707502573,-0.1080991551280021,-0.3340205550193786,0.9363388419151306,0.0,0.0,0.0,-0.4343478234858799,0.264382159097272,0.8289980851275589,1.261282927,-0.0144319094392483,-0.2960841935806316,0.3069344453283137,-25.775055928029317,-15.663887780721105,17.323795133384127,0.0665541565816813,-0.206438590138084,-0.6922129589846838,0.0358143995145283,-0.0076708026178646,0.0279657610965511,26.377048744205737,15.944389124342408,20.69101101448921,0.0001018183781513
272,1724914231330881487,-0.2304631769657135,0.1541229039430618,0.1692625880241394,-0.005580049008131,-0.1088456884026527,-0.333018034696579,0.9366005063056946,0.0,0.0,0.0,1.748291274653092,-0.0585028870102419,2.175494956029006,1.270146529,-0.2945130517624357,-0.2861400193200024,0.2742365049956953,-26.108708121137862,1.9108392694330585,-3.894594564986597,0.0634670643916497,-0.2091273763121993,-0.6899024333621813,0.0234602545897032,-0.0028506829290497,0.0287243604006025,2348.428274557598,-1109.310523325308,335.08673289574926,0.0002285503598465
274,1724914231382096992,-0.2301398664712906,0.1542089134454727,0.169722780585289,-0.0053994902409613,-0.1077006384730339,-0.3327093124389648,0.9368435740470886,0.0,0.0,0.0,744.1278806288774,-374.3731568458031,73.54417631381602,1.321362034,-0.0069217877624176,0.0451940426997437,0.0139345206394354,4054.348762722397,-4293.342483779337,24597.091763086148,0.0629313872888634,-0.2068624148476151,-0.689025041117855,1.0428487051832462,-0.1840910429760924,0.7586154592272578,450619.15376754943,360482.3274459044,-1127393.9248094552,0.000392442343596
276,1724914231382435191,-0.2297848612070083,0.1541462391614914,0.1699810177087783,-0.005414371844381,-0.1079945191740989,-0.3313539028167724,0.9372899532318116,0.0,0.0,0.0,897.5008146962155,-251.6370140149943,-310.2602200505369,1.321700233,1.3732968649195247,-1.416412775926267,8.387589901811138,-16698.108518937297,-8222.268673299828,31055.00901755799,0.0628070530127311,-0.2075187302858009,-0.6861628815924199,1.2961294052169023,-0.3115318472515582,0.7836204435521381,781279.7652798644,-249994.41250319817,-2868756.7460507373,0.0001764817901107
278,1724914231382664902,-0.2294486761093139,0.1540549844503402,0.1701641529798507,-0.0063821198418736,-0.1081882566213607,-0.3296448886394501,0.9378640055656432,0.0,0.0,0.0,1128.1110083700269,-404.69140587199945,-1239.7765194538372,1.321929944,-5.704494072141653,-3.913734834343496,16.503509302229244,-3424.976026505231,13176.73814838724,20163.711053021572,0.0607094684290661,-0.2086500421502189,-0.682352408302782,1.5254789004422378,-0.3498037904165869,0.6524064914303835,357966.21764398203,-921936.6465282332,-2979330.897726368,0.000104423808967
280,1724914231382956083,-0.228981614112854,0.1539706438779831,0.1703006625175476,-0.0057588773779571,-0.1071342453360557,-0.3273073732852936,0.938807249069214,0.0,0.0,0.0,993.9243491108264,-767.5006663161159,-1713.4236288134498,1.322221125,3.406670386804707,8.799320736307173,16.776549455696347,11437.710453013166,-3645.574214545294,26240.84359348492,0.0606420641444061,-0.2063887747634508,-0.6772106985195476,1.9018300568200175,-0.5555184637424304,0.0446402682816255,-848710.6540741611,-603204.4861412402,99011.35573018577,3.4347974167596445e-05
282,1724914231383187686,-0.2284862846136093,0.1537930071353912,0.1702328622341156,-0.005868240725249,-0.1072888225317001,-0.3242841064929962,0.9398375153541564,0.0,0.0,0.0,725.9080128054046,-788.7934005927656,-1372.600907078914,1.322452728,2.3985158750102995,-0.7594672223827518,27.515229945656433,-4231.72226887032,-40038.07676667588,44876.78393527221,0.0598661141790556,-0.2069480939338152,-0.6707221490320163,2.077023942580394,-0.7445141424980832,-0.283330140453355,-1126186.9924612497,-85850.28699260707,1433219.8675702754,-0.0001785617961386
284,1724914231390720456,-0.227951318025589,0.1536908596754074,0.1704048812389373,-0.0052639148198068,-0.10745320469141,-0.3223592340946197,0.940484344959259,0.0,0.0,0.0,-153.57375491708777,55.59844613982775,24.899758800562537,1.329985498,0.2207920125521945,0.0264398721420291,0.5185401396573993,-167.9616384791233,58.527990423872915,-2063.6206625224354,0.0607081050496753,-0.2069846557750623,-0.6667259872232872,0.0646808870966175,-0.0126374677085943,0.0316898881209937,-60382.150742818485,61825.55207637861,105283.84729940392,5.363944980779098e-05
286,1724914231400813273,-0.2273842096328735,0.1535757929086685,0.1708444505929947,-0.0046257260255515,-0.1077234745025634,-0.321086436510086,0.9408921003341676,0.0,0.0,0.0,-0.6870994557188528,-0.2074453844860637,2.446244414548821,1.340078315,0.1637289387869252,-0.0022478861322306,0.2493836566152514,-28.282261112588827,-4.250378359454171,-11.185610280030469,0.0618330981027545,-0.2071614234612867,-0.6641603102923398,0.0505047499554507,-0.0135125602878281,0.0541884746419825,7580.990592260398,-2757.153243304895,-1162.7299503710428,0.0003071118536197
288,1724914231410829072,-0.226934865117073,0.1534194648265838,0.1714929044246673,-0.0065004215575754,-0.1074396967887878,-0.3198977708816528,0.9413182139396667,0.0,0.0,0.0,0.0306284525676789,-0.2694659404435389,1.3559108705681635,1.350094114,-0.3444528220222514,-0.058813301303775,0.2912372329296729,-15.167718634309628,17.26468713184712,-3.21336783493088,0.0577773879157719,-0.2079237626774729,-0.6612206240333073,0.0507541723167435,-0.0167903798043091,0.0808471677212256,84.1504493201753,-15.442673075979656,-136.51752283813147,0.0005317493455738
290,1724914231420416445,-0.2263942062854766,0.1532476395368576,0.1724158078432083,-0.0068509830161929,-0.105752520263195,-0.319122165441513,0.9417698979377748,0.0,0.0,0.0,0.9520423531599976,-0.5024140588357295,-0.2067416567715434,1.359681487,-0.1634330793238221,0.3169821793688429,0.1925899424691249,10.375121468659156,20.715799411435643,-4.225681698821951,0.0557882633732114,-0.2049944044336833,-0.6591609053596106,0.0511003637474729,-0.0188434134057393,0.0818635368149864,93.30558740674286,-23.079291654159377,-89.15665742776228,0.0007830300149414
292,1724914231432359061,-0.2258626669645309,0.1530088931322097,0.1731792688369751,-0.0073799896053969,-0.103798508644104,-0.3179314136505127,0.9423858523368835,0.0,0.0,0.0,2.024679701184142,-0.7599202320975409,-0.1731170926193108,1.371624103,-0.1660651242026058,0.2894495652505695,0.2323292609921274,24.99687565025616,13.691036700240367,28.15835770218577,0.0531949259661608,-0.2016938728281186,-0.6561399158436862,0.0760960753768849,-0.0291320562744452,0.0747418480253134,-84.27509246488918,35.35251643886487,2.2251251457000105,0.0006263539054551
294,1724914231440187265,-0.225104883313179,0.1527339369058609,0.1738198548555374,-0.0064334240742027,-0.1022133901715278,-0.3157391548156738,0.943302571773529,0.0,0.0,0.0,0.471649100872511,-0.1911300356149081,-0.1587277867123906,1.379452307,0.159012101792218,0.4787078628085123,0.5801723318414934,29.916647027783707,16.78760920381764,18.256364004594737,0.053480136365756,-0.1981938652340696,-0.651308535089571,0.0915951901769442,-0.0345595997162693,0.0755582493841187,-153.91726852778646,47.56900461364389,32.8272343294927,0.0004630137628981
296,1724914231450328640,-0.2242443859577179,0.1523908674716949,0.1745037138462066,-0.0042859995737671,-0.1000552549958229,-0.3135786652565002,0.944266438484192,0.0,0.0,0.0,-0.5050092065619518,-0.0383502321665343,0.5813224253072593,1.389593682,0.3098781384515122,0.551882007499692,0.4213855573836497,-1.5827953901973426,2.236934378032089,-14.550281216100473,0.0557171881419575,-0.1928385868038182,-0.6466473481770036,0.0765627655703085,-0.0298999583550951,0.0704929888765999,-5.6156486014297755,-3.2601314584029595,36.08519857366679,0.0004855524016897
298,1724914231462653966,-0.2234248667955398,0.1520811915397644,0.1754184067249298,-0.0032147886231541,-0.0971945002675056,-0.3120580017566681,0.9450728297233582,0.0,0.0,0.0,0.7842555252754142,-0.3530353937933324,0.4735146445872855,1.401919008,0.0438192817966103,0.5048774688370034,0.2586316182306149,-65.77907539571984,4.220014339617393,4.65789289040838,0.0555792458280114,-0.1868026908111041,-0.6430538144044354,0.0849775797054483,-0.0378297575506731,0.0938477300718041,79.69927024914445,-12.666536218867003,-79.64414356144485,0.0007278142971083
300,1724914231470346362,-0.2226824313402176,0.1517291963100433,0.1762345880270004,-0.0051168804056942,-0.0942863747477531,-0.3109330236911773,0.9457297325134276,0.0,0.0,0.0,1.277773476805219,-0.3887072612153359,-0.4795121800138373,1.409611404,-0.6743453190311294,0.5759085270817621,0.3802195947400515,-42.57344934282997,-4.724564900675537,11.787694123920824,0.0498027345664165,-0.1825327942135802,-0.6398453318144811,0.0914978218153805,-0.0391515500418284,0.0906664310143252,46.58876829107981,-0.340844329044204,-39.985008778063445,0.0006475388861599
302,1724914231482284260,-0.2216830998659134,0.1513842195272445,0.1770309805870056,-0.0062481826171278,-0.0923508331179618,-0.3085547387599945,0.9466922879219056,0.0,0.0,0.0,1.5084745238954298,-0.3131780032683164,0.597657493443557,1.421549302,-0.2416781922671197,0.2609046434970827,0.4464898853611751,77.6854924367373,-1.4810805577012154,2.3797486144626347,0.0459154015194995,-0.1796766677742517,-0.6342811841987206,0.1147209704281913,-0.0478098613843087,0.0837202749589351,-66.24501860333544,26.397844835143932,-3.3151315535175776,0.000588118942696
304,1724914231490372513,-0.2205852717161178,0.1508938819169998,0.1778013408184051,-0.0035848401021212,-0.0916292816400528,-0.306616872549057,0.9474056363105774,0.0,0.0,0.0,0.5037427002368169,0.0103237723326765,0.0582093004797603,1.429637555,0.613766256158525,0.385409395439301,0.4483580095461142,29.66460250758295,21.369293509928276,-20.436534615487933,0.0502003164550973,-0.1767371997113613,-0.630448540309492,0.1245279214694168,-0.0480846033566777,0.09501803776811,-94.6450021826097,-11.60504970553325,-107.0392375224934,0.0005383301057088
306,1724914231499861032,-0.219528391957283,0.1505772024393081,0.1787004023790359,-0.0024265814572572,-0.0887558087706565,-0.3064959347248077,0.9477218985557556,0.0,0.0,0.0,-0.0650804365891284,-0.6741782814024222,-1.4065114985018954,1.439126074,0.0481636174031217,0.6546925553115299,0.0243913829020405,-22.719525943154547,15.768643434422035,-5.261390231088853,0.0505618966545108,-0.1705446491937943,-0.6298962012091407,0.1214184483630536,-0.0474936250330655,0.0806701066317501,-33.442730514377,-63.792971780170824,17.134605776411696,0.0006899715470967
308,1724914231510001074,-0.2181884795427322,0.1499426215887069,0.179365798830986,-0.0005070515326224,-0.0858307629823684,-0.3044903576374054,0.9486403465270996,0.0,0.0,0.0,-0.1169658728362375,-1.2305904462357358,0.625684737270201,1.449266116,0.217533853760421,0.6779279538804911,0.3982149828170466,-13.43247134017323,1.0937899463409655,18.77618553728087,0.0520275503770461,-0.163886481278708,-0.6254491224392736,0.1236044523112216,-0.0623103431296412,0.0675525998628234,8.791058714758964,-10.455422536574908,164.72670583288357,0.0004040283429333
310,1724914231520520001,-0.216981440782547,0.1492901444435119,0.1800974607467651,-0.0008639979059807,-0.0820497497916221,-0.3026159405708313,0.9495739340782166,0.0,0.0,0.0,0.1272696924504188,-0.8558895782377771,1.9690251924292737,1.459785043,-0.2525998642307241,0.6763646216745708,0.3983239376029494,-18.029271978602864,-11.18680884384668,-15.680675363759184,0.0486353121198838,-0.1569916110300578,-0.6208473940962551,0.1187453518000225,-0.0727383343892613,0.0950776826976849,98.50185195823148,11.086475003300244,-23.733561055533592,0.0005008822667732
312,1724914231530209511,-0.2157951891422271,0.1484897583723068,0.1812465041875839,-0.0010888634715229,-0.0796118453145027,-0.3022030293941498,0.94991272687912,0.0,0.0,0.0,1.7536437880793505,-0.967455021447237,0.3873771551571865,1.469474553,-0.1892981711299183,0.4694486616516072,0.1063356764837655,-3.2648044696589444,-1.0620859078108822,-14.326200581128196,0.0466067861095521,-0.1524971015917947,-0.619586693463495,0.1252375087338677,-0.0798223890851907,0.108375580088337,85.9674961912556,-17.747767338578797,-149.94320982342515,0.0009156685125078
314,1724914231540765297,-0.2144408822059631,0.1476791501045227,0.1822730749845504,-0.0017299995524808,-0.0756064504384994,-0.3016594350337982,0.95041161775589,0.0,0.0,0.0,1.7195016568932484,-1.2264814214295772,-1.042564905161015,1.480030339,-0.3364308473531334,0.6915918959024907,0.1368987378347586,14.547398230558688,28.20957723030628,13.09829586580766,0.0427899988743848,-0.1452686336968411,-0.6177970003733658,0.1562097501278678,-0.092752540201797,0.1011373538326996,-55.269495909759456,3.02110658892974,-78.035400862881,0.0007819668556742
316,1724914231549984752,-0.2127759754657745,0.1466955095529556,0.1832367926836013,-0.0003262462269049,-0.0712183117866516,-0.3001656532287597,0.9512247443199158,0.0,0.0,0.0,0.7909452279681135,-0.9767077828289858,-1.299566523917866,1.489249794,0.027065871274359,1.0093626492170895,0.3398147837332773,-8.74753682300081,10.73317487077218,3.923739310580535,0.0425400354328171,-0.1361049213501344,-0.6142348968352216,0.1622819198165874,-0.1040724831868029,0.0886519849371598,-20.16290017517902,10.005160976407495,5.398998995887325,0.0006860249259687
318,1724914231560454698,-0.2112945318222046,0.1456370204687118,0.1839761734008789,-0.0022424811031669,-0.0660348683595657,-0.2995741069316864,0.9517824053764344,0.0,0.0,0.0,1.5376336721098944,-1.0751178475416108,-0.847397818732869,1.49971974,-0.6373195905801268,0.8395371751679737,0.165854964721251,2.089064375112352,12.038997788725226,-4.118954570286366,0.0355918216375723,-0.1273894987022461,-0.6121382241463131,0.1721363596835665,-0.111312680314592,0.0756956821603562,-63.23300027179093,38.70115981066603,10.28135803595633,0.0005022983552189
320,1724914231570385520,-0.2092964500188827,0.1444353759288787,0.184775710105896,-0.0004954654141329,-0.0602414608001709,-0.2984349131584167,0.9525268077850342,0.0,0.0,0.0,-0.3577131636916597,-0.2377033048358843,-1.0552516543508093,1.509650562,0.0008296832287425,1.2252814402662304,0.2426578449183705,-1.6054279643392917,-2.9571517365292124,7.396036488324597,0.0352538078384791,-0.1153143345883434,-0.609277954997002,0.1930242944383042,-0.1256027503744166,0.0709546469331314,238.3477825790069,-227.90732019092516,-14.549406052742944,0.0005206769018452
322,1724914231580242600,-0.2074737846851349,0.1431522816419601,0.1853816211223602,-0.0025260129477828,-0.0555745735764503,-0.2971625328063965,0.953204870223999,0.0,0.0,0.0,6.190970716692439,-5.539047293987504,-1.1362376071327869,1.519507642,-0.6594096905023079,0.7871633311312144,0.3122566380609556,-57.35649882000059,-39.90436756271684,5.629668759551038,0.028381849087662,-0.1076570187987711,-0.6059339835928165,0.1654195855928437,-0.1161928385920944,0.0548993723945937,5458.487307394987,-1577.5989955571686,2261.993856182802,0.0003632305948405
324,1724914231648213147,-0.2053648978471756,0.1418055742979049,0.186033695936203,-0.0020296999718993,-0.0484895966947078,-0.2964788377285003,0.9538055658340454,0.0,0.0,0.0,2624.204360080961,-600.1113774721016,1216.6559133570413,1.587478189,-0.0468670143845332,0.2039876615922506,0.0241434004722284,-24558.54966955358,24761.631781494503,27850.75317449099,0.0249929544120134,-0.0938404871072495,-0.6039133626362775,4.800506955088224,-3.536261771370164,0.2085347461973583,-1825373.2938361564,1204650.376141966,-108350.23151677055,0.0004125354352951
326,1724914231648667923,-0.2031672298908233,0.1401866674423217,0.1861291378736496,-0.0038412059657275,-0.0452191084623336,-0.2938347458839416,0.9547783136367798,0.0,0.0,0.0,1788.396938197969,-48.57316328350407,1166.996623356196,1.587932965,-11.2902603305358,11.5403544731585,12.774754871841688,24614.02796508115,53425.14367620663,-5110.613909858509,0.0193160611080783,-0.0887221598770228,-0.5979640332010953,6.001709565935812,-3.8108509412068656,0.7655358264316874,744816.1972397873,-590551.654726721,-1261780.2510421355,-0.0001446508190051
328,1724914231649036092,-0.2006090730428695,0.1387088000774383,0.1865766048431396,0.0004910210263915,-0.0389136262238025,-0.2935722470283508,0.955144464969635,0.0,0.0,0.0,2832.3908720712025,-803.4853019779553,358.91408435918584,1.588301134,12.477003970999483,39.703751485745805,1.0133249256106878,10285.716761570366,36069.05891642061,-14252.072027030932,0.0238536551366198,-0.074115805377501,-0.5972733260834054,6.405927761130243,-3.663248754917518,1.1779648146508066,6358460.947174286,-4007558.478948999,-924846.9117070024,0.0002228302582118
330,1724914231649509925,-0.197904497385025,0.1371869891881942,0.1871119439601898,-0.0008827848359942,-0.0305445119738578,-0.2925600707530975,0.955758810043335,0.0,0.0,0.0,7993.536046583409,-3895.8873737487247,695.1787377449473,1.588774967,-15.744099497056384,32.14130410053874,5.050216373205445,-32064.373217081404,53730.465288486506,26960.113481491837,0.016213610958325,-0.0589370224354932,-0.5945697367966585,8.805730425255774,-4.778433126857806,0.8837708683676624,-966060.6605648416,54623.170986849815,2698454.1818909124,0.0003480599050655
332,1724914231649764494,-0.1952391415834427,0.1357562690973281,0.1873032748699188,-0.0013285655295476,-0.0230581499636173,-0.2908797860145569,0.956480860710144,0.0,0.0,0.0,6125.754036457711,-2981.91231517746,1654.1244465655814,1.589029536,-20.14627493461505,55.35088852582975,14.4354979357423,-16119.12871218042,9616.988344259167,3251.78991135005,0.0108839870951649,-0.0448973462408377,-0.5906991689745774,11.241214668698037,-5.981149802154675,1.2407372051467291,-10523134.225534989,5266553.483163692,2330313.5305735553,5.279144043760986e-05
334,1724914231650007504,-0.1923285275697708,0.1342190504074096,0.1877182573080063,-0.0027440660633146,-0.017710093408823,-0.2900848984718323,0.9568331241607666,0.0,0.0,0.0,2829.429429413408,-1313.2331618858702,1887.1516925691,1.589272546,-23.79115323553826,38.769101909994475,7.427719890877252,-14939.856429281266,-67975.40069221264,-28727.155926019295,0.005026821376192,-0.0354906824020745,-0.5888177038624964,11.931527587573926,-6.301541102425688,1.7011375490448464,-13512765.536245689,6840534.175521181,955173.274737722,0.0002968384228009
336,1724914231713067544,-0.1896331459283828,0.1328709423542022,0.1879918277263641,-0.0012375047663226,-0.0108849806711077,-0.2899896800518036,0.9569671154022216,0.0,0.0,0.0,-1672.1625893036908,1717.94582394811,803.2104245101834,1.652332586,-0.0170085643810879,0.2210476344837144,0.0038700956400686,-10537.080083347855,3006.005287865265,38685.07252444281,0.0039454879524705,-0.0215525328590029,-0.5885110194350495,6.302316167262688,-4.099209283086793,-0.7465589103672414,750866.4598995172,-690275.5238650213,2843788.8940005377,0.0002075823569618
338,1724914231713469236,-0.1870855391025543,0.1312138885259628,0.1876900196075439,-0.0020101212430745,-0.010355545207858,-0.2869912683963775,0.95787513256073,0.0,0.0,0.0,-1368.4415806248717,1438.7784127953637,1952.8582721297787,1.652734278,-4.2775960347247155,1.4377917591888023,15.642641886237593,-3257.1840839951947,5552.311948476637,11890.744063250862,0.0020934746612394,-0.0209939551012907,-0.582224317980556,5.62657155980321,-3.404817715697746,-0.4217611539465054,1015419.2578291948,-1259105.9776832308,2161784.9530135742,-0.0003655731349648
340,1724914231713980970,-0.1846727579832077,0.1299411505460739,0.1876890510320663,-0.0018685909453779,-0.0088168187066912,-0.2859923541545868,0.9581895470619202,0.0,0.0,0.0,-679.7639383029782,426.6843675198879,2602.6231551350447,1.653246012,-1.153163185404356,5.924069167871773,4.098600959490745,-10910.230661402704,-42038.710432034626,-25968.01621774141,0.0014623933850081,-0.0179661390022564,-0.5801211533827795,5.1308691036224445,-2.8575302890563705,1.323566361677365,815242.6742421557,-1567651.9278553615,-789004.660742104,-5.0132970201869744e-05
342,1724914231714317387,-0.1828546524047851,0.1288979053497314,0.1884274631738662,-0.0041804634965956,-0.0115410042926669,-0.2868660092353821,0.957892119884491,0.0,0.0,0.0,-522.8358165319236,-9.996813502010797,1881.873184183632,1.653582429,-8.586810369388537,-19.454747433664075,-5.391499788539766,-19950.060051396747,-68415.41307315096,-25624.931742619206,-0.0013878397174738,-0.0245109941432486,-0.5819356148979666,4.966080628762808,-2.8561479370516545,2.0204355573027577,427238.00167575025,-1172549.4469052108,-2008180.9775146272,0.0006870888415734
344,1724914231717855133,-0.1815896928310394,0.1279045343399047,0.189083531498909,-0.0031209932640194,-0.0122463395819067,-0.2866788804531097,0.9579434394836426,0.0,0.0,0.0,-470.8806160282256,510.2476972489876,-228.11374051284747,1.657120175,0.6894610864796243,-0.2102463677413771,0.1010785147463162,3631.086923144346,-15040.80110167636,25990.98373072955,0.0010423963900771,-0.02525473152853,-0.5815778050883649,1.888659979511658,-3.416291172828096,1.6254397561102678,-246319.7979128263,226887.22584308105,117193.4877109367,0.0006155282731281
346,1724914231718155461,-0.1809834390878677,0.1267985850572586,0.1896084100008011,-0.0031029162928462,-0.0130752054974436,-0.2854457199573517,0.9583006501197816,0.0,0.0,0.0,-551.5118430882136,580.4236442237842,-174.72322854089282,1.657420503,1.805703249994795,-5.249584074681721,8.529970501113715,3108.035260466322,-14175.6281208993,23741.559952789612,0.0015180166010746,-0.0268346046736534,-0.5790170890329821,1.757414113375713,-3.246003636350297,1.5539615478885749,-228489.55805483615,133682.7745716865,208020.73207344805,0.0004957376470779
348,1724914231720032685,-0.1807495206594467,0.1258265078067779,0.1902524530887603,-0.0030345723498612,-0.0143780568614602,-0.2833113968372345,0.9589154124259948,0.0,0.0,0.0,-511.2331719055192,-341.78141661146583,570.6854175922031,1.659297727,0.4977580299027304,-1.307887929873321,2.360792588257939,-5312.077951832345,1592.3842425273986,-4272.948144169212,0.0023281396127556,-0.0292983299089675,-0.5745883719594469,-0.6214502219764881,-1.9989698897427388,1.9684455771459284,358358.05463978404,-469070.1974415593,162910.56767069688,0.000624140187604
350,1724914231720480659,-0.1811076700687408,0.1247726827859878,0.1913080215454101,-0.0035870203282684,-0.0143664386123418,-0.2832452952861786,0.9589332342147828,0.0,0.0,0.0,-314.68232563763513,-549.5405148974545,618.6316921759629,1.659745701,-2.37530736193397,-0.6487797842907668,0.3411505883493192,-6138.413811473179,1413.8923834533125,-4324.113343949578,0.0012595779722752,-0.0295892416385336,-0.5744360299311554,-0.7696517143304927,-2.25963175664509,2.2615019753705896,422114.82672436687,-442246.6421239833,99829.87621367596,0.001048419644526
352,1724914231730965722,-0.1818556785583496,0.1238524168729782,0.1917517781257629,0.0003576451272238,-0.0150650525465607,-0.2820515632629394,0.9592809081077576,0.0,0.0,0.0,27.57366761447253,96.68982416544172,-101.40642340614816,1.670230764,0.7627892563683236,0.0854733456431701,0.2258469153333986,133.72441096276418,28.26177090010351,-8.975746469092064,0.0091883220975367,-0.0287054278979501,-0.572062310626164,-0.1072986359280214,-0.0880928911701,0.0236236653448305,13678.65470274737,23501.380384020777,-26665.72449654481,0.000458136625189
354,1724914231740306805,-0.183157205581665,0.1230268403887748,0.1918168365955352,0.0031898620072752,-0.0158920753747224,-0.281294047832489,0.9594847559928894,0.0,0.0,0.0,-2.466320062219672,-1.11356503716685,-0.914154805353108,1.679571847,0.6340793175165484,0.0018896930252933,0.1588239798877105,-14.328865447377364,-29.9164618521665,-6.743989887742357,0.0150687184314276,-0.0287057719331921,-0.570578029258273,-0.1459697129834465,-0.1037949528627439,0.0086695625887118,-1843.0931272949256,-5734.064197053627,5825.098568013464,0.0001047242082185
356,1724914231751494465,-0.184879183769226,0.1216590851545333,0.1919366717338562,0.004719415679574,-0.0199216213077306,-0.280782401561737,0.9595531225204468,0.0,0.0,0.0,-4.691604683885872,-1.8029935523473857,-1.8435211559830575,1.690759507,0.4664038341847381,-0.6137682027210754,0.0891506906267112,7.046963380819776,-10.549640892300914,-8.077036801225294,0.0202585543867678,-0.0355889623274432,-0.5697016408325021,-0.1511374100565321,-0.1086503516517707,0.0076441437883678,-138.42406662406592,-49.256539440258464,-84.20252024742334,0.0001872189137475
358,1724914231763544517,-0.1866643130779266,0.1205264255404472,0.1919889748096466,0.009287211112678,-0.0222826600074768,-0.2808688879013061,0.9594425559043884,0.0,0.0,0.0,-5.574641032675139,-2.236020942489775,-2.8728561693443946,1.702809559,0.8373041624850754,-0.1635837449373383,-0.0321805358098238,4.945685031247336,-46.30675538013387,14.518843026380036,0.0303641693035751,-0.0375497106655983,-0.5701394874883066,-0.2625683569686963,-0.1481446295803596,-0.0373076980784077,518.8468463405682,237.40544105408225,24.42282446820994,0.0001438911271683
360,1724914231770280691,-0.1888639032840728,0.1193245947360992,0.1915808320045471,0.01102642621845,-0.0255737379193305,-0.2803223431110382,0.9595019221305848,0.0,0.0,0.0,0.150135028025911,0.3924851876833735,-2.294706197031909,1.709545733,0.7733367649093175,-0.7905704563350398,0.1582094087520361,2.5142464774051803,-51.41102511340983,1.6101246290912368,0.0355377156627051,-0.0429073586041377,-0.5692490832903886,-0.2862900767194727,-0.1592849580317494,-0.0534304616704837,393.4491194029162,219.1664645254443,-85.64414086177706,-0.0002777658622609
362,1724914231781182316,-0.1912749111652374,0.1179256290197372,0.1911246627569198,0.0154223088175058,-0.0303240567445755,-0.2817521393299103,0.9588838815689088,0.0,0.0,0.0,-3.612951698444748,-0.2358999342757011,-6.253620617218717,1.720447358,1.0126431337980195,-0.615916816659891,-0.2944850713762706,-0.3845975900764635,1.4056977830571888,-1.8110440764676188,0.0467383481567588,-0.0494841541499669,-0.5727364954718985,-0.2198744481447896,-0.1189037776110613,-0.0767041863280759,-234.67884506418355,-61.178314396344255,-43.427381858161496,-0.0002764781808302
364,1724914231794901514,-0.1942692101001739,0.1164570450782775,0.1894704848527908,0.0177943632006645,-0.0371476635336875,-0.2792948186397552,0.9593216180801392,0.0,0.0,0.0,-4.924655386245142,-1.1362818090013462,-1.329420155807476,1.734166556,0.6217354031023035,-0.84896269619097,0.3663368455754118,294.0126359598155,2.460049796634337,2.6351256720256515,0.0550226304912504,-0.0613718855237301,-0.568302794914385,-0.4370017336371496,-0.1901649222188481,-0.2336087408659537,1203.6723513251895,521.9659959553985,953.1825423490026,-0.0013857239868368
366,1724914231800285564,-0.1970842480659485,0.1152575612068176,0.1879738867282867,0.0246214345097541,-0.0413822121918201,-0.2783008515834808,0.9592862129211426,0.0,0.0,0.0,4.301298520502435,2.915569413141494,5.058193686971684,1.739550606,2.8861537914792126,-0.794627329081576,0.2843164369520151,231.13486523131004,12.165343904591694,-21.23119041406979,0.0704818672470408,-0.0657377757613969,-0.5670407587871384,-0.4404811986315877,-0.1877084011061778,-0.2194098782086859,1180.7563679505508,545.561518344734,778.1851938998241,-0.0011985472589977
368,1724914231811768276,-0.200125053524971,0.1139611601829528,0.1868885457515716,0.0286422222852706,-0.0461331829428672,-0.2787524759769439,0.9588266015052797,0.0,0.0,0.0,4.811212711797252,4.110667590400279,3.996999958984252,1.751033318,0.900817256392714,-0.6041589225737138,-0.1063443340214786,-82.09284881612297,12.9250989336193,-7.60972483999888,0.0809464771832207,-0.0725629270585729,-0.5687872786990102,-0.2699275500055549,-0.0940024821848997,-0.102039389097742,-315.6843369990704,-139.18422277862334,-223.26533203085185,-0.0007235088068781
370,1724914231822190944,-0.2029867768287658,0.1131601855158805,0.1857538819313049,0.0324124135076999,-0.0499745048582553,-0.278285413980484,0.958649754524231,0.0,0.0,0.0,-1.885699656692367,0.3586179896598729,0.4320876810238534,1.761455986,0.9042502320587796,-0.5040921038387856,0.0642115833867975,16.01968206155155,2.430127679448084,-0.6546070707847313,0.090354876143946,-0.0778549174533545,-0.5685693696210417,-0.3147828048912053,-0.0894727595338444,-0.1192667234010365,-97.97510131715472,-125.00168458789466,-31.079839446914093,-0.0007732907117847
372,1724914231830733848,-0.2059575319290161,0.1123074367642402,0.1846621632575988,0.0365036725997924,-0.0535182878375053,-0.2783574163913727,0.95829039812088,0.0,0.0,0.0,1.0903938703006535,0.9361623578846384,2.343930633845173,1.76999889,1.1509709019968746,-0.5335425478832835,-0.0605472862777914,-18.82019449994489,-10.502079097986565,-5.744654393833683,0.1002637185085798,-0.0823430078779657,-0.5695210449451935,-0.3139614511071098,-0.0869411797326211,-0.1009762157922535,244.71730949507943,49.54204361812093,13.500276833352697,-0.0006832135882734
374,1724914231841294341,-0.2088320851325988,0.1115574166178703,0.1839458793401718,0.0370896756649017,-0.0577279776334762,-0.2784318923950195,0.9580019116401672,0.0,0.0,0.0,2.3215839521522703,1.223544424752205,-0.2587839675472292,1.780559383,0.3295119789995618,-0.7365460990336067,-0.0055612428839315,-17.48601696176378,8.00487864453411,8.448038363679004,0.1038170886324212,-0.0900748828133811,-0.5703750072580781,-0.2894668484840093,-0.0687021951541524,-0.0735742082546018,54.50930874314517,-10.018536359311312,-184.27134439424412,-0.0003030338574807
376,1724914231850106667,-0.2115099430084228,0.1109690442681312,0.1832552552223205,0.0391066260635852,-0.0604681111872196,-0.277957558631897,0.9578903317451476,0.0,0.0,0.0,2.345464668949747,0.861474374005577,-1.4253529407042227,1.789371709,0.6188385902635346,-0.465783554198083,0.0927204571839632,22.564869864952716,18.429497566107223,23.1871753443717,0.10923574797012,-0.0942431191633115,-0.5699973076180455,-0.268992648489565,-0.0616228129149574,-0.0968384124341721,-24.555362574071793,-11.945040710821424,11.11870804800899,-0.0002907295426607
378,1724914231860968002,-0.213964581489563,0.1103686019778251,0.1819562315940857,0.042069736868143,-0.0639092400670051,-0.275175929069519,0.9583443999290466,0.0,0.0,0.0,1.7137665038158438,1.121849027309116,0.6163853004736222,1.800233044,0.7264789797797105,-0.4302175094444567,0.5056661957108768,-7.876353947020334,0.2110014619272853,-3.657513338067657,0.1166472039816821,-0.0995050898572628,-0.5650434937642641,-0.2432218521074993,-0.0514879536323578,-0.0960599562225539,22.761802275375587,35.77683058176578,124.25549495235175,-0.0008990052536601
380,1724914231870339266,-0.2163831442594528,0.1099167764186859,0.1812463700771331,0.0437301322817802,-0.0666257143020629,-0.2745078504085541,0.958276629447937,0.0,0.0,0.0,2.581378192698315,1.5525674735366686,1.2655462110013738,1.809604308,0.5088505571046787,-0.4530108823359363,0.1344039364437236,-18.15525653339543,3.2851559455716206,-1.1362030834651795,0.1213395964407617,-0.1038698744155181,-0.5642929227224697,-0.2324896568096139,-0.0394487678639565,-0.0858793059652303,24.303473318670186,-7.419368253813659,-10.042748409056976,-0.0003126069369795
382,1724914231880354892,-0.2184377163648605,0.1096154972910881,0.180277794599533,0.0448875837028026,-0.0689888596534729,-0.271890252828598,0.9588021039962769,0.0,0.0,0.0,2.0939177608199167,0.906852101168305,0.3159594621529957,1.819619934,0.3812604093075918,-0.3589070628525616,0.5349349318760844,-5.046606456088725,31.00070997186921,-5.015294028833683,0.1246394598588353,-0.1080947165362337,-0.559389252721623,-0.1912625203789346,-0.0210314124848371,-0.071286102395323,-76.41893759543237,-66.51756330745299,-108.87188564255388,-0.0006188656423559
384,1724914231891554671,-0.2204060554504394,0.1094932854175567,0.1797977685928344,0.0475752055644989,-0.0682184249162674,-0.2721171975135803,0.9586632251739502,0.0,0.0,0.0,0.890516548832819,0.1362365012907005,-1.079485176978709,1.830819713,0.4210799302369263,0.2588737767742333,-0.0848862751200305,-8.991386099565409,-18.247295834348364,0.9851835831109385,0.1294170722749004,-0.1050983003349187,-0.5599682583501888,-0.1931390568788931,-0.0225473024704605,-0.0820382896493345,-12.920712943748796,-23.21732670653112,-102.81090686977409,-0.0001583575029413
386,1724914231900646286,-0.222290351986885,0.1092024222016334,0.1787627637386322,0.0479897446930408,-0.0705526322126388,-0.2706559300422668,0.958887219429016,0.0,0.0,0.0,1.4706887444792551,0.261612885978887,-1.8534243474003365,1.839911328,0.246735075864404,-0.4487904147815549,0.3397828133678278,-10.558754270782488,-31.869527717058364,10.269028692788847,0.1313874605646803,-0.1095455807027791,-0.5574211785068006,-0.1772339908966786,-0.0193043093052445,-0.0927341236938907,5.412308157307301,-1.6293460412585823,-61.37428357871937,-0.0007003708622852
388,1724914231913248902,-0.223999485373497,0.1091807931661605,0.1779628098011016,0.0495796762406826,-0.0712388902902603,-0.2715637683868408,0.9584988355636596,0.0,0.0,0.0,0.5186501137876505,-0.0282951284685593,-2.211958160183963,1.852513944,0.2642138611152564,-0.0474009733406322,-0.1674054796236714,34.29658894847208,-28.368229884058493,34.50151254261067,0.1349563045203904,-0.1098575386030923,-0.5596046900569607,-0.1635687846192546,-0.0176684535844087,-0.1279185126720463,2.9020623805119214,46.99255383759687,257.5404206935683,-0.0005072516571604
390,1724914231921590149,-0.2255181670188903,0.1089453473687172,0.1765400320291519,0.0516486801207065,-0.0746417939662933,-0.2693400979042053,0.9587580561637878,0.0,0.0,0.0,0.9759353347904138,0.7501165499852246,1.515138623393975,1.860855191,0.7319775807203565,-0.6164779127289037,0.5330382407845203,30.668075096952727,-17.235794260136473,29.217389782071464,0.1406434203805434,-0.1155617617616878,-0.555883405177489,-0.162365513501669,-0.0187772961507644,-0.1431676390801719,59.07684595914249,57.57930158601394,328.2687000002985,-0.0011258651624902
392,1724914231931315804,-0.2268738448619842,0.1088698804378509,0.1754583865404129,0.0547672249376773,-0.0766224786639213,-0.2682053744792938,0.95874685049057,0.0,0.0,0.0,1.5987437351281262,0.9048104992713552,3.3633319030546014,1.870580846,0.7420958953361184,-0.205904422602379,0.196271214369583,-26.72739211734007,10.58206833387058,-32.32085508465686,0.1476730965078755,-0.1178177749016553,-0.5542710696044041,-0.1434427914742517,-0.0014682639493699,-0.0905194790826477,54.58468065910034,-51.439717729659755,-40.62002210500307,-0.0008186255168723
394,1724914231940453703,-0.2282193899154663,0.1089104786515235,0.174808919429779,0.0554647631943225,-0.078588493168354,-0.2685564756393432,0.9584492444992064,0.0,0.0,0.0,2.0163727498723647,-0.1434460483551001,1.011842950899017,1.879718745,0.2594590017191964,-0.3808006303720978,-0.0792765622281418,-8.23933302781289,-1.1177324264107966,-10.731744974968748,0.1501919976486829,-0.1211514741522066,-0.5555126144008001,-0.131812054259834,-0.0007119542839033,-0.0773862674087588,6.00536356569458,-62.95478646755118,-155.40027909792792,-0.0003972653395299
396,1724914231950316188,-0.2293550670146942,0.1088485866785049,0.1739785075187683,0.0582761391997337,-0.0804035738110542,-0.2682544887065887,0.958216428756714,0.0,0.0,0.0,1.6530384513297367,-0.2133708377906685,0.5642425801883033,1.88958123,0.65270743363793,-0.1999894435664491,0.0216266359444042,3.422661459418123,8.393087337429787,-0.5928048236452605,0.1566404554980145,-0.1231332969838633,-0.5556039252605675,-0.1040106507911282,-0.0045346116835931,-0.0719349660087793,-76.50788642226301,-6.29273593015162,-87.82908336816838,-0.0005992904199447
398,1724914231961571823,-0.2303826659917831,0.1088199093937873,0.1733263731002807,0.0591826923191547,-0.081956997513771,-0.2688986957073211,0.9578486084938048,0.0,0.0,0.0,0.2823371397356853,-0.2739585574085863,-0.969559388779555,1.900836865,0.2230039572881688,-0.2332067679404693,-0.1240839353621167,-23.104644224864856,-7.406872161293279,-13.129924725188175,0.1593744748331081,-0.1255057229013152,-0.5574101219479826,-0.1003808766367431,-0.0046982161049573,-0.0654361848397595,8.423877760967585,15.128425374210522,-5.360005030766037,-0.000442773368706
400,1724914231971365273,-0.2314431518316269,0.1087555736303329,0.1726216375827789,0.0594190582633018,-0.0836600512266159,-0.2701399028301239,0.9573373198509216,0.0,0.0,0.0,1.4743234277184234,0.048982111602321,0.0934570330015436,1.910630315,0.1251623364923598,-0.3437135628884019,-0.254242152425757,25.088104260655353,4.385190336166886,14.868032006211577,0.1609825559666161,-0.1284316434051445,-0.5604293065077941,-0.0979579309740508,-0.0095918160685055,-0.0881133182062097,105.8065141186668,21.06714662816904,198.7582106438561,-0.0004815677187992
402,1724914231979937626,-0.2322053909301757,0.1086506694555282,0.171745091676712,0.0616463311016559,-0.08515365421772,-0.2696238458156585,0.9572104215621948,0.0,0.0,0.0,2.261982745248501,0.1402251812130248,2.4742086015232965,1.919202668,0.6034391513293177,-0.188550170955747,0.0844984034443969,23.997241928772652,32.8530189740026,16.721602567501364,0.166096799055195,-0.1301443656629945,-0.5599741290593242,-0.0761133150126767,-0.0050550264693214,-0.0692362354116458,15.111120013057295,-21.581173605736335,110.70320052664144,-0.0007000093586578
404,1724914231990367587,-0.2328367531299591,0.1086890920996666,0.1714419424533844,0.0643869712948799,-0.0840727910399437,-0.2694644927978515,0.957170307636261,0.0,0.0,0.0,1.4453390834452275,-0.4938049924145776,1.5093216219894414,1.929632629,0.4502385456763352,0.3413173123972049,-0.0303525733817386,-21.17550339973568,-12.095467377363509,0.8919288329345232,0.1707560062992623,-0.1265817177162036,-0.5596870037719358,-0.0561538594492514,-0.0085290604921963,-0.0399771068776697,-89.75527632962608,-25.65140963540678,-120.228383074769,-0.0001758230593194
406,1724914232001804783,-0.2334240674972534,0.1084383726119995,0.170847862958908,0.0641151592135429,-0.0875218957662582,-0.2689107656478882,0.9570350646972656,0.0,0.0,0.0,0.2750949489795862,-0.3464961023856214,-0.2133760600567764,1.941069825,0.1266922543555886,-0.5858676853714603,0.1291395939771769,-18.87083007937356,-32.911244229992136,-2.0578762800184287,0.1721642052437675,-0.1334361572981801,-0.5593722486856219,-0.045496841789264,-0.0161925425834912,-0.0389684236116778,-40.61698086924192,26.973103582997236,-77.6730838439656,-0.0004424862363506
408,1724914232015312204,-0.233945220708847,0.108311042189598,0.1705284714698791,0.063872255384922,-0.0891898646950721,-0.2700057327747345,0.9565889835357666,0.0,0.0,0.0,0.7107602807815399,0.2426624759070925,-0.098824687062053,1.954577246,0.0220374098553934,-0.262206984860405,-0.1539415207031182,86.93974871594844,-12.012889374439233,-23.579067557897407,0.1728227113187184,-0.1365684598595208,-0.5620531061242976,-0.0522567973750938,-0.0157113741660417,-0.0466613298410436,119.18167935986102,44.67929031256904,97.62876061665314,-0.0001953740631208
410,1724914232020508914,-0.2342441231012344,0.1082168295979499,0.170239970088005,0.0653074830770492,-0.0905938297510147,-0.2706174850463867,0.9561872482299804,0.0,0.0,0.0,1.5039104886686645,0.4769708609979258,0.5867602298441735,1.959773956,0.6631500509310544,-0.3965595601701895,-0.2817165739087164,64.51572782029822,-8.507664382219662,-9.833458032361746,0.1765179048538484,-0.1383435048042359,-0.563870160717175,-0.0461415483336189,-0.014036386419292,-0.0462337940667731,91.83606499868182,19.2501582364308,78.33706255091222,-0.0002118080236576
412,1724914232031043894,-0.2344872653484344,0.1081563681364059,0.1699511408805847,0.0656086206436157,-0.0912750139832496,-0.270969808101654,0.9560019969940186,0.0,0.0,0.0,1.1731265602488592,0.1279573541036414,0.2675286766953832,1.970308936,0.08589750753507,-0.1157360595924327,-0.0702068374121012,-24.666818041937855,20.217948185135423,7.121339012782101,0.1775545964144094,-0.1394134511262924,-0.5648220636471387,-0.0233108202003506,-0.00570857435864,-0.0292779311975213,-56.77042877011587,-41.89886547780553,-54.30512051342409,-0.0002258584809288
414,1724914232040782844,-0.2347163707017898,0.1081010475754737,0.1696492433547973,0.0662356540560722,-0.0912837013602256,-0.271457314491272,0.9558196663856506,0.0,0.0,0.0,0.3918181403311213,-0.3590491698918675,-0.4774474125877213,1.980047886,0.1169047009275748,0.023200678328325,-0.1174922735309593,5.519463184078477,-1.8567109068493712,9.270451489934484,0.1788453127295269,-0.1389882662100316,-0.565918810995278,-0.0208349290406211,-0.0104272443463688,-0.0387541824215098,-82.55385486599965,-51.29808794888258,-61.79116305000137,-0.0002417364263434
416,1724914232050961849,-0.2348998337984085,0.107944406569004,0.1691722571849823,0.0669083520770073,-0.0924134328961372,-0.2708028554916382,0.955849826335907,0.0,0.0,0.0,-0.4732732544012542,-0.8949584699828591,-0.9499920166100676,1.990226891,0.1979359795238692,-0.1672283665737195,0.1271546803906762,5.090843398702232,-14.23668684317172,18.51763138020304,0.1807235768559126,-0.1408944748143991,-0.5649401095406033,-0.0153827717342742,-0.0127471808414499,-0.0383416895971289,764.888985995711,-491.66713605916885,1511.7085856654626,-0.000413312585605
418,1724914232091110489,-0.2350992262363433,0.1078509166836738,0.1689817905426025,0.0657466128468513,-0.0927159264683723,-0.2709985077381134,0.9558457136154176,0.0,0.0,0.0,164.81963591903104,-90.1562534787994,306.48364711102,2.030375531,-0.0521232021141051,-0.0307463251239566,-0.0030152077603099,3184.1023200967024,-5187.729590275623,-1084.4005617456464,0.17867930013803,-0.1420873877305875,-0.5652832991722734,-0.1941502447953098,-0.1543095039868376,-0.2333373727053072,157701.9119650668,138261.5429376979,233640.19355188287,-0.0001360465589175
420,1724914232091487191,-0.2351730316877365,0.1077922508120536,0.1688930839300155,0.0658601894974708,-0.0931305736303329,-0.271077811717987,0.955775022506714,0.0,0.0,0.0,224.76910363155645,-37.57631355587591,395.29510606826744,2.030752233,1.1586106565912857,-2.00332235713905,-0.4153323962481485,891.1155238407105,159.01480797900277,-2925.4720707803417,0.179157067702763,-0.1428021330280405,-0.565574435480243,-0.1314640695382536,-0.1885777376768089,-0.1167839444372305,50346.342250695365,204383.05993294276,28523.81764773524,-6.620022818562205e-05
422,1724914232091845818,-0.2351981699466705,0.107713408768177,0.1688917279243469,0.0660074353218078,-0.0931570529937744,-0.271425724029541,0.9556636214256288,0.0,0.0,0.0,205.6794018234158,57.84609756644715,334.7699121860553,2.03111086,0.6850988471557524,-0.1041843235189535,-2.089599560994638,-1712.423074677013,2969.3909430974795,-2669.4257778423894,0.1795097319128347,-0.1427052488051699,-0.5663262000760633,-0.0309301479361465,-0.183824299090773,0.0543041406093323,-125708.1611645986,199745.2160944916,-275518.71987538144,1.0015841693025483e-05
424,1724914232092320071,-0.2351882755756378,0.1076488196849823,0.1689539104700088,0.0659593790769577,-0.0931352227926254,-0.2719126343727112,0.95553058385849,0.0,0.0,0.0,100.60662379809844,110.97530920192096,137.15548631782687,2.031585113,-0.37291718627713,-0.1548307027789109,-2.1018169512452483,-2098.1382115689407,-98.48102991051398,-9.72319148219066,0.1794756047218512,-0.1425995240637784,-0.5673302265862499,0.0197961557382098,-0.1284246519732893,0.1238287599535903,-209435.39974557215,104750.3585424667,-393552.2727145487,6.331694718894986e-05
426,1724914232099996186,-0.2351688742637634,0.1076279580593109,0.1689989417791366,0.066216729581356,-0.0926603898406028,-0.272549569606781,0.9553775191307068,0.0,0.0,0.0,-1.3553590782630227,10.958860451119897,-9.629026565345493,2.039261228,0.0176047775016759,0.1217873081407037,-0.1838220018057308,31.059259307885355,19.74734941320633,164.3122229455433,0.1797853748843464,-0.1414276203187988,-0.5685640029064284,0.0026468347549055,-0.0020508026046908,0.0034608620685379,-8540.486340006848,-8682.717125282086,-12095.291903489322,4.131362412729499e-05
428,1724914232113994903,-0.2351287752389907,0.1076162755489349,0.168985977768898,0.0658694207668304,-0.0926447287201881,-0.2730454206466675,0.9552614092826844,0.0,0.0,0.0,0.1612430976890214,0.3829758681566042,0.4438539514209969,2.053259945,-0.0534815871301341,-0.0176143290208465,-0.0677527638393021,-4.022324868868646,15.978469677150953,-34.55267708801037,0.1791758589852984,-0.1415009088253216,-0.5695510512221877,0.0061073591663323,0.0108370737673357,0.0231639027885321,60.45668655818362,-323.8853793044665,113.53908727367532,-2.0289745247855528e-05
430,1724914232121112858,-0.2350735664367675,0.1077356562018394,0.1692380458116531,0.0659423321485519,-0.0918126851320266,-0.2746199369430542,0.9548853635787964,0.0,0.0,0.0,0.4182727965039901,-0.3603290851556593,-0.9413302211646865,2.0603779,-0.0782913026893786,0.1899916818383424,-0.4687619682930254,0.6178576737568285,11.855400281028148,-25.650146351564388,0.1790490095333579,-0.1395757674612658,-0.5726237401682848,0.0069439673924556,0.0116170962363906,0.0228355695698532,25.158940449213897,-55.73571923647808,-104.20421051064352,0.0002249321331682
432,1724914232131904440,-0.2350119203329086,0.1077766865491867,0.1692786961793899,0.0660911872982978,-0.0915405303239822,-0.2758640646934509,0.9545424580574036,0.0,0.0,0.0,0.510604366292801,-0.1651621674087012,-0.5868062070424349,2.071169482,-0.0044876186016372,0.0346995412995988,-0.2434826303836031,31.29826541396169,-16.60526026231017,22.461203759363567,0.1793533396905031,-0.1387389362462879,-0.5751669970669036,0.0163782233948861,4.021674445198187e-05,-0.0019694585948286,-38.47969269751642,46.50052707791872,84.10960115732189,2.3488200790389245e-05
434,1724914232141441421,-0.2347658276557922,0.1077453643083572,0.1692115664482116,0.0681872516870498,-0.0928410366177558,-0.2757621705532074,0.9542989134788512,0.0,0.0,0.0,-0.2528027377308018,0.5178043578683891,0.6473574626899149,2.080706463,0.5001517776405733,-0.1423342517738615,-0.0159056110060384,9.947699597857447,11.677013578018528,0.8459880255567835,0.1841786703077655,-0.1400466132542273,-0.5755655166129818,0.0181831783307053,0.0061145972312219,0.0068611926539627,-41.989263093415666,7.186234696239765,21.716008786848818,-0.000115737211186
436,1724914232151654534,-0.2346634715795517,0.1079106107354164,0.1694336682558059,0.0693855062127113,-0.0914369523525238,-0.2768540382385254,0.9540318250656128,0.0,0.0,0.0,-0.2653990677791275,-0.1134428668441409,-0.3087035010709411,2.090919576,0.1318190769830386,0.3076635176353862,-0.2590021016713201,-19.791946836889657,2.988300526720816,-3.0724290486553785,0.1858062891922239,-0.1364714331859756,-0.5776069968343167,0.010766371858919,0.0101001031849161,0.0104258442493918,18.990115580398346,-49.70938850680595,-45.9133675346755,0.0001809481600683
438,1724914232161157793,-0.234554573893547,0.1079528331756591,0.1694326400756836,0.0697926059365272,-0.0916406214237213,-0.2773003578186035,0.9538530111312866,0.0,0.0,0.0,0.0938998128761173,-0.4788633616843305,-0.3232511514662523,2.100422835,0.0876267163705871,-0.0271312997760154,-0.1048904843697,-4.10644461510074,-17.627749515840293,5.632350526177312,0.1867801625601799,-0.136540199171981,-0.5786440194437276,0.0123189978456785,0.0045681394983132,0.0016760137762723,16.363166496016706,-18.627663174529637,38.3102545726193,-2.7729603765459068e-05
440,1724914232170692937,-0.2344288825988769,0.1079975888133049,0.1694656908512115,0.070067822933197,-0.0917827785015106,-0.2779790163040161,0.9536216259002686,0.0,0.0,0.0,0.044759661395396,-0.4668174986235358,0.4232074911520684,2.109957979,0.0536736650092967,-0.0268163366269682,-0.1524472395772535,-1.115594391755994,-1.0208272898699238,-2.6366773796664575,0.1874947115119242,-0.1365210002763654,-0.5801337094331455,0.0125496362642909,0.0009899047517469,0.0043098229946645,-8.200368659670936,8.547272564549013,19.410667287198176,1.5733878880441534e-06
442,1724914232183295468,-0.2342812567949295,0.1079483702778816,0.1695340573787689,0.0705350488424301,-0.0922026857733726,-0.2788380682468414,0.9532957673072816,0.0,0.0,0.0,-0.1093350630461744,-0.237773674873423,-0.3128193705945785,2.12256051,0.0803438880018215,-0.0572351320799333,-0.1465187691816206,-19.693405945101365,-8.669414638829036,-14.774401266170624,0.1887753116120391,-0.1368842195421723,-0.5821008357195073,0.0134563726325467,-0.0064180868500756,0.012091610768369,-1.1876268217568828,48.56902679783909,-59.58892800535633,3.8853516234458205e-05
444,1724914232190189912,-0.2341819107532501,0.1078946441411972,0.1696425676345825,0.0700445845723152,-0.0924579352140426,-0.2799209952354431,0.9529898166656494,0.0,0.0,0.0,-0.0758844717495959,0.2117230045553233,-0.728124527048624,2.129454954,-0.1376913889366965,-0.1406007793892006,-0.3058794141147222,-22.408038468409764,-16.77669246179121,-4.864645473630071,0.1881370140896205,-0.1374413473062584,-0.5843753603172802,0.0120188143633743,-0.0067371319574167,0.0064260629743557,17.221607470708726,49.59486787696132,-6.1701748009002175,8.857917609175848e-05
446,1724914232200484335,-0.2340949326753616,0.1078415140509605,0.1695655733346939,0.0684131160378456,-0.0939939469099044,-0.2805370986461639,0.9527769088745116,0.0,0.0,0.0,0.2915392251352999,0.4824525786138423,0.0394334278753104,2.139749377,-0.2266978126723885,-0.3853203860996974,-0.0754400948979788,5.626282213140998,-3.2692287005231524,12.334942417778093,0.1860137476743692,-0.141194361012875,-0.5858908763433777,0.013276221922343,-0.0005918437772516,0.0003696527109227,32.438138267010565,3.755330184405195,42.450575385675755,-8.970609332422061e-05
448,1724914232211720012,-0.233886569738388,0.1078908964991569,0.169665977358818,0.0682376623153686,-0.0949022695422172,-0.2809180617332458,0.9525871276855468,0.0,0.0,0.0,0.6161073614424506,0.2481975068217096,0.122629850079121,2.150985054,0.0115391780792834,-0.1706263473057863,-0.0600908564949214,11.253723842754214,11.400600066317294,-3.4678063267014134,0.1862890352481118,-0.142953371013805,-0.5869194927353169,0.0186291483379115,0.0034247179213862,0.0085108443192725,1.7225558103136631,-6.519591897040648,1.4690956499346466,4.8212087145377454e-05
450,1724914232222865112,-0.2336780130863189,0.1079183369874954,0.1697561293840408,0.0682596489787101,-0.0955701395869255,-0.281760424375534,0.952269971370697,0.0,0.0,0.0,0.334992525418627,0.3339536406337387,0.0733838480048728,2.162130154,0.0269644686745217,-0.1287754561765166,-0.1521801402931076,21.05973503197631,-0.070230786311054,-10.994736090477826,0.1868688544422521,-0.1440490691687869,-0.5888724536775296,0.0270399808653891,0.0049827269505389,0.0032228108967036,-64.24924372245077,4.2681326976804606,30.48207920099078,3.9592390187016645e-05
452,1724914232230492550,-0.2334282994270324,0.1079695001244545,0.1697553098201751,0.0692446753382682,-0.0963589400053024,-0.2826021313667297,0.951869785785675,0.0,0.0,0.0,-0.3587820232712903,0.3486227256112716,0.4880669023372967,2.169757592,0.2903040933968566,-0.1492794625713047,-0.2503028198145514,8.243529097614706,3.552541042153665,-11.430444003844116,0.1893868523845665,-0.1448105260141571,-0.5909827761539277,0.0274044033157565,0.0085434619834838,0.0066423661776466,-67.11873089565054,-8.438187273000953,20.87787447494687,-6.03357289491452e-05
