seq,stamp,px,py,pz,ox,oy,oz,ow,lx,ly,lz,ax,ay,az
196,1724914142440358173,-0.13289037346839905,0.08250673860311508,0.15888279676437378,0.011758129112422466,-0.08424825221300125,-0.2919672131538391,0.9526379704475403,0.0,0.0,0.0,0.0,0.0,0.0
198,1724914142449168316,-0.134710893034935,0.0808040201663971,0.15831488370895386,0.009672618471086025,-0.08789879828691483,-0.2894744873046875,0.9530922770500183,0.0,0.0,0.0,0.0,0.0,0.0
200,1724914142469688374,-0.13673192262649536,0.07926161587238312,0.15791882574558258,0.009965646080672741,-0.08867532014846802,-0.28825750946998596,0.9533860683441162,0.0,0.0,0.0,0.0,0.0,0.0
202,1724914142470143006,-0.13895204663276672,0.07763968408107758,0.15749087929725647,0.010047413408756256,-0.09256415069103241,-0.2866033911705017,0.9535143375396729,0.0,0.0,0.0,0.0,0.0,0.0
204,1724914142479274986,-0.14127019047737122,0.07616833597421646,0.15718114376068115,0.010818980634212494,-0.09366554766893387,-0.2850062847137451,0.9538769125938416,0.0,0.0,0.0,0.0,0.0,0.0
206,1724914142488869283,-0.14364907145500183,0.07463164627552032,0.15646086633205414,0.011480887420475483,-0.09605412185192108,-0.2823394238948822,0.9544246792793274,0.0,0.0,0.0,0.0,0.0,0.0
208,1724914142499846831,-0.14616996049880981,0.07344692945480347,0.15579964220523834,0.010729759931564331,-0.09747447073459625,-0.28101542592048645,0.9546800851821899,0.0,0.0,0.0,0.0,0.0,0.0
210,1724914142509837909,-0.14856070280075073,0.0721205621957779,0.15504190325737,0.0115655567497015,-0.10051323473453522,-0.2781761586666107,0.9551866054534912,0.0,0.0,0.0,0.0,0.0,0.0
212,1724914142519777549,-0.15102453529834747,0.07086770981550217,0.15389806032180786,0.011470821686089039,-0.10308539122343063,-0.27653810381889343,0.9553892612457275,0.0,0.0,0.0,0.0,0.0,0.0
214,1724914142531875778,-0.1532522737979889,0.06969159096479416,0.15313099324703217,0.010314879938960075,-0.10582119226455688,-0.27567794919013977,0.9553518891334534,0.0,0.0,0.0,0.0,0.0,0.0
216,1724914142538825787,-0.1551583707332611,0.06859146803617477,0.15180999040603638,0.013787129893898964,-0.10875169932842255,-0.27406370639801025,0.9554433822631836,0.0,0.0,0.0,0.0,0.0,0.0
218,1724914142554659380,-0.15698690712451935,0.06745606660842896,0.15031574666500092,0.01523949671536684,-0.11132246255874634,-0.2723786532878876,0.9556071758270264,0.0,0.0,0.0,0.0,0.0,0.0
220,1724914142560353498,-0.15894822776317596,0.06647208333015442,0.14838255941867828,0.014731867238879204,-0.11488309502601624,-0.27249470353126526,0.9551604986190796,0.0,0.0,0.0,0.0,0.0,0.0
222,1724914142569522941,-0.16061997413635254,0.06583595275878906,0.14688202738761902,0.01881239376962185,-0.1173698902130127,-0.27282944321632385,0.9546908736228943,0.0,0.0,0.0,0.0,0.0,0.0
224,1724914142582063795,-0.16229502856731415,0.06513720750808716,0.1449371576309204,0.020374348387122154,-0.12401697039604187,-0.27131855487823486,0.9542489647865295,0.0,0.0,0.0,0.0,0.0,0.0
226,1724914142593537261,-0.16389240324497223,0.06482415646314621,0.14332391321659088,0.023225875571370125,-0.127389594912529,-0.2719658613204956,0.9535549879074097,0.0,0.0,0.0,0.0,0.0,0.0
228,1724914142601179460,-0.16535519063472748,0.06427460163831711,0.1416034698486328,0.023761240765452385,-0.1313474327325821,-0.2711993157863617,0.9532230496406555,0.0,0.0,0.0,0.0,0.0,0.0
230,1724914142610024458,-0.16674405336380005,0.06420952081680298,0.1403384655714035,0.026206698268651962,-0.13200195133686066,-0.2728622853755951,0.9525938034057617,0.0,0.0,0.0,0.0,0.0,0.0
232,1724914142619027084,-0.16771946847438812,0.06381981819868088,0.13889557123184204,0.027599740773439407,-0.13634063303470612,-0.2725069522857666,0.9520449638366699,0.0,0.0,0.0,0.0,0.0,0.0
234,1724914142628895040,-0.16858914494514465,0.0636417344212532,0.13787825405597687,0.029460005462169647,-0.13778498768806458,-0.2736988663673401,0.9514391422271729,0.0,0.0,0.0,0.0,0.0,0.0
236,1724914142639882678,-0.1693865954875946,0.06354831904172897,0.137078195810318,0.03076697699725628,-0.13850067555904388,-0.2746184170246124,0.9510287046432495,0.0,0.0,0.0,0.0,0.0,0.0
238,1724914142648985520,-0.1701810359954834,0.06343240290880203,0.13641797006130219,0.03099631331861019,-0.1390177309513092,-0.2759891450405121,0.9505490064620972,0.0,0.0,0.0,0.0,0.0,0.0
240,1724914142659084908,-0.17094889283180237,0.06325240433216095,0.1356634646654129,0.03177519142627716,-0.14015258848667145,-0.27655184268951416,0.950192928314209,0.0,0.0,0.0,0.0,0.0,0.0
242,1724914142669171120,-0.17149746417999268,0.06309638172388077,0.13503320515155792,0.03329087793827057,-0.14251157641410828,-0.2762315571308136,0.9498833417892456,0.0,0.0,0.0,0.0,0.0,0.0
244,1724914142678912725,-0.171911358833313,0.06286229193210602,0.13435667753219604,0.03399816155433655,-0.14553020894527435,-0.2756180465221405,0.9495787620544434,0.0,0.0,0.0,0.0,0.0,0.0
246,1724914142689003647,-0.1722457855939865,0.06269104778766632,0.1338529884815216,0.03404766321182251,-0.14728452265262604,-0.2755962908267975,0.9493128657341003,0.0,0.0,0.0,0.0,0.0,0.0
248,1724914142701131752,-0.17253589630126953,0.06270498782396317,0.13358619809150696,0.034122221171855927,-0.14762695133686066,-0.27639931440353394,0.949023425579071,0.0,0.0,0.0,0.0,0.0,0.0
250,1724914142734278963,-0.1728181689977646,0.06281561404466629,0.13323861360549927,0.036166224628686905,-0.14671875536441803,-0.2771795094013214,0.9488610029220581,0.0,0.0,0.0,0.0,0.0,0.0
252,1724914142734777115,-0.1730354279279709,0.06287147104740143,0.1330343633890152,0.03755241632461548,-0.14622902870178223,-0.27754464745521545,0.9487759470939636,0.0,0.0,0.0,0.0,0.0,0.0
254,1724914142735191462,-0.1732291281223297,0.06282049417495728,0.13290897011756897,0.037960734218358994,-0.14616155624389648,-0.2780022919178009,0.9486361145973206,0.0,0.0,0.0,0.0,0.0,0.0
256,1724914142738640905,-0.17339439690113068,0.06274103373289108,0.13275745511054993,0.03881506249308586,-0.14614956080913544,-0.27849727869033813,0.948458194732666,0.0,0.0,0.0,0.0,0.0,0.0
258,1724914142749036791,-0.17358340322971344,0.06259381771087646,0.13244248926639557,0.039104390889406204,-0.14706748723983765,-0.27838072180747986,0.9483386278152466,0.0,0.0,0.0,0.0,0.0,0.0
260,1724914142759180071,-0.1736915409564972,0.06254854798316956,0.13210950791835785,0.04062953218817711,-0.14745572209358215,-0.2783777713775635,0.948215126991272,0.0,0.0,0.0,0.0,0.0,0.0
262,1724914142769641925,-0.17380909621715546,0.062482304871082306,0.13189861178398132,0.041194017976522446,-0.1482158601284027,-0.27851343154907227,0.9480324387550354,0.0,0.0,0.0,0.0,0.0,0.0
264,1724914142784789600,-0.17387865483760834,0.06243219971656799,0.13168910145759583,0.04242539405822754,-0.14847616851329803,-0.2785433530807495,0.9479286074638367,0.0,0.0,0.0,0.0,0.0,0.0
266,1724914142788688884,-0.17397071421146393,0.06239844486117363,0.13161471486091614,0.04347164183855057,-0.1477227360010147,-0.2785928249359131,0.9479843378067017,0.0,0.0,0.0,0.0,0.0,0.0
268,1724914142799774638,-0.1740575134754181,0.06230685114860535,0.13140103220939636,0.043715111911296844,-0.14813534915447235,-0.27818214893341064,0.9480293393135071,0.0,0.0,0.0,0.0,0.0,0.0
270,1724914142809017737,-0.17415358126163483,0.06229459121823311,0.13132821023464203,0.043409667909145355,-0.14907099306583405,-0.2786685824394226,0.9477538466453552,0.0,0.0,0.0,0.0,0.0,0.0
272,1724914142820191732,-0.17423254251480103,0.062243472784757614,0.13117705285549164,0.043637465685606,-0.14986537396907806,-0.2786847949028015,0.9476132392883301,0.0,0.0,0.0,0.0,0.0,0.0
274,1724914142833036065,-0.17441830039024353,0.06225637346506119,0.1310766637325287,0.043518926948308945,-0.1503777652978897,-0.2795485556125641,0.947283148765564,0.0,0.0,0.0,0.0,0.0,0.0
276,1724914142839639970,-0.17454226315021515,0.06225366145372391,0.13101381063461304,0.043533023446798325,-0.15107090771198273,-0.2801583707332611,0.9469919204711914,0.0,0.0,0.0,0.0,0.0,0.0
278,1724914142848774826,-0.174719899892807,0.06222846731543541,0.13096754252910614,0.042519811540842056,-0.15128643810749054,-0.28075557947158813,0.946826696395874,0.0,0.0,0.0,0.0,0.0,0.0
280,1724914142860917670,-0.17492949962615967,0.062156397849321365,0.1309153288602829,0.04216831922531128,-0.15129299461841583,-0.28185176849365234,0.9465156197547913,0.0,0.0,0.0,0.0,0.0,0.0
282,1724914142870355557,-0.17510303854942322,0.062140364199876785,0.13091188669204712,0.04170051962137222,-0.15147985517978668,-0.2829098105430603,0.9461908340454102,0.0,0.0,0.0,0.0,0.0,0.0
284,1724914142878818854,-0.1752319484949112,0.062142886221408844,0.1309283822774887,0.042189572006464005,-0.15200798213481903,-0.2839251458644867,0.9457802176475525,0.0,0.0,0.0,0.0,0.0,0.0
286,1724914142889079574,-0.17539218068122864,0.0621449276804924,0.1308625340461731,0.04251518473029137,-0.15202108025550842,-0.2846970558166504,0.9455314874649048,0.0,0.0,0.0,0.0,0.0,0.0
288,1724914142899393833,-0.17557314038276672,0.062104884535074234,0.13080395758152008,0.04182453081011772,-0.15307845175266266,-0.2853349447250366,0.9451993107795715,0.0,0.0,0.0,0.0,0.0,0.0
290,1724914142912233868,-0.1757863461971283,0.06201409548521042,0.1305820494890213,0.040245767682790756,-0.15449155867099762,-0.2861168086528778,0.9448015093803406,0.0,0.0,0.0,0.0,0.0,0.0
292,1724914142920950804,-0.17586788535118103,0.0620281882584095,0.13063141703605652,0.041601575911045074,-0.15475504100322723,-0.28770485520362854,0.9442172646522522,0.0,0.0,0.0,0.0,0.0,0.0
294,1724914142930328120,-0.17592960596084595,0.06199866160750389,0.13072313368320465,0.04308740422129631,-0.15473109483718872,-0.28906333446502686,0.9437395334243774,0.0,0.0,0.0,0.0,0.0,0.0
296,1724914142939404802,-0.1760116070508957,0.061908673495054245,0.13075792789459229,0.04257194697856903,-0.15483541786670685,-0.2902698814868927,0.9433753490447998,0.0,0.0,0.0,0.0,0.0,0.0
298,1724914142950275805,-0.1760564148426056,0.061881761997938156,0.13079112768173218,0.042657457292079926,-0.15480639040470123,-0.2911147177219391,0.9431158304214478,0.0,0.0,0.0,0.0,0.0,0.0
300,1724914142959047573,-0.17608436942100525,0.06187834590673447,0.1308019459247589,0.04278078302741051,-0.1543898582458496,-0.2920825779438019,0.9428792595863342,0.0,0.0,0.0,0.0,0.0,0.0
302,1724914142969948072,-0.1760956346988678,0.061868440359830856,0.13082021474838257,0.04304378479719162,-0.1540374606847763,-0.2932334542274475,0.942567765712738,0.0,0.0,0.0,0.0,0.0,0.0
304,1724914142982374496,-0.17604508996009827,0.06175856292247772,0.13086678087711334,0.04214909300208092,-0.15410560369491577,-0.29449087381362915,0.9422048926353455,0.0,0.0,0.0,0.0,0.0,0.0
306,1724914142988651030,-0.176022008061409,0.06172627955675125,0.13092997670173645,0.04145948961377144,-0.15446653962135315,-0.29579126834869385,0.941769003868103,0.0,0.0,0.0,0.0,0.0,0.0
308,1724914142999617914,-0.1760087013244629,0.06173369660973549,0.13100679218769073,0.04132823646068573,-0.154970183968544,-0.296738862991333,0.9413938522338867,0.0,0.0,0.0,0.0,0.0,0.0
310,1724914143009826812,-0.1759762018918991,0.061744462698698044,0.1310930848121643,0.04151546210050583,-0.1554684042930603,-0.29761943221092224,0.9410253763198853,0.0,0.0,0.0,0.0,0.0,0.0
312,1724914143019452365,-0.1758904755115509,0.06182479485869408,0.13122393190860748,0.04201927408576012,-0.15572211146354675,-0.29861992597579956,0.9406440258026123,0.0,0.0,0.0,0.0,0.0,0.0
314,1724914143030485361,-0.17572923004627228,0.061950553208589554,0.13134939968585968,0.04232560098171234,-0.15583273768424988,-0.2999548017978668,0.9401871562004089,0.0,0.0,0.0,0.0,0.0,0.0
316,1724914143041673665,-0.17557893693447113,0.06214907020330429,0.13147065043449402,0.04308479651808739,-0.15600930154323578,-0.3011050820350647,0.9397556185722351,0.0,0.0,0.0,0.0,0.0,0.0
318,1724914143049516066,-0.17545288801193237,0.062381722033023834,0.13161742687225342,0.043352045118808746,-0.1560220867395401,-0.30235111713409424,0.9393410682678223,0.0,0.0,0.0,0.0,0.0,0.0
320,1724914143060457047,-0.17526665329933167,0.06271608173847198,0.1318088173866272,0.04385264590382576,-0.15597760677337646,-0.30362918972969055,0.9389128684997559,0.0,0.0,0.0,0.0,0.0,0.0
322,1724914143069212756,-0.17509156465530396,0.06304468214511871,0.13181909918785095,0.04361120983958244,-0.15637896955013275,-0.30478912591934204,0.9384814500808716,0.0,0.0,0.0,0.0,0.0,0.0
324,1724914143078961061,-0.17493996024131775,0.06345516443252563,0.13196340203285217,0.043276216834783554,-0.1561952382326126,-0.30668795108795166,0.9379087090492249,0.0,0.0,0.0,0.0,0.0,0.0
326,1724914143088692098,-0.17475689947605133,0.06397265940904617,0.13223017752170563,0.044920872896909714,-0.15548448264598846,-0.30816778540611267,0.9374642968177795,0.0,0.0,0.0,0.0,0.0,0.0
328,1724914143099409952,-0.17465387284755707,0.06443683058023453,0.13246172666549683,0.04507410526275635,-0.15539218485355377,-0.3094998598098755,0.9370333552360535,0.0,0.0,0.0,0.0,0.0,0.0
330,1724914143111122913,-0.1744905710220337,0.06477021425962448,0.13245290517807007,0.04422663897275925,-0.15748053789138794,-0.31040632724761963,0.9364250302314758,0.0,0.0,0.0,0.0,0.0,0.0
332,1724914143119293227,-0.17436671257019043,0.06524831056594849,0.132655069231987,0.0441570021212101,-0.15803225338459015,-0.31241780519485474,0.9356661438941956,0.0,0.0,0.0,0.0,0.0,0.0
334,1724914143132880716,-0.17424580454826355,0.06579331308603287,0.13307343423366547,0.04670942202210426,-0.15776695311069489,-0.3140646815299988,0.9350354075431824,0.0,0.0,0.0,0.0,0.0,0.0
336,1724914143139232467,-0.17416933178901672,0.06612250208854675,0.13330133259296417,0.04733235388994217,-0.15913301706314087,-0.31488874554634094,0.9344953298568726,0.0,0.0,0.0,0.0,0.0,0.0
338,1724914143180495711,-0.17421193420886993,0.06655501574277878,0.13367649912834167,0.046161092817783356,-0.15891310572624207,-0.3167904317378998,0.9339483976364136,0.0,0.0,0.0,0.0,0.0,0.0
340,1724914143180853065,-0.1743340790271759,0.06701546907424927,0.13413183391094208,0.045125607401132584,-0.1587197482585907,-0.3196943998336792,0.9330419898033142,0.0,0.0,0.0,0.0,0.0,0.0
342,1724914143181225927,-0.1743723601102829,0.06752580404281616,0.13459162414073944,0.045060865581035614,-0.15879152715206146,-0.32246673107147217,0.9320783019065857,0.0,0.0,0.0,0.0,0.0,0.0
344,1724914143181540546,-0.1743766814470291,0.06802801042795181,0.13502298295497894,0.04454108327627182,-0.15825439989566803,-0.3249630331993103,0.9313274025917053,0.0,0.0,0.0,0.0,0.0,0.0
346,1724914143188978093,-0.1743989884853363,0.06854282319545746,0.13560011982917786,0.044379547238349915,-0.15704411268234253,-0.3277939558029175,0.9305475950241089,0.0,0.0,0.0,0.0,0.0,0.0
348,1724914143199878251,-0.17445458471775055,0.069160096347332,0.13604633510112762,0.04354667291045189,-0.15655933320522308,-0.33028456568717957,0.9297875761985779,0.0,0.0,0.0,0.0,0.0,0.0
350,1724914143209001763,-0.1744481921195984,0.06980602443218231,0.13640496134757996,0.04429266229271889,-0.15696853399276733,-0.33203554153442383,0.9290594458580017,0.0,0.0,0.0,0.0,0.0,0.0
352,1724914143219925294,-0.17442530393600464,0.07049921900033951,0.1368369460105896,0.04414594545960426,-0.15603484213352203,-0.3341650068759918,0.9284600019454956,0.0,0.0,0.0,0.0,0.0,0.0
354,1724914143232992978,-0.1742900162935257,0.0711444839835167,0.1372809112071991,0.0448211170732975,-0.1545737236738205,-0.3360123932361603,0.9280052781105042,0.0,0.0,0.0,0.0,0.0,0.0
356,1724914143243019850,-0.17422449588775635,0.07195091247558594,0.13771004974842072,0.043898213654756546,-0.15196849405765533,-0.33858853578567505,0.9275432229042053,0.0,0.0,0.0,0.0,0.0,0.0
358,1724914143250009657,-0.1740340143442154,0.07300105690956116,0.13806727528572083,0.04372202605009079,-0.14998894929885864,-0.3409319519996643,0.9270151853561401,0.0,0.0,0.0,0.0,0.0,0.0
360,1724914143259088914,-0.17391741275787354,0.07404878735542297,0.13836416602134705,0.04270876571536064,-0.1482129991054535,-0.34401735663414,0.9262078404426575,0.0,0.0,0.0,0.0,0.0,0.0
362,1724914143269368905,-0.17375676333904266,0.07521796226501465,0.1385621577501297,0.04139286279678345,-0.14587359130382538,-0.34791457653045654,0.9251827597618103,0.0,0.0,0.0,0.0,0.0,0.0
364,1724914143279853773,-0.1735442578792572,0.07639098167419434,0.1388901323080063,0.041417911648750305,-0.14256392419338226,-0.35145872831344604,0.924357533454895,0.0,0.0,0.0,0.0,0.0,0.0
366,1724914143288884171,-0.17329514026641846,0.07763099670410156,0.13927410542964935,0.04089153930544853,-0.1397663652896881,-0.35418376326560974,0.9237678647041321,0.0,0.0,0.0,0.0,0.0,0.0
368,1724914143300078021,-0.17289015650749207,0.07882422208786011,0.13940733671188354,0.04177764803171158,-0.13746413588523865,-0.3554236590862274,0.9235975742340088,0.0,0.0,0.0,0.0,0.0,0.0
370,1724914143311195136,-0.1725395917892456,0.08004545420408249,0.1397974044084549,0.04098474606871605,-0.13379789888858795,-0.3581443727016449,0.9231202602386475,0.0,0.0,0.0,0.0,0.0,0.0
372,1724914143340310114,-0.17206396162509918,0.08127959817647934,0.13997358083724976,0.04093284532427788,-0.1322535276412964,-0.3601100444793701,0.9225803017616272,0.0,0.0,0.0,0.0,0.0,0.0
374,1724914143340955747,-0.17137441039085388,0.08274345099925995,0.14019282162189484,0.04234405606985092,-0.12954339385032654,-0.3620527386665344,0.9221407175064087,0.0,0.0,0.0,0.0,0.0,0.0
376,1724914143341450453,-0.17062929272651672,0.08399005234241486,0.1401524692773819,0.042022109031677246,-0.12921461462974548,-0.36251699924468994,0.9220190644264221,0.0,0.0,0.0,0.0,0.0,0.0
378,1724914143349346221,-0.16997544467449188,0.08546444773674011,0.14031048119068146,0.04003620147705078,-0.12609200179576874,-0.3646209239959717,0.921710193157196,0.0,0.0,0.0,0.0,0.0,0.0
380,1724914143360905684,-0.16917939484119415,0.08704576641321182,0.14063991606235504,0.039547961205244064,-0.1222153902053833,-0.36646896600723267,0.9215204119682312,0.0,0.0,0.0,0.0,0.0,0.0
382,1724914143369669596,-0.1681184470653534,0.0885387435555458,0.14067555963993073,0.040053293108940125,-0.12080071866512299,-0.36626550555229187,0.9217659831047058,0.0,0.0,0.0,0.0,0.0,0.0
384,1724914143384132379,-0.16707782447338104,0.09000154584646225,0.14080499112606049,0.03878505900502205,-0.11827141046524048,-0.36676424741744995,0.9219499230384827,0.0,0.0,0.0,0.0,0.0,0.0
386,1724914143391338403,-0.16591016948223114,0.09156214445829391,0.14130933582782745,0.0385269820690155,-0.11432716995477676,-0.3680792450904846,0.9219342470169067,0.0,0.0,0.0,0.0,0.0,0.0
388,1724914143399254946,-0.16461800038814545,0.09298364073038101,0.1414162665605545,0.03841617703437805,-0.11169993877410889,-0.36788713932037354,0.922337532043457,0.0,0.0,0.0,0.0,0.0,0.0
390,1724914143413035295,-0.16335216164588928,0.0946226418018341,0.1416788250207901,0.03652111813426018,-0.10782182961702347,-0.3682006597518921,0.92275071144104,0.0,0.0,0.0,0.0,0.0,0.0
392,1724914143422661116,-0.161921426653862,0.09617903083562851,0.14200036227703094,0.037379126995801926,-0.10453228652477264,-0.3690406084060669,0.9227594137191772,0.0,0.0,0.0,0.0,0.0,0.0
394,1724914143429142745,-0.1604764759540558,0.09780926257371902,0.1423177570104599,0.03676975890994072,-0.09966021776199341,-0.3705803453922272,0.922705888748169,0.0,0.0,0.0,0.0,0.0,0.0
396,1724914143439452288,-0.1590002030134201,0.09933716803789139,0.14253705739974976,0.03550592437386513,-0.09591923654079437,-0.37087517976760864,0.9230332970619202,0.0,0.0,0.0,0.0,0.0,0.0
398,1724914143450063032,-0.15743133425712585,0.10075420141220093,0.14257760345935822,0.03671811893582344,-0.09476151317358017,-0.37045031785964966,0.9232760071754456,0.0,0.0,0.0,0.0,0.0,0.0
400,1724914143464050500,-0.1562756448984146,0.10226228833198547,0.14265426993370056,0.03849352151155472,-0.0924234390258789,-0.3716501295566559,0.922958493232727,0.0,0.0,0.0,0.0,0.0,0.0
402,1724914143470888040,-0.15520113706588745,0.103945791721344,0.14276233315467834,0.0365627259016037,-0.0909348651766777,-0.3735998868942261,0.9223974943161011,0.0,0.0,0.0,0.0,0.0,0.0
404,1724914143482683321,-0.1542516052722931,0.10539937019348145,0.1427827626466751,0.03890015184879303,-0.09103690832853317,-0.3753539025783539,0.9215793609619141,0.0,0.0,0.0,0.0,0.0,0.0
406,1724914143488505555,-0.15345555543899536,0.1067400723695755,0.14246463775634766,0.04261939600110054,-0.0932324156165123,-0.37534767389297485,0.9211978316307068,0.0,0.0,0.0,0.0,0.0,0.0
408,1724914143500361445,-0.15317225456237793,0.10825183242559433,0.14224469661712646,0.04100078344345093,-0.09396715462207794,-0.3759452700614929,0.9209529161453247,0.0,0.0,0.0,0.0,0.0,0.0
410,1724914143509659580,-0.15302863717079163,0.1097927913069725,0.14242614805698395,0.042203329503536224,-0.09393898397684097,-0.37802353501319885,0.9200503826141357,0.0,0.0,0.0,0.0,0.0,0.0
412,1724914143529110968,-0.1531389355659485,0.11108589917421341,0.14211779832839966,0.04185905680060387,-0.09526515752077103,-0.379291296005249,0.9194076657295227,0.0,0.0,0.0,0.0,0.0,0.0
414,1724914143539074125,-0.15363392233848572,0.1132051944732666,0.1405683308839798,0.044061314314603806,-0.09956420958042145,-0.3792402446269989,0.9188702702522278,0.0,0.0,0.0,0.0,0.0,0.0
416,1724914143549388706,-0.15417593717575073,0.11435730010271072,0.13993287086486816,0.04327375441789627,-0.10136894881725311,-0.37915298342704773,0.918746292591095,0.0,0.0,0.0,0.0,0.0,0.0
418,1724914143559581059,-0.15479041635990143,0.11531741172075272,0.13915245234966278,0.0452156700193882,-0.1024458184838295,-0.37911438941955566,0.9185492396354675,0.0,0.0,0.0,0.0,0.0,0.0
420,1724914143569384386,-0.1553497016429901,0.11621441692113876,0.13849997520446777,0.04714927077293396,-0.10306104272603989,-0.37939196825027466,0.9182685613632202,0.0,0.0,0.0,0.0,0.0,0.0
422,1724914143579073848,-0.1557713747024536,0.11702992022037506,0.13788877427577972,0.04893246665596962,-0.10392631590366364,-0.37944430112838745,0.9180560111999512,0.0,0.0,0.0,0.0,0.0,0.0
424,1724914143590423511,-0.15634679794311523,0.11774949729442596,0.13720250129699707,0.048621922731399536,-0.10430736839771271,-0.37975260615348816,0.917901873588562,0.0,0.0,0.0,0.0,0.0,0.0
426,1724914143599219411,-0.15691709518432617,0.11860603094100952,0.13661889731884003,0.048726048320531845,-0.1048242449760437,-0.3809700310230255,0.9173328876495361,0.0,0.0,0.0,0.0,0.0,0.0
428,1724914143609180790,-0.15760739147663116,0.11940334737300873,0.13581714034080505,0.04763462767004967,-0.10669231414794922,-0.3813379108905792,0.9170218706130981,0.0,0.0,0.0,0.0,0.0,0.0
430,1724914143619011470,-0.15814751386642456,0.12010666728019714,0.13528884947299957,0.047825559973716736,-0.10723157972097397,-0.3822978734970093,0.9165492653846741,0.0,0.0,0.0,0.0,0.0,0.0
432,1724914143668981846,-0.15868434309959412,0.12067926675081253,0.13475780189037323,0.04717937856912613,-0.10808300971984863,-0.3828071653842926,0.9162700176239014,0.0,0.0,0.0,0.0,0.0,0.0
434,1724914143669403569,-0.15912385284900665,0.12111128866672516,0.13397882878780365,0.04802430421113968,-0.10972275584936142,-0.38213738799095154,0.9163108468055725,0.0,0.0,0.0,0.0,0.0,0.0
436,1724914143669821693,-0.15972402691841125,0.12142893671989441,0.13305692374706268,0.04759948328137398,-0.11115685105323792,-0.38109520077705383,0.9165942668914795,0.0,0.0,0.0,0.0,0.0,0.0
438,1724914143670156301,-0.16024541854858398,0.1218269094824791,0.13241352140903473,0.04804900288581848,-0.11106212437152863,-0.3813135027885437,0.9164914488792419,0.0,0.0,0.0,0.0,0.0,0.0
440,1724914143670412649,-0.1608387976884842,0.12210693955421448,0.1317075788974762,0.04908416047692299,-0.1116548478603363,-0.38190320134162903,0.9161189198493958,0.0,0.0,0.0,0.0,0.0,0.0
442,1724914143679145268,-0.16132475435733795,0.12228500843048096,0.1312256008386612,0.04973343387246132,-0.11419612169265747,-0.3818637430667877,0.9157871603965759,0.0,0.0,0.0,0.0,0.0,0.0
444,1724914143692581209,-0.16172771155834198,0.12240338325500488,0.13081467151641846,0.049310289323329926,-0.1161399781703949,-0.38179799914360046,0.9155929088592529,0.0,0.0,0.0,0.0,0.0,0.0
446,1724914143699942568,-0.16218434274196625,0.12246455997228622,0.13031965494155884,0.047582823783159256,-0.11806318908929825,-0.3814906179904938,0.9155664443969727,0.0,0.0,0.0,0.0,0.0,0.0
448,1724914143709433237,-0.16246943175792694,0.12255508452653885,0.130093514919281,0.04745758697390556,-0.11898315697908401,-0.3815535008907318,0.9154276251792908,0.0,0.0,0.0,0.0,0.0,0.0
450,1724914143720113528,-0.16270802915096283,0.12268410623073578,0.1298767328262329,0.047873642295598984,-0.11999604851007462,-0.38090288639068604,0.9155447483062744,0.0,0.0,0.0,0.0,0.0,0.0
452,1724914143734941987,-0.16294647753238678,0.12285059690475464,0.1297186315059662,0.047837406396865845,-0.12042254209518433,-0.3805482089519501,0.9156381487846375,0.0,0.0,0.0,0.0,0.0,0.0
454,1724914143738550366,-0.16312767565250397,0.12296893447637558,0.129529669880867,0.04795671999454498,-0.12099098414182663,-0.3800225257873535,0.9157751798629761,0.0,0.0,0.0,0.0,0.0,0.0
456,1724914143759478486,-0.16336525976657867,0.12312526255846024,0.129421666264534,0.04805759713053703,-0.12060590088367462,-0.38053449988365173,0.9156080484390259,0.0,0.0,0.0,0.0,0.0,0.0
458,1724914143769359453,-0.16375890374183655,0.12340512126684189,0.12917351722717285,0.04713313654065132,-0.11992904543876648,-0.3807796239852905,0.9156431555747986,0.0,0.0,0.0,0.0,0.0,0.0
460,1724914143780288180,-0.16383466124534607,0.1235543042421341,0.12916915118694305,0.04689541086554527,-0.11947034299373627,-0.3807857930660248,0.9157127141952515,0.0,0.0,0.0,0.0,0.0,0.0
462,1724914143789014996,-0.1638738512992859,0.12358240783214569,0.12913347780704498,0.04691578447818756,-0.11919866502285004,-0.38077497482299805,0.9157516360282898,0.0,0.0,0.0,0.0,0.0,0.0
464,1724914143800834972,-0.1638452708721161,0.12358741462230682,0.12909799814224243,0.04697702080011368,-0.11934275180101395,-0.3809293508529663,0.9156655669212341,0.0,0.0,0.0,0.0,0.0,0.0
466,1724914143812296582,-0.16376321017742157,0.12349742650985718,0.12896089255809784,0.046502407640218735,-0.11996559053659439,-0.3806593716144562,0.9157206416130066,0.0,0.0,0.0,0.0,0.0,0.0
468,1724914143819475798,-0.16365569829940796,0.12339050322771072,0.12890532612800598,0.04625349119305611,-0.12048883736133575,-0.3801324665546417,0.9158833622932434,0.0,0.0,0.0,0.0,0.0,0.0
470,1724914143831801137,-0.16351337730884552,0.1234147772192955,0.12893539667129517,0.04592638090252876,-0.12050367146730423,-0.3797730803489685,0.9160470366477966,0.0,0.0,0.0,0.0,0.0,0.0
472,1724914143840434862,-0.16349300742149353,0.12336767464876175,0.12902389466762543,0.04595277085900307,-0.12064965814352036,-0.37991592288017273,0.9159671664237976,0.0,0.0,0.0,0.0,0.0,0.0
474,1724914143861911556,-0.16335955262184143,0.12329770624637604,0.1289738416671753,0.04588285833597183,-0.12142930924892426,-0.3790021538734436,0.916246235370636,0.0,0.0,0.0,0.0,0.0,0.0
476,1724914143862667466,-0.1632118970155716,0.12330415844917297,0.12896759808063507,0.04556023329496384,-0.12201763689517975,-0.37806645035743713,0.9165706038475037,0.0,0.0,0.0,0.0,0.0,0.0
478,1724914143871183595,-0.1630638986825943,0.12331213057041168,0.12891635298728943,0.04569021984934807,-0.12238728255033493,-0.3770822584629059,0.9169202446937561,0.0,0.0,0.0,0.0,0.0,0.0
480,1724914143879082321,-0.16302840411663055,0.12345898151397705,0.12896817922592163,0.04514247179031372,-0.12185800075531006,-0.37745121121406555,0.9168661236763,0.0,0.0,0.0,0.0,0.0,0.0
482,1724914143889862452,-0.16291160881519318,0.12348742038011551,0.1288537234067917,0.045222897082567215,-0.12205624580383301,-0.3766842186450958,0.9171512126922607,0.0,0.0,0.0,0.0,0.0,0.0
484,1724914143899107298,-0.16282998025417328,0.12349407374858856,0.12885639071464539,0.045326896011829376,-0.12210949510335922,-0.3765084147453308,0.9172110557556152,0.0,0.0,0.0,0.0,0.0,0.0
486,1724914143910248058,-0.1627783328294754,0.12346375733613968,0.12884613871574402,0.045040566474199295,-0.12238956242799759,-0.3763503134250641,0.9172527194023132,0.0,0.0,0.0,0.0,0.0,0.0
488,1724914143920116213,-0.16272050142288208,0.12345428019762039,0.12886685132980347,0.04471387714147568,-0.12250328809022903,-0.3759671449661255,0.917410671710968,0.0,0.0,0.0,0.0,0.0,0.0
490,1724914143934428786,-0.16262292861938477,0.12347738444805145,0.12884187698364258,0.04455852136015892,-0.12270880490541458,-0.3751530349254608,0.9177239537239075,0.0,0.0,0.0,0.0,0.0,0.0
492,1724914143988879621,-0.16248753666877747,0.12355725467205048,0.1289018839597702,0.04581352695822716,-0.1219610795378685,-0.37409448623657227,0.9181938767433167,0.0,0.0,0.0,0.0,0.0,0.0
494,1724914143989225191,-0.16246303915977478,0.12360726296901703,0.12879890203475952,0.04516579210758209,-0.12280447036027908,-0.37253016233444214,0.9187493324279785,0.0,0.0,0.0,0.0,0.0,0.0
496,1724914143989475194,-0.16237182915210724,0.12371944636106491,0.12875261902809143,0.04557126760482788,-0.12332646548748016,-0.3712770342826843,0.9191665649414062,0.0,0.0,0.0,0.0,0.0,0.0
498,1724914143989711425,-0.1623113602399826,0.12389922887086868,0.12875379621982574,0.04512637481093407,-0.12365677952766418,-0.36966556310653687,0.9197934865951538,0.0,0.0,0.0,0.0,0.0,0.0
500,1724914143989958711,-0.16219843924045563,0.12410774827003479,0.1288204938173294,0.04508470371365547,-0.12356684356927872,-0.36828136444091797,0.9203627109527588,0.0,0.0,0.0,0.0,0.0,0.0
502,1724914143990213098,-0.16206717491149902,0.12412478774785995,0.12880703806877136,0.04520720988512039,-0.1239478588104248,-0.3670799732208252,0.9207852482795715,0.0,0.0,0.0,0.0,0.0,0.0
504,1724914144000122648,-0.1618567556142807,0.12413650751113892,0.12888549268245697,0.046867262572050095,-0.12469092756509781,-0.3659527003765106,0.9210506081581116,0.0,0.0,0.0,0.0,0.0,0.0
506,1724914144008940335,-0.16170702874660492,0.12401825189590454,0.12893405556678772,0.04820632562041283,-0.1257830113172531,-0.36464816331863403,0.921350359916687,0.0,0.0,0.0,0.0,0.0,0.0
508,1724914144022887508,-0.16156598925590515,0.12385442852973938,0.12900249660015106,0.04773905128240585,-0.12714658677577972,-0.3627357482910156,0.9219422936439514,0.0,0.0,0.0,0.0,0.0,0.0
510,1724914144031017924,-0.16151884198188782,0.12366631627082825,0.1289924681186676,0.046882521361112595,-0.12822380661964417,-0.3608478009700775,0.9225777387619019,0.0,0.0,0.0,0.0,0.0,0.0
512,1724914144038894504,-0.1615314483642578,0.12357945740222931,0.12905941903591156,0.04710385203361511,-0.12871980667114258,-0.3593524992465973,0.9230808615684509,0.0,0.0,0.0,0.0,0.0,0.0
514,1724914144048953050,-0.1614973396062851,0.12347792088985443,0.1291234791278839,0.04786036163568497,-0.12920664250850677,-0.357877254486084,0.9235469698905945,0.0,0.0,0.0,0.0,0.0,0.0
516,1724914144059638292,-0.1615239828824997,0.12341593205928802,0.1291692554950714,0.04652441293001175,-0.12985122203826904,-0.35627639293670654,0.9241435527801514,0.0,0.0,0.0,0.0,0.0,0.0
518,1724914144069078765,-0.16144074499607086,0.12346911430358887,0.1292453408241272,0.046059299260377884,-0.1297050565481186,-0.3545491695404053,0.9248514175415039,0.0,0.0,0.0,0.0,0.0,0.0
520,1724914144080208227,-0.1613531857728958,0.1235249936580658,0.1292237937450409,0.04619993269443512,-0.12992620468139648,-0.35265132784843445,0.9255386590957642,0.0,0.0,0.0,0.0,0.0,0.0
522,1724914144099235689,-0.16132882237434387,0.12359105795621872,0.12927189469337463,0.046147409826517105,-0.13039378821849823,-0.35121846199035645,0.9260203242301941,0.0,0.0,0.0,0.0,0.0,0.0
524,1724914144099953144,-0.1612817496061325,0.12358137965202332,0.12948523461818695,0.04747374728322029,-0.13053013384342194,-0.3498721420764923,0.9264435172080994,0.0,0.0,0.0,0.0,0.0,0.0
526,1724914144110139194,-0.161373108625412,0.12353254109621048,0.12990140914916992,0.04770033061504364,-0.12957315146923065,-0.3489421308040619,0.9269169569015503,0.0,0.0,0.0,0.0,0.0,0.0
528,1724914144119198300,-0.16148535907268524,0.12346421182155609,0.13054384291172028,0.04556993395090103,-0.12835362553596497,-0.34802213311195374,0.9275394678115845,0.0,0.0,0.0,0.0,0.0,0.0
530,1724914144130491703,-0.1615588665008545,0.12320762872695923,0.1308521330356598,0.043996721506118774,-0.1289682686328888,-0.34625062346458435,0.9281928539276123,0.0,0.0,0.0,0.0,0.0,0.0
532,1724914144139780681,-0.1614934355020523,0.12289206683635712,0.13124790787696838,0.04696088656783104,-0.12969191372394562,-0.34377601742744446,0.9288663864135742,0.0,0.0,0.0,0.0,0.0,0.0
534,1724914144149023029,-0.1614849716424942,0.12264242768287659,0.13156569004058838,0.04757825657725334,-0.1296563446521759,-0.3416281044483185,0.9296321272850037,0.0,0.0,0.0,0.0,0.0,0.0
536,1724914144159171675,-0.16123509407043457,0.12237025052309036,0.13192826509475708,0.0493258573114872,-0.1295071393251419,-0.3388873040676117,0.9305644631385803,0.0,0.0,0.0,0.0,0.0,0.0
538,1724914144169247900,-0.16103236377239227,0.12223980575799942,0.13242489099502563,0.04929974302649498,-0.12795621156692505,-0.33707529306411743,0.9314380884170532,0.0,0.0,0.0,0.0,0.0,0.0
540,1724914144179357088,-0.16078995168209076,0.12217558920383453,0.13297471404075623,0.04950806498527527,-0.12648679316043854,-0.3352890610694885,0.9322721362113953,0.0,0.0,0.0,0.0,0.0,0.0
542,1724914144219050402,-0.1606285125017166,0.12196572870016098,0.133388951420784,0.0493009053170681,-0.12565138936042786,-0.3335643410682678,0.933014452457428,0.0,0.0,0.0,0.0,0.0,0.0
544,1724914144219673375,-0.1604405790567398,0.121531642973423,0.1338677853345871,0.04891620948910713,-0.125385582447052,-0.3318643271923065,0.933676540851593,0.0,0.0,0.0,0.0,0.0,0.0
546,1724914144220577985,-0.16020779311656952,0.12095533311367035,0.13451765477657318,0.048223309218883514,-0.12511174380779266,-0.3296504616737366,0.9345331788063049,0.0,0.0,0.0,0.0,0.0,0.0
548,1724914144221350160,-0.15973687171936035,0.1201651468873024,0.135268434882164,0.04735281318426132,-0.12483090907335281,-0.3265509009361267,0.9357026815414429,0.0,0.0,0.0,0.0,0.0,0.0
550,1724914144229578434,-0.15920370817184448,0.11945360153913498,0.13622862100601196,0.04719620570540428,-0.12233668565750122,-0.3250710666179657,0.9365549683570862,0.0,0.0,0.0,0.0,0.0,0.0
552,1724914144239044632,-0.15851928293704987,0.11848092079162598,0.13688772916793823,0.045922573655843735,-0.12010188400745392,-0.32208752632141113,0.937937319278717,0.0,0.0,0.0,0.0,0.0,0.0
554,1724914144249688343,-0.15784019231796265,0.11741693317890167,0.1374387890100479,0.04601464048027992,-0.11833302676677704,-0.3190493881702423,0.9391951560974121,0.0,0.0,0.0,0.0,0.0,0.0
556,1724914144262120415,-0.15709172189235687,0.11630591005086899,0.13805264234542847,0.04456019401550293,-0.1160484179854393,-0.3166711926460266,0.9403545260429382,0.0,0.0,0.0,0.0,0.0,0.0
558,1724914144269107374,-0.15628665685653687,0.11523266136646271,0.13874220848083496,0.041591253131628036,-0.11308471113443375,-0.3144301176071167,0.9416027069091797,0.0,0.0,0.0,0.0,0.0,0.0
560,1724914144279940820,-0.1553776115179062,0.11403250694274902,0.13910402357578278,0.04021438583731651,-0.10873446613550186,-0.3119828999042511,0.9429879784584045,0.0,0.0,0.0,0.0,0.0,0.0
562,1724914144288967162,-0.15442048013210297,0.11281982809305191,0.13961608707904816,0.03999447077512741,-0.10500849038362503,-0.3102411925792694,0.9439937472343445,0.0,0.0,0.0,0.0,0.0,0.0
564,1724914144299819271,-0.15315958857536316,0.11158515512943268,0.14041149616241455,0.03832700476050377,-0.10382689535617828,-0.30788323283195496,0.9449650645256042,0.0,0.0,0.0,0.0,0.0,0.0
566,1724914144310405218,-0.15190309286117554,0.11013726890087128,0.14110039174556732,0.0375419482588768,-0.10029739886522293,-0.3050496280193329,0.9462958574295044,0.0,0.0,0.0,0.0,0.0,0.0
568,1724914144319223510,-0.1509431153535843,0.1085740178823471,0.14165741205215454,0.03542099520564079,-0.09821931272745132,-0.30263814330101013,0.9473692774772644,0.0,0.0,0.0,0.0,0.0,0.0
570,1724914144329300056,-0.14980393648147583,0.10682767629623413,0.1431225836277008,0.03589397668838501,-0.09583482146263123,-0.3022158145904541,0.9477304816246033,0.0,0.0,0.0,0.0,0.0,0.0
572,1724914144339863465,-0.14866258203983307,0.10510050505399704,0.14389070868492126,0.03492509201169014,-0.09271382540464401,-0.3008013367652893,0.9485267996788025,0.0,0.0,0.0,0.0,0.0,0.0
574,1724914144349013534,-0.14801006019115448,0.10311293601989746,0.1444547176361084,0.03081628866493702,-0.09461624175310135,-0.2997593581676483,0.9488111734390259,0.0,0.0,0.0,0.0,0.0,0.0
576,1724914144366287382,-0.14738009870052338,0.10135781019926071,0.1454276144504547,0.02964034304022789,-0.0957113653421402,-0.2981351613998413,0.9492504596710205,0.0,0.0,0.0,0.0,0.0,0.0
578,1724914144372085777,-0.1470714509487152,0.09955979883670807,0.14611376821994781,0.03121086023747921,-0.096577949821949,-0.2963116466999054,0.9496831297874451,0.0,0.0,0.0,0.0,0.0,0.0
580,1724914144378733973,-0.14712852239608765,0.09760800004005432,0.14643597602844238,0.03151406720280647,-0.09816496074199677,-0.2943550944328308,0.9501187205314636,0.0,0.0,0.0,0.0,0.0,0.0
582,1724914144389900322,-0.14742499589920044,0.09589402377605438,0.1468280851840973,0.030417906120419502,-0.0991392582654953,-0.2926734387874603,0.950572669506073,0.0,0.0,0.0,0.0,0.0,0.0
584,1724914144398791146,-0.14798767864704132,0.09401416033506393,0.14722181856632233,0.02802683785557747,-0.10077352076768875,-0.29108771681785583,0.950961172580719,0.0,0.0,0.0,0.0,0.0,0.0
586,1724914144409321181,-0.14881299436092377,0.09225184470415115,0.14756113290786743,0.02540373057126999,-0.10166443884372711,-0.2893895208835602,0.9514582753181458,0.0,0.0,0.0,0.0,0.0,0.0
588,1724914144420199766,-0.14978832006454468,0.09024037420749664,0.14764036238193512,0.025905000045895576,-0.10328225046396255,-0.2874646782875061,0.95185387134552,0.0,0.0,0.0,0.0,0.0,0.0
590,1724914144428699333,-0.1509125977754593,0.08830851316452026,0.14762699604034424,0.02699628472328186,-0.10582621395587921,-0.2860180139541626,0.9519798755645752,0.0,0.0,0.0,0.0,0.0,0.0
592,1724914144438790318,-0.15242567658424377,0.0864935889840126,0.14739646017551422,0.02451503835618496,-0.1078980416059494,-0.2850220799446106,0.952113151550293,0.0,0.0,0.0,0.0,0.0,0.0
594,1724914144448630248,-0.1539413332939148,0.08467540144920349,0.14750078320503235,0.026287760585546494,-0.11021831631660461,-0.2841655910015106,0.9520561695098877,0.0,0.0,0.0,0.0,0.0,0.0
596,1724914144458697609,-0.15575052797794342,0.08282770216464996,0.14663276076316833,0.02581668645143509,-0.11320317536592484,-0.2816772162914276,0.9524581432342529,0.0,0.0,0.0,0.0,0.0,0.0
598,1724914144469628962,-0.15763157606124878,0.08108894526958466,0.14597570896148682,0.026064014062285423,-0.11647331714630127,-0.28045734763145447,0.9524171948432922,0.0,0.0,0.0,0.0,0.0,0.0
600,1724914144478721501,-0.1594165861606598,0.07949326932430267,0.14547665417194366,0.026260221377015114,-0.11967364698648453,-0.27971351146698,0.9522337317466736,0.0,0.0,0.0,0.0,0.0,0.0
602,1724914144491436818,-0.16134941577911377,0.07808598130941391,0.14446523785591125,0.02660020813345909,-0.12273294478654861,-0.2782611548900604,0.9522603750228882,0.0,0.0,0.0,0.0,0.0,0.0
604,1724914144499081620,-0.16318732500076294,0.07676297426223755,0.1438177525997162,0.023680860176682472,-0.12508387863636017,-0.27813610434532166,0.952068030834198,0.0,0.0,0.0,0.0,0.0,0.0
606,1724914144516469230,-0.1646154820919037,0.07526442408561707,0.14299997687339783,0.026152702048420906,-0.12751798331737518,-0.27573704719543457,0.9523782134056091,0.0,0.0,0.0,0.0,0.0,0.0
608,1724914144519434118,-0.16626058518886566,0.07420873641967773,0.14253081381320953,0.026830492541193962,-0.12674863636493683,-0.27606403827667236,0.95236736536026,0.0,0.0,0.0,0.0,0.0,0.0
610,1724914144529261088,-0.16761760413646698,0.07282549142837524,0.14189761877059937,0.024375978857278824,-0.1291312426328659,-0.2753731310367584,0.9523133635520935,0.0,0.0,0.0,0.0,0.0,0.0
612,1724914144538892378,-0.16864797472953796,0.07145888358354568,0.14104318618774414,0.02537929266691208,-0.13108256459236145,-0.27417436242103577,0.9523664116859436,0.0,0.0,0.0,0.0,0.0,0.0
614,1724914144549335466,-0.16970419883728027,0.07017102837562561,0.14038023352622986,0.02476244792342186,-0.13266946375370026,-0.2732715606689453,0.9524223804473877,0.0,0.0,0.0,0.0,0.0,0.0
616,1724914144580152396,-0.17072567343711853,0.06892438977956772,0.13983938097953796,0.026129454374313354,-0.13305048644542694,-0.2742282748222351,0.9520576000213623,0.0,0.0,0.0,0.0,0.0,0.0
618,1724914144580659436,-0.17152635753154755,0.06778788566589355,0.13951031863689423,0.024392658844590187,-0.13304229080677032,-0.27604201436042786,0.9515805244445801,0.0,0.0,0.0,0.0,0.0,0.0
620,1724914144581120287,-0.17210161685943604,0.06667626649141312,0.13895408809185028,0.02352108247578144,-0.13549992442131042,-0.27631455659866333,0.9511765837669373,0.0,0.0,0.0,0.0,0.0,0.0
622,1724914144588927273,-0.17236410081386566,0.06548154354095459,0.13804318010807037,0.023684699088335037,-0.13930216431617737,-0.27449849247932434,0.9511491060256958,0.0,0.0,0.0,0.0,0.0,0.0
624,1724914144598947432,-0.17253896594047546,0.06464701890945435,0.137528195977211,0.024771077558398247,-0.14048245549201965,-0.2740899324417114,0.9510655999183655,0.0,0.0,0.0,0.0,0.0,0.0
626,1724914144670784354,-0.1726629137992859,0.06393478810787201,0.1369108259677887,0.025976892560720444,-0.13945695757865906,-0.27486976981163025,0.950959324836731,0.0,0.0,0.0,0.0,0.0,0.0
628,1724914144671044682,-0.17277905344963074,0.06327173113822937,0.13620340824127197,0.026298172771930695,-0.14079870283603668,-0.27532389760017395,0.9506214261054993,0.0,0.0,0.0,0.0,0.0,0.0
630,1724914144671394804,-0.17277628183364868,0.06284993141889572,0.1356639862060547,0.028179829940199852,-0.1429494470357895,-0.27503639459609985,0.950329601764679,0.0,0.0,0.0,0.0,0.0,0.0
632,1724914144672719922,-0.17283910512924194,0.06258051097393036,0.1351589560508728,0.02906336449086666,-0.14435216784477234,-0.2746264338493347,0.9502094984054565,0.0,0.0,0.0,0.0,0.0,0.0
634,1724914144673094650,-0.17289307713508606,0.062464602291584015,0.13458704948425293,0.03176836296916008,-0.14555935561656952,-0.2740823030471802,0.9500958919525146,0.0,0.0,0.0,0.0,0.0,0.0
636,1724914144673627945,-0.1731729805469513,0.06262507289648056,0.13424283266067505,0.0327075757086277,-0.14455126225948334,-0.2750052809715271,0.9499512314796448,0.0,0.0,0.0,0.0,0.0,0.0
638,1724914144674042126,-0.17342081665992737,0.06263212114572525,0.13367314636707306,0.03336884453892708,-0.1460251659154892,-0.2746305763721466,0.9498111605644226,0.0,0.0,0.0,0.0,0.0,0.0
640,1724914144680334628,-0.17367586493492126,0.06279496848583221,0.13337630033493042,0.033973339945077896,-0.1466871201992035,-0.2750193178653717,0.9495751857757568,0.0,0.0,0.0,0.0,0.0,0.0
642,1724914144688964347,-0.17392736673355103,0.06299447268247604,0.1331666111946106,0.03473660349845886,-0.14693738520145416,-0.2752349376678467,0.949446439743042,0.0,0.0,0.0,0.0,0.0,0.0
644,1724914144699872742,-0.17418229579925537,0.06303355097770691,0.13258269429206848,0.034993913024663925,-0.14828726649284363,-0.27417677640914917,0.9495332837104797,0.0,0.0,0.0,0.0,0.0,0.0
646,1724914144715051445,-0.17448383569717407,0.06311365962028503,0.13218462467193604,0.03543131798505783,-0.14926175773143768,-0.27385058999061584,0.9494584798812866,0.0,0.0,0.0,0.0,0.0,0.0
648,1724914144718854392,-0.17484061419963837,0.06319554150104523,0.13193123042583466,0.03659648075699806,-0.15008670091629028,-0.2745908200740814,0.949070394039154,0.0,0.0,0.0,0.0,0.0,0.0
650,1724914144729573847,-0.17513000965118408,0.06321415305137634,0.13164100050926208,0.037258099764585495,-0.15113294124603271,-0.2747570872306824,0.9488304257392883,0.0,0.0,0.0,0.0,0.0,0.0
652,1724914144738960439,-0.175512433052063,0.0631934255361557,0.13137543201446533,0.036536190658807755,-0.1513349562883377,-0.2750338613986969,0.9487462043762207,0.0,0.0,0.0,0.0,0.0,0.0
654,1724914144749222409,-0.17581035196781158,0.06311707198619843,0.1310741901397705,0.03668403625488281,-0.15182918310165405,-0.2751122713088989,0.9486387968063354,0.0,0.0,0.0,0.0,0.0,0.0
656,1724914144765813842,-0.17607316374778748,0.06300774961709976,0.1306643784046173,0.036638323217630386,-0.1527305543422699,-0.27515316009521484,0.948483943939209,0.0,0.0,0.0,0.0,0.0,0.0
658,1724914144772000751,-0.17627301812171936,0.06286691874265671,0.13023458421230316,0.03892069309949875,-0.15312381088733673,-0.27570921182632446,0.9481680989265442,0.0,0.0,0.0,0.0,0.0,0.0
660,1724914144782210968,-0.17642535269260406,0.06282296776771545,0.12996549904346466,0.03946605697274208,-0.1534474939107895,-0.27643826603889465,0.9478808641433716,0.0,0.0,0.0,0.0,0.0,0.0
662,1724914144789206226,-0.1764618456363678,0.06272925436496735,0.12985987961292267,0.03968280553817749,-0.15330439805984497,-0.2765673100948334,0.9478573799133301,0.0,0.0,0.0,0.0,0.0,0.0
664,1724914144805290110,-0.17652910947799683,0.06261745095252991,0.12983271479606628,0.03988046199083328,-0.15338531136512756,-0.2767639756202698,0.947778582572937,0.0,0.0,0.0,0.0,0.0,0.0
666,1724914144810135812,-0.1765882819890976,0.06253054738044739,0.12984752655029297,0.03970066085457802,-0.1535521000623703,-0.27724865078926086,0.9476175308227539,0.0,0.0,0.0,0.0,0.0,0.0
668,1724914144819231000,-0.17663925886154175,0.06243816763162613,0.12985537946224213,0.03929993510246277,-0.1535334289073944,-0.2779201567173004,0.947440505027771,0.0,0.0,0.0,0.0,0.0,0.0
670,1724914144829089694,-0.17663143575191498,0.06235702708363533,0.1298907846212387,0.03911564126610756,-0.15375174582004547,-0.2785581350326538,0.9472252726554871,0.0,0.0,0.0,0.0,0.0,0.0
672,1724914144838784215,-0.17664581537246704,0.06228046491742134,0.12992556393146515,0.038296934217214584,-0.15364126861095428,-0.27959325909614563,0.9469716548919678,0.0,0.0,0.0,0.0,0.0,0.0
674,1724914144848851170,-0.1766294240951538,0.062262408435344696,0.12997475266456604,0.03821469470858574,-0.1535559445619583,-0.2804725766181946,0.9467288255691528,0.0,0.0,0.0,0.0,0.0,0.0
676,1724914144859702493,-0.1765790581703186,0.062264032661914825,0.1300354301929474,0.03827747702598572,-0.15330524742603302,-0.2815621495246887,0.9464433789253235,0.0,0.0,0.0,0.0,0.0,0.0
678,1724914144869689477,-0.1765202283859253,0.062332652509212494,0.13022828102111816,0.03897806257009506,-0.15218491852283478,-0.2830156981945038,0.9461621046066284,0.0,0.0,0.0,0.0,0.0,0.0
680,1724914144878814552,-0.17641469836235046,0.06226343661546707,0.13030245900154114,0.038900226354599,-0.15256765484809875,-0.28362226486206055,0.9459219574928284,0.0,0.0,0.0,0.0,0.0,0.0
682,1724914144888930987,-0.17631801962852478,0.06217467412352562,0.13036461174488068,0.03852209821343422,-0.15303675830364227,-0.2843681275844574,0.9456376433372498,0.0,0.0,0.0,0.0,0.0,0.0
684,1724914144899266252,-0.17624440789222717,0.062159810215234756,0.1304055005311966,0.038757503032684326,-0.15308426320552826,-0.28491324186325073,0.9454562664031982,0.0,0.0,0.0,0.0,0.0,0.0
686,1724914144909074245,-0.17613068222999573,0.062120553106069565,0.13041368126869202,0.03895878419280052,-0.15334779024124146,-0.28519514203071594,0.9453203082084656,0.0,0.0,0.0,0.0,0.0,0.0
688,1724914144919450427,-0.17608709633350372,0.06214740127325058,0.13050104677677155,0.03937171772122383,-0.15320749580860138,-0.2861992120742798,0.945022463798523,0.0,0.0,0.0,0.0,0.0,0.0
690,1724914144928718977,-0.17600679397583008,0.06217685341835022,0.13058359920978546,0.04069502651691437,-0.1530584692955017,-0.2868799567222595,0.9447841048240662,0.0,0.0,0.0,0.0,0.0,0.0
692,1724914144938924913,-0.1758744716644287,0.06208276003599167,0.1304602324962616,0.040166597813367844,-0.154650017619133,-0.28701168298721313,0.9445074796676636,0.0,0.0,0.0,0.0,0.0,0.0
694,1724914144949180343,-0.1756753921508789,0.062095124274492264,0.13055570423603058,0.042452435940504074,-0.15487278997898102,-0.2881513237953186,0.944023847579956,0.0,0.0,0.0,0.0,0.0,0.0
696,1724914144959324653,-0.1756162792444229,0.062072187662124634,0.13059286773204803,0.04185660183429718,-0.15512695908546448,-0.2893694341182709,0.9436361193656921,0.0,0.0,0.0,0.0,0.0,0.0
698,1724914144971288672,-0.17556506395339966,0.06205616891384125,0.1307009756565094,0.04208100959658623,-0.15492944419384003,-0.2905327379703522,0.9433010220527649,0.0,0.0,0.0,0.0,0.0,0.0
700,1724914145039676903,-0.1754719316959381,0.06205257400870323,0.1307360678911209,0.04257532209157944,-0.1550658494234085,-0.29140812158584595,0.9429863095283508,0.0,0.0,0.0,0.0,0.0,0.0
702,1724914145040048135,-0.17545032501220703,0.06204359233379364,0.13078121840953827,0.04156947508454323,-0.15478527545928955,-0.29258814454078674,0.9427118897438049,0.0,0.0,0.0,0.0,0.0,0.0
704,1724914145040455000,-0.17539536952972412,0.062051303684711456,0.13082259893417358,0.041411396116018295,-0.15485045313835144,-0.2933804988861084,0.9424618482589722,0.0,0.0,0.0,0.0,0.0,0.0
706,1724914145040703373,-0.1753489077091217,0.062060777097940445,0.13085629045963287,0.041858118027448654,-0.15485765039920807,-0.2940978407859802,0.9422173500061035,0.0,0.0,0.0,0.0,0.0,0.0
708,1724914145041017539,-0.17532393336296082,0.06206950172781944,0.1308959722518921,0.042015694081783295,-0.15469279885292053,-0.2951265573501587,0.9419156908988953,0.0,0.0,0.0,0.0,0.0,0.0
710,1724914145041434786,-0.1752932220697403,0.06208086758852005,0.13091790676116943,0.042027801275253296,-0.15471318364143372,-0.29587459564208984,0.9416771531105042,0.0,0.0,0.0,0.0,0.0,0.0
712,1724914145041808788,-0.17527514696121216,0.06206267699599266,0.1308804154396057,0.04207587614655495,-0.15523283183574677,-0.2964676320552826,0.9414029121398926,0.0,0.0,0.0,0.0,0.0,0.0
714,1724914145048868705,-0.17527157068252563,0.06212584674358368,0.1309383660554886,0.042286552488803864,-0.15543165802955627,-0.29723989963531494,0.9411170482635498,0.0,0.0,0.0,0.0,0.0,0.0
716,1724914145076287893,-0.175278902053833,0.06234177201986313,0.13113220036029816,0.042344383895397186,-0.1550866663455963,-0.2986938953399658,0.9407109618186951,0.0,0.0,0.0,0.0,0.0,0.0
718,1724914145076624255,-0.17521566152572632,0.06249227374792099,0.1312355250120163,0.04296697676181793,-0.15546809136867523,-0.29980212450027466,0.9402670860290527,0.0,0.0,0.0,0.0,0.0,0.0
720,1724914145078655432,-0.17514759302139282,0.06275085359811783,0.131426140666008,0.043459776788949966,-0.15552173554897308,-0.3011837601661682,0.9397938847541809,0.0,0.0,0.0,0.0,0.0,0.0
722,1724914145088703970,-0.17510679364204407,0.06310231983661652,0.13149814307689667,0.042821984738111496,-0.15606895089149475,-0.3024614155292511,0.9393221139907837,0.0,0.0,0.0,0.0,0.0,0.0
724,1724914145098961027,-0.1750943660736084,0.06347671896219254,0.13156646490097046,0.04224272072315216,-0.15649935603141785,-0.30369120836257935,0.9388797879219055,0.0,0.0,0.0,0.0,0.0,0.0
726,1724914145110697980,-0.17508170008659363,0.06395892053842545,0.13172000646591187,0.04236224666237831,-0.15715309977531433,-0.30509868264198303,0.9383087158203125,0.0,0.0,0.0,0.0,0.0,0.0
728,1724914145119177607,-0.17514459788799286,0.06456585228443146,0.13212567567825317,0.04327443614602089,-0.15590393543243408,-0.3074163794517517,0.9377187490463257,0.0,0.0,0.0,0.0,0.0,0.0
730,1724914145128722922,-0.17514978349208832,0.06502946466207504,0.13213135302066803,0.044216398149728775,-0.15776541829109192,-0.3083403706550598,0.9370598793029785,0.0,0.0,0.0,0.0,0.0,0.0
732,1724914145217309306,-0.17532795667648315,0.06575653702020645,0.13231997191905975,0.04365990310907364,-0.15786468982696533,-0.3113594949245453,0.9360705018043518,0.0,0.0,0.0,0.0,0.0,0.0
734,1724914145217997998,-0.1754571497440338,0.06654860824346542,0.13273049890995026,0.04482234641909599,-0.1572106033563614,-0.3140071928501129,0.9352407455444336,0.0,0.0,0.0,0.0,0.0,0.0
736,1724914145218512915,-0.1756146103143692,0.06732583791017532,0.13317731022834778,0.04510609805583954,-0.15654101967811584,-0.31644168496131897,0.9345186948776245,0.0,0.0,0.0,0.0,0.0,0.0
738,1724914145219464567,-0.1757175773382187,0.06797251105308533,0.1331949084997177,0.04305391013622284,-0.15733696520328522,-0.31812015175819397,0.9339117407798767,0.0,0.0,0.0,0.0,0.0,0.0
740,1724914145219939719,-0.1757899820804596,0.06869150698184967,0.13343024253845215,0.04363473504781723,-0.15699343383312225,-0.32062357664108276,0.933086097240448,0.0,0.0,0.0,0.0,0.0,0.0
742,1724914145220357771,-0.17585496604442596,0.06936599314212799,0.1336727738380432,0.04408418387174606,-0.1574133187532425,-0.3217274248600006,0.9326141476631165,0.0,0.0,0.0,0.0,0.0,0.0
744,1724914145220850897,-0.1759638786315918,0.07015371322631836,0.13388435542583466,0.043615493923425674,-0.15711353719234467,-0.323554128408432,0.9320545792579651,0.0,0.0,0.0,0.0,0.0,0.0
746,1724914145221249637,-0.1760336458683014,0.07103922963142395,0.134244903922081,0.04523298516869545,-0.15624605119228363,-0.32617446780204773,0.9312096834182739,0.0,0.0,0.0,0.0,0.0,0.0
748,1724914145221702782,-0.17600727081298828,0.07180273532867432,0.1342582255601883,0.044419895857572556,-0.157932847738266,-0.3280888497829437,0.9302912950515747,0.0,0.0,0.0,0.0,0.0,0.0
750,1724914145230826731,-0.1759769171476364,0.07282759994268417,0.13422822952270508,0.04325501248240471,-0.15795783698558807,-0.33043617010116577,0.9295108318328857,0.0,0.0,0.0,0.0,0.0,0.0
752,1724914145238861874,-0.1758139580488205,0.07395064830780029,0.13423559069633484,0.0432940237224102,-0.15768852829933167,-0.3329283893108368,0.928665041923523,0.0,0.0,0.0,0.0,0.0,0.0
754,1724914145249502154,-0.17569607496261597,0.07515911012887955,0.1342560201883316,0.04296701401472092,-0.15545307099819183,-0.33698770403862,0.9275923371315002,0.0,0.0,0.0,0.0,0.0,0.0
756,1724914145259903653,-0.17551672458648682,0.07614399492740631,0.1339084506034851,0.04165923595428467,-0.1554177850484848,-0.33994004130363464,0.9265801310539246,0.0,0.0,0.0,0.0,0.0,0.0
758,1724914145270340024,-0.17536936700344086,0.07734110951423645,0.1337391585111618,0.03948754817247391,-0.15336917340755463,-0.34444084763526917,0.9253535866737366,0.0,0.0,0.0,0.0,0.0,0.0
760,1724914145283074737,-0.1752292364835739,0.07836492359638214,0.1336052417755127,0.0388193354010582,-0.15131013095378876,-0.3483102321624756,0.9242718815803528,0.0,0.0,0.0,0.0,0.0,0.0
762,1724914145288667943,-0.17503346502780914,0.07923485338687897,0.13320446014404297,0.037250179797410965,-0.14964686334133148,-0.350389301776886,0.923821210861206,0.0,0.0,0.0,0.0,0.0,0.0
764,1724914145298818090,-0.1747402399778366,0.08008167892694473,0.13300162553787231,0.037233345210552216,-0.14730839431285858,-0.3522779643535614,0.923479437828064,0.0,0.0,0.0,0.0,0.0,0.0
766,1724914145312194567,-0.17433154582977295,0.08101050555706024,0.13283419609069824,0.03849771246314049,-0.14510098099708557,-0.3543897271156311,0.922968864440918,0.0,0.0,0.0,0.0,0.0,0.0
768,1724914145319156341,-0.17398768663406372,0.08204144239425659,0.13248328864574432,0.03543219342827797,-0.14223846793174744,-0.35669293999671936,0.9226499795913696,0.0,0.0,0.0,0.0,0.0,0.0
770,1724914145331621047,-0.1735495626926422,0.08315886557102203,0.132245734333992,0.03424303978681564,-0.13886402547359467,-0.3593255877494812,0.9221872687339783,0.0,0.0,0.0,0.0,0.0,0.0
772,1724914145340157041,-0.17298978567123413,0.08391281962394714,0.13155406713485718,0.03196514770388603,-0.13823379576206207,-0.35940423607826233,0.9223330616950989,0.0,0.0,0.0,0.0,0.0,0.0
774,1724914145349016208,-0.17236819863319397,0.0848555788397789,0.1312398612499237,0.029480868950486183,-0.13704051077365875,-0.36110180616378784,0.921930730342865,0.0,0.0,0.0,0.0,0.0,0.0
776,1724914145359507418,-0.17155344784259796,0.08580425381660461,0.1309482455253601,0.02971314825117588,-0.13603954017162323,-0.3626106083393097,0.9214792847633362,0.0,0.0,0.0,0.0,0.0,0.0
778,1724914145398567986,-0.1706940084695816,0.08681272715330124,0.13058848679065704,0.027158865705132484,-0.13292603194713593,-0.36401206254959106,0.9214599132537842,0.0,0.0,0.0,0.0,0.0,0.0
780,1724914145398874328,-0.16976511478424072,0.08763941377401352,0.13025319576263428,0.025038857012987137,-0.12986643612384796,-0.365258127450943,0.9214631915092468,0.0,0.0,0.0,0.0,0.0,0.0
782,1724914145399319103,-0.16875343024730682,0.08841919898986816,0.12987923622131348,0.021400153636932373,-0.1262832134962082,-0.366188645362854,0.9216834902763367,0.0,0.0,0.0,0.0,0.0,0.0
784,1724914145399573973,-0.1676429659128189,0.08915247023105621,0.12921947240829468,0.02198704704642296,-0.125764399766922,-0.3654932677745819,0.9220165610313416,0.0,0.0,0.0,0.0,0.0,0.0
786,1724914145409449313,-0.16676203906536102,0.08990094065666199,0.12817342579364777,0.020374787971377373,-0.1256500482559204,-0.3654758334159851,0.9220761656761169,0.0,0.0,0.0,0.0,0.0,0.0
788,1724914145420001203,-0.16613729298114777,0.09066516906023026,0.127005472779274,0.016702109947800636,-0.12851083278656006,-0.36618539690971375,0.921474039554596,0.0,0.0,0.0,0.0,0.0,0.0
790,1724914145428852479,-0.1657683253288269,0.09133957326412201,0.12544137239456177,0.015515271574258804,-0.13397851586341858,-0.3676964342594147,0.9201133251190186,0.0,0.0,0.0,0.0,0.0,0.0
792,1724914145440262894,-0.1653309166431427,0.09237112104892731,0.12485197186470032,0.01261776965111494,-0.13494497537612915,-0.3685091733932495,0.9196911454200745,0.0,0.0,0.0,0.0,0.0,0.0
794,1724914145449982541,-0.1654813438653946,0.09315934777259827,0.12472271919250488,0.011621001176536083,-0.1361137479543686,-0.36725032329559326,0.9200355410575867,0.0,0.0,0.0,0.0,0.0,0.0
796,1724914145459394093,-0.16599436104297638,0.09406817704439163,0.12507697939872742,0.012451878748834133,-0.13530567288398743,-0.3666257858276367,0.9203928112983704,0.0,0.0,0.0,0.0,0.0,0.0
798,1724914145473031262,-0.16651080548763275,0.09478248655796051,0.12513107061386108,0.013240354135632515,-0.13707634806632996,-0.36536791920661926,0.9206199645996094,0.0,0.0,0.0,0.0,0.0,0.0
800,1724914145479609460,-0.16733713448047638,0.09559127688407898,0.12497954815626144,0.010535855777561665,-0.13902327418327332,-0.3646935522556305,0.9206303358078003,0.0,0.0,0.0,0.0,0.0,0.0
802,1724914145489468203,-0.16847041249275208,0.09659168869256973,0.12521643936634064,0.00836103968322277,-0.14058023691177368,-0.3660375475883484,0.9198825359344482,0.0,0.0,0.0,0.0,0.0,0.0
804,1724914145499086147,-0.1695484220981598,0.09763520956039429,0.12567582726478577,0.008174175396561623,-0.14130501449108124,-0.3661149740219116,0.9197422862052917,0.0,0.0,0.0,0.0,0.0,0.0
806,1724914145509101095,-0.17077217996120453,0.09870663285255432,0.12588445842266083,0.0067526791244745255,-0.1415109634399414,-0.36488333344459534,0.9202114939689636,0.0,0.0,0.0,0.0,0.0,0.0
808,1724914145519227836,-0.17227496206760406,0.09979160130023956,0.12619906663894653,0.0045498148538172245,-0.14249064028263092,-0.36484044790267944,0.9200908541679382,0.0,0.0,0.0,0.0,0.0,0.0
810,1724914145529621896,-0.17354325950145721,0.10067186504602432,0.12647433578968048,0.006021168082952499,-0.1445683389902115,-0.36380502581596375,0.9201682209968567,0.0,0.0,0.0,0.0,0.0,0.0
812,1724914145538866018,-0.17477290332317352,0.10145528614521027,0.12668268382549286,0.007289741653949022,-0.14522098004817963,-0.3635527789592743,0.9201560616493225,0.0,0.0,0.0,0.0,0.0,0.0
814,1724914145548818983,-0.17619502544403076,0.10230309516191483,0.12700432538986206,0.006480104755610228,-0.14505179226398468,-0.3649929463863373,0.9196184873580933,0.0,0.0,0.0,0.0,0.0,0.0
816,1724914145559563064,-0.1773923933506012,0.10283134877681732,0.12705069780349731,0.003986730705946684,-0.14611473679542542,-0.36589744687080383,0.9191048741340637,0.0,0.0,0.0,0.0,0.0,0.0
818,1724914145569168388,-0.17819607257843018,0.1031949520111084,0.12725448608398438,0.0029948207084089518,-0.14729686081409454,-0.3666384518146515,0.9186245203018188,0.0,0.0,0.0,0.0,0.0,0.0
820,1724914145578792475,-0.17874163389205933,0.10338737070560455,0.12732677161693573,0.003689452772960067,-0.14990533888339996,-0.36598628759384155,0.9184600114822388,0.0,0.0,0.0,0.0,0.0,0.0
822,1724914145592772575,-0.17919786274433136,0.10368416458368301,0.12746462225914001,0.0022394671104848385,-0.1503780037164688,-0.3660934567451477,0.9183447957038879,0.0,0.0,0.0,0.0,0.0,0.0
824,1724914145598919294,-0.17945674061775208,0.10395468026399612,0.1275671422481537,0.0017920430982485414,-0.15071487426757812,-0.36568504571914673,0.9184532165527344,0.0,0.0,0.0,0.0,0.0,0.0
826,1724914145609413104,-0.17981280386447906,0.10424858331680298,0.12780947983264923,0.0015246974071487784,-0.15109093487262726,-0.36663496494293213,0.9180130958557129,0.0,0.0,0.0,0.0,0.0,0.0
828,1724914145619136893,-0.18021222949028015,0.10455610603094101,0.1280180662870407,-0.00046372346696443856,-0.15175364911556244,-0.36721041798591614,0.9176748394966125,0.0,0.0,0.0,0.0,0.0,0.0
830,1724914145630073873,-0.18040823936462402,0.10504723340272903,0.12829963862895966,0.0017179284477606416,-0.15244343876838684,-0.36727815866470337,0.9175319075584412,0.0,0.0,0.0,0.0,0.0,0.0
832,1724914145639046125,-0.18056833744049072,0.10541661828756332,0.12832880020141602,0.0024628022219985723,-0.15349137783050537,-0.3666328191757202,0.9176136255264282,0.0,0.0,0.0,0.0,0.0,0.0
834,1724914145648729133,-0.18072792887687683,0.10595323890447617,0.12839210033416748,0.0034925751388072968,-0.1534007340669632,-0.3668912649154663,0.9175221920013428,0.0,0.0,0.0,0.0,0.0,0.0
836,1724914145662101120,-0.18079788982868195,0.10659294575452805,0.12839189171791077,0.003261949634179473,-0.152859166264534,-0.3675864040851593,0.9173351526260376,0.0,0.0,0.0,0.0,0.0,0.0
838,1724914145669553080,-0.18086178600788116,0.10722767561674118,0.12818339467048645,0.0031759534031152725,-0.15364642441272736,-0.3672982454299927,0.9173192977905273,0.0,0.0,0.0,0.0,0.0,0.0
840,1724914145678849225,-0.180977925658226,0.108022041618824,0.12816216051578522,0.0026241112500429153,-0.1528138369321823,-0.3681037425994873,0.9171372652053833,0.0,0.0,0.0,0.0,0.0,0.0
842,1724914145689073495,-0.18095606565475464,0.10877262055873871,0.1282339245080948,0.004383327905088663,-0.15226662158966064,-0.36901232600212097,0.9168564081192017,0.0,0.0,0.0,0.0,0.0,0.0
844,1724914145699055080,-0.18091164529323578,0.10949334502220154,0.12801997363567352,0.004965596366673708,-0.15255014598369598,-0.36848461627960205,0.917018473148346,0.0,0.0,0.0,0.0,0.0,0.0
846,1724914145709102125,-0.1808687001466751,0.11017367243766785,0.12798790633678436,0.0045715332962572575,-0.1526617854833603,-0.3683377504348755,0.9170609712600708,0.0,0.0,0.0,0.0,0.0,0.0
848,1724914145718949035,-0.18082976341247559,0.11078368872404099,0.12796282768249512,0.005246155895292759,-0.15310239791870117,-0.36805036664009094,0.9170992970466614,0.0,0.0,0.0,0.0,0.0,0.0
850,1724914145728691465,-0.1807955801486969,0.11134651303291321,0.12789809703826904,0.005906086880713701,-0.1530248373746872,-0.3678438663482666,0.9171910285949707,0.0,0.0,0.0,0.0,0.0,0.0
852,1724914145739101627,-0.18075624108314514,0.11180413514375687,0.1278894990682602,0.006446684245020151,-0.15265294909477234,-0.3681652843952179,0.9171204566955566,0.0,0.0,0.0,0.0,0.0,0.0
854,1724914145749128587,-0.18068863451480865,0.11216633766889572,0.12780645489692688,0.00555508304387331,-0.15227794647216797,-0.3683387339115143,0.9171189069747925,0.0,0.0,0.0,0.0,0.0,0.0
856,1724914145758952221,-0.18064917623996735,0.11256308853626251,0.12775655090808868,0.004046747926622629,-0.15189960598945618,-0.36808761954307556,0.917290449142456,0.0,0.0,0.0,0.0,0.0,0.0
858,1724914145769249802,-0.18052825331687927,0.11285747587680817,0.12775100767612457,0.0048051499761641026,-0.15154439210891724,-0.3678048551082611,0.9174589514732361,0.0,0.0,0.0,0.0,0.0,0.0
860,1724914145779636413,-0.180415540933609,0.11301375925540924,0.12770095467567444,0.005489896982908249,-0.15155582129955292,-0.36728328466415405,0.9176620841026306,0.0,0.0,0.0,0.0,0.0,0.0
862,1724914145790193087,-0.18030188977718353,0.1131061241030693,0.12769635021686554,0.005739973392337561,-0.15160419046878815,-0.3668164908885956,0.9178392291069031,0.0,0.0,0.0,0.0,0.0,0.0
864,1724914145799460721,-0.18018695712089539,0.11314672231674194,0.12769737839698792,0.007055585738271475,-0.15240898728370667,-0.36592283844947815,0.9180535078048706,0.0,0.0,0.0,0.0,0.0,0.0
866,1724914145809791584,-0.18014775216579437,0.11324025690555573,0.1277332901954651,0.007764739915728569,-0.1526000201702118,-0.3656497001647949,0.918124794960022,0.0,0.0,0.0,0.0,0.0,0.0
868,1724914145819217088,-0.18011024594306946,0.11331600695848465,0.12777529656887054,0.007889535278081894,-0.1528429538011551,-0.3654022514820099,0.9181818962097168,0.0,0.0,0.0,0.0,0.0,0.0
870,1724914145909083892,-0.18008127808570862,0.11343897879123688,0.12783807516098022,0.008044847287237644,-0.15283682942390442,-0.36503949761390686,0.9183258414268494,0.0,0.0,0.0,0.0,0.0,0.0
872,1724914145910896075,-0.18002933263778687,0.11350825428962708,0.12786492705345154,0.007584310602396727,-0.1533070206642151,-0.36417844891548157,0.9185932278633118,0.0,0.0,0.0,0.0,0.0,0.0
874,1724914145911399756,-0.18002694845199585,0.11352535337209702,0.12791702151298523,0.007879620417952538,-0.15340866148471832,-0.36407342553138733,0.918615460395813,0.0,0.0,0.0,0.0,0.0,0.0
876,1724914145911754242,-0.180059015750885,0.11351898312568665,0.12790732085704803,0.00823843665421009,-0.15352843701839447,-0.36392974853515625,0.9186491370201111,0.0,0.0,0.0,0.0,0.0,0.0
878,1724914145912126844,-0.1800830215215683,0.11352618783712387,0.12796057760715485,0.00791667215526104,-0.15358398854732513,-0.36398252844810486,0.9186217784881592,0.0,0.0,0.0,0.0,0.0,0.0
880,1724914145912564845,-0.18006381392478943,0.11358382552862167,0.12797650694847107,0.0077530331909656525,-0.15362673997879028,-0.3638473153114319,0.918669581413269,0.0,0.0,0.0,0.0,0.0,0.0
882,1724914145912872232,-0.18005061149597168,0.11361800134181976,0.12798230350017548,0.008074870333075523,-0.1535545289516449,-0.3638169467449188,0.9186909198760986,0.0,0.0,0.0,0.0,0.0,0.0
884,1724914145913307976,-0.18007709085941315,0.11355497688055038,0.12795236706733704,0.00833924114704132,-0.15380731225013733,-0.3637489080429077,0.9186732172966003,0.0,0.0,0.0,0.0,0.0,0.0
886,1724914145913566188,-0.18014730513095856,0.11352856457233429,0.12799356877803802,0.00828926544636488,-0.153722882270813,-0.36409860849380493,0.9185492396354675,0.0,0.0,0.0,0.0,0.0,0.0
888,1724914145919604747,-0.18021033704280853,0.1134730651974678,0.12798629701137543,0.00820082426071167,-0.15417565405368805,-0.36406269669532776,0.9184884428977966,0.0,0.0,0.0,0.0,0.0,0.0
890,1724914145928820448,-0.18025556206703186,0.11347876489162445,0.12799283862113953,0.008048920892179012,-0.1542285978794098,-0.36391809582710266,0.9185382127761841,0.0,0.0,0.0,0.0,0.0,0.0
892,1724914145939739483,-0.18029586970806122,0.11348504573106766,0.12799416482448578,0.007757595740258694,-0.1542268544435501,-0.3638870120048523,0.9185532927513123,0.0,0.0,0.0,0.0,0.0,0.0
894,1724914145952540979,-0.1802925020456314,0.11350546777248383,0.12804891169071198,0.00825231708586216,-0.15456044673919678,-0.3636246621608734,0.9185968637466431,0.0,0.0,0.0,0.0,0.0,0.0
896,1724914145959559377,-0.18029578030109406,0.1135200634598732,0.12804768979549408,0.0083308732137084,-0.15462292730808258,-0.36354056000709534,0.9186188578605652,0.0,0.0,0.0,0.0,0.0,0.0
898,1724914145970146120,-0.1803244650363922,0.11357145011425018,0.1280815750360489,0.007693079300224781,-0.15423232316970825,-0.36353230476379395,0.9186934232711792,0.0,0.0,0.0,0.0,0.0,0.0
900,1724914145979731463,-0.18030890822410583,0.11363391578197479,0.12811347842216492,0.007457862142473459,-0.15406973659992218,-0.36355188488960266,0.9187148809432983,0.0,0.0,0.0,0.0,0.0,0.0
902,1724914145989990586,-0.18028762936592102,0.11363917589187622,0.12807108461856842,0.00769829424098134,-0.15434646606445312,-0.3633038103580475,0.9187645316123962,0.0,0.0,0.0,0.0,0.0,0.0
904,1724914145999860344,-0.18032923340797424,0.11363817006349564,0.12811003625392914,0.007976450957357883,-0.15447242558002472,-0.3632643222808838,0.9187566041946411,0.0,0.0,0.0,0.0,0.0,0.0
906,1724914146009520549,-0.1804271936416626,0.11358076333999634,0.12814700603485107,0.00842238124459982,-0.1547919660806656,-0.36320289969444275,0.9187231063842773,0.0,0.0,0.0,0.0,0.0,0.0
908,1724914146059652113,-0.18049895763397217,0.11354948580265045,0.12822797894477844,0.008517690934240818,-0.15485261380672455,-0.36349940299987793,0.9185948371887207,0.0,0.0,0.0,0.0,0.0,0.0
910,1724914146060015277,-0.18056705594062805,0.11352317035198212,0.12827515602111816,0.00833628885447979,-0.15519386529922485,-0.36368945240974426,0.9184635877609253,0.0,0.0,0.0,0.0,0.0,0.0
912,1724914146060251362,-0.18064144253730774,0.1135614812374115,0.12833823263645172,0.007699793670326471,-0.15532423555850983,-0.3638000786304474,0.9184032678604126,0.0,0.0,0.0,0.0,0.0,0.0
914,1724914146060999940,-0.18064555525779724,0.11352872848510742,0.1283569484949112,0.00849058572202921,-0.15585541725158691,-0.36356085538864136,0.9184010624885559,0.0,0.0,0.0,0.0,0.0,0.0
916,1724914146061284600,-0.18066374957561493,0.11346451938152313,0.12835663557052612,0.008764784783124924,-0.15588527917861938,-0.363492876291275,0.9184203147888184,0.0,0.0,0.0,0.0,0.0,0.0
918,1724914146087042651,-0.18069836497306824,0.1133655309677124,0.12834283709526062,0.008436189033091068,-0.15563832223415375,-0.3631212115287781,0.9186123609542847,0.0,0.0,0.0,0.0,0.0,0.0
920,1724914146087398724,-0.18069496750831604,0.11331868171691895,0.12838204205036163,0.008600810542702675,-0.15565498173236847,-0.36302652955055237,0.9186453223228455,0.0,0.0,0.0,0.0,0.0,0.0
922,1724914146088963261,-0.180745929479599,0.11324018239974976,0.128400519490242,0.009392237290740013,-0.15593227744102478,-0.36325475573539734,0.9185003638267517,0.0,0.0,0.0,0.0,0.0,0.0
924,1724914146098948262,-0.18096362054347992,0.11313238739967346,0.12846368551254272,0.006993926130235195,-0.1553998738527298,-0.3641563355922699,0.9182550311088562,0.0,0.0,0.0,0.0,0.0,0.0
926,1724914146108995421,-0.18112629652023315,0.11291272193193436,0.1286984533071518,0.006958108860999346,-0.15555594861507416,-0.36467573046684265,0.918022632598877,0.0,0.0,0.0,0.0,0.0,0.0
928,1724914146119277259,-0.18121077120304108,0.11267606168985367,0.12879043817520142,0.007206720765680075,-0.15573588013648987,-0.3644956052303314,0.9180617332458496,0.0,0.0,0.0,0.0,0.0,0.0
930,1724914146128916237,-0.18131250143051147,0.11242615431547165,0.12885069847106934,0.007526646368205547,-0.15510569512844086,-0.3641519546508789,0.9183021783828735,0.0,0.0,0.0,0.0,0.0,0.0
932,1724914146139196731,-0.1814398169517517,0.1120656281709671,0.1288461834192276,0.007922372780740261,-0.15524381399154663,-0.36351069808006287,0.9185295701026917,0.0,0.0,0.0,0.0,0.0,0.0
934,1724914146149084902,-0.18162018060684204,0.11178416758775711,0.12892472743988037,0.007250862196087837,-0.1550258845090866,-0.36341238021850586,0.9186108112335205,0.0,0.0,0.0,0.0,0.0,0.0
936,1724914146159166722,-0.18168434500694275,0.11133862286806107,0.12887048721313477,0.007741395849734545,-0.1566007286310196,-0.3619838356971741,0.9189037084579468,0.0,0.0,0.0,0.0,0.0,0.0
938,1724914146169955503,-0.18175385892391205,0.11100763827562332,0.12900985777378082,0.007891636341810226,-0.1567196547985077,-0.3611399829387665,0.9192140698432922,0.0,0.0,0.0,0.0,0.0,0.0
940,1724914146263183457,-0.18181802332401276,0.11050321161746979,0.12897200882434845,0.00818623322993517,-0.1576022505760193,-0.3596009314060211,0.9196639060974121,0.0,0.0,0.0,0.0,0.0,0.0
942,1724914146263488033,-0.18194536864757538,0.11001341044902802,0.1289808601140976,0.00795720424503088,-0.1577775925397873,-0.3581916391849518,0.9201857447624207,0.0,0.0,0.0,0.0,0.0,0.0
944,1724914146263760369,-0.1820337474346161,0.10940011590719223,0.12899133563041687,0.007664951030164957,-0.15922892093658447,-0.35629063844680786,0.920676052570343,0.0,0.0,0.0,0.0,0.0,0.0
946,1724914146264012228,-0.18211084604263306,0.10878410935401917,0.1292545646429062,0.007581229321658611,-0.15936994552612305,-0.35540512204170227,0.9209945201873779,0.0,0.0,0.0,0.0,0.0,0.0
948,1724914146264262461,-0.18207032978534698,0.10799428820610046,0.1293978989124298,0.006947697140276432,-0.1593639999628067,-0.3539966940879822,0.9215428233146667,0.0,0.0,0.0,0.0,0.0,0.0
950,1724914146264512307,-0.18192362785339355,0.10715747624635696,0.12951941788196564,0.008270527236163616,-0.15967491269111633,-0.35189375281333923,0.9222832322120667,0.0,0.0,0.0,0.0,0.0,0.0
952,1724914146264759517,-0.18189068138599396,0.10626693069934845,0.12984023988246918,0.00818680226802826,-0.15947216749191284,-0.3503873646259308,0.9228923916816711,0.0,0.0,0.0,0.0,0.0,0.0
954,1724914146265008348,-0.18186073005199432,0.10514822602272034,0.1300196647644043,0.005946460645645857,-0.15848469734191895,-0.34926193952560425,0.9235060811042786,0.0,0.0,0.0,0.0,0.0,0.0
956,1724914146265259750,-0.18169370293617249,0.10378820449113846,0.1299164593219757,0.005398654844611883,-0.15988919138908386,-0.3461606204509735,0.9244345426559448,0.0,0.0,0.0,0.0,0.0,0.0
958,1724914146269266163,-0.1814878135919571,0.1025080531835556,0.129935622215271,0.0041617946699261665,-0.15999577939510345,-0.3439578115940094,0.9252443909645081,0.0,0.0,0.0,0.0,0.0,0.0
960,1724914146310402084,-0.18110890686511993,0.10113485902547836,0.12996399402618408,0.0027934133540838957,-0.160741925239563,-0.3404870927333832,0.9264031648635864,0.0,0.0,0.0,0.0,0.0,0.0
962,1724914146310631249,-0.18065473437309265,0.09990349411964417,0.13016028702259064,0.005009990185499191,-0.15933099389076233,-0.33832257986068726,0.9274300336837769,0.0,0.0,0.0,0.0,0.0,0.0
964,1724914146310890627,-0.18027758598327637,0.09846686571836472,0.13021662831306458,0.0035559823736548424,-0.15890876948833466,-0.33582064509391785,0.928417980670929,0.0,0.0,0.0,0.0,0.0,0.0
966,1724914146311138657,-0.17996855080127716,0.09690597653388977,0.13030828535556793,-1.6265279555227607e-05,-0.15902306139469147,-0.33396726846694946,0.9290734529495239,0.0,0.0,0.0,0.0,0.0,0.0
968,1724914146319119925,-0.1794423758983612,0.09553834050893784,0.13050878047943115,-0.0003144984075333923,-0.15810371935367584,-0.3321642577648163,0.9298763871192932,0.0,0.0,0.0,0.0,0.0,0.0
970,1724914146329154873,-0.17877241969108582,0.09398318082094193,0.1303538978099823,-0.0016503218794241548,-0.15807756781578064,-0.32924696803092957,0.9309163093566895,0.0,0.0,0.0,0.0,0.0,0.0
972,1724914146389820054,-0.17811337113380432,0.09246216714382172,0.13049322366714478,-0.0024581279139965773,-0.15702833235263824,-0.3267241418361664,0.9319804310798645,0.0,0.0,0.0,0.0,0.0,0.0
974,1724914146390540777,-0.17744629085063934,0.09070880711078644,0.13021956384181976,-0.004045124165713787,-0.15826095640659332,-0.3227258026599884,0.9331586956977844,0.0,0.0,0.0,0.0,0.0,0.0
976,1724914146391258682,-0.17665709555149078,0.08908189088106155,0.13022911548614502,-0.004068776499480009,-0.1567285805940628,-0.3205896317958832,0.9341530799865723,0.0,0.0,0.0,0.0,0.0,0.0
978,1724914146391842846,-0.17587518692016602,0.087472103536129,0.13011053204536438,-0.0073524173349142075,-0.1558184176683426,-0.31776970624923706,0.9352481365203857,0.0,0.0,0.0,0.0,0.0,0.0
980,1724914146392110447,-0.17492802441120148,0.085935078561306,0.130377858877182,-0.0076819611713290215,-0.15521317720413208,-0.31459933519363403,0.9364172220230103,0.0,0.0,0.0,0.0,0.0,0.0
982,1724914146392349446,-0.1739644706249237,0.08438281714916229,0.1305525153875351,-0.005911041051149368,-0.15323518216609955,-0.31247106194496155,0.9374678730964661,0.0,0.0,0.0,0.0,0.0,0.0
984,1724914146415505596,-0.17285612225532532,0.08255963027477264,0.13021832704544067,-0.006660190410912037,-0.15350933372974396,-0.30954474210739136,0.9383883476257324,0.0,0.0,0.0,0.0,0.0,0.0
986,1724914146415944040,-0.17161007225513458,0.08092852681875229,0.13019078969955444,-0.009071736596524715,-0.1533486694097519,-0.30747196078300476,0.9390755891799927,0.0,0.0,0.0,0.0,0.0,0.0
988,1724914146419946379,-0.17018425464630127,0.07924336940050125,0.13001704216003418,-0.009513224475085735,-0.15279164910316467,-0.30442196130752563,0.9401550889015198,0.0,0.0,0.0,0.0,0.0,0.0
990,1724914146428935025,-0.16892540454864502,0.07771121710538864,0.1297527253627777,-0.012070723809301853,-0.15141838788986206,-0.30279138684272766,0.9408741593360901,0.0,0.0,0.0,0.0,0.0,0.0
992,1724914146439216889,-0.16737720370292664,0.07630710303783417,0.12956656515598297,-0.012006458826363087,-0.14984194934368134,-0.30131393671035767,0.9416013360023499,0.0,0.0,0.0,0.0,0.0,0.0
994,1724914146448981109,-0.16582058370113373,0.07493357360363007,0.12900108098983765,-0.011149143800139427,-0.14793866872787476,-0.29894107580184937,0.9426685571670532,0.0,0.0,0.0,0.0,0.0,0.0
996,1724914146466386296,-0.16419918835163116,0.07373477518558502,0.12853875756263733,-0.011129203252494335,-0.14545443654060364,-0.29831334948539734,0.9432541131973267,0.0,0.0,0.0,0.0,0.0,0.0
998,1724914146470331308,-0.16260670125484467,0.07263853400945663,0.1280348151922226,-0.012220518663525581,-0.14063456654548645,-0.29823094606399536,0.9439972639083862,0.0,0.0,0.0,0.0,0.0,0.0
1000,1724914146478941424,-0.16089549660682678,0.07134277373552322,0.12744876742362976,-0.01236227247864008,-0.13904152810573578,-0.29674530029296875,0.9446994662284851,0.0,0.0,0.0,0.0,0.0,0.0
1002,1724914146489213584,-0.15947987139225006,0.07057838886976242,0.12703540921211243,-0.015226798132061958,-0.13740871846675873,-0.2974354922771454,0.9446794390678406,0.0,0.0,0.0,0.0,0.0,0.0
1004,1724914146499633522,-0.15791918337345123,0.06980728358030319,0.1265813410282135,-0.012905186973512173,-0.13571003079414368,-0.2960793673992157,0.945385217666626,0.0,0.0,0.0,0.0,0.0,0.0
1006,1724914146509216655,-0.15649619698524475,0.06888953596353531,0.12622976303100586,-0.011378600262105465,-0.13477714359760284,-0.29513052105903625,0.9458349347114563,0.0,0.0,0.0,0.0,0.0,0.0
1008,1724914146519344407,-0.15521708130836487,0.06815037876367569,0.12588103115558624,-0.012481559067964554,-0.13467846810817719,-0.29336628317832947,0.9463837742805481,0.0,0.0,0.0,0.0,0.0,0.0
1010,1724914146529837426,-0.15426664054393768,0.06760738044977188,0.12585222721099854,-0.013368499465286732,-0.1342293918132782,-0.29268696904182434,0.9466457962989807,0.0,0.0,0.0,0.0,0.0,0.0
1012,1724914146539439916,-0.15368159115314484,0.06726846098899841,0.12587971985340118,-0.013640631921589375,-0.13318416476249695,-0.29290544986724854,0.9467218518257141,0.0,0.0,0.0,0.0,0.0,0.0
1014,1724914146548960742,-0.15344148874282837,0.06695893406867981,0.1259104311466217,-0.013214711099863052,-0.13347753882408142,-0.29283711314201355,0.9467077851295471,0.0,0.0,0.0,0.0,0.0,0.0
1016,1724914146561342755,-0.15344806015491486,0.06675189733505249,0.12593838572502136,-0.011357893235981464,-0.1341974139213562,-0.2922692894935608,0.9468055367469788,0.0,0.0,0.0,0.0,0.0,0.0
1018,1724914146569201310,-0.1536550223827362,0.06668294221162796,0.12601520121097565,-0.010849292390048504,-0.13437768816947937,-0.2923758029937744,0.9467530846595764,0.0,0.0,0.0,0.0,0.0,0.0
1020,1724914146578944790,-0.15387538075447083,0.06666061282157898,0.12607373297214508,-0.010535189881920815,-0.1343879997730255,-0.29251423478126526,0.9467123746871948,0.0,0.0,0.0,0.0,0.0,0.0
1022,1724914146589617045,-0.15405729413032532,0.06664324551820755,0.12609025835990906,-0.011006291955709457,-0.1340952068567276,-0.29259440302848816,0.9467237591743469,0.0,0.0,0.0,0.0,0.0,0.0
1024,1724914146609267185,-0.1541747897863388,0.06660143285989761,0.1259259730577469,-0.010871104896068573,-0.13379916548728943,-0.29186251759529114,0.9469931125640869,0.0,0.0,0.0,0.0,0.0,0.0
1026,1724914146609530430,-0.15426188707351685,0.06654084473848343,0.1258196234703064,-0.009962275624275208,-0.13360272347927094,-0.29138612747192383,0.9471774697303772,0.0,0.0,0.0,0.0,0.0,0.0
1028,1724914146619402426,-0.15433333814144135,0.06647734344005585,0.12576082348823547,-0.00896777305752039,-0.13400331139564514,-0.2909088134765625,0.9472775459289551,0.0,0.0,0.0,0.0,0.0,0.0
1030,1724914146628893119,-0.15444327890872955,0.06640845537185669,0.1258080154657364,-0.0075545902363955975,-0.1342020332813263,-0.2907237112522125,0.9473186135292053,0.0,0.0,0.0,0.0,0.0,0.0
1032,1724914146638831668,-0.15461067855358124,0.06626144051551819,0.1258877068758011,-0.005934415850788355,-0.13426567614078522,-0.29117995500564575,0.947180986404419,0.0,0.0,0.0,0.0,0.0,0.0
1034,1724914146648902384,-0.15483085811138153,0.06604737043380737,0.12574413418769836,-0.005313364788889885,-0.13492216169834137,-0.2906860411167145,0.9472430348396301,0.0,0.0,0.0,0.0,0.0,0.0
1036,1724914146659077581,-0.1551344394683838,0.06584662199020386,0.12574489414691925,-0.005557690281420946,-0.13591410219669342,-0.29048454761505127,0.9471616148948669,0.0,0.0,0.0,0.0,0.0,0.0
1038,1724914146670394275,-0.15549235045909882,0.06563782691955566,0.12576842308044434,-0.005135322920978069,-0.136324942111969,-0.29037949442863464,0.9471372365951538,0.0,0.0,0.0,0.0,0.0,0.0
1040,1724914146679033055,-0.1558178961277008,0.0655832588672638,0.12575122714042664,-0.0054516298696398735,-0.13610690832138062,-0.2902126610279083,0.9472180008888245,0.0,0.0,0.0,0.0,0.0,0.0
1042,1724914146689163025,-0.1561850607395172,0.06557605415582657,0.12578634917736053,-0.005349918734282255,-0.13526512682437897,-0.2900264263153076,0.9473960995674133,0.0,0.0,0.0,0.0,0.0,0.0
1044,1724914146706879720,-0.15654578804969788,0.06555537134408951,0.12571455538272858,-0.004618257284164429,-0.13494257628917694,-0.2894803583621979,0.9476129412651062,0.0,0.0,0.0,0.0,0.0,0.0
1046,1724914146710050879,-0.1568794846534729,0.06547880172729492,0.12554115056991577,-0.003497963771224022,-0.1349237710237503,-0.2886990010738373,0.9478588104248047,0.0,0.0,0.0,0.0,0.0,0.0
1048,1724914146718948868,-0.15730109810829163,0.06538909673690796,0.12540364265441895,-0.003055381588637829,-0.1346055120229721,-0.2883795499801636,0.9480027556419373,0.0,0.0,0.0,0.0,0.0,0.0
1050,1724914146728748077,-0.15782298147678375,0.06534525752067566,0.12532010674476624,-0.0035205320455133915,-0.1338408887386322,-0.28855589032173157,0.9480558037757874,0.0,0.0,0.0,0.0,0.0,0.0
1052,1724914146739317618,-0.158331036567688,0.06532154232263565,0.12525169551372528,-0.003654015250504017,-0.13368186354637146,-0.28870123624801636,0.9480335116386414,0.0,0.0,0.0,0.0,0.0,0.0
1054,1724914146749743276,-0.1588413417339325,0.065315842628479,0.12521708011627197,-0.002701121149584651,-0.1329137235879898,-0.2890998423099518,0.9480232000350952,0.0,0.0,0.0,0.0,0.0,0.0
1056,1724914146763191454,-0.15928566455841064,0.0653342455625534,0.125146746635437,-0.0026446350384503603,-0.1323842853307724,-0.2892681658267975,0.9480460286140442,0.0,0.0,0.0,0.0,0.0,0.0
1058,1724914146770162283,-0.15967422723770142,0.06524395942687988,0.12488748133182526,-0.0018856102833524346,-0.13224004209041595,-0.2886980175971985,0.9482418298721313,0.0,0.0,0.0,0.0,0.0,0.0
1060,1724914146782352948,-0.15993641316890717,0.06537087261676788,0.12497659027576447,-0.001188715803436935,-0.13070370256900787,-0.28922829031944275,0.9482944011688232,0.0,0.0,0.0,0.0,0.0,0.0
1062,1724914146789236136,-0.16009639203548431,0.06532575190067291,0.12483125180006027,-0.002093052724376321,-0.13126811385154724,-0.2885977625846863,0.9484069347381592,0.0,0.0,0.0,0.0,0.0,0.0
1064,1724914146862534201,-0.16013069450855255,0.06539302319288254,0.12477082014083862,-0.0021993841510266066,-0.13108116388320923,-0.2882280647754669,0.9485449194908142,0.0,0.0,0.0,0.0,0.0,0.0
1066,1724914146862976408,-0.16009488701820374,0.06558819115161896,0.12485408037900925,-0.0009037837735377252,-0.12975876033306122,-0.28819236159324646,0.9487397074699402,0.0,0.0,0.0,0.0,0.0,0.0
1068,1724914146863344979,-0.16004641354084015,0.06572459638118744,0.12493372708559036,-0.0006583211943507195,-0.12929850816726685,-0.2878722548484802,0.9488998651504517,0.0,0.0,0.0,0.0,0.0,0.0
1070,1724914146863710236,-0.16002507507801056,0.06579116731882095,0.12492713332176208,-0.0003213633317500353,-0.1293702870607376,-0.2874634563922882,0.9490143060684204,0.0,0.0,0.0,0.0,0.0,0.0
1072,1724914146864374155,-0.16003529727458954,0.0657511055469513,0.12491066753864288,-3.9704500522930175e-06,-0.12964574992656708,-0.2872416079044342,0.949043869972229,0.0,0.0,0.0,0.0,0.0,0.0
1074,1724914146864786132,-0.16005316376686096,0.06567338109016418,0.12488468736410141,-3.350115366629325e-05,-0.12982848286628723,-0.2873993217945099,0.948971152305603,0.0,0.0,0.0,0.0,0.0,0.0
1076,1724914146865273185,-0.1601024568080902,0.06557774543762207,0.12486743927001953,-0.00020473309268709272,-0.12974759936332703,-0.28783750534057617,0.9488493204116821,0.0,0.0,0.0,0.0,0.0,0.0
1078,1724914146869189709,-0.16015498340129852,0.06547366082668304,0.12484997510910034,-0.000747242069337517,-0.12972994148731232,-0.2881584167480469,0.9487541317939758,0.0,0.0,0.0,0.0,0.0,0.0
1080,1724914146878916205,-0.16018815338611603,0.0654364675283432,0.12484710663557053,-0.0009627483086660504,-0.12984280288219452,-0.28837403655052185,0.9486730098724365,0.0,0.0,0.0,0.0,0.0,0.0
1082,1724914146888833157,-0.16020742058753967,0.06546857208013535,0.12486279755830765,-0.001030615414492786,-0.12970776855945587,-0.2884446978569031,0.9486699104309082,0.0,0.0,0.0,0.0,0.0,0.0
1084,1724914146899314520,-0.16019923985004425,0.06546460092067719,0.12488332390785217,-0.0009211988071911037,-0.1299249529838562,-0.2882526218891144,0.9486986398696899,0.0,0.0,0.0,0.0,0.0,0.0
1086,1724914146909214231,-0.16015219688415527,0.06553606688976288,0.12488874047994614,-0.0007041006465442479,-0.1298564225435257,-0.28789785504341125,0.9488159418106079,0.0,0.0,0.0,0.0,0.0,0.0
1088,1724914146919586658,-0.16014088690280914,0.06555984914302826,0.12487275898456573,-0.0005505571607500315,-0.1299094408750534,-0.28760915994644165,0.9488963484764099,0.0,0.0,0.0,0.0,0.0,0.0
1090,1724914146928915598,-0.1601458042860031,0.065604567527771,0.12491299957036972,-0.0004807263321708888,-0.12970639765262604,-0.28785082697868347,0.9488508105278015,0.0,0.0,0.0,0.0,0.0,0.0
1092,1724914146939280899,-0.16011565923690796,0.06567844748497009,0.12494667619466782,-0.0003894945257343352,-0.129762202501297,-0.2876611351966858,0.9489007592201233,0.0,0.0,0.0,0.0,0.0,0.0
1094,1724914146949652872,-0.1601637601852417,0.06563113629817963,0.1249469667673111,-0.00022504033404402435,-0.12971587479114532,-0.28776147961616516,0.9488767981529236,0.0,0.0,0.0,0.0,0.0,0.0
1096,1724914146960569860,-0.16017355024814606,0.0656236782670021,0.12497908622026443,-0.00014943606220185757,-0.1297231763601303,-0.2877731919288635,0.9488722085952759,0.0,0.0,0.0,0.0,0.0,0.0
1098,1724914146969624662,-0.16017283499240875,0.06554475426673889,0.12490072846412659,-5.590633918473031e-06,-0.12987878918647766,-0.28769364953041077,0.9488750696182251,0.0,0.0,0.0,0.0,0.0,0.0
1100,1724914146981358773,-0.160180002450943,0.06546258181333542,0.12483833730220795,-0.0005107491160742939,-0.13013921678066254,-0.28770244121551514,0.9488365650177002,0.0,0.0,0.0,0.0,0.0,0.0
1102,1724914146988738255,-0.16018223762512207,0.0655379369854927,0.12489878386259079,-0.0007639687391929328,-0.12976276874542236,-0.28798994421958923,0.948800802230835,0.0,0.0,0.0,0.0,0.0,0.0
1104,1724914146999694571,-0.1601783186197281,0.06552022695541382,0.12491659075021744,-0.000724476296454668,-0.1299387514591217,-0.2880396842956543,0.9487616419792175,0.0,0.0,0.0,0.0,0.0,0.0
1106,1724914147009350717,-0.16018325090408325,0.0655488446354866,0.12484657764434814,-0.0012311915634199977,-0.13089384138584137,-0.2875942885875702,0.9487648606300354,0.0,0.0,0.0,0.0,0.0,0.0
1108,1724914147019502414,-0.16017897427082062,0.06561514735221863,0.1248098611831665,-0.0006202504155226052,-0.13115452229976654,-0.28740212321281433,0.9487877488136292,0.0,0.0,0.0,0.0,0.0,0.0
1110,1724914147029520336,-0.1602238565683365,0.06573089957237244,0.12486148625612259,-0.0006988752284087241,-0.13082417845726013,-0.28782162070274353,0.9487060904502869,0.0,0.0,0.0,0.0,0.0,0.0
1112,1724914147039034418,-0.16026881337165833,0.06589989364147186,0.12495964020490646,-0.0008850376470945776,-0.13060493767261505,-0.28836166858673096,0.9485721588134766,0.0,0.0,0.0,0.0,0.0,0.0
1114,1724914147048920314,-0.16026747226715088,0.06616196781396866,0.12501168251037598,-0.0008832167368382215,-0.13045158982276917,-0.28831765055656433,0.9486066102981567,0.0,0.0,0.0,0.0,0.0,0.0
1116,1724914147061513432,-0.16021409630775452,0.06633546203374863,0.12492973357439041,-0.00021193012071307749,-0.1307268738746643,-0.2877194583415985,0.9487507939338684,0.0,0.0,0.0,0.0,0.0,0.0
1118,1724914147069340172,-0.1601405143737793,0.06651771813631058,0.12484079599380493,0.000137746159452945,-0.13139097392559052,-0.286832332611084,0.9489275813102722,0.0,0.0,0.0,0.0,0.0,0.0
1120,1724914147078821599,-0.16011440753936768,0.06669694930315018,0.12485513091087341,0.00020801718346774578,-0.13177509605884552,-0.2867351472377777,0.9489037394523621,0.0,0.0,0.0,0.0,0.0,0.0
1122,1724914147088813054,-0.16013802587985992,0.06689359992742538,0.12484966963529587,0.00024018445401452482,-0.13195820152759552,-0.28660669922828674,0.948917031288147,0.0,0.0,0.0,0.0,0.0,0.0
1124,1724914147098832280,-0.16015450656414032,0.06718656420707703,0.12487977743148804,0.0003139141481369734,-0.1322038620710373,-0.28634145855903625,0.9489629864692688,0.0,0.0,0.0,0.0,0.0,0.0
1126,1724914147111883021,-0.16022641956806183,0.06750170886516571,0.12493632733821869,-0.0006791542982682586,-0.13230954110622406,-0.2866564989089966,0.9488528966903687,0.0,0.0,0.0,0.0,0.0,0.0
1128,1724914147120933684,-0.16023840010166168,0.06785565614700317,0.1249636560678482,-6.701805250486359e-05,-0.1322910040616989,-0.2872876226902008,0.9486647844314575,0.0,0.0,0.0,0.0,0.0,0.0
1130,1724914147129984659,-0.16035045683383942,0.06828402727842331,0.12505246698856354,0.000639984558802098,-0.13164633512496948,-0.2888941466808319,0.948266327381134,0.0,0.0,0.0,0.0,0.0,0.0
1132,1724914147139592717,-0.1605128049850464,0.06878113001585007,0.1252547949552536,0.0004943960229866207,-0.13160443305969238,-0.2904343008995056,0.9478017091751099,0.0,0.0,0.0,0.0,0.0,0.0
1134,1724914147150442954,-0.1606748104095459,0.0693170502781868,0.1252894401550293,0.00010620715329423547,-0.13185818493366241,-0.2922137379646301,0.9472193717956543,0.0,0.0,0.0,0.0,0.0,0.0
1136,1724914147159108569,-0.16074807941913605,0.0698683112859726,0.125138059258461,-0.0016089779091998935,-0.13332673907279968,-0.2927868366241455,0.9468353986740112,0.0,0.0,0.0,0.0,0.0,0.0
1138,1724914147169275341,-0.1607511341571808,0.07053413987159729,0.12489248812198639,-0.001307305763475597,-0.13400422036647797,-0.2938297390937805,0.9464170336723328,0.0,0.0,0.0,0.0,0.0,0.0
1140,1724914147226252474,-0.1607181876897812,0.07124162465333939,0.12477687001228333,-0.0001090092264348641,-0.13374611735343933,-0.2948284149169922,0.9461438655853271,0.0,0.0,0.0,0.0,0.0,0.0
1142,1724914147227080364,-0.16071313619613647,0.07189702987670898,0.12482306361198425,0.0013091096188873053,-0.13316063582897186,-0.2962033748626709,0.9457960724830627,0.0,0.0,0.0,0.0,0.0,0.0
1144,1724914147227503061,-0.16073568165302277,0.07246850430965424,0.12487782537937164,0.001838194439187646,-0.13259153068065643,-0.2972489297389984,0.9455470442771912,0.0,0.0,0.0,0.0,0.0,0.0
1146,1724914147227944135,-0.16074053943157196,0.0731339380145073,0.12502318620681763,0.0018263454549014568,-0.13147708773612976,-0.2988646626472473,0.9451932907104492,0.0,0.0,0.0,0.0,0.0,0.0
1148,1724914147228392921,-0.1607065498828888,0.07396265119314194,0.12539555132389069,0.0026967336889356375,-0.12879787385463715,-0.3013094663619995,0.9447838068008423,0.0,0.0,0.0,0.0,0.0,0.0
1150,1724914147229128739,-0.16063521802425385,0.07461301237344742,0.12539725005626678,0.0025669706519693136,-0.12854520976543427,-0.301979124546051,0.944604754447937,0.0,0.0,0.0,0.0,0.0,0.0
1152,1724914147239101741,-0.16059952974319458,0.075368732213974,0.1254795342683792,0.0037597743794322014,-0.1274450570344925,-0.30353111028671265,0.9442523121833801,0.0,0.0,0.0,0.0,0.0,0.0
1154,1724914147249157448,-0.1606631577014923,0.07629650086164474,0.12572196125984192,0.004349562339484692,-0.12672767043113708,-0.3056778907775879,0.9436536431312561,0.0,0.0,0.0,0.0,0.0,0.0
1156,1724914147261669111,-0.16065235435962677,0.07740049064159393,0.1260153353214264,0.0045093451626598835,-0.12555339932441711,-0.3084028661251068,0.9429230093955994,0.0,0.0,0.0,0.0,0.0,0.0
1158,1724914147269127944,-0.16076824069023132,0.07855362445116043,0.1261654943227768,0.00416393019258976,-0.12509113550186157,-0.31059178709983826,0.9422672986984253,0.0,0.0,0.0,0.0,0.0,0.0
1160,1724914147279730469,-0.16086862981319427,0.07973364740610123,0.12614645063877106,0.0039692954160273075,-0.12426899373531342,-0.3132312595844269,0.9415029287338257,0.0,0.0,0.0,0.0,0.0,0.0
1162,1724914147288852472,-0.16085627675056458,0.08071582764387131,0.12603354454040527,0.006374575663357973,-0.12504100799560547,-0.314065158367157,0.9411095380783081,0.0,0.0,0.0,0.0,0.0,0.0
1164,1724914147301959078,-0.16107183694839478,0.08189763128757477,0.12603867053985596,0.006903538014739752,-0.1240944117307663,-0.31625446677207947,0.9404977560043335,0.0,0.0,0.0,0.0,0.0,0.0
1166,1724914147309930190,-0.16148757934570312,0.08311891555786133,0.1261201947927475,0.008490256033837795,-0.1234380230307579,-0.31921830773353577,0.9395694732666016,0.0,0.0,0.0,0.0,0.0,0.0
1168,1724914147319432255,-0.16201016306877136,0.08444423973560333,0.12631195783615112,0.01036869641393423,-0.12396577000617981,-0.3211044669151306,0.9388380646705627,0.0,0.0,0.0,0.0,0.0,0.0
1170,1724914147329414371,-0.16264623403549194,0.08570200204849243,0.12661747634410858,0.011328499764204025,-0.1251763105392456,-0.3236328363418579,0.9377977252006531,0.0,0.0,0.0,0.0,0.0,0.0
1172,1724914147339513267,-0.16359998285770416,0.08696164935827255,0.12655553221702576,0.010929449461400509,-0.12629258632659912,-0.3256100118160248,0.9369679093360901,0.0,0.0,0.0,0.0,0.0,0.0
1174,1724914147349137461,-0.16464103758335114,0.08827605098485947,0.1262781172990799,0.013082152232527733,-0.12808385491371155,-0.32718080282211304,0.9361496567726135,0.0,0.0,0.0,0.0,0.0,0.0
1176,1724914147398753611,-0.16575245559215546,0.08961594849824905,0.12609392404556274,0.01433475036174059,-0.13049869239330292,-0.3298216164112091,0.9348702430725098,0.0,0.0,0.0,0.0,0.0,0.0
1178,1724914147399037532,-0.16682928800582886,0.09105567634105682,0.12580160796642303,0.015993094071745872,-0.13199257850646973,-0.33130723237991333,0.9341079592704773,0.0,0.0,0.0,0.0,0.0,0.0
1180,1724914147399439314,-0.16816219687461853,0.09250789880752563,0.1250683069229126,0.01631731353700161,-0.13263675570487976,-0.33352676033973694,0.9332209229469299,0.0,0.0,0.0,0.0,0.0,0.0
1182,1724914147399695976,-0.16955967247486115,0.09397721290588379,0.12470453977584839,0.018251169472932816,-0.1319369673728943,-0.3365881145000458,0.9321845173835754,0.0,0.0,0.0,0.0,0.0,0.0
1184,1724914147399945472,-0.17096391320228577,0.09530039876699448,0.1247698962688446,0.019461840391159058,-0.13060474395751953,-0.33837395906448364,0.9317010045051575,0.0,0.0,0.0,0.0,0.0,0.0
1186,1724914147409488046,-0.17245817184448242,0.09634333848953247,0.12467177212238312,0.023053690791130066,-0.13104255497455597,-0.33948278427124023,0.9311540722846985,0.0,0.0,0.0,0.0,0.0,0.0
1188,1724914147419770756,-0.1740081012248993,0.09758387506008148,0.12513086199760437,0.025769151747226715,-0.1305370032787323,-0.34149953722953796,0.9304160475730896,0.0,0.0,0.0,0.0,0.0,0.0
1190,1724914147428954727,-0.17553618550300598,0.09863495826721191,0.125456765294075,0.026366353034973145,-0.13042321801185608,-0.3428328037261963,0.9299249053001404,0.0,0.0,0.0,0.0,0.0,0.0
1192,1724914147439003550,-0.17720769345760345,0.09960117936134338,0.1255987584590912,0.026821279898285866,-0.1300269216299057,-0.3449633717536926,0.9291791915893555,0.0,0.0,0.0,0.0,0.0,0.0
1194,1724914147451563155,-0.17879989743232727,0.1006927564740181,0.1259767711162567,0.029288295656442642,-0.12894375622272491,-0.34662702679634094,0.9286363124847412,0.0,0.0,0.0,0.0,0.0,0.0
1196,1724914147459145798,-0.18026715517044067,0.10197396576404572,0.12644869089126587,0.029541296884417534,-0.12732937932014465,-0.34946852922439575,0.9277856945991516,0.0,0.0,0.0,0.0,0.0,0.0
1198,1724914147469970944,-0.181396484375,0.10317529737949371,0.1265879124403,0.030436590313911438,-0.12778766453266144,-0.3504074215888977,0.927339494228363,0.0,0.0,0.0,0.0,0.0,0.0
1200,1724914147479458024,-0.18236228823661804,0.10423421859741211,0.12658900022506714,0.033567726612091064,-0.12862522900104523,-0.34947940707206726,0.9274658560752869,0.0,0.0,0.0,0.0,0.0,0.0
1202,1724914147488821026,-0.18310752511024475,0.10544946789741516,0.12703269720077515,0.03504767268896103,-0.12716780602931976,-0.3507930338382721,0.9271161556243896,0.0,0.0,0.0,0.0,0.0,0.0
1204,1724914147499416082,-0.18378564715385437,0.10649070888757706,0.12718898057937622,0.034406810998916626,-0.12662139534950256,-0.35191968083381653,0.9267878532409668,0.0,0.0,0.0,0.0,0.0,0.0
1206,1724914147508734109,-0.18440088629722595,0.1076066866517067,0.1275426298379898,0.03594009205698967,-0.12545260787010193,-0.3541294038295746,0.9260466694831848,0.0,0.0,0.0,0.0,0.0,0.0
1208,1724914147530860634,-0.1848195493221283,0.10846901684999466,0.1275915950536728,0.03596185892820358,-0.1275632679462433,-0.35399842262268066,0.925807535648346,0.0,0.0,0.0,0.0,0.0,0.0
1210,1724914147531103950,-0.18519994616508484,0.10933322459459305,0.1279222071170807,0.037156760692596436,-0.12750469148159027,-0.3549277186393738,0.9254124760627747,0.0,0.0,0.0,0.0,0.0,0.0
1212,1724914147538843820,-0.1853875368833542,0.11021817475557327,0.12818235158920288,0.03825787827372551,-0.12666963040828705,-0.3558887839317322,0.9251132011413574,0.0,0.0,0.0,0.0,0.0,0.0
1214,1724914147549129003,-0.18541955947875977,0.11099932342767715,0.1282116174697876,0.03895394876599312,-0.12594594061374664,-0.35675033926963806,0.9248510599136353,0.0,0.0,0.0,0.0,0.0,0.0
1216,1724914147561597957,-0.18521088361740112,0.11156684160232544,0.12803708016872406,0.03920947015285492,-0.1263204663991928,-0.35661056637763977,0.9248430132865906,0.0,0.0,0.0,0.0,0.0,0.0
1218,1724914147569190705,-0.18494649231433868,0.11219236999750137,0.12794217467308044,0.03894693776965141,-0.12600772082805634,-0.3565472662448883,0.9249212145805359,0.0,0.0,0.0,0.0,0.0,0.0
1220,1724914147578875739,-0.18467919528484344,0.11262489855289459,0.1279023289680481,0.03865176811814308,-0.1259191483259201,-0.35647010803222656,0.9249753355979919,0.0,0.0,0.0,0.0,0.0,0.0
1222,1724914147595408789,-0.18431584537029266,0.11297246813774109,0.1279294192790985,0.03939251974225044,-0.12612009048461914,-0.35602059960365295,0.9250898957252502,0.0,0.0,0.0,0.0,0.0,0.0
1224,1724914147600664574,-0.18403351306915283,0.11335642635822296,0.12801159918308258,0.04000898450613022,-0.12484482675790787,-0.356428861618042,0.9250792860984802,0.0,0.0,0.0,0.0,0.0,0.0
1226,1724914147609464923,-0.18369713425636292,0.11360564827919006,0.128074511885643,0.04134334623813629,-0.12531735002994537,-0.35594841837882996,0.9251416921615601,0.0,0.0,0.0,0.0,0.0,0.0
1228,1724914147619656874,-0.18348512053489685,0.11386097222566605,0.12792181968688965,0.04098265990614891,-0.12473025172948837,-0.35560140013694763,0.925370454788208,0.0,0.0,0.0,0.0,0.0,0.0
1230,1724914147629293500,-0.183339461684227,0.11402900516986847,0.1277882307767868,0.040850989520549774,-0.12528660893440247,-0.35528564453125,0.9254224300384521,0.0,0.0,0.0,0.0,0.0,0.0
1232,1724914147639244643,-0.18322020769119263,0.11423487216234207,0.12783358991146088,0.041325561702251434,-0.12477048486471176,-0.3556174337863922,0.9253435730934143,0.0,0.0,0.0,0.0,0.0,0.0
1234,1724914147649213311,-0.18317683041095734,0.11437619477510452,0.12779641151428223,0.04104139283299446,-0.12477710098028183,-0.35584643483161926,0.9252673387527466,0.0,0.0,0.0,0.0,0.0,0.0
1236,1724914147659657813,-0.18315279483795166,0.11453133076429367,0.12783537805080414,0.04059469327330589,-0.1249091699719429,-0.35596126317977905,0.925225019454956,0.0,0.0,0.0,0.0,0.0,0.0
1238,1724914147670187423,-0.18313896656036377,0.11458972096443176,0.12781740725040436,0.04031749442219734,-0.1251082569360733,-0.355844646692276,0.9252551198005676,0.0,0.0,0.0,0.0,0.0,0.0
1240,1724914147679822269,-0.1831223964691162,0.1147073358297348,0.12788359820842743,0.04072090610861778,-0.125051349401474,-0.3558290898799896,0.9252511262893677,0.0,0.0,0.0,0.0,0.0,0.0
1242,1724914147689493191,-0.1830989420413971,0.11473210155963898,0.12786073982715607,0.040596600621938705,-0.12493423372507095,-0.35605621337890625,0.9251850247383118,0.0,0.0,0.0,0.0,0.0,0.0
1244,1724914147699028486,-0.18302343785762787,0.11476437002420425,0.12784543633460999,0.040913794189691544,-0.12500758469104767,-0.3560546636581421,0.9251617193222046,0.0,0.0,0.0,0.0,0.0,0.0
1246,1724914147708846878,-0.18296226859092712,0.11478008329868317,0.1278221607208252,0.04103849083185196,-0.12492173165082932,-0.35602521896362305,0.9251791834831238,0.0,0.0,0.0,0.0,0.0,0.0
1248,1724914147719088000,-0.18297328054904938,0.11482387781143188,0.12781916558742523,0.04098343849182129,-0.12478536367416382,-0.3560087978839874,0.9252063035964966,0.0,0.0,0.0,0.0,0.0,0.0
1250,1724914147728876091,-0.1829826980829239,0.11481012403964996,0.12780244648456573,0.04080566391348839,-0.12478570640087128,-0.3559236526489258,0.9252469539642334,0.0,0.0,0.0,0.0,0.0,0.0
1252,1724914147738699742,-0.18298102915287018,0.11483357846736908,0.12781767547130585,0.040735092014074326,-0.12475038319826126,-0.3558304011821747,0.9252906441688538,0.0,0.0,0.0,0.0,0.0,0.0
1254,1724914147749306683,-0.1829884946346283,0.11484704166650772,0.12779422104358673,0.04093015193939209,-0.12487772852182388,-0.355887234210968,0.9252429604530334,0.0,0.0,0.0,0.0,0.0,0.0
1256,1724914147758867404,-0.18301399052143097,0.11489495635032654,0.12782393395900726,0.04073342680931091,-0.12482023984193802,-0.3559629023075104,0.9252303242683411,0.0,0.0,0.0,0.0,0.0,0.0
1258,1724914147769390568,-0.18303371965885162,0.1149182841181755,0.12781061232089996,0.04036175459623337,-0.12494628131389618,-0.3558715581893921,0.9252647161483765,0.0,0.0,0.0,0.0,0.0,0.0
1260,1724914147779679336,-0.18303442001342773,0.11495524644851685,0.12781837582588196,0.04039643704891205,-0.12496677786111832,-0.355867862701416,0.9252618551254272,0.0,0.0,0.0,0.0,0.0,0.0
1262,1724914147788890029,-0.18303853273391724,0.11497107148170471,0.12780898809432983,0.040148813277482986,-0.12496622651815414,-0.3557543158531189,0.925316333770752,0.0,0.0,0.0,0.0,0.0,0.0
1264,1724914147798856504,-0.1829877495765686,0.11500070989131927,0.12782351672649384,0.04029093310236931,-0.12499823421239853,-0.3558279573917389,0.9252776503562927,0.0,0.0,0.0,0.0,0.0,0.0
1266,1724914147810887290,-0.1829281747341156,0.11501585692167282,0.12782859802246094,0.04061403125524521,-0.12495721876621246,-0.3559795916080475,0.92521071434021,0.0,0.0,0.0,0.0,0.0,0.0
1268,1724914147819142005,-0.18286636471748352,0.11504986137151718,0.1278630495071411,0.04042328894138336,-0.12488506734371185,-0.3561481237411499,0.9251638650894165,0.0,0.0,0.0,0.0,0.0,0.0
1270,1724914147832925468,-0.18278691172599792,0.11508045345544815,0.12786482274532318,0.04057396948337555,-0.12498709559440613,-0.3560197353363037,0.9251929521560669,0.0,0.0,0.0,0.0,0.0,0.0
1272,1724914147839400352,-0.1827254593372345,0.11509520560503006,0.12785878777503967,0.04064095392823219,-0.12524890899658203,-0.35601934790611267,0.9251546859741211,0.0,0.0,0.0,0.0,0.0,0.0
1274,1724914147848982052,-0.18266277015209198,0.11505144834518433,0.12786467373371124,0.04083552584052086,-0.12534387409687042,-0.356190025806427,0.925067663192749,0.0,0.0,0.0,0.0,0.0,0.0
1276,1724914147858962815,-0.18260249495506287,0.11503513902425766,0.12789754569530487,0.04091305658221245,-0.12528108060359955,-0.3562892973423004,0.9250345230102539,0.0,0.0,0.0,0.0,0.0,0.0
1278,1724914147870237020,-0.18257339298725128,0.11506622284650803,0.12784521281719208,0.040439724922180176,-0.12520770728588104,-0.356256365776062,0.9250778555870056,0.0,0.0,0.0,0.0,0.0,0.0
1280,1724914147882070047,-0.1825457662343979,0.11514321714639664,0.1278238743543625,0.0404868945479393,-0.124995157122612,-0.35594651103019714,0.9252238869667053,0.0,0.0,0.0,0.0,0.0,0.0
1282,1724914147888915737,-0.18256136775016785,0.11517281830310822,0.12782315909862518,0.0404389426112175,-0.12483149766921997,-0.35592523217201233,0.9252562522888184,0.0,0.0,0.0,0.0,0.0,0.0
1284,1724914147901507941,-0.18255072832107544,0.11518309265375137,0.12784111499786377,0.04091917723417282,-0.1250552386045456,-0.35570570826530457,0.9252892732620239,0.0,0.0,0.0,0.0,0.0,0.0
1286,1724914147908900731,-0.18254786729812622,0.11516313254833221,0.12784841656684875,0.04090121388435364,-0.12508761882781982,-0.35584408044815063,0.925232470035553,0.0,0.0,0.0,0.0,0.0,0.0
1288,1724914147919598860,-0.1825561374425888,0.11518149822950363,0.12785518169403076,0.0404837392270565,-0.12509426474571228,-0.3559350371360779,0.9252150058746338,0.0,0.0,0.0,0.0,0.0,0.0
1290,1724914147928820568,-0.18257653713226318,0.11521358788013458,0.12787432968616486,0.040677379816770554,-0.12507948279380798,-0.35586783289909363,0.925234317779541,0.0,0.0,0.0,0.0,0.0,0.0
1292,1724914147940079812,-0.1826058328151703,0.11517491936683655,0.12785345315933228,0.04066292569041252,-0.1251247674226761,-0.3557029664516449,0.9252922534942627,0.0,0.0,0.0,0.0,0.0,0.0
1294,1724914147952133246,-0.18258722126483917,0.11513812839984894,0.1278725117444992,0.04108402132987976,-0.12520919740200043,-0.3559603989124298,0.9251632690429688,0.0,0.0,0.0,0.0,0.0,0.0
1296,1724914147958839769,-0.18257400393486023,0.11511954665184021,0.12786582112312317,0.040830548852682114,-0.1251876801252365,-0.3560597896575928,0.9251390695571899,0.0,0.0,0.0,0.0,0.0,0.0
1298,1724914147969157427,-0.182565376162529,0.11515387892723083,0.1279062032699585,0.04059675335884094,-0.12503205239772797,-0.3562058210372925,0.9251142144203186,0.0,0.0,0.0,0.0,0.0,0.0
1300,1724914147978667588,-0.1825776994228363,0.11518045514822006,0.12790760397911072,0.04043809697031975,-0.1251135766506195,-0.35595956444740295,0.925204873085022,0.0,0.0,0.0,0.0,0.0,0.0
1302,1724914147988978643,-0.18259358406066895,0.11521746218204498,0.12787465751171112,0.04055019095540047,-0.12510624527931213,-0.35581961274147034,0.9252548217773438,0.0,0.0,0.0,0.0,0.0,0.0
1304,1724914147999686953,-0.18259939551353455,0.11521921306848526,0.1279025673866272,0.040773048996925354,-0.1252274215221405,-0.35586974024772644,0.9252094030380249,0.0,0.0,0.0,0.0,0.0,0.0
1306,1724914148013204734,-0.18261560797691345,0.11518794298171997,0.12794873118400574,0.04086672514677048,-0.12540537118911743,-0.35600078105926514,0.9251307249069214,0.0,0.0,0.0,0.0,0.0,0.0
1308,1724914148019276925,-0.18263323605060577,0.11515224725008011,0.12794263660907745,0.04080500081181526,-0.12549760937690735,-0.3558141589164734,0.9251927733421326,0.0,0.0,0.0,0.0,0.0,0.0
1310,1724914148029530162,-0.18263275921344757,0.11520349234342575,0.1279613971710205,0.04069920629262924,-0.12519913911819458,-0.35598814487457275,0.9251708984375,0.0,0.0,0.0,0.0,0.0,0.0
1312,1724914148038886793,-0.18262879550457,0.11518038809299469,0.12793093919754028,0.04026217758655548,-0.12520568072795868,-0.3559991121292114,0.9251849055290222,0.0,0.0,0.0,0.0,0.0,0.0
1314,1724914148048930266,-0.18260066211223602,0.11513863503932953,0.12794022262096405,0.04069916531443596,-0.1252792477607727,-0.3560585081577301,0.9251329898834229,0.0,0.0,0.0,0.0,0.0,0.0
1316,1724914148059717097,-0.1825929880142212,0.11510512232780457,0.12799464166164398,0.04078631475567818,-0.12526839971542358,-0.35615280270576477,0.9250943064689636,0.0,0.0,0.0,0.0,0.0,0.0
1318,1724914148069370218,-0.18257059156894684,0.115104079246521,0.1279793679714203,0.04068908840417862,-0.12518151104450226,-0.35609543323516846,0.9251324534416199,0.0,0.0,0.0,0.0,0.0,0.0
1320,1724914148082152222,-0.18252205848693848,0.1151580959558487,0.12786923348903656,0.040624041110277176,-0.12488099932670593,-0.35540542006492615,0.9254412055015564,0.0,0.0,0.0,0.0,0.0,0.0
1322,1724914148090017289,-0.1824861615896225,0.11525953561067581,0.12783311307430267,0.04127798601984978,-0.12452791631221771,-0.3549920618534088,0.9256184697151184,0.0,0.0,0.0,0.0,0.0,0.0
1324,1724914148101334337,-0.1825590282678604,0.11522666364908218,0.12786921858787537,0.0416833870112896,-0.12480933219194412,-0.3553209602832794,0.9254361987113953,0.0,0.0,0.0,0.0,0.0,0.0
1326,1724914148109058524,-0.1826087385416031,0.1151372417807579,0.12797275185585022,0.04144177958369255,-0.12519186735153198,-0.3556438386440277,0.9252713322639465,0.0,0.0,0.0,0.0,0.0,0.0
1328,1724914148120581452,-0.18265017867088318,0.11504991352558136,0.1280447244644165,0.0411740280687809,-0.12525391578674316,-0.3558010160923004,0.9252144694328308,0.0,0.0,0.0,0.0,0.0,0.0
1330,1724914148129473212,-0.1826370358467102,0.11498773097991943,0.12800338864326477,0.04088781774044037,-0.12536007165908813,-0.3557298183441162,0.9252402186393738,0.0,0.0,0.0,0.0,0.0,0.0
1332,1724914148140982632,-0.1826213151216507,0.11495205014944077,0.128022238612175,0.04076993092894554,-0.1252799928188324,-0.35570454597473145,0.925265908241272,0.0,0.0,0.0,0.0,0.0,0.0
1334,1724914148149830229,-0.18259796500205994,0.11484873294830322,0.1280474215745926,0.041765354573726654,-0.1255151331424713,-0.35553842782974243,0.9252534508705139,0.0,0.0,0.0,0.0,0.0,0.0
1336,1724914148159437025,-0.18260452151298523,0.11470402777194977,0.1281219720840454,0.04205494746565819,-0.1254987120628357,-0.35555553436279297,0.9252360463142395,0.0,0.0,0.0,0.0,0.0,0.0
1338,1724914148169903902,-0.18258170783519745,0.1145341545343399,0.1281212866306305,0.041914358735084534,-0.12550486624240875,-0.35543742775917053,0.9252869486808777,0.0,0.0,0.0,0.0,0.0,0.0
1340,1724914148178876596,-0.18256714940071106,0.11435417830944061,0.12804247438907623,0.041412681341171265,-0.1254635602235794,-0.35522928833961487,0.9253950715065002,0.0,0.0,0.0,0.0,0.0,0.0
1342,1724914148189151419,-0.18253318965435028,0.11419004201889038,0.12797647714614868,0.04235951602458954,-0.1253049373626709,-0.35481634736061096,0.9255321621894836,0.0,0.0,0.0,0.0,0.0,0.0
1344,1724914148199262991,-0.18254779279232025,0.11394886672496796,0.12799900770187378,0.042165607213974,-0.1255040317773819,-0.3546406030654907,0.9255813956260681,0.0,0.0,0.0,0.0,0.0,0.0
1346,1724914148208844741,-0.18255877494812012,0.11361116170883179,0.12816987931728363,0.04256081208586693,-0.12465225160121918,-0.3548365533351898,0.9256032705307007,0.0,0.0,0.0,0.0,0.0,0.0
1348,1724914148219200098,-0.1826048046350479,0.11306119710206985,0.12820245325565338,0.04130249843001366,-0.12434322386980057,-0.35436609387397766,0.9258820414543152,0.0,0.0,0.0,0.0,0.0,0.0
1350,1724914148229655277,-0.18262505531311035,0.1124405711889267,0.12811598181724548,0.04090194031596184,-0.12475234270095825,-0.3531957268714905,0.9262919425964355,0.0,0.0,0.0,0.0,0.0,0.0
1352,1724914148239012034,-0.18269208073616028,0.11157820373773575,0.12775379419326782,0.04003385081887245,-0.12536843121051788,-0.3516860008239746,0.9268209934234619,0.0,0.0,0.0,0.0,0.0,0.0
1354,1724914148250673623,-0.18273109197616577,0.11058050394058228,0.1276332139968872,0.04049057886004448,-0.12455768138170242,-0.35035771131515503,0.9274133443832397,0.0,0.0,0.0,0.0,0.0,0.0
1356,1724914148260449585,-0.18290850520133972,0.10948401689529419,0.12757180631160736,0.039396222680807114,-0.12419075518846512,-0.34949153661727905,0.9278363585472107,0.0,0.0,0.0,0.0,0.0,0.0
1358,1724914148269331600,-0.18307171761989594,0.1082070842385292,0.1273445188999176,0.038399338722229004,-0.12452225387096405,-0.3467608690261841,0.9288578033447266,0.0,0.0,0.0,0.0,0.0,0.0
1360,1724914148279531601,-0.1832447499036789,0.10721176117658615,0.12740476429462433,0.036884915083646774,-0.12371004372835159,-0.3447166681289673,0.9297881126403809,0.0,0.0,0.0,0.0,0.0,0.0
1362,1724914148288914804,-0.1835385411977768,0.10621656477451324,0.12763525545597076,0.03390214964747429,-0.12275383621454239,-0.34340062737464905,0.9305150508880615,0.0,0.0,0.0,0.0,0.0,0.0
1364,1724914148299314542,-0.18380768597126007,0.10502886027097702,0.12813682854175568,0.033866822719573975,-0.12212425470352173,-0.3419617712497711,0.9311287999153137,0.0,0.0,0.0,0.0,0.0,0.0
1366,1724914148313520533,-0.184016615152359,0.10392648726701736,0.12849827110767365,0.03399437293410301,-0.12044452130794525,-0.3405529260635376,0.9318590760231018,0.0,0.0,0.0,0.0,0.0,0.0
1368,1724914148319145422,-0.18424716591835022,0.10276709496974945,0.1285093128681183,0.03176046535372734,-0.12140372395515442,-0.3375413715839386,0.9329084753990173,0.0,0.0,0.0,0.0,0.0,0.0
1370,1724914148328888603,-0.1842612326145172,0.10172973573207855,0.1287434697151184,0.03225308656692505,-0.12097412347793579,-0.33441421389579773,0.9340729117393494,0.0,0.0,0.0,0.0,0.0,0.0
1372,1724914148339169372,-0.18422017991542816,0.10054445266723633,0.12873685359954834,0.03321536257863045,-0.12166263908147812,-0.33045947551727295,0.9353563189506531,0.0,0.0,0.0,0.0,0.0,0.0
1374,1724914148349945889,-0.1843641847372055,0.0993831530213356,0.12874111533164978,0.03224712237715721,-0.12271424382925034,-0.32715824246406555,0.9364128112792969,0.0,0.0,0.0,0.0,0.0,0.0
1376,1724914148359599465,-0.18459485471248627,0.09796033799648285,0.12911760807037354,0.032384827733039856,-0.12132849544286728,-0.32495129108428955,0.9373565912246704,0.0,0.0,0.0,0.0,0.0,0.0
1378,1724914148369455574,-0.18483862280845642,0.09635168313980103,0.1288425475358963,0.028097104281187057,-0.12426386028528214,-0.32132256031036377,0.9383608102798462,0.0,0.0,0.0,0.0,0.0,0.0
1380,1724914148378910661,-0.1849958747625351,0.095013827085495,0.12889331579208374,0.027891574427485466,-0.12553738057613373,-0.3184991776943207,0.9391595721244812,0.0,0.0,0.0,0.0,0.0,0.0
1382,1724914148388757724,-0.1852981299161911,0.0937240868806839,0.12872420251369476,0.02528460882604122,-0.12744665145874023,-0.3155401349067688,0.9399747252464294,0.0,0.0,0.0,0.0,0.0,0.0
1384,1724914148398902129,-0.18554934859275818,0.09221111238002777,0.12861338257789612,0.02483767829835415,-0.12813851237297058,-0.31223514676094055,0.9409956932067871,0.0,0.0,0.0,0.0,0.0,0.0
1386,1724914148408838763,-0.1856740564107895,0.09079930186271667,0.12872524559497833,0.02429843135178089,-0.128447026014328,-0.3091810643672943,0.9419755935668945,0.0,0.0,0.0,0.0,0.0,0.0
1388,1724914148429290401,-0.18586698174476624,0.089479461312294,0.12865009903907776,0.024376913905143738,-0.12923851609230042,-0.3052949607372284,0.9431321620941162,0.0,0.0,0.0,0.0,0.0,0.0
1390,1724914148429546949,-0.18586373329162598,0.08799805492162704,0.12854120135307312,0.024485211819410324,-0.12946107983589172,-0.30117911100387573,0.9444212913513184,0.0,0.0,0.0,0.0,0.0,0.0
1392,1724914148438983015,-0.1860632449388504,0.08683955669403076,0.12856954336166382,0.02309144102036953,-0.12908831238746643,-0.298240602016449,0.945439338684082,0.0,0.0,0.0,0.0,0.0,0.0
1394,1724914148449844376,-0.1862853616476059,0.08551106601953506,0.1283794343471527,0.02298959717154503,-0.13267575204372406,-0.2942967116832733,0.9461808204650879,0.0,0.0,0.0,0.0,0.0,0.0
1396,1724914148458884943,-0.18674182891845703,0.08414854854345322,0.12835663557052612,0.02223585546016693,-0.1351976841688156,-0.29223868250846863,0.9464796185493469,0.0,0.0,0.0,0.0,0.0,0.0
1398,1724914148469321530,-0.18735451996326447,0.08257646858692169,0.1280042976140976,0.02064405381679535,-0.1382552981376648,-0.28911396861076355,0.9470335245132446,0.0,0.0,0.0,0.0,0.0,0.0
1400,1724914148478684319,-0.18767863512039185,0.08103375136852264,0.12765781581401825,0.019056623801589012,-0.14062456786632538,-0.2871365249156952,0.9473194479942322,0.0,0.0,0.0,0.0,0.0,0.0
1402,1724914148489245538,-0.18814879655838013,0.07951600849628448,0.12734413146972656,0.01756812259554863,-0.14236119389533997,-0.2860511839389801,0.9474171996116638,0.0,0.0,0.0,0.0,0.0,0.0
1404,1724914148499574622,-0.18834549188613892,0.07788260281085968,0.1270192563533783,0.01949019730091095,-0.144201397895813,-0.283072292804718,0.9479958415031433,0.0,0.0,0.0,0.0,0.0,0.0
1406,1724914148511418532,-0.18847160041332245,0.07644740492105484,0.12708356976509094,0.01825994811952114,-0.14464741945266724,-0.28077590465545654,0.9486351609230042,0.0,0.0,0.0,0.0,0.0,0.0
1408,1724914148521426739,-0.18853159248828888,0.07532694935798645,0.1273929476737976,0.01805099844932556,-0.14521153271198273,-0.2794087827205658,0.9489566087722778,0.0,0.0,0.0,0.0,0.0,0.0
1410,1724914148530470748,-0.18852964043617249,0.07453261315822601,0.12755553424358368,0.01755541004240513,-0.1460692435503006,-0.2785699963569641,0.949080765247345,0.0,0.0,0.0,0.0,0.0,0.0
1412,1724914148538920627,-0.18845200538635254,0.07392574846744537,0.1276136189699173,0.017220761626958847,-0.14658954739570618,-0.27814215421676636,0.9491322040557861,0.0,0.0,0.0,0.0,0.0,0.0
1414,1724914148549044519,-0.1883166879415512,0.07338753342628479,0.12747344374656677,0.01709742844104767,-0.14630946516990662,-0.277330607175827,0.9494150280952454,0.0,0.0,0.0,0.0,0.0,0.0
1416,1724914148563038666,-0.18821914494037628,0.07301833480596542,0.12729547917842865,0.016764294356107712,-0.145391047000885,-0.27683812379837036,0.9497057795524597,0.0,0.0,0.0,0.0,0.0,0.0
1418,1724914148569415888,-0.18819944560527802,0.07283419370651245,0.12727132439613342,0.017052162438631058,-0.14378505945205688,-0.2770403325557709,0.9498862028121948,0.0,0.0,0.0,0.0,0.0,0.0
1420,1724914148582936738,-0.18824027478694916,0.07272465527057648,0.12731997668743134,0.017538201063871384,-0.1434546560049057,-0.277042955160141,0.949926495552063,0.0,0.0,0.0,0.0,0.0,0.0
1422,1724914148592097632,-0.18826988339424133,0.07263405621051788,0.12733285129070282,0.017411410808563232,-0.14379994571208954,-0.2769852876663208,0.9498934745788574,0.0,0.0,0.0,0.0,0.0,0.0
1424,1724914148599463808,-0.18828479945659637,0.07259780168533325,0.12732374668121338,0.017160266637802124,-0.14384585618972778,-0.27702200412750244,0.9498803615570068,0.0,0.0,0.0,0.0,0.0,0.0
1426,1724914148608944153,-0.18828164041042328,0.07254979759454727,0.12729744613170624,0.017359595745801926,-0.14370860159397125,-0.27693843841552734,0.9499219655990601,0.0,0.0,0.0,0.0,0.0,0.0
1428,1724914148618941995,-0.1883024275302887,0.07252085953950882,0.12728901207447052,0.01784343272447586,-0.14352837204933167,-0.27687519788742065,0.9499586820602417,0.0,0.0,0.0,0.0,0.0,0.0
1430,1724914148719551224,-0.18829014897346497,0.07253456860780716,0.12729452550411224,0.017732173204421997,-0.1436043232679367,-0.2766494154930115,0.9500150084495544,0.0,0.0,0.0,0.0,0.0,0.0
1432,1724914148719937157,-0.18826965987682343,0.07255483418703079,0.12726962566375732,0.017747776582837105,-0.14350537955760956,-0.27642321586608887,0.950095534324646,0.0,0.0,0.0,0.0,0.0,0.0
1434,1724914148720201920,-0.18824532628059387,0.07258046418428421,0.12725088000297546,0.01854415237903595,-0.14347928762435913,-0.2760322690010071,0.9501978754997253,0.0,0.0,0.0,0.0,0.0,0.0
1436,1724914148720643308,-0.1882379651069641,0.07260867953300476,0.12725350260734558,0.018731802701950073,-0.14342467486858368,-0.275827020406723,0.9502621293067932,0.0,0.0,0.0,0.0,0.0,0.0
1438,1724914148720896410,-0.18822014331817627,0.072597436606884,0.12724266946315765,0.018670231103897095,-0.14336475729942322,-0.27538400888442993,0.9504007697105408,0.0,0.0,0.0,0.0,0.0,0.0
1440,1724914148721235960,-0.18826958537101746,0.07256953418254852,0.12726035714149475,0.01863856241106987,-0.14330746233463287,-0.2757619321346283,0.9503004550933838,0.0,0.0,0.0,0.0,0.0,0.0
1442,1724914148728646075,-0.18824657797813416,0.0725349709391594,0.12721601128578186,0.018538760021328926,-0.1434941589832306,-0.27582213282585144,0.9502567648887634,0.0,0.0,0.0,0.0,0.0,0.0
1444,1724914148728941685,-0.1881774365901947,0.07253549247980118,0.12718698382377625,0.018429657444357872,-0.1436058133840561,-0.2754329442977905,0.9503549337387085,0.0,0.0,0.0,0.0,0.0,0.0
1446,1724914148729183807,-0.18819576501846313,0.07255539298057556,0.1271761655807495,0.018347131088376045,-0.1433306187391281,-0.275272935628891,0.9504444003105164,0.0,0.0,0.0,0.0,0.0,0.0
1448,1724914148729873808,-0.1882065087556839,0.07255194336175919,0.12721407413482666,0.018776075914502144,-0.14310958981513977,-0.2752775549888611,0.9504680037498474,0.0,0.0,0.0,0.0,0.0,0.0
1450,1724914148730226189,-0.1882300078868866,0.0725359246134758,0.12722717225551605,0.018674524500966072,-0.14301472902297974,-0.2754470705986023,0.9504351615905762,0.0,0.0,0.0,0.0,0.0,0.0
1452,1724914148738830326,-0.18822312355041504,0.0725029930472374,0.12721092998981476,0.018779907375574112,-0.1431761234998703,-0.27540498971939087,0.9504209160804749,0.0,0.0,0.0,0.0,0.0,0.0
