seq,stamp,px,py,pz,ox,oy,oz,ow,lx,ly,lz,ax,ay,az
1440,1724915236958095861,-0.46349355578422546,0.08882789313793182,0.16460594534873962,0.037574633955955505,-0.0008038652595132589,-0.3277321457862854,0.9440228343009949,0.0,0.0,0.0,0.0,0.0,0.0
1442,1724915236968430837,-0.4635271430015564,0.08875960111618042,0.16461274027824402,0.03722158074378967,0.0007860043551772833,-0.3307689428329468,0.9429771304130554,0.0,0.0,0.0,0.0,0.0,0.0
1444,1724915236981724681,-0.4635203778743744,0.08863762021064758,0.1645093411207199,0.0369543619453907,0.0014882966643199325,-0.3332023024559021,0.9421297311782837,0.0,0.0,0.0,0.0,0.0,0.0
1446,1724915236989261576,-0.46349895000457764,0.08833875507116318,0.16408957540988922,0.03816508501768112,0.0019686592277139425,-0.33424699306488037,0.9417104721069336,0.0,0.0,0.0,0.0,0.0,0.0
1448,1724915237003336142,-0.46339482069015503,0.08814272284507751,0.16381056606769562,0.04006743058562279,0.0026138147804886103,-0.3354052007198334,0.9412178993225098,0.0,0.0,0.0,0.0,0.0,0.0
1450,1724915237007912845,-0.46330660581588745,0.08793099224567413,0.16368183493614197,0.040543921291828156,0.0025335445534437895,-0.3365938663482666,0.9407732486724854,0.0,0.0,0.0,0.0,0.0,0.0
1452,1724915237021511371,-0.4632548689842224,0.08770379424095154,0.16364221274852753,0.041385192424058914,0.003131998237222433,-0.3382205069065094,0.9401513338088989,0.0,0.0,0.0,0.0,0.0,0.0
1454,1724915237027988127,-0.46322861313819885,0.08750970661640167,0.16363120079040527,0.0412340946495533,0.003357752226293087,-0.33962035179138184,0.9396523237228394,0.0,0.0,0.0,0.0,0.0,0.0
1456,1724915237038541448,-0.4631114602088928,0.08730211108922958,0.16360870003700256,0.04251710698008537,0.0030035011004656553,-0.3408801853656769,0.9391400814056396,0.0,0.0,0.0,0.0,0.0,0.0
1458,1724915237051351595,-0.46310731768608093,0.08710892498493195,0.1633855402469635,0.042325928807258606,0.001435359357856214,-0.3414706289768219,0.9389379024505615,0.0,0.0,0.0,0.0,0.0,0.0
1460,1724915237057774985,-0.46308469772338867,0.08695906400680542,0.1633812040090561,0.0423211045563221,0.0010953230084851384,-0.34306085109710693,0.938358724117279,0.0,0.0,0.0,0.0,0.0,0.0
1462,1724915237069469225,-0.46306413412094116,0.08683299273252487,0.16340301930904388,0.04203124716877937,0.0012244777753949165,-0.3452107608318329,0.9375827312469482,0.0,0.0,0.0,0.0,0.0,0.0
1464,1724915237077970019,-0.4630056619644165,0.08673269301652908,0.1634543538093567,0.04080680012702942,0.0013635784853249788,-0.34717535972595215,0.9369111061096191,0.0,0.0,0.0,0.0,0.0,0.0
1466,1724915237100896433,-0.46295779943466187,0.08661189675331116,0.16345061361789703,0.040402643382549286,0.0015952616231516004,-0.34853461384773254,0.9364234209060669,0.0,0.0,0.0,0.0,0.0,0.0
1468,1724915237102401558,-0.4629378318786621,0.08644774556159973,0.16345050930976868,0.039463143795728683,0.002044253284111619,-0.3503396213054657,0.9357887506484985,0.0,0.0,0.0,0.0,0.0,0.0
1470,1724915237108124794,-0.46287623047828674,0.08631671965122223,0.16348907351493835,0.03923146426677704,0.0029063879046589136,-0.3520171046257019,0.935166597366333,0.0,0.0,0.0,0.0,0.0,0.0
1472,1724915237120412403,-0.462785542011261,0.08623164892196655,0.16344647109508514,0.03980459272861481,0.003662009257823229,-0.3532622158527374,0.934670090675354,0.0,0.0,0.0,0.0,0.0,0.0
1474,1724915237129264282,-0.46273767948150635,0.08614198863506317,0.16340787708759308,0.038980815559625626,0.0032956816721707582,-0.3546769618988037,0.9341702461242676,0.0,0.0,0.0,0.0,0.0,0.0
1476,1724915237138336348,-0.4626685082912445,0.08609731495380402,0.16341541707515717,0.038186199963092804,0.002876684069633484,-0.355964720249176,0.9337144494056702,0.0,0.0,0.0,0.0,0.0,0.0
1478,1724915237148945096,-0.46260133385658264,0.08607474714517593,0.16343969106674194,0.03772016987204552,0.0027122418396174908,-0.3572525978088379,0.9332419633865356,0.0,0.0,0.0,0.0,0.0,0.0
1480,1724915237160395507,-0.4624406397342682,0.08611220121383667,0.16363798081874847,0.03858943283557892,0.003532343078404665,-0.3590763807296753,0.932503342628479,0.0,0.0,0.0,0.0,0.0,0.0
1482,1724915237171451308,-0.46239662170410156,0.08611318469047546,0.16374942660331726,0.03813452273607254,0.002998692449182272,-0.3610142469406128,0.9317754507064819,0.0,0.0,0.0,0.0,0.0,0.0
1484,1724915237178882079,-0.46242716908454895,0.08608455955982208,0.1638791263103485,0.036673761904239655,0.003250786801800132,-0.3630853295326233,0.9310281872749329,0.0,0.0,0.0,0.0,0.0,0.0
1486,1724915237188477354,-0.4623611271381378,0.08613170683383942,0.16414424777030945,0.03662169352173805,0.0037016866263002157,-0.3658030927181244,0.9299640655517578,0.0,0.0,0.0,0.0,0.0,0.0
1488,1724915237198769196,-0.4623713493347168,0.08609074354171753,0.1641119420528412,0.03584027662873268,0.0028213774785399437,-0.3671663999557495,0.929460346698761,0.0,0.0,0.0,0.0,0.0,0.0
1490,1724915237207853299,-0.4623449742794037,0.0860932245850563,0.16414178907871246,0.03529343754053116,0.0026646058540791273,-0.36868053674697876,0.9288821220397949,0.0,0.0,0.0,0.0,0.0,0.0
1492,1724915237219239533,-0.4623079001903534,0.08611772954463959,0.1642056554555893,0.035385385155677795,0.002026256639510393,-0.36958009004592896,0.9285226464271545,0.0,0.0,0.0,0.0,0.0,0.0
1494,1724915237228248994,-0.46228674054145813,0.08614059537649155,0.16445553302764893,0.035270851105451584,0.0017895830096676946,-0.3706512153148651,0.9281004667282104,0.0,0.0,0.0,0.0,0.0,0.0
1496,1724915237239856663,-0.4622653126716614,0.08626330643892288,0.16494683921337128,0.03453655168414116,0.002118478761985898,-0.3717174828052521,0.9277008771896362,0.0,0.0,0.0,0.0,0.0,0.0
1498,1724915237248733606,-0.46221622824668884,0.08638188987970352,0.16569043695926666,0.03418067470192909,0.003058599540963769,-0.3735535442829132,0.9269736409187317,0.0,0.0,0.0,0.0,0.0,0.0
1500,1724915237258123497,-0.462169349193573,0.08670172840356827,0.16625425219535828,0.03326120600104332,0.0037331178318709135,-0.3749847412109375,0.9264266490936279,0.0,0.0,0.0,0.0,0.0,0.0
1502,1724915237270559022,-0.4620407223701477,0.0870479941368103,0.1665719598531723,0.033691830933094025,0.0028421790339052677,-0.3752920627593994,0.9262897968292236,0.0,0.0,0.0,0.0,0.0,0.0
1504,1724915237277547196,-0.4620044529438019,0.08746878802776337,0.16730383038520813,0.032882723957300186,0.0028348725754767656,-0.377633661031723,0.9253667593002319,0.0,0.0,0.0,0.0,0.0,0.0
1506,1724915237289151238,-0.46204686164855957,0.08795936405658722,0.167817622423172,0.03151391074061394,0.002404303988441825,-0.3779926300048828,0.9252690076828003,0.0,0.0,0.0,0.0,0.0,0.0
1508,1724915237299785768,-0.46206873655319214,0.08831324428319931,0.16836489737033844,0.02996702864766121,0.0016152316238731146,-0.37851038575172424,0.9251104593276978,0.0,0.0,0.0,0.0,0.0,0.0
1510,1724915237307952710,-0.46207576990127563,0.08873362839221954,0.16896721720695496,0.029135050252079964,0.0016660006949678063,-0.3797816336154938,0.9246158003807068,0.0,0.0,0.0,0.0,0.0,0.0
1512,1724915237320938861,-0.4620012044906616,0.08931782841682434,0.16972599923610687,0.028565693646669388,0.0023750197142362595,-0.3813987970352173,0.9239661693572998,0.0,0.0,0.0,0.0,0.0,0.0
1514,1724915237327677556,-0.4618666172027588,0.09000204503536224,0.17037761211395264,0.02765539288520813,0.002730721142143011,-0.38180553913116455,0.9238247871398926,0.0,0.0,0.0,0.0,0.0,0.0
1516,1724915237338179069,-0.46174830198287964,0.09061703085899353,0.17114652693271637,0.026643672958016396,0.0019580938387662172,-0.38273119926452637,0.9234734177589417,0.0,0.0,0.0,0.0,0.0,0.0
1518,1724915237349727662,-0.4617655575275421,0.09102734923362732,0.17206595838069916,0.023499824106693268,0.0008728507673367858,-0.3851219117641449,0.9225660562515259,0.0,0.0,0.0,0.0,0.0,0.0
1520,1724915237357737734,-0.46173834800720215,0.09164957702159882,0.17271284759044647,0.021888313814997673,0.0009434897801838815,-0.38656920194625854,0.9220002293586731,0.0,0.0,0.0,0.0,0.0,0.0
1522,1724915237369543446,-0.46151530742645264,0.09243547916412354,0.1735050082206726,0.021924622356891632,0.002732881810516119,-0.38855481147766113,0.9211606979370117,0.0,0.0,0.0,0.0,0.0,0.0
1524,1724915237378018938,-0.461243599653244,0.09308113902807236,0.17396359145641327,0.02115011401474476,0.0017294475110247731,-0.38841480016708374,0.9212403297424316,0.0,0.0,0.0,0.0,0.0,0.0
1526,1724915237388283556,-0.460847944021225,0.09402523189783096,0.17443570494651794,0.022383106872439384,0.0002623590116854757,-0.3879052698612213,0.9214274883270264,0.0,0.0,0.0,0.0,0.0,0.0
1528,1724915237398261850,-0.4604315459728241,0.0948781967163086,0.17515616118907928,0.020396912470459938,-6.83665566612035e-05,-0.387971431016922,0.9214457273483276,0.0,0.0,0.0,0.0,0.0,0.0
1530,1724915237407878809,-0.46009600162506104,0.09591447561979294,0.1758243590593338,0.01640770211815834,-0.0006752465269528329,-0.3885810077190399,0.9212682247161865,0.0,0.0,0.0,0.0,0.0,0.0
1532,1724915237420580373,-0.459640771150589,0.09703201800584793,0.17643621563911438,0.014713999815285206,-0.0013709008926525712,-0.38959237933158875,0.9208689332008362,0.0,0.0,0.0,0.0,0.0,0.0
1534,1724915237427763356,-0.45925241708755493,0.09824606776237488,0.17695996165275574,0.013210859149694443,-0.0017997949616983533,-0.3899989724159241,0.9207188487052917,0.0,0.0,0.0,0.0,0.0,0.0
1536,1724915237438202371,-0.4588887691497803,0.09949201345443726,0.17770768702030182,0.013346060179173946,-0.0008015927742235363,-0.3916589021682739,0.920013427734375,0.0,0.0,0.0,0.0,0.0,0.0
1538,1724915237448185470,-0.458525687456131,0.10073181241750717,0.17823070287704468,0.01303735002875328,-0.001174739794805646,-0.3926798105239868,0.9195820689201355,0.0,0.0,0.0,0.0,0.0,0.0
1540,1724915237458704694,-0.4583185017108917,0.10202497243881226,0.1784631460905075,0.011648024432361126,-0.0015398869290947914,-0.3929785490036011,0.9194725751876831,0.0,0.0,0.0,0.0,0.0,0.0
1542,1724915237467890793,-0.45819714665412903,0.10346491634845734,0.17865930497646332,0.006508956663310528,-0.0044372230768203735,-0.394003689289093,0.9190751910209656,0.0,0.0,0.0,0.0,0.0,0.0
1544,1724915237477794418,-0.45801982283592224,0.10502663254737854,0.17868885397911072,0.0030684578232467175,-0.006111437454819679,-0.3947365880012512,0.9187688827514648,0.0,0.0,0.0,0.0,0.0,0.0
1546,1724915237488787487,-0.45780104398727417,0.1064169779419899,0.1783018708229065,0.0012918540742248297,-0.0073855966329574585,-0.3942476809024811,0.9189736843109131,0.0,0.0,0.0,0.0,0.0,0.0
1548,1724915237498527082,-0.4572572708129883,0.10778450965881348,0.17804428935050964,0.00284438650123775,-0.006373734213411808,-0.3943314254283905,0.918941855430603,0.0,0.0,0.0,0.0,0.0,0.0
1550,1724915237508230313,-0.45687630772590637,0.10924892127513885,0.1781071573495865,0.000502272741869092,-0.005610406398773193,-0.3954390585422516,0.9184749722480774,0.0,0.0,0.0,0.0,0.0,0.0
1552,1724915237518925979,-0.4566502273082733,0.11060354113578796,0.17819945514202118,-0.006013550795614719,-0.008820146322250366,-0.39520129561424255,0.9185324907302856,0.0,0.0,0.0,0.0,0.0,0.0
1554,1724915237529000181,-0.4564976692199707,0.11193057149648666,0.1783953458070755,-0.0109707647934556,-0.01158586610108614,-0.3958686292171478,0.9181686043739319,0.0,0.0,0.0,0.0,0.0,0.0
1556,1724915237538536458,-0.45636099576950073,0.11324913054704666,0.1784875988960266,-0.011782517656683922,-0.013364787213504314,-0.3956971764564514,0.9182081818580627,0.0,0.0,0.0,0.0,0.0,0.0
1558,1724915237549031571,-0.456278920173645,0.11441634595394135,0.17849355936050415,-0.013444175012409687,-0.013164648786187172,-0.3957982361316681,0.918144702911377,0.0,0.0,0.0,0.0,0.0,0.0
1560,1724915237557670978,-0.45606163144111633,0.11567315459251404,0.1784740686416626,-0.014129859395325184,-0.012365534901618958,-0.3957810401916504,0.918152928352356,0.0,0.0,0.0,0.0,0.0,0.0
1562,1724915237569088070,-0.4560042917728424,0.11674175411462784,0.17849744856357574,-0.017386043444275856,-0.013958146795630455,-0.3962564170360565,0.9178692698478699,0.0,0.0,0.0,0.0,0.0,0.0
1564,1724915237577756328,-0.4561161696910858,0.11789242178201675,0.17835363745689392,-0.021934526041150093,-0.01660861261188984,-0.3950170576572418,0.918261706829071,0.0,0.0,0.0,0.0,0.0,0.0
1566,1724915237588890239,-0.4561964273452759,0.11884471774101257,0.1783497929573059,-0.025777306407690048,-0.018129080533981323,-0.39531776309013367,0.9180036783218384,0.0,0.0,0.0,0.0,0.0,0.0
1568,1724915237598672857,-0.45608675479888916,0.11986633390188217,0.17834430932998657,-0.026884328573942184,-0.017695747315883636,-0.3960112929344177,0.9176814556121826,0.0,0.0,0.0,0.0,0.0,0.0
1570,1724915237608560542,-0.45605793595314026,0.12079980969429016,0.17831538617610931,-0.02913155034184456,-0.017671093344688416,-0.39597469568252563,0.917629063129425,0.0,0.0,0.0,0.0,0.0,0.0
1572,1724915237617833052,-0.4560145139694214,0.1217692568898201,0.1781720370054245,-0.03126266226172447,-0.019033782184123993,-0.39463528990745544,0.9181087017059326,0.0,0.0,0.0,0.0,0.0,0.0
1574,1724915237628695894,-0.45592615008354187,0.12277001142501831,0.1780145764350891,-0.032500188797712326,-0.019314276054501534,-0.39360836148262024,0.9185004830360413,0.0,0.0,0.0,0.0,0.0,0.0
1576,1724915237638667196,-0.4557190537452698,0.12382031977176666,0.17817570269107819,-0.03293726220726967,-0.01942150667309761,-0.3943597972393036,0.9181602597236633,0.0,0.0,0.0,0.0,0.0,0.0
1578,1724915237648112344,-0.45578429102897644,0.12470182776451111,0.17816349864006042,-0.03663047403097153,-0.021782822906970978,-0.39395979046821594,0.9181391000747681,0.0,0.0,0.0,0.0,0.0,0.0
1580,1724915237658937460,-0.4559137225151062,0.12560921907424927,0.17814069986343384,-0.04118911549448967,-0.02246653474867344,-0.3938479423522949,0.9179774522781372,0.0,0.0,0.0,0.0,0.0,0.0
1582,1724915237669835870,-0.45589056611061096,0.1266232430934906,0.1780664473772049,-0.04419511929154396,-0.022039970383048058,-0.39422711730003357,0.9176852107048035,0.0,0.0,0.0,0.0,0.0,0.0
1584,1724915237678837418,-0.455822229385376,0.12754219770431519,0.1777172088623047,-0.04522474855184555,-0.0227812509983778,-0.393923282623291,0.9177473187446594,0.0,0.0,0.0,0.0,0.0,0.0
1586,1724915237688016398,-0.4557930827140808,0.12841938436031342,0.17715638875961304,-0.04633421450853348,-0.02379554696381092,-0.39348000288009644,0.9178564548492432,0.0,0.0,0.0,0.0,0.0,0.0
1588,1724915237714226904,-0.45570144057273865,0.12925782799720764,0.17662714421749115,-0.04599501192569733,-0.024017352610826492,-0.3929719626903534,0.9180853366851807,0.0,0.0,0.0,0.0,0.0,0.0
1590,1724915237714803785,-0.45564931631088257,0.13013114035129547,0.1761685162782669,-0.046697720885276794,-0.024022502824664116,-0.39228203892707825,0.9183447360992432,0.0,0.0,0.0,0.0,0.0,0.0
1592,1724915237720655495,-0.45565035939216614,0.1309588998556137,0.1757631152868271,-0.049004342406988144,-0.02437497489154339,-0.39153021574020386,0.9185361266136169,0.0,0.0,0.0,0.0,0.0,0.0
1594,1724915237728142857,-0.4556867778301239,0.13167540729045868,0.17519015073776245,-0.05030752345919609,-0.024505292996764183,-0.39075133204460144,0.9187938570976257,0.0,0.0,0.0,0.0,0.0,0.0
1596,1724915237739298306,-0.4558052122592926,0.13230639696121216,0.17444583773612976,-0.05135713890194893,-0.025580445304512978,-0.38946762681007385,0.9192513823509216,0.0,0.0,0.0,0.0,0.0,0.0
1598,1724915237748029699,-0.4559267461299896,0.1330113708972931,0.1738530993461609,-0.05208460986614227,-0.026054559275507927,-0.3893499970436096,0.9192469120025635,0.0,0.0,0.0,0.0,0.0,0.0
1600,1724915237758371809,-0.4559697210788727,0.13383261859416962,0.17346778512001038,-0.05283354967832565,-0.025206396356225014,-0.38947993516921997,0.9191728830337524,0.0,0.0,0.0,0.0,0.0,0.0
1602,1724915237769113732,-0.45612648129463196,0.13462573289871216,0.17285305261611938,-0.0536053366959095,-0.02483338490128517,-0.3890504240989685,0.9193201661109924,0.0,0.0,0.0,0.0,0.0,0.0
1604,1724915237777984140,-0.4562298357486725,0.13531507551670074,0.17213186621665955,-0.05347279831767082,-0.025257891044020653,-0.3879605829715729,0.9197767972946167,0.0,0.0,0.0,0.0,0.0,0.0
1606,1724915237794172535,-0.45621198415756226,0.13593696057796478,0.17144349217414856,-0.05302533879876137,-0.025810260325670242,-0.3871917128562927,0.9201112389564514,0.0,0.0,0.0,0.0,0.0,0.0
1608,1724915237801137167,-0.4562382400035858,0.1365605741739273,0.17071735858917236,-0.05388813465833664,-0.025603538379073143,-0.385795921087265,0.9206531047821045,0.0,0.0,0.0,0.0,0.0,0.0
1610,1724915237807873737,-0.4563455283641815,0.13706934452056885,0.17021764814853668,-0.05584004521369934,-0.02606159821152687,-0.3844168484210968,0.9211006760597229,0.0,0.0,0.0,0.0,0.0,0.0
1612,1724915237818609753,-0.456467866897583,0.1376177817583084,0.16984423995018005,-0.058531202375888824,-0.026057181879878044,-0.38351309299468994,0.9213104248046875,0.0,0.0,0.0,0.0,0.0,0.0
1614,1724915237830328544,-0.4565162658691406,0.1381445676088333,0.16930921375751495,-0.059429094195365906,-0.026272006332874298,-0.38208046555519104,0.9218419194221497,0.0,0.0,0.0,0.0,0.0,0.0
1616,1724915237838280139,-0.4565686583518982,0.13856062293052673,0.1688418686389923,-0.05980382114648819,-0.026516351848840714,-0.38095808029174805,0.9222750663757324,0.0,0.0,0.0,0.0,0.0,0.0
1618,1724915237848190387,-0.4565817713737488,0.13889968395233154,0.16841813921928406,-0.059377480298280716,-0.026823202148079872,-0.37980350852012634,0.9227698445320129,0.0,0.0,0.0,0.0,0.0,0.0
1620,1724915237858018227,-0.4565320909023285,0.13918808102607727,0.16803070902824402,-0.0581117682158947,-0.02799230068922043,-0.3784382939338684,0.9233764410018921,0.0,0.0,0.0,0.0,0.0,0.0
1622,1724915237868443364,-0.45659932494163513,0.1394824981689453,0.16770917177200317,-0.058426957577466965,-0.02812110260128975,-0.37702375650405884,0.9239311218261719,0.0,0.0,0.0,0.0,0.0,0.0
1624,1724915237877767164,-0.45670804381370544,0.1396695375442505,0.1673300862312317,-0.05896623432636261,-0.028579559177160263,-0.3752123713493347,0.9246198534965515,0.0,0.0,0.0,0.0,0.0,0.0
1626,1724915237888395716,-0.45688048005104065,0.13988132774829865,0.16706198453903198,-0.060352664440870285,-0.028361836448311806,-0.37359389662742615,0.9251923561096191,0.0,0.0,0.0,0.0,0.0,0.0
1628,1724915237898630950,-0.4570487141609192,0.1399860382080078,0.1667742282152176,-0.06083455681800842,-0.028813660144805908,-0.37182214856147766,0.9258603453636169,0.0,0.0,0.0,0.0,0.0,0.0
1630,1724915237907784467,-0.4570927321910858,0.14017626643180847,0.1666223257780075,-0.06048036366701126,-0.02816067822277546,-0.3703649342060089,0.9264874458312988,0.0,0.0,0.0,0.0,0.0,0.0
1632,1724915237919977551,-0.457213431596756,0.14039191603660583,0.16636723279953003,-0.06033127382397652,-0.027791595086455345,-0.36831849813461304,0.9273236989974976,0.0,0.0,0.0,0.0,0.0,0.0
1634,1724915237927892243,-0.4573197662830353,0.14056722819805145,0.16625291109085083,-0.061209890991449356,-0.027192486450076103,-0.36717596650123596,0.9277368783950806,0.0,0.0,0.0,0.0,0.0,0.0
1636,1724915237938179814,-0.45746248960494995,0.14072760939598083,0.16612744331359863,-0.06285291165113449,-0.027527961879968643,-0.3658919334411621,0.9281244277954102,0.0,0.0,0.0,0.0,0.0,0.0
1638,1724915237947940850,-0.45751410722732544,0.1408797651529312,0.1659415066242218,-0.06297483295202255,-0.027816329151391983,-0.3648485839366913,0.9285181164741516,0.0,0.0,0.0,0.0,0.0,0.0
1640,1724915237963304910,-0.45761048793792725,0.14103198051452637,0.1656608134508133,-0.06336532533168793,-0.02826494723558426,-0.36359983682632446,0.9289677739143372,0.0,0.0,0.0,0.0,0.0,0.0
1642,1724915237967902394,-0.4576719105243683,0.14119672775268555,0.16548217833042145,-0.06349796056747437,-0.028422949835658073,-0.3626836836338043,0.9293119311332703,0.0,0.0,0.0,0.0,0.0,0.0
1644,1724915237979370698,-0.4577123522758484,0.14138992130756378,0.1653468906879425,-0.0630621463060379,-0.028460578992962837,-0.3620498776435852,0.9295876026153564,0.0,0.0,0.0,0.0,0.0,0.0
1646,1724915237989827422,-0.4577747583389282,0.14158271253108978,0.16526493430137634,-0.06336729973554611,-0.028244297951459885,-0.361469566822052,0.9297992587089539,0.0,0.0,0.0,0.0,0.0,0.0
1648,1724915237997993708,-0.4578215479850769,0.1417468935251236,0.165127694606781,-0.06347588449716568,-0.028344236314296722,-0.3605758547782898,0.9301357865333557,0.0,0.0,0.0,0.0,0.0,0.0
1650,1724915238007912425,-0.45789337158203125,0.14193037152290344,0.16504055261611938,-0.06360742449760437,-0.02862011082470417,-0.35909003019332886,0.9306930303573608,0.0,0.0,0.0,0.0,0.0,0.0
1652,1724915238018084122,-0.4578905701637268,0.14212822914123535,0.1651344746351242,-0.06347572058439255,-0.027776433154940605,-0.35788384079933167,0.9311919808387756,0.0,0.0,0.0,0.0,0.0,0.0
1654,1724915238028139049,-0.45788246393203735,0.1422683149576187,0.16519233584403992,-0.06258030980825424,-0.027674565091729164,-0.3561079502105713,0.9319362044334412,0.0,0.0,0.0,0.0,0.0,0.0
1656,1724915238039232524,-0.457887202501297,0.14234010875225067,0.16520673036575317,-0.06212451308965683,-0.027977457270026207,-0.3540082275867462,0.9327571988105774,0.0,0.0,0.0,0.0,0.0,0.0
1658,1724915238048471655,-0.4579286277294159,0.1424245536327362,0.16524244844913483,-0.06274686753749847,-0.02806798741221428,-0.3520592451095581,0.9334502816200256,0.0,0.0,0.0,0.0,0.0,0.0
1660,1724915238057960495,-0.4578655958175659,0.14255428314208984,0.16519899666309357,-0.061596959829330444,-0.027498170733451843,-0.35039377212524414,0.9341701865196228,0.0,0.0,0.0,0.0,0.0,0.0
1662,1724915238068354068,-0.4578617811203003,0.14268039166927338,0.16510377824306488,-0.061208173632621765,-0.027005953714251518,-0.34898459911346436,0.9347373843193054,0.0,0.0,0.0,0.0,0.0,0.0
1664,1724915238077573609,-0.45788100361824036,0.14281626045703888,0.16505028307437897,-0.061198677867650986,-0.026688717305660248,-0.34777432680130005,0.9351980686187744,0.0,0.0,0.0,0.0,0.0,0.0
1666,1724915238088645257,-0.4579143822193146,0.1429579257965088,0.1650329828262329,-0.06117137521505356,-0.026595797389745712,-0.34689706563949585,0.9355282783508301,0.0,0.0,0.0,0.0,0.0,0.0
1668,1724915238098683403,-0.4580222964286804,0.14310875535011292,0.16505230963230133,-0.06322772800922394,-0.027446987107396126,-0.3459092080593109,0.9357327222824097,0.0,0.0,0.0,0.0,0.0,0.0
1670,1724915238108073907,-0.45818978548049927,0.14322839677333832,0.16495369374752045,-0.06476307660341263,-0.027955643832683563,-0.34393224120140076,0.9363412261009216,0.0,0.0,0.0,0.0,0.0,0.0
1672,1724915238118445162,-0.45824065804481506,0.1433543562889099,0.16495881974697113,-0.0649203211069107,-0.027474818751215935,-0.34190985560417175,0.9370849132537842,0.0,0.0,0.0,0.0,0.0,0.0
1674,1724915238129295386,-0.4582693874835968,0.1434606909751892,0.16484898328781128,-0.06438659876585007,-0.027286449447274208,-0.33924293518066406,0.9380960464477539,0.0,0.0,0.0,0.0,0.0,0.0
1676,1724915238138424496,-0.458297461271286,0.14349234104156494,0.16481183469295502,-0.06354095786809921,-0.027328016236424446,-0.33706599473953247,0.9389368295669556,0.0,0.0,0.0,0.0,0.0,0.0
1678,1724915238148065152,-0.45833703875541687,0.14346857368946075,0.16483895480632782,-0.06309349089860916,-0.02734041027724743,-0.33512768149375916,0.9396601915359497,0.0,0.0,0.0,0.0,0.0,0.0
1680,1724915238159818520,-0.45839163661003113,0.14337202906608582,0.1649027317762375,-0.06307760626077652,-0.027168601751327515,-0.3335660696029663,0.9402217268943787,0.0,0.0,0.0,0.0,0.0,0.0
1682,1724915238168004734,-0.458510160446167,0.1433035433292389,0.16500791907310486,-0.06413637101650238,-0.026805570349097252,-0.3323161005973816,0.9406030774116516,0.0,0.0,0.0,0.0,0.0,0.0
1684,1724915238178213018,-0.45848390460014343,0.14332996308803558,0.1651715785264969,-0.06430783122777939,-0.026121078059077263,-0.33125823736190796,0.9409837126731873,0.0,0.0,0.0,0.0,0.0,0.0
1686,1724915238188367572,-0.45847952365875244,0.1432168185710907,0.16510935127735138,-0.061988458037376404,-0.02717607468366623,-0.3294214904308319,0.9417538642883301,0.0,0.0,0.0,0.0,0.0,0.0
1688,1724915238198057212,-0.45852941274642944,0.14313377439975739,0.1651085764169693,-0.060578566044569016,-0.027489840984344482,-0.32798561453819275,0.9423375129699707,0.0,0.0,0.0,0.0,0.0,0.0
1690,1724915238210446407,-0.45857375860214233,0.14301688969135284,0.16512519121170044,-0.06040212884545326,-0.02749532461166382,-0.32657384872436523,0.9428389072418213,0.0,0.0,0.0,0.0,0.0,0.0
1692,1724915238220400045,-0.45866453647613525,0.14282479882240295,0.1651441603899002,-0.060142602771520615,-0.0278013925999403,-0.3245198130607605,0.9435555338859558,0.0,0.0,0.0,0.0,0.0,0.0
1694,1724915238227767497,-0.45874035358428955,0.14276263117790222,0.16534775495529175,-0.06009288877248764,-0.027247194200754166,-0.3230971395969391,0.9440629482269287,0.0,0.0,0.0,0.0,0.0,0.0
1696,1724915238239324723,-0.458821177482605,0.14267480373382568,0.16550280153751373,-0.060281019657850266,-0.026528526097536087,-0.3211924135684967,0.9447211027145386,0.0,0.0,0.0,0.0,0.0,0.0
1698,1724915238247982255,-0.45890817046165466,0.1425810158252716,0.16571463644504547,-0.059630654752254486,-0.025970621034502983,-0.3199918866157532,0.9451851844787598,0.0,0.0,0.0,0.0,0.0,0.0
1700,1724915238258405439,-0.4590134918689728,0.14233911037445068,0.16589272022247314,-0.05910873785614967,-0.025884713977575302,-0.3188633918762207,0.9456015229225159,0.0,0.0,0.0,0.0,0.0,0.0
1702,1724915238270718797,-0.4591582715511322,0.14209474623203278,0.16623087227344513,-0.05861322581768036,-0.02540501207113266,-0.3175857961177826,0.9460753202438354,0.0,0.0,0.0,0.0,0.0,0.0
1704,1724915238277816113,-0.4593826234340668,0.1418035626411438,0.16671818494796753,-0.05817628279328346,-0.02513115480542183,-0.3160703480243683,0.9466169476509094,0.0,0.0,0.0,0.0,0.0,0.0
1706,1724915238288245023,-0.4595496952533722,0.14148201048374176,0.1675720065832138,-0.05775514990091324,-0.02449621818959713,-0.3152201771736145,0.9469427466392517,0.0,0.0,0.0,0.0,0.0,0.0
1708,1724915238301556310,-0.4597429633140564,0.14104929566383362,0.16822049021720886,-0.05758373439311981,-0.023990638554096222,-0.3142033815383911,0.9473040103912354,0.0,0.0,0.0,0.0,0.0,0.0
1710,1724915238308084107,-0.4600510597229004,0.14041610062122345,0.16854983568191528,-0.05759644880890846,-0.02436649240553379,-0.31211772561073303,0.947982907295227,0.0,0.0,0.0,0.0,0.0,0.0
1712,1724915238319463892,-0.4603410065174103,0.13980825245380402,0.16901254653930664,-0.056673552840948105,-0.024204785004258156,-0.31055569648742676,0.9485554695129395,0.0,0.0,0.0,0.0,0.0,0.0
1714,1724915238327802212,-0.4605022668838501,0.13932284712791443,0.16981376707553864,-0.05458685755729675,-0.024588044732809067,-0.3100492060184479,0.9488336443901062,0.0,0.0,0.0,0.0,0.0,0.0
1716,1724915238338670528,-0.4606572687625885,0.13886691629886627,0.17072701454162598,-0.05507507175207138,-0.02362755499780178,-0.3094549775123596,0.9490237832069397,0.0,0.0,0.0,0.0,0.0,0.0
1718,1724915238348858287,-0.4607449173927307,0.13839367032051086,0.17161118984222412,-0.055791277438402176,-0.02262282185256481,-0.30921146273612976,0.9490858316421509,0.0,0.0,0.0,0.0,0.0,0.0
1720,1724915238358001159,-0.4608531594276428,0.13774339854717255,0.17209762334823608,-0.05614080652594566,-0.02219867892563343,-0.30793362855911255,0.9494906067848206,0.0,0.0,0.0,0.0,0.0,0.0
1722,1724915238369182920,-0.46083733439445496,0.13712623715400696,0.17271451652050018,-0.05323629081249237,-0.021510785445570946,-0.30747127532958984,0.9498234391212463,0.0,0.0,0.0,0.0,0.0,0.0
1724,1724915238377978749,-0.46077972650527954,0.13662183284759521,0.17341075837612152,-0.05146350711584091,-0.021131185814738274,-0.3062215745449066,0.950333297252655,0.0,0.0,0.0,0.0,0.0,0.0
1726,1724915238388378954,-0.4605889916419983,0.13604749739170074,0.17421181499958038,-0.0490272119641304,-0.02076203003525734,-0.3054448962211609,0.9507201313972473,0.0,0.0,0.0,0.0,0.0,0.0
1728,1724915238398290510,-0.4603210985660553,0.13537371158599854,0.17491941154003143,-0.04740579426288605,-0.02128797024488449,-0.30473780632019043,0.9510176181793213,0.0,0.0,0.0,0.0,0.0,0.0
1730,1724915238407977430,-0.4600858688354492,0.13465698063373566,0.17558227479457855,-0.0448775589466095,-0.02080533094704151,-0.30446454882621765,0.9512383937835693,0.0,0.0,0.0,0.0,0.0,0.0
1732,1724915238418144361,-0.45992860198020935,0.1336887627840042,0.1760379523038864,-0.04222412034869194,-0.020416593179106712,-0.3034316301345825,0.9516983032226562,0.0,0.0,0.0,0.0,0.0,0.0
1734,1724915238428101736,-0.45986029505729675,0.13278646767139435,0.1763504147529602,-0.03990449756383896,-0.019332680851221085,-0.3027004599571228,0.9520537257194519,0.0,0.0,0.0,0.0,0.0,0.0
1736,1724915238439398759,-0.4598395526409149,0.13189005851745605,0.17646360397338867,-0.03829371556639671,-0.018420372158288956,-0.30212584137916565,0.9523205161094666,0.0,0.0,0.0,0.0,0.0,0.0
1738,1724915238448461822,-0.45976802706718445,0.1308746635913849,0.1764809787273407,-0.036268457770347595,-0.018443215638399124,-0.3012903332710266,0.9526639580726624,0.0,0.0,0.0,0.0,0.0,0.0
1740,1724915238459027253,-0.4597795009613037,0.12972590327262878,0.17650072276592255,-0.03257344290614128,-0.018570464104413986,-0.3012039363384247,0.9528222680091858,0.0,0.0,0.0,0.0,0.0,0.0
1742,1724915238468175691,-0.4598452150821686,0.12855830788612366,0.17672783136367798,-0.029771670699119568,-0.01780286803841591,-0.30133453011512756,0.9528872966766357,0.0,0.0,0.0,0.0,0.0,0.0
1744,1724915238477851963,-0.4600551724433899,0.1273893117904663,0.17709295451641083,-0.029381677508354187,-0.018131176009774208,-0.3010396957397461,0.952986478805542,0.0,0.0,0.0,0.0,0.0,0.0
1746,1724915238489670057,-0.46007442474365234,0.12611642479896545,0.17741818726062775,-0.02643265575170517,-0.019487326964735985,-0.30036166310310364,0.9532599449157715,0.0,0.0,0.0,0.0,0.0,0.0
1748,1724915238498665665,-0.4600386619567871,0.12507572770118713,0.1778392195701599,-0.0252409428358078,-0.019325202330946922,-0.3007983863353729,0.9531577825546265,0.0,0.0,0.0,0.0,0.0,0.0
1750,1724915238509099283,-0.45993658900260925,0.12382518500089645,0.17803452908992767,-0.023195693269371986,-0.019281631335616112,-0.30049988627433777,0.9533048272132874,0.0,0.0,0.0,0.0,0.0,0.0
1752,1724915238523517617,-0.45986106991767883,0.12236921489238739,0.17828600108623505,-0.020725969225168228,-0.017833378165960312,-0.29928532242774963,0.9537718892097473,0.0,0.0,0.0,0.0,0.0,0.0
1754,1724915238529291194,-0.4597108066082001,0.12098076939582825,0.17831149697303772,-0.01414734311401844,-0.015567239373922348,-0.2998034656047821,0.9537690281867981,0.0,0.0,0.0,0.0,0.0,0.0
1756,1724915238538989744,-0.45992347598075867,0.11948516964912415,0.17816594243049622,-0.014100296422839165,-0.015280557796359062,-0.29961755871772766,0.9538328647613525,0.0,0.0,0.0,0.0,0.0,0.0
1758,1724915238550650886,-0.4599801301956177,0.11807586252689362,0.17798617482185364,-0.012519116513431072,-0.015426714904606342,-0.29903531074523926,0.9540352821350098,0.0,0.0,0.0,0.0,0.0,0.0
1760,1724915238558684640,-0.4600646197795868,0.11675605922937393,0.1777205467224121,-0.009701613336801529,-0.01534974668174982,-0.2992275357246399,0.954008936882019,0.0,0.0,0.0,0.0,0.0,0.0
1762,1724915238569677475,-0.460366427898407,0.11539869010448456,0.17751753330230713,-0.007342997472733259,-0.015416453592479229,-0.2984319031238556,0.9542781710624695,0.0,0.0,0.0,0.0,0.0,0.0
1764,1724915238577684799,-0.4605768322944641,0.11421225219964981,0.17749808728694916,-0.0026746380608528852,-0.01395419891923666,-0.2980860471725464,0.954433262348175,0.0,0.0,0.0,0.0,0.0,0.0
1766,1724915238590450045,-0.46071165800094604,0.11312363296747208,0.17770209908485413,0.0010707862675189972,-0.013332805596292019,-0.2989826798439026,0.9541648030281067,0.0,0.0,0.0,0.0,0.0,0.0
1768,1724915238598369189,-0.46103549003601074,0.1120111271739006,0.17758683860301971,0.0023007544223219156,-0.014328045770525932,-0.29804202914237976,0.9544425010681152,0.0,0.0,0.0,0.0,0.0,0.0
1770,1724915238607992531,-0.46134647727012634,0.11083279550075531,0.17756982147693634,0.0040583559311926365,-0.014077858999371529,-0.2969632148742676,0.9547765851020813,0.0,0.0,0.0,0.0,0.0,0.0
1772,1724915238620618473,-0.46147748827934265,0.10958290845155716,0.17777712643146515,0.005201946943998337,-0.012247093953192234,-0.29770147800445557,0.9545663595199585,0.0,0.0,0.0,0.0,0.0,0.0
1774,1724915238627947587,-0.4615688920021057,0.10849351435899734,0.17780432105064392,0.007479323074221611,-0.010801264084875584,-0.29871270060539246,0.9542526006698608,0.0,0.0,0.0,0.0,0.0,0.0
1776,1724915238638874035,-0.4617191255092621,0.10739432275295258,0.17759597301483154,0.011639883741736412,-0.009300223551690578,-0.2987631857395172,0.9542109966278076,0.0,0.0,0.0,0.0,0.0,0.0
1778,1724915238648533293,-0.4618503451347351,0.10625491291284561,0.17743657529354095,0.014039034955203533,-0.00868559256196022,-0.29891881346702576,0.9541357755661011,0.0,0.0,0.0,0.0,0.0,0.0
1780,1724915238658382280,-0.461891233921051,0.10530319064855576,0.177189439535141,0.015549153089523315,-0.00742336455732584,-0.2989685833454132,0.9541074633598328,0.0,0.0,0.0,0.0,0.0,0.0
1782,1724915238667981080,-0.462016761302948,0.10419657826423645,0.17663076519966125,0.017459647729992867,-0.00803524348884821,-0.29920732975006104,0.9539945721626282,0.0,0.0,0.0,0.0,0.0,0.0
1784,1724915238677817383,-0.46214237809181213,0.10335563123226166,0.17605677247047424,0.018954012542963028,-0.0071249911561608315,-0.2999855577945709,0.9537287950515747,0.0,0.0,0.0,0.0,0.0,0.0
1786,1724915238688105869,-0.46230119466781616,0.10238116979598999,0.17546099424362183,0.020915169268846512,-0.005829560104757547,-0.3017703890800476,0.9531334042549133,0.0,0.0,0.0,0.0,0.0,0.0
1788,1724915238698030294,-0.4624142050743103,0.10140469670295715,0.174720898270607,0.022230086848139763,-0.006782891694456339,-0.3012892007827759,0.9532495141029358,0.0,0.0,0.0,0.0,0.0,0.0
1790,1724915238708128352,-0.46244674921035767,0.10073035955429077,0.1741497665643692,0.025292612612247467,-0.0050631361082196236,-0.30132752656936646,0.9531717896461487,0.0,0.0,0.0,0.0,0.0,0.0
1792,1724915238719813031,-0.462445467710495,0.10003815591335297,0.173650324344635,0.026834942400455475,-0.004375613760203123,-0.30133289098739624,0.9531312584877014,0.0,0.0,0.0,0.0,0.0,0.0
1794,1724915238727921705,-0.4624647796154022,0.0992865264415741,0.17289495468139648,0.027340397238731384,-0.004377913195639849,-0.3013840913772583,0.9531008005142212,0.0,0.0,0.0,0.0,0.0,0.0
1796,1724915238738887925,-0.46271729469299316,0.09843713045120239,0.17234690487384796,0.026259133592247963,-0.004844803363084793,-0.3021663725376129,0.9528812170028687,0.0,0.0,0.0,0.0,0.0,0.0
1798,1724915238747938224,-0.4628661274909973,0.09761693328619003,0.1717856526374817,0.027499280869960785,-0.005338093265891075,-0.30213651061058044,0.9528529644012451,0.0,0.0,0.0,0.0,0.0,0.0
1800,1724915238758056772,-0.4629448354244232,0.09682489186525345,0.17141272127628326,0.029263637959957123,-0.00488218804821372,-0.30278682708740234,0.9525964856147766,0.0,0.0,0.0,0.0,0.0,0.0
1802,1724915238768929884,-0.4631480574607849,0.09602323174476624,0.17101967334747314,0.028813477605581284,-0.00473678158596158,-0.30375760793685913,0.9523017406463623,0.0,0.0,0.0,0.0,0.0,0.0
1804,1724915238777924955,-0.4632937014102936,0.09523270279169083,0.17029529809951782,0.029315264895558357,-0.0036212760023772717,-0.3049895465373993,0.9518975019454956,0.0,0.0,0.0,0.0,0.0,0.0
1806,1724915238788513659,-0.4633760154247284,0.09453559666872025,0.16950282454490662,0.03279496356844902,-0.002074879826977849,-0.30543482303619385,0.9516457915306091,0.0,0.0,0.0,0.0,0.0,0.0
1808,1724915238801299633,-0.46341025829315186,0.0940018743276596,0.16864822804927826,0.03458592668175697,-0.0007059285417199135,-0.3055119812488556,0.9515596628189087,0.0,0.0,0.0,0.0,0.0,0.0
1810,1724915238807795624,-0.4636048972606659,0.0931592807173729,0.16812515258789062,0.03364444524049759,-0.0033185745123773813,-0.30710792541503906,0.9510740637779236,0.0,0.0,0.0,0.0,0.0,0.0
1812,1724915238818176827,-0.46370750665664673,0.09249041229486465,0.1676662117242813,0.034283753484487534,-0.003204019507393241,-0.308848112821579,0.9504879713058472,0.0,0.0,0.0,0.0,0.0,0.0
1814,1724915238827827139,-0.46380913257598877,0.09191948920488358,0.16721920669078827,0.0338921956717968,-0.0019117764895781875,-0.3102906048297882,0.9500354528427124,0.0,0.0,0.0,0.0,0.0,0.0
1816,1724915238838836466,-0.4638303220272064,0.09151270985603333,0.1669095754623413,0.03483792394399643,-0.0009023732854984701,-0.31217801570892334,0.9493842124938965,0.0,0.0,0.0,0.0,0.0,0.0
1818,1724915238848357878,-0.4638078510761261,0.09099581837654114,0.1663723587989807,0.0348837748169899,-0.0017861993983387947,-0.31245771050453186,0.9492892622947693,0.0,0.0,0.0,0.0,0.0,0.0
1820,1724915238857859584,-0.4636717140674591,0.09040254354476929,0.1659436970949173,0.03535529971122742,-0.0021398954559117556,-0.3138728141784668,0.9488041996955872,0.0,0.0,0.0,0.0,0.0,0.0
1822,1724915238868093402,-0.46349722146987915,0.09002680331468582,0.16555075347423553,0.037819754332304,-0.0018353816121816635,-0.3151423931121826,0.9482887387275696,0.0,0.0,0.0,0.0,0.0,0.0
1824,1724915238878225105,-0.4634694755077362,0.08968286216259003,0.165176659822464,0.03847929835319519,-0.0015965361380949616,-0.31621554493904114,0.9479053616523743,0.0,0.0,0.0,0.0,0.0,0.0
1826,1724915238888982863,-0.4636688828468323,0.08925332874059677,0.16500182449817657,0.0360039584338665,-0.0018348790472373366,-0.31872063875198364,0.947162926197052,0.0,0.0,0.0,0.0,0.0,0.0
1828,1724915238898408841,-0.46371927857398987,0.08900433778762817,0.16480769217014313,0.03626256063580513,-0.0014347805408760905,-0.3202022910118103,0.9466539025306702,0.0,0.0,0.0,0.0,0.0,0.0
1830,1724915238908750300,-0.4637381136417389,0.08879542350769043,0.16460609436035156,0.03641073405742645,-0.0014847808051854372,-0.32077711820602417,0.9464534521102905,0.0,0.0,0.0,0.0,0.0,0.0
1832,1724915238919925556,-0.4637429714202881,0.08857820183038712,0.16446006298065186,0.036800943315029144,-0.001787987886928022,-0.3219408094882965,0.9460425972938538,0.0,0.0,0.0,0.0,0.0,0.0
1834,1724915238927979858,-0.46377500891685486,0.08835262060165405,0.1643153429031372,0.037178024649620056,-0.0017014554468914866,-0.323685884475708,0.9454324245452881,0.0,0.0,0.0,0.0,0.0,0.0
1836,1724915238938967715,-0.46372511982917786,0.08810092508792877,0.16416271030902863,0.037995096296072006,-0.0019475423032417893,-0.3251902759075165,0.9448831081390381,0.0,0.0,0.0,0.0,0.0,0.0
1838,1724915238947869351,-0.46382492780685425,0.08786124736070633,0.16397133469581604,0.036572229117155075,-0.0013467976823449135,-0.32683295011520386,0.9443733096122742,0.0,0.0,0.0,0.0,0.0,0.0
1840,1724915238958360552,-0.46384453773498535,0.0876973420381546,0.16374579071998596,0.03799566999077797,0.00040360810817219317,-0.3288782835006714,0.9436076879501343,0.0,0.0,0.0,0.0,0.0,0.0
1842,1724915238970652342,-0.46379554271698,0.08745729923248291,0.1635349988937378,0.039024971425533295,0.0008826862322166562,-0.33059611916542053,0.9429647326469421,0.0,0.0,0.0,0.0,0.0,0.0
1844,1724915238977859652,-0.4637768566608429,0.08728951960802078,0.1633254587650299,0.03912260755896568,0.0006552644190378487,-0.33171483874320984,0.9425679445266724,0.0,0.0,0.0,0.0,0.0,0.0
1846,1724915238989814937,-0.4637486934661865,0.08715225011110306,0.16325770318508148,0.03949626535177231,0.0008318567415699363,-0.3331679701805115,0.9420395493507385,0.0,0.0,0.0,0.0,0.0,0.0
1848,1724915238998225109,-0.46374979615211487,0.08698935061693192,0.16316011548042297,0.040351878851652145,0.0011099395342171192,-0.33448344469070435,0.9415367245674133,0.0,0.0,0.0,0.0,0.0,0.0
1850,1724915239008046853,-0.46370935440063477,0.08683639019727707,0.1630847305059433,0.04088244587182999,0.001291858498007059,-0.3357786238193512,0.9410524964332581,0.0,0.0,0.0,0.0,0.0,0.0
1852,1724915239019281158,-0.46358245611190796,0.0867103561758995,0.16313955187797546,0.04243414103984833,0.0019482765346765518,-0.3378348648548126,0.9402464032173157,0.0,0.0,0.0,0.0,0.0,0.0
1854,1724915239027732499,-0.46357008814811707,0.08652399480342865,0.16307662427425385,0.04277482628822327,0.0011291340924799442,-0.33971068263053894,0.9395561814308167,0.0,0.0,0.0,0.0,0.0,0.0
1856,1724915239040684986,-0.4635726511478424,0.08645092695951462,0.16311712563037872,0.042070887982845306,0.000860836124047637,-0.34133875370025635,0.9389979839324951,0.0,0.0,0.0,0.0,0.0,0.0
1858,1724915239049318231,-0.4635356366634369,0.08636834472417831,0.16320952773094177,0.04113868623971939,0.0015803903806954622,-0.3428632915019989,0.9384827613830566,0.0,0.0,0.0,0.0,0.0,0.0
1860,1724915239057988203,-0.46344703435897827,0.08626291155815125,0.16323035955429077,0.04102045297622681,0.00164050015155226,-0.3441683053970337,0.938010036945343,0.0,0.0,0.0,0.0,0.0,0.0
1862,1724915239068675822,-0.46340328454971313,0.08616317808628082,0.16304591298103333,0.040266573429107666,0.000710679276380688,-0.3451550006866455,0.937681257724762,0.0,0.0,0.0,0.0,0.0,0.0
1864,1724915239078789259,-0.46328824758529663,0.08611033111810684,0.1629703938961029,0.041167426854372025,0.0008768377010710537,-0.34685808420181274,0.9370133280754089,0.0,0.0,0.0,0.0,0.0,0.0
1866,1724915239088542179,-0.4632473587989807,0.08606767654418945,0.1630132496356964,0.039751723408699036,0.0023046976421028376,-0.3489649295806885,0.9362894892692566,0.0,0.0,0.0,0.0,0.0,0.0
1868,1724915239098889736,-0.4631667137145996,0.08595345914363861,0.16314305365085602,0.03927977383136749,0.002959339413791895,-0.35096028447151184,0.9355614185333252,0.0,0.0,0.0,0.0,0.0,0.0
1870,1724915239108698886,-0.46309417486190796,0.08591732382774353,0.16324514150619507,0.03852248564362526,0.0030067292973399162,-0.3526735007762909,0.9349484443664551,0.0,0.0,0.0,0.0,0.0,0.0
1872,1724915239120404351,-0.46308764815330505,0.08577360212802887,0.1632886677980423,0.037052545696496964,0.0026282782200723886,-0.35446897149086,0.9343296885490417,0.0,0.0,0.0,0.0,0.0,0.0
1874,1724915239132703517,-0.46303778886795044,0.08557196706533432,0.1633390188217163,0.037256985902786255,0.002039761748164892,-0.35646310448646545,0.9335640668869019,0.0,0.0,0.0,0.0,0.0,0.0
1876,1724915239139252222,-0.4629865288734436,0.08548320084810257,0.16347327828407288,0.036242056638002396,0.0018365742871537805,-0.35849815607070923,0.9328249096870422,0.0,0.0,0.0,0.0,0.0,0.0
1878,1724915239148418034,-0.4629603922367096,0.08534806966781616,0.16347740590572357,0.035697534680366516,0.0016698447288945317,-0.3599538803100586,0.9322854280471802,0.0,0.0,0.0,0.0,0.0,0.0
1880,1724915239158264676,-0.4628424048423767,0.08532371371984482,0.16350826621055603,0.035567350685596466,0.0015731451567262411,-0.36122462153434753,0.9317989945411682,0.0,0.0,0.0,0.0,0.0,0.0
1882,1724915239168146728,-0.46271273493766785,0.08538644760847092,0.16376520693302155,0.0361049510538578,0.0027990383096039295,-0.36345216631889343,0.930908739566803,0.0,0.0,0.0,0.0,0.0,0.0
1884,1724915239178553100,-0.4626440703868866,0.0854002982378006,0.1638302057981491,0.03635113686323166,0.003031287109479308,-0.36481598019599915,0.9303649067878723,0.0,0.0,0.0,0.0,0.0,0.0
1886,1724915239188882124,-0.4625702202320099,0.08544278889894485,0.16392451524734497,0.03634139522910118,0.0033113977406173944,-0.36629390716552734,0.9297834038734436,0.0,0.0,0.0,0.0,0.0,0.0
1888,1724915239198178295,-0.4625312387943268,0.08542580902576447,0.16402921080589294,0.03630555048584938,0.0036000791005790234,-0.36782577633857727,0.9291787147521973,0.0,0.0,0.0,0.0,0.0,0.0
1890,1724915239208523633,-0.46248874068260193,0.08540622889995575,0.16391457617282867,0.035777024924755096,0.0027082697488367558,-0.36877185106277466,0.9288272261619568,0.0,0.0,0.0,0.0,0.0,0.0
1892,1724915239217994250,-0.4624752700328827,0.08551785349845886,0.16394183039665222,0.03598659113049507,0.002042628126218915,-0.3698326349258423,0.9283990263938904,0.0,0.0,0.0,0.0,0.0,0.0
1894,1724915239227950343,-0.46251192688941956,0.08565275371074677,0.1642075926065445,0.03561018407344818,0.0018755857599899173,-0.37075063586235046,0.9280476570129395,0.0,0.0,0.0,0.0,0.0,0.0
1896,1724915239239331022,-0.46255752444267273,0.0857621356844902,0.16483987867832184,0.03497914597392082,0.0019564658869057894,-0.37231677770614624,0.9274442791938782,0.0,0.0,0.0,0.0,0.0,0.0
1898,1724915239248067219,-0.46261096000671387,0.08603508025407791,0.16535982489585876,0.034189965575933456,0.002348118694499135,-0.3733573853969574,0.9270544648170471,0.0,0.0,0.0,0.0,0.0,0.0
1900,1724915239258156801,-0.46265909075737,0.08639851957559586,0.16583360731601715,0.03345818445086479,0.0028169723227620125,-0.37442708015441895,0.9266483187675476,0.0,0.0,0.0,0.0,0.0,0.0
1902,1724915239271325186,-0.46267858147621155,0.08686700463294983,0.1663912534713745,0.03289792314171791,0.0031599593348801136,-0.37576523423194885,0.9261254072189331,0.0,0.0,0.0,0.0,0.0,0.0
1904,1724915239277908652,-0.4627283215522766,0.08726360648870468,0.16718845069408417,0.031219247728586197,0.0034217005595564842,-0.3782431483268738,0.9251734018325806,0.0,0.0,0.0,0.0,0.0,0.0
1906,1724915239288880435,-0.4627714455127716,0.08771724998950958,0.16737230122089386,0.031789280474185944,0.0010838669259101152,-0.37725406885147095,0.9255634546279907,0.0,0.0,0.0,0.0,0.0,0.0
1908,1724915239298681939,-0.46275898814201355,0.08814015984535217,0.16803336143493652,0.03096824698150158,0.0009520704625174403,-0.377971351146698,0.925298810005188,0.0,0.0,0.0,0.0,0.0,0.0
1910,1724915239307944557,-0.4627853035926819,0.08862149715423584,0.1686631143093109,0.02922346442937851,0.0017559219850227237,-0.3788902759552002,0.924978494644165,0.0,0.0,0.0,0.0,0.0,0.0
1912,1724915239319156033,-0.4629342555999756,0.08912445604801178,0.16921758651733398,0.027787329629063606,0.00107888737693429,-0.38044479489326477,0.9243855476379395,0.0,0.0,0.0,0.0,0.0,0.0
1914,1724915239327925630,-0.46293923258781433,0.08974071592092514,0.16986723244190216,0.025982525199651718,-6.052764365449548e-05,-0.3814989924430847,0.9240039587020874,0.0,0.0,0.0,0.0,0.0,0.0
1916,1724915239338403227,-0.4627317488193512,0.09042463451623917,0.17067278921604156,0.02604019269347191,0.00032358235330320895,-0.38321998715400696,0.9232898950576782,0.0,0.0,0.0,0.0,0.0,0.0
1918,1724915239348578109,-0.4625645577907562,0.09097311645746231,0.17132942378520966,0.024747923016548157,0.0005836556665599346,-0.38519686460494995,0.9225023984909058,0.0,0.0,0.0,0.0,0.0,0.0
1920,1724915239357774191,-0.46232256293296814,0.09163117408752441,0.17183274030685425,0.023270007222890854,0.00034311326453462243,-0.38628068566322327,0.9220876693725586,0.0,0.0,0.0,0.0,0.0,0.0
1922,1724915239368476093,-0.461971253156662,0.09250035136938095,0.1724802702665329,0.022943291813135147,0.0015585345681756735,-0.38753774762153625,0.9215669631958008,0.0,0.0,0.0,0.0,0.0,0.0
1924,1724915239379059213,-0.46167582273483276,0.09325332939624786,0.17308981716632843,0.022218333557248116,0.00071854138514027,-0.38776788115501404,0.9214889407157898,0.0,0.0,0.0,0.0,0.0,0.0
1926,1724915239388645629,-0.46124881505966187,0.0942411869764328,0.17376220226287842,0.023699939250946045,0.0015113470144569874,-0.3875611424446106,0.9215380549430847,0.0,0.0,0.0,0.0,0.0,0.0
1928,1724915239399200453,-0.46094322204589844,0.09511696547269821,0.1742723137140274,0.023019395768642426,-0.00016172997129615396,-0.38736334443092346,0.9216396808624268,0.0,0.0,0.0,0.0,0.0,0.0
1930,1724915239409277962,-0.4607205390930176,0.09604901820421219,0.17492283880710602,0.01642080396413803,-0.002256701933220029,-0.3872112035751343,0.9218420386314392,0.0,0.0,0.0,0.0,0.0,0.0
1932,1724915239419800833,-0.4602610170841217,0.0972101017832756,0.17567673325538635,0.016014961525797844,-0.003296639071777463,-0.38935694098472595,0.9209418892860413,0.0,0.0,0.0,0.0,0.0,0.0
1934,1724915239428063660,-0.45983749628067017,0.09853051602840424,0.17609915137290955,0.014623383060097694,-0.004549254663288593,-0.3903457522392273,0.920540988445282,0.0,0.0,0.0,0.0,0.0,0.0
1936,1724915239440141591,-0.45948123931884766,0.09978468716144562,0.17649240791797638,0.01333689596503973,-0.0043999687768518925,-0.3919081687927246,0.919897198677063,0.0,0.0,0.0,0.0,0.0,0.0
1938,1724915239448332857,-0.4589760899543762,0.10098665207624435,0.17636635899543762,0.015200089663267136,-0.005330631509423256,-0.39157822728157043,0.9200038909912109,0.0,0.0,0.0,0.0,0.0,0.0
1940,1724915239458353377,-0.45851781964302063,0.10239066183567047,0.1767425835132599,0.012998758815228939,-0.00519128143787384,-0.39396294951438904,0.9190198183059692,0.0,0.0,0.0,0.0,0.0,0.0
1942,1724915239470902974,-0.4581696391105652,0.10395851731300354,0.17692255973815918,0.006996938027441502,-0.007018637377768755,-0.39481213688850403,0.9187084436416626,0.0,0.0,0.0,0.0,0.0,0.0
1944,1724915239477830206,-0.4578813910484314,0.10537903010845184,0.1769440472126007,0.0035391065757721663,-0.008736174553632736,-0.3948216736316681,0.9187094569206238,0.0,0.0,0.0,0.0,0.0,0.0
1946,1724915239489947818,-0.4575768709182739,0.10667646676301956,0.1769709587097168,0.0022553540766239166,-0.010080114006996155,-0.39373570680618286,0.9191656708717346,0.0,0.0,0.0,0.0,0.0,0.0
1948,1724915239498006611,-0.45710164308547974,0.10801126062870026,0.17726407945156097,0.003725148970261216,-0.008168703876435757,-0.3945963382720947,0.9188107252120972,0.0,0.0,0.0,0.0,0.0,0.0
1950,1724915239508063211,-0.45693591237068176,0.10931530594825745,0.17771385610103607,0.002023060107603669,-0.007256575860083103,-0.3958844244480133,0.9182694554328918,0.0,0.0,0.0,0.0,0.0,0.0
1952,1724915239521840038,-0.45711788535118103,0.11039644479751587,0.1779416799545288,-0.0024999475572258234,-0.011194746941328049,-0.39538007974624634,0.9184460639953613,0.0,0.0,0.0,0.0,0.0,0.0
1954,1724915239527763819,-0.4572085738182068,0.11146077513694763,0.17845693230628967,-0.00551431393250823,-0.013541584834456444,-0.3965361416339874,0.9179026484489441,0.0,0.0,0.0,0.0,0.0,0.0
1956,1724915239539212303,-0.45722058415412903,0.1124376729130745,0.17884401977062225,-0.007032356224954128,-0.015996195375919342,-0.3963037133216858,0.9179532527923584,0.0,0.0,0.0,0.0,0.0,0.0
1958,1724915239549248158,-0.4573320150375366,0.11330167204141617,0.17905369400978088,-0.008070581592619419,-0.0172857865691185,-0.3960017263889313,0.9180516600608826,0.0,0.0,0.0,0.0,0.0,0.0
1960,1724915239557886172,-0.4572035074234009,0.11436168849468231,0.17916779220104218,-0.010127362795174122,-0.016857463866472244,-0.3955495059490204,0.91823410987854,0.0,0.0,0.0,0.0,0.0,0.0
1962,1724915239571250560,-0.456823468208313,0.11559532582759857,0.17926818132400513,-0.012050536461174488,-0.017075015231966972,-0.39528921246528625,0.9183189272880554,0.0,0.0,0.0,0.0,0.0,0.0
1964,1724915239577840066,-0.4566967785358429,0.11661707609891891,0.1792454868555069,-0.016545310616493225,-0.01847638003528118,-0.39552727341651917,0.9181193709373474,0.0,0.0,0.0,0.0,0.0,0.0
1966,1724915239589123056,-0.4568940997123718,0.11749036610126495,0.17905040085315704,-0.02289183810353279,-0.02013869769871235,-0.3955378830432892,0.91794353723526,0.0,0.0,0.0,0.0,0.0,0.0
1968,1724915239598443765,-0.45686736702919006,0.11848367005586624,0.1788264513015747,-0.025777125731110573,-0.019834250211715698,-0.39551571011543274,0.9178831577301025,0.0,0.0,0.0,0.0,0.0,0.0
1970,1724915239607834675,-0.45669928193092346,0.11955523490905762,0.17850854992866516,-0.026421530172228813,-0.01916331611573696,-0.3950892686843872,0.918062686920166,0.0,0.0,0.0,0.0,0.0,0.0
1972,1724915239618070545,-0.4566081166267395,0.12059102952480316,0.17847098410129547,-0.02824375033378601,-0.01909050904214382,-0.39505496621131897,0.9180247783660889,0.0,0.0,0.0,0.0,0.0,0.0
1974,1724915239628588690,-0.4564991593360901,0.12157072871923447,0.1787872016429901,-0.030582893639802933,-0.018759416416287422,-0.3953459560871124,0.9178313612937927,0.0,0.0,0.0,0.0,0.0,0.0
1976,1724915239638008729,-0.4563267230987549,0.12228693068027496,0.17880475521087646,-0.03030402958393097,-0.020062794908881187,-0.39390018582344055,0.9184344410896301,0.0,0.0,0.0,0.0,0.0,0.0
1978,1724915239648227326,-0.4562991261482239,0.12289838492870331,0.17904753983020782,-0.031722214072942734,-0.022607211023569107,-0.39367759227752686,0.9184229373931885,0.0,0.0,0.0,0.0,0.0,0.0
1980,1724915239659158219,-0.45607855916023254,0.12371104955673218,0.17948150634765625,-0.033928804099559784,-0.023325711488723755,-0.39439716935157776,0.9180172085762024,0.0,0.0,0.0,0.0,0.0,0.0
1982,1724915239668358216,-0.45586955547332764,0.12462721765041351,0.17951007187366486,-0.03894234448671341,-0.02318699099123478,-0.3945700526237488,0.917747437953949,0.0,0.0,0.0,0.0,0.0,0.0
1984,1724915239678663683,-0.45581918954849243,0.12549123167991638,0.17890195548534393,-0.043404825031757355,-0.023680076003074646,-0.3937568664550781,0.9178838133811951,0.0,0.0,0.0,0.0,0.0,0.0
1986,1724915239688432033,-0.45579424500465393,0.12642031908035278,0.1780368685722351,-0.04584377259016037,-0.02412114478647709,-0.3933844566345215,0.917913556098938,0.0,0.0,0.0,0.0,0.0,0.0
1988,1724915239698362907,-0.45569905638694763,0.1273428499698639,0.1772717535495758,-0.04607553407549858,-0.0252036452293396,-0.3930266201496124,0.9180261492729187,0.0,0.0,0.0,0.0,0.0,0.0
1990,1724915239708432094,-0.4557263255119324,0.12823496758937836,0.1766205132007599,-0.04691607505083084,-0.02589554712176323,-0.3923599421977997,0.9182494282722473,0.0,0.0,0.0,0.0,0.0,0.0
1992,1724915239721300324,-0.45583024621009827,0.12926769256591797,0.1760774850845337,-0.04867732152342796,-0.025045286864042282,-0.39192646741867065,0.9183664321899414,0.0,0.0,0.0,0.0,0.0,0.0
1994,1724915239727690323,-0.45595788955688477,0.13019290566444397,0.17544855177402496,-0.04969143122434616,-0.024590061977505684,-0.3907913267612457,0.918808102607727,0.0,0.0,0.0,0.0,0.0,0.0
1996,1724915239738897290,-0.45627886056900024,0.13097184896469116,0.1747933328151703,-0.05078287422657013,-0.025976279750466347,-0.38935667276382446,0.919319212436676,0.0,0.0,0.0,0.0,0.0,0.0
1998,1724915239748035234,-0.4567016363143921,0.13178381323814392,0.17425915598869324,-0.050780583173036575,-0.025902334600687027,-0.3887580931186676,0.9195746183395386,0.0,0.0,0.0,0.0,0.0,0.0
2000,1724915239758166307,-0.4569774866104126,0.13257241249084473,0.173995241522789,-0.05082244798541069,-0.02572196163237095,-0.3888104259967804,0.9195553660392761,0.0,0.0,0.0,0.0,0.0,0.0
2002,1724915239769842249,-0.45731320977211,0.13324704766273499,0.17343205213546753,-0.051350098103284836,-0.02627362310886383,-0.3876444697380066,0.9200025200843811,0.0,0.0,0.0,0.0,0.0,0.0
2004,1724915239777912413,-0.4577045440673828,0.13391341269016266,0.17269499599933624,-0.05364986136555672,-0.02640344761312008,-0.38617342710494995,0.9204860925674438,0.0,0.0,0.0,0.0,0.0,0.0
2006,1724915239790694895,-0.4579150378704071,0.1346559077501297,0.17192475497722626,-0.0547650009393692,-0.02602592296898365,-0.3859880268573761,0.9205089211463928,0.0,0.0,0.0,0.0,0.0,0.0
2008,1724915239798674859,-0.4580242335796356,0.1353648453950882,0.1711757481098175,-0.054939236491918564,-0.02616501972079277,-0.3854548931121826,0.9207179546356201,0.0,0.0,0.0,0.0,0.0,0.0
2010,1724915239809489033,-0.4582652747631073,0.13585391640663147,0.17033590376377106,-0.05609939992427826,-0.02772555872797966,-0.38354814052581787,0.9213984608650208,0.0,0.0,0.0,0.0,0.0,0.0
2012,1724915239818934842,-0.4584139287471771,0.13647320866584778,0.16987447440624237,-0.057454075664281845,-0.028430409729480743,-0.3827274739742279,0.9216346740722656,0.0,0.0,0.0,0.0,0.0,0.0
2014,1724915239827966858,-0.45854517817497253,0.13704171776771545,0.16942016780376434,-0.059378888458013535,-0.028537074103951454,-0.3815389573574066,0.9220020174980164,0.0,0.0,0.0,0.0,0.0,0.0
2016,1724915239838250823,-0.4585683345794678,0.13757818937301636,0.16900543868541718,-0.05949240177869797,-0.02796843647956848,-0.38057073950767517,0.9224122762680054,0.0,0.0,0.0,0.0,0.0,0.0
2018,1724915239878183126,-0.4586309790611267,0.13805271685123444,0.16856727004051208,-0.06039109826087952,-0.027742259204387665,-0.3793037533760071,0.9228824377059937,0.0,0.0,0.0,0.0,0.0,0.0
2020,1724915239878636975,-0.45865368843078613,0.1384631246328354,0.16805750131607056,-0.06102845445275307,-0.028398379683494568,-0.3771306574344635,0.9237107634544373,0.0,0.0,0.0,0.0,0.0,0.0
2022,1724915239878979449,-0.45859795808792114,0.13879434764385223,0.16774901747703552,-0.060608457773923874,-0.028918636962771416,-0.37569403648376465,0.9243075847625732,0.0,0.0,0.0,0.0,0.0,0.0
2024,1724915239879228509,-0.4585840106010437,0.13906227052211761,0.16739968955516815,-0.060948844999074936,-0.029211044311523438,-0.3742027282714844,0.9248807430267334,0.0,0.0,0.0,0.0,0.0,0.0
2026,1724915239888947416,-0.45855605602264404,0.13936910033226013,0.16715556383132935,-0.06164427474141121,-0.029081717133522034,-0.37323105335235596,0.9252312183380127,0.0,0.0,0.0,0.0,0.0,0.0
2028,1724915239898505331,-0.4585915207862854,0.13971124589443207,0.16689300537109375,-0.06287802010774612,-0.028576567769050598,-0.3718675673007965,0.9257128834724426,0.0,0.0,0.0,0.0,0.0,0.0
2030,1724915239908865107,-0.45844191312789917,0.14004164934158325,0.16662316024303436,-0.06098562851548195,-0.02902970463037491,-0.37045228481292725,0.9263925552368164,0.0,0.0,0.0,0.0,0.0,0.0
2032,1724915239919617976,-0.458356112241745,0.14035451412200928,0.16640043258666992,-0.06105697900056839,-0.02909289114177227,-0.36908474564552307,0.9269315600395203,0.0,0.0,0.0,0.0,0.0,0.0
2034,1724915239930657138,-0.4583357870578766,0.1406395137310028,0.1662411242723465,-0.06196851655840874,-0.02902114763855934,-0.3681803047657013,0.9272329807281494,0.0,0.0,0.0,0.0,0.0,0.0
2036,1724915239940051276,-0.4583054184913635,0.1408282369375229,0.16598664224147797,-0.06241412088274956,-0.029054174199700356,-0.3671362102031708,0.9276159405708313,0.0,0.0,0.0,0.0,0.0,0.0
2038,1724915239948153027,-0.45819413661956787,0.14103353023529053,0.1657479852437973,-0.06188564747571945,-0.028705241158604622,-0.36604875326156616,0.928091824054718,0.0,0.0,0.0,0.0,0.0,0.0
2040,1724915239958660569,-0.45814502239227295,0.14119066298007965,0.16560785472393036,-0.061782509088516235,-0.028851646929979324,-0.365105003118515,0.9284658432006836,0.0,0.0,0.0,0.0,0.0,0.0
2042,1724915239968044400,-0.45813581347465515,0.14139236509799957,0.16549479961395264,-0.06303168833255768,-0.029094776138663292,-0.3633071184158325,0.9290793538093567,0.0,0.0,0.0,0.0,0.0,0.0
2044,1724915239978020881,-0.4580940306186676,0.14151474833488464,0.16540201008319855,-0.062118660658597946,-0.02968410961329937,-0.36163395643234253,0.9297747611999512,0.0,0.0,0.0,0.0,0.0,0.0
2046,1724915239989358297,-0.45812252163887024,0.1417151242494583,0.16532357037067413,-0.06231863796710968,-0.029592039063572884,-0.3601016700267792,0.93035888671875,0.0,0.0,0.0,0.0,0.0,0.0
2048,1724915239998237523,-0.45819154381752014,0.14205367863178253,0.16533483564853668,-0.0629434585571289,-0.028512505814433098,-0.3589485287666321,0.9307960271835327,0.0,0.0,0.0,0.0,0.0,0.0
2050,1724915240007928677,-0.45828762650489807,0.1422567218542099,0.1653072088956833,-0.06312502920627594,-0.02820676565170288,-0.35772770643234253,0.9312629103660583,0.0,0.0,0.0,0.0,0.0,0.0
2052,1724915240018694159,-0.45830875635147095,0.1424156129360199,0.16524598002433777,-0.06221459433436394,-0.028334908187389374,-0.3564591109752655,0.9318065643310547,0.0,0.0,0.0,0.0,0.0,0.0
2054,1724915240027806231,-0.45836591720581055,0.142530620098114,0.16522309184074402,-0.06199504807591438,-0.02831784449517727,-0.35532963275909424,0.9322529435157776,0.0,0.0,0.0,0.0,0.0,0.0
2056,1724915240038382230,-0.45840930938720703,0.14257171750068665,0.16522333025932312,-0.06164205074310303,-0.028495272621512413,-0.35430851578712463,0.9326595067977905,0.0,0.0,0.0,0.0,0.0,0.0
2058,1724915240048555343,-0.4585006833076477,0.1425803154706955,0.16526737809181213,-0.06227416172623634,-0.028505992144346237,-0.3531150817871094,0.9330697655677795,0.0,0.0,0.0,0.0,0.0,0.0
2060,1724915240059265991,-0.45854082703590393,0.1425614356994629,0.16528159379959106,-0.06182936951518059,-0.028802970424294472,-0.3515527844429016,0.9336799383163452,0.0,0.0,0.0,0.0,0.0,0.0
2062,1724915240073269247,-0.45864495635032654,0.14244666695594788,0.16521857678890228,-0.06226925551891327,-0.02943226881325245,-0.34900593757629395,0.9345861673355103,0.0,0.0,0.0,0.0,0.0,0.0
2064,1724915240077868185,-0.45870792865753174,0.14244067668914795,0.16518518328666687,-0.062328506261110306,-0.029305871576070786,-0.34671491384506226,0.9354384541511536,0.0,0.0,0.0,0.0,0.0,0.0
2066,1724915240088913304,-0.4587997794151306,0.14249463379383087,0.1651066094636917,-0.061939600855112076,-0.029025573283433914,-0.34449514746665955,0.936292827129364,0.0,0.0,0.0,0.0,0.0,0.0
2068,1724915240099349302,-0.4588976800441742,0.14263947308063507,0.16503676772117615,-0.061904098838567734,-0.028672097250819206,-0.34275639057159424,0.9369440078735352,0.0,0.0,0.0,0.0,0.0,0.0
2070,1724915240107949369,-0.4590146541595459,0.14281465113162994,0.16499502956867218,-0.06272045522928238,-0.028703531250357628,-0.3411482274532318,0.9374754428863525,0.0,0.0,0.0,0.0,0.0,0.0
2072,1724915240119103476,-0.4591819643974304,0.14304885268211365,0.16494038701057434,-0.06398651003837585,-0.02819383516907692,-0.33915477991104126,0.9381284117698669,0.0,0.0,0.0,0.0,0.0,0.0
2074,1724915240128647891,-0.45929867029190063,0.14321888983249664,0.16497105360031128,-0.06481409817934036,-0.027366966009140015,-0.3376688063144684,0.9386319518089294,0.0,0.0,0.0,0.0,0.0,0.0
2076,1724915240138289943,-0.45941126346588135,0.14339926838874817,0.16495612263679504,-0.06518106162548065,-0.027149010449647903,-0.335977703332901,0.93921959400177,0.0,0.0,0.0,0.0,0.0,0.0
2078,1724915240148319358,-0.4594639539718628,0.14347532391548157,0.16494327783584595,-0.06512334197759628,-0.026991765946149826,-0.3345355987548828,0.9397426843643188,0.0,0.0,0.0,0.0,0.0,0.0
2080,1724915240157940504,-0.45934972167015076,0.14350980520248413,0.16490639746189117,-0.06244295835494995,-0.027145670726895332,-0.3331095278263092,0.9404265284538269,0.0,0.0,0.0,0.0,0.0,0.0
2082,1724915240169703817,-0.45940685272216797,0.1434790939092636,0.16484761238098145,-0.061689190566539764,-0.027385970577597618,-0.3312129080295563,0.9411389231681824,0.0,0.0,0.0,0.0,0.0,0.0
2084,1724915240177717536,-0.45937174558639526,0.14346231520175934,0.16504669189453125,-0.06090803071856499,-0.027054645121097565,-0.3304036557674408,0.941483736038208,0.0,0.0,0.0,0.0,0.0,0.0
2086,1724915240188596888,-0.4593849182128906,0.14337971806526184,0.16511769592761993,-0.06025104969739914,-0.02701340615749359,-0.3292101323604584,0.9419451951980591,0.0,0.0,0.0,0.0,0.0,0.0
2088,1724915240198135573,-0.4594827890396118,0.14317436516284943,0.16506992280483246,-0.060666125267744064,-0.027563832700252533,-0.32729512453079224,0.9425697326660156,0.0,0.0,0.0,0.0,0.0,0.0
2090,1724915240207878704,-0.4596309959888458,0.1429702639579773,0.16496270895004272,-0.06131107360124588,-0.027906855568289757,-0.32527250051498413,0.9432179927825928,0.0,0.0,0.0,0.0,0.0,0.0
2092,1724915240221620947,-0.4597351849079132,0.14279112219810486,0.16500432789325714,-0.06110374629497528,-0.027816491201519966,-0.32378026843070984,0.943747341632843,0.0,0.0,0.0,0.0,0.0,0.0
2094,1724915240227666242,-0.4598451256752014,0.1426016092300415,0.1650686413049698,-0.06088017299771309,-0.028062406927347183,-0.32226672768592834,0.9442723989486694,0.0,0.0,0.0,0.0,0.0,0.0
2096,1724915240242210260,-0.45998597145080566,0.14243750274181366,0.16511842608451843,-0.060324493795633316,-0.028172267600893974,-0.32086315751075745,0.9447826147079468,0.0,0.0,0.0,0.0,0.0,0.0
2098,1724915240248180241,-0.4601549804210663,0.14222468435764313,0.1652684211730957,-0.05979187786579132,-0.02806302346289158,-0.3197769224643707,0.9451879262924194,0.0,0.0,0.0,0.0,0.0,0.0
2100,1724915240263273095,-0.4603393077850342,0.14196333289146423,0.16537679731845856,-0.05977750942111015,-0.0277776550501585,-0.3181561827659607,0.9457440376281738,0.0,0.0,0.0,0.0,0.0,0.0
2102,1724915240269540532,-0.4603685140609741,0.14162126183509827,0.16572116315364838,-0.05890602245926857,-0.02782583236694336,-0.3165556788444519,0.946334183216095,0.0,0.0,0.0,0.0,0.0,0.0
2104,1724915240277884545,-0.46042168140411377,0.14142538607120514,0.16643787920475006,-0.05849652364850044,-0.02614501863718033,-0.3156258165836334,0.9467179775238037,0.0,0.0,0.0,0.0,0.0,0.0
2106,1724915240288760614,-0.4605046212673187,0.14114531874656677,0.1671796590089798,-0.05802259221673012,-0.024870773777365685,-0.31471577286720276,0.9470844268798828,0.0,0.0,0.0,0.0,0.0,0.0
2108,1724915240299082362,-0.46071648597717285,0.140768900513649,0.16780170798301697,-0.05875683203339577,-0.025562040507793427,-0.3136964440345764,0.9473588466644287,0.0,0.0,0.0,0.0,0.0,0.0
2110,1724915240307932891,-0.4609575569629669,0.14040367305278778,0.16834408044815063,-0.05803488940000534,-0.02541888877749443,-0.31306567788124084,0.9476158022880554,0.0,0.0,0.0,0.0,0.0,0.0
2112,1724915240318738625,-0.4611709415912628,0.13995486497879028,0.16883565485477448,-0.05572154372930527,-0.0255131833255291,-0.31186428666114807,0.9481481909751892,0.0,0.0,0.0,0.0,0.0,0.0
2114,1724915240330633725,-0.4613933265209198,0.13951896131038666,0.16947828233242035,-0.056076452136039734,-0.025043711066246033,-0.3106282651424408,0.9485453963279724,0.0,0.0,0.0,0.0,0.0,0.0
2116,1724915240338726669,-0.46160048246383667,0.13897179067134857,0.17010173201560974,-0.05734819918870926,-0.02470489777624607,-0.30911076068878174,0.9489738941192627,0.0,0.0,0.0,0.0,0.0,0.0
2118,1724915240348923828,-0.4616483151912689,0.1384935975074768,0.1708238422870636,-0.057557836174964905,-0.02398516796529293,-0.30878758430480957,0.9490848779678345,0.0,0.0,0.0,0.0,0.0,0.0
2120,1724915240357924650,-0.4615930914878845,0.13791929185390472,0.17137892544269562,-0.05568839982151985,-0.02246273122727871,-0.3079856336116791,0.9494941234588623,0.0,0.0,0.0,0.0,0.0,0.0
2122,1724915240369759223,-0.4615606367588043,0.13722310960292816,0.17190280556678772,-0.053165253251791,-0.022074377164244652,-0.30671659111976624,0.9500585198402405,0.0,0.0,0.0,0.0,0.0,0.0
2124,1724915240378368070,-0.461498498916626,0.1365596354007721,0.17261828482151031,-0.05134596675634384,-0.021475695073604584,-0.30583661794662476,0.9504558444023132,0.0,0.0,0.0,0.0,0.0,0.0
2126,1724915240388869011,-0.4613993465900421,0.1358562707901001,0.17339357733726501,-0.049326568841934204,-0.02101888880133629,-0.30527159571647644,0.9507546424865723,0.0,0.0,0.0,0.0,0.0,0.0
2128,1724915240399566633,-0.4613420367240906,0.13523539900779724,0.1741771399974823,-0.04842200502753258,-0.020628126338124275,-0.3048597276210785,0.9509418606758118,0.0,0.0,0.0,0.0,0.0,0.0
2130,1724915240408507880,-0.46134692430496216,0.13441023230552673,0.17474831640720367,-0.04736781865358353,-0.02132069319486618,-0.3037622570991516,0.951330840587616,0.0,0.0,0.0,0.0,0.0,0.0
2132,1724915240418354753,-0.4611542820930481,0.1333664059638977,0.17520582675933838,-0.04354492947459221,-0.02214607410132885,-0.3030852675437927,0.9517104625701904,0.0,0.0,0.0,0.0,0.0,0.0
2134,1724915240430383527,-0.46118518710136414,0.13228864967823029,0.17532296478748322,-0.04107435420155525,-0.022139564156532288,-0.30301105976104736,0.9518440365791321,0.0,0.0,0.0,0.0,0.0,0.0
2136,1724915240439462895,-0.46123355627059937,0.1313227415084839,0.17529761791229248,-0.038090191781520844,-0.020970413461327553,-0.30241355299949646,0.9521846175193787,0.0,0.0,0.0,0.0,0.0,0.0
2138,1724915240448237321,-0.46129924058914185,0.13017317652702332,0.17530333995819092,-0.03658769279718399,-0.020828919485211372,-0.30193963646888733,0.9523969292640686,0.0,0.0,0.0,0.0,0.0,0.0
2140,1724915240459444601,-0.4613529443740845,0.1288529634475708,0.17519639432430267,-0.0344279445707798,-0.021158864721655846,-0.30084505677223206,0.9528164863586426,0.0,0.0,0.0,0.0,0.0,0.0
2142,1724915240468956770,-0.46130067110061646,0.12738923728466034,0.17533861100673676,-0.0307737085968256,-0.01981678605079651,-0.29993736743927,0.9532564878463745,0.0,0.0,0.0,0.0,0.0,0.0
2144,1724915240478464459,-0.4612438976764679,0.1261470466852188,0.17562323808670044,-0.027294473722577095,-0.01885073445737362,-0.300568163394928,0.9531834125518799,0.0,0.0,0.0,0.0,0.0,0.0
2146,1724915240490668680,-0.46134477853775024,0.12499874830245972,0.17584997415542603,-0.026348790153861046,-0.01847410388290882,-0.30021366477012634,0.9533290266990662,0.0,0.0,0.0,0.0,0.0,0.0
2148,1724915240498135853,-0.461343914270401,0.12382063269615173,0.1760389506816864,-0.023379679769277573,-0.017131192609667778,-0.3005931079387665,0.9533119797706604,0.0,0.0,0.0,0.0,0.0,0.0
2150,1724915240508401466,-0.4614635705947876,0.12257791310548782,0.17619693279266357,-0.022613100707530975,-0.016474701464176178,-0.30001866817474365,0.9535229802131653,0.0,0.0,0.0,0.0,0.0,0.0
2152,1724915240521543867,-0.46154409646987915,0.1211014837026596,0.17637938261032104,-0.018678493797779083,-0.016157712787389755,-0.299015611410141,0.953928530216217,0.0,0.0,0.0,0.0,0.0,0.0
2154,1724915240527842385,-0.4616459608078003,0.11986249685287476,0.17665763199329376,-0.016375068575143814,-0.01566242426633835,-0.2992221415042877,0.95391446352005,0.0,0.0,0.0,0.0,0.0,0.0
2156,1724915240541832933,-0.46165797114372253,0.11870705336332321,0.17694126069545746,-0.013464083895087242,-0.014699327759444714,-0.29959121346473694,0.9538594484329224,0.0,0.0,0.0,0.0,0.0,0.0
2158,1724915240549764117,-0.4618316888809204,0.1174129843711853,0.1766817420721054,-0.012454036623239517,-0.014320217072963715,-0.2981124520301819,0.9543421268463135,0.0,0.0,0.0,0.0,0.0,0.0
2160,1724915240558234497,-0.4619387984275818,0.1162993311882019,0.17666585743427277,-0.009213326498866081,-0.01278839260339737,-0.29896149039268494,0.9541350603103638,0.0,0.0,0.0,0.0,0.0,0.0
2162,1724915240568315469,-0.4619719088077545,0.11510197818279266,0.17685376107692719,-0.0035600801929831505,-0.010873869061470032,-0.29932647943496704,0.9540821313858032,0.0,0.0,0.0,0.0,0.0,0.0
2164,1724915240579769474,-0.46220916509628296,0.11377280205488205,0.17666085064411163,-0.0005053689237684011,-0.011528929695487022,-0.2981525957584381,0.9544485211372375,0.0,0.0,0.0,0.0,0.0,0.0
2166,1724915240588508788,-0.4625306725502014,0.1128176748752594,0.1764732450246811,0.001403896720148623,-0.010596060194075108,-0.2984596788883209,0.9543624520301819,0.0,0.0,0.0,0.0,0.0,0.0
2168,1724915240599739220,-0.46279680728912354,0.11194214224815369,0.17639023065567017,0.0016191934701055288,-0.010462230071425438,-0.2992904484272003,0.954103410243988,0.0,0.0,0.0,0.0,0.0,0.0
2170,1724915240608038181,-0.46287062764167786,0.11094476282596588,0.17643412947654724,0.0028038376476615667,-0.010429177433252335,-0.29897966980934143,0.9541983604431152,0.0,0.0,0.0,0.0,0.0,0.0
2172,1724915240618734571,-0.4628523290157318,0.10988718271255493,0.17661002278327942,0.005451084114611149,-0.009014572016894817,-0.29849791526794434,0.9543522000312805,0.0,0.0,0.0,0.0,0.0,0.0
2174,1724915240628127125,-0.46286138892173767,0.10891881585121155,0.17701484262943268,0.009679876267910004,-0.0063164993189275265,-0.2999348044395447,0.953889787197113,0.0,0.0,0.0,0.0,0.0,0.0
2176,1724915240637966675,-0.46293264627456665,0.10804029554128647,0.17693355679512024,0.013628213666379452,-0.004238558933138847,-0.2999720573425293,0.9538412094116211,0.0,0.0,0.0,0.0,0.0,0.0
2178,1724915240648294138,-0.4631102979183197,0.1068546250462532,0.1767299771308899,0.013813129626214504,-0.005758707411587238,-0.29998576641082764,0.9538262486457825,0.0,0.0,0.0,0.0,0.0,0.0
2180,1724915240660959014,-0.463259220123291,0.10581101477146149,0.17651569843292236,0.013812068849802017,-0.007216896861791611,-0.3004203140735626,0.9536795616149902,0.0,0.0,0.0,0.0,0.0,0.0
2182,1724915240668220512,-0.4632249176502228,0.10490009933710098,0.17631365358829498,0.017115388065576553,-0.005796387325972319,-0.30121511220932007,0.9533849954605103,0.0,0.0,0.0,0.0,0.0,0.0
2184,1724915240678001091,-0.463281512260437,0.10414353013038635,0.1759089082479477,0.020249729976058006,-0.0036313494201749563,-0.302091121673584,0.9530571103096008,0.0,0.0,0.0,0.0,0.0,0.0
2186,1724915240687913355,-0.46337923407554626,0.10300984233617783,0.17518354952335358,0.02190067246556282,-0.005107603967189789,-0.3019353151321411,0.9530632495880127,0.0,0.0,0.0,0.0,0.0,0.0
2188,1724915240699390263,-0.4634442925453186,0.10197898745536804,0.17456494271755219,0.023549500852823257,-0.0065467762760818005,-0.301188200712204,0.9532514810562134,0.0,0.0,0.0,0.0,0.0,0.0
2190,1724915240707664766,-0.46341580152511597,0.10139519721269608,0.17416197061538696,0.02618727646768093,-0.004200989846140146,-0.30122876167297363,0.9531829953193665,0.0,0.0,0.0,0.0,0.0,0.0
2192,1724915240718771240,-0.4634566903114319,0.10061212629079819,0.1735805720090866,0.027577374130487442,-0.00344105064868927,-0.3012198507785797,0.9531496167182922,0.0,0.0,0.0,0.0,0.0,0.0
2194,1724915240727709443,-0.4635608196258545,0.09981384128332138,0.17303985357284546,0.027305839583277702,-0.0036429730243980885,-0.3017987608909607,0.9529735445976257,0.0,0.0,0.0,0.0,0.0,0.0
2196,1724915240739541699,-0.4637938439846039,0.0988544374704361,0.17239263653755188,0.026694511994719505,-0.004022744484245777,-0.30335569381713867,0.9524949193000793,0.0,0.0,0.0,0.0,0.0,0.0
2198,1724915240748184863,-0.46385207772254944,0.09803365170955658,0.17195777595043182,0.027347033843398094,-0.003424535971134901,-0.3043226897716522,0.952170193195343,0.0,0.0,0.0,0.0,0.0,0.0
2200,1724915240757924009,-0.4640461802482605,0.09717003256082535,0.1713600605726242,0.027029044926166534,-0.0041693453676998615,-0.3043747842311859,0.9521597027778625,0.0,0.0,0.0,0.0,0.0,0.0
2202,1724915240770772061,-0.4642398953437805,0.09628812223672867,0.170707568526268,0.027791757136583328,-0.004873733036220074,-0.3042718768119812,0.952167272567749,0.0,0.0,0.0,0.0,0.0,0.0
2204,1724915240778162745,-0.4644125699996948,0.09551936388015747,0.17005132138729095,0.030725974589586258,-0.003393574384972453,-0.3054616153240204,0.9517024755477905,0.0,0.0,0.0,0.0,0.0,0.0
2206,1724915240789190855,-0.4645293354988098,0.09478192776441574,0.1696052849292755,0.0315428264439106,-0.0016232298221439123,-0.30764636397361755,0.9509764909744263,0.0,0.0,0.0,0.0,0.0,0.0
2208,1724915240800395436,-0.46458667516708374,0.09403049945831299,0.16877199709415436,0.03178723156452179,-0.0026250462979078293,-0.30738142132759094,0.9510517120361328,0.0,0.0,0.0,0.0,0.0,0.0
2210,1724915240808317592,-0.4645620882511139,0.09326307475566864,0.1681375354528427,0.03360780328512192,-0.0032994772773236036,-0.3080826997756958,0.9507600665092468,0.0,0.0,0.0,0.0,0.0,0.0
2212,1724915240818973745,-0.4647207260131836,0.09256794303655624,0.1676861047744751,0.03149481490254402,-0.0028244364075362682,-0.30947622656822205,0.9503812789916992,0.0,0.0,0.0,0.0,0.0,0.0
2214,1724915240828420154,-0.464794397354126,0.09214591979980469,0.1673106551170349,0.0322994627058506,-0.0019745449535548687,-0.31072527170181274,0.9499488472938538,0.0,0.0,0.0,0.0,0.0,0.0
2216,1724915240838908499,-0.46475696563720703,0.0917893722653389,0.16711094975471497,0.03364981710910797,-0.0003183385997544974,-0.31269875168800354,0.9492560625076294,0.0,0.0,0.0,0.0,0.0,0.0
2218,1724915240848814278,-0.4647487998008728,0.09117394685745239,0.16635367274284363,0.034143444150686264,-0.001056274282746017,-0.3126699924468994,0.9492473602294922,0.0,0.0,0.0,0.0,0.0,0.0
2220,1724915240857872681,-0.4646034240722656,0.09053909778594971,0.1657434105873108,0.036143865436315536,-0.0023484721314162016,-0.3131381571292877,0.9490166902542114,0.0,0.0,0.0,0.0,0.0,0.0
2222,1724915240868256916,-0.46451330184936523,0.09012213349342346,0.1654808074235916,0.036381520330905914,-0.002558364300057292,-0.31424856185913086,0.948639988899231,0.0,0.0,0.0,0.0,0.0,0.0
2224,1724915240878330909,-0.4644842743873596,0.08975645899772644,0.1652218997478485,0.036311179399490356,-0.002164155011996627,-0.31502121686935425,0.9483873248100281,0.0,0.0,0.0,0.0,0.0,0.0
2226,1724915240888757873,-0.4645419716835022,0.08944433182477951,0.165133535861969,0.035535186529159546,-0.0015726364217698574,-0.3167335093021393,0.9478474259376526,0.0,0.0,0.0,0.0,0.0,0.0
2228,1724915240898881772,-0.4644943177700043,0.08915233612060547,0.16493117809295654,0.036330342292785645,-0.0010560175869613886,-0.317531943321228,0.9475507736206055,0.0,0.0,0.0,0.0,0.0,0.0
2230,1724915240908568423,-0.4644496738910675,0.08895864337682724,0.16475412249565125,0.03707296401262283,-0.0011306577362120152,-0.31805557012557983,0.9473462700843811,0.0,0.0,0.0,0.0,0.0,0.0
2232,1724915240919525580,-0.46440598368644714,0.08877947926521301,0.16460829973220825,0.0374821312725544,-0.0013590933522209525,-0.3196166455745697,0.946804404258728,0.0,0.0,0.0,0.0,0.0,0.0
2234,1724915240929612678,-0.46444055438041687,0.08855217695236206,0.16431622207164764,0.03747207298874855,-0.0012824678560718894,-0.32165980339050293,0.9461127519607544,0.0,0.0,0.0,0.0,0.0,0.0
2236,1724915240939233992,-0.46442991495132446,0.08828116208314896,0.16399039328098297,0.03801301494240761,-0.0019059614278376102,-0.32346662878990173,0.9454739093780518,0.0,0.0,0.0,0.0,0.0,0.0
2238,1724915240948270980,-0.4644017815589905,0.08805007487535477,0.16375979781150818,0.03806304186582565,-0.002093773102387786,-0.3250938355922699,0.9449131488800049,0.0,0.0,0.0,0.0,0.0,0.0
2240,1724915240958161235,-0.464376837015152,0.08780600130558014,0.16355419158935547,0.03806041181087494,-0.0008546148310415447,-0.3269275426864624,0.9442824125289917,0.0,0.0,0.0,0.0,0.0,0.0
2242,1724915240971132946,-0.4643973112106323,0.08759792894124985,0.16339895129203796,0.03805970028042793,0.0004492982116062194,-0.3286435604095459,0.943686842918396,0.0,0.0,0.0,0.0,0.0,0.0
2244,1724915240977934114,-0.4644033908843994,0.08729907125234604,0.16333861649036407,0.0386422835290432,0.0006570364348590374,-0.33007189631462097,0.9431643486022949,0.0,0.0,0.0,0.0,0.0,0.0
2246,1724915240988900107,-0.46435046195983887,0.08707237988710403,0.1630924940109253,0.038845475763082504,0.0005380208021961153,-0.3302200436592102,0.9431042075157166,0.0,0.0,0.0,0.0,0.0,0.0
2248,1724915240998065244,-0.4642925560474396,0.08680026233196259,0.16298800706863403,0.039142049849033356,0.0007449269178323448,-0.33099064230918884,0.9428215622901917,0.0,0.0,0.0,0.0,0.0,0.0
2250,1724915241008050335,-0.46423420310020447,0.08654260635375977,0.16287577152252197,0.04018830507993698,0.0010663875145837665,-0.33255061507225037,0.9422281980514526,0.0,0.0,0.0,0.0,0.0,0.0
2252,1724915241023174017,-0.46423113346099854,0.08629092574119568,0.16286903619766235,0.04031141474843025,0.0011372172739356756,-0.3348775804042816,0.9413982629776001,0.0,0.0,0.0,0.0,0.0,0.0
2254,1724915241027843527,-0.46432310342788696,0.0860133022069931,0.16285622119903564,0.039742738008499146,0.0007795793353579938,-0.3374672532081604,0.940497636795044,0.0,0.0,0.0,0.0,0.0,0.0
2256,1724915241039358088,-0.46432769298553467,0.085844025015831,0.1629289835691452,0.03946343809366226,0.00032985705183818936,-0.3400404751300812,0.939582347869873,0.0,0.0,0.0,0.0,0.0,0.0
2258,1724915241049463414,-0.4642212390899658,0.08582265675067902,0.1631571650505066,0.03980197012424469,0.0013051355490460992,-0.34244516491889954,0.9386935234069824,0.0,0.0,0.0,0.0,0.0,0.0
2260,1724915241058321778,-0.4640837013721466,0.08585250377655029,0.16326743364334106,0.040295299142599106,0.002011205069720745,-0.344133198261261,0.9380537271499634,0.0,0.0,0.0,0.0,0.0,0.0
2262,1724915241073132303,-0.4639900028705597,0.08586739003658295,0.1634029895067215,0.039859458804130554,0.002733368892222643,-0.3469740152359009,0.9370234608650208,0.0,0.0,0.0,0.0,0.0,0.0
2264,1724915241077895061,-0.4639084041118622,0.08580821007490158,0.16318103671073914,0.03990914672613144,0.0020175909157842398,-0.34834766387939453,0.9365133047103882,0.0,0.0,0.0,0.0,0.0,0.0
2266,1724915241088771109,-0.4637863039970398,0.08581683039665222,0.16313517093658447,0.03962105140089989,0.0020591251086443663,-0.34993669390678406,0.9359328150749207,0.0,0.0,0.0,0.0,0.0,0.0
2268,1724915241099866359,-0.46363329887390137,0.08581524342298508,0.1631350815296173,0.03860631585121155,0.0026750843971967697,-0.35153985023498535,0.9353727698326111,0.0,0.0,0.0,0.0,0.0,0.0
2270,1724915241108279202,-0.4634835720062256,0.0858050137758255,0.16317738592624664,0.038092661648988724,0.0029897913336753845,-0.3528696596622467,0.9348919987678528,0.0,0.0,0.0,0.0,0.0,0.0
2272,1724915241118464866,-0.4633496105670929,0.08574105054140091,0.16332602500915527,0.03760301321744919,0.003178572980687022,-0.3548555076122284,0.9341593384742737,0.0,0.0,0.0,0.0,0.0,0.0
2274,1724915241129377750,-0.46329158544540405,0.08559967577457428,0.16339769959449768,0.03653113543987274,0.0022412706166505814,-0.3570459485054016,0.9333695769309998,0.0,0.0,0.0,0.0,0.0,0.0
2276,1724915241140223043,-0.4632267951965332,0.08545970916748047,0.16333845257759094,0.036435261368751526,0.00139831833075732,-0.3584368824958801,0.9328416585922241,0.0,0.0,0.0,0.0,0.0,0.0
2278,1724915241148515148,-0.46317851543426514,0.0853457897901535,0.1633460372686386,0.03608904778957367,0.0013689299812540412,-0.35985031723976135,0.9323108196258545,0.0,0.0,0.0,0.0,0.0,0.0
2280,1724915241157814261,-0.46312078833580017,0.08530198782682419,0.16335174441337585,0.0361950621008873,0.0013733691303059459,-0.36109066009521484,0.9318270683288574,0.0,0.0,0.0,0.0,0.0,0.0
2282,1724915241168200444,-0.4630962908267975,0.08525770157575607,0.16336578130722046,0.035953350365161896,0.0014319512993097305,-0.36247652769088745,0.9312980771064758,0.0,0.0,0.0,0.0,0.0,0.0
2284,1724915241177819996,-0.4630063474178314,0.08533088862895966,0.1635841578245163,0.03656042739748955,0.0027046343311667442,-0.3644847273826599,0.9304874539375305,0.0,0.0,0.0,0.0,0.0,0.0
2286,1724915241188744846,-0.46292880177497864,0.08529529720544815,0.16372115910053253,0.036743611097335815,0.003312991000711918,-0.3658529222011566,0.9299411773681641,0.0,0.0,0.0,0.0,0.0,0.0
2288,1724915241198350611,-0.46287405490875244,0.08528497070074081,0.1637936532497406,0.03654857724905014,0.003502102568745613,-0.36720573902130127,0.9294148087501526,0.0,0.0,0.0,0.0,0.0,0.0
2290,1724915241208890444,-0.4628085792064667,0.08540157228708267,0.1639314889907837,0.036592837423086166,0.004650190006941557,-0.36926624178886414,0.9285913109779358,0.0,0.0,0.0,0.0,0.0,0.0
2292,1724915241219600767,-0.4628522992134094,0.08546359837055206,0.1638822704553604,0.036005038768053055,0.0036646658554673195,-0.37046316266059875,0.9281418323516846,0.0,0.0,0.0,0.0,0.0,0.0
2294,1724915241227798863,-0.46278998255729675,0.08548814058303833,0.16410572826862335,0.03541113808751106,0.002841231180354953,-0.37138959765434265,0.9277973175048828,0.0,0.0,0.0,0.0,0.0,0.0
2296,1724915241239114418,-0.4627559781074524,0.08555407077074051,0.16446273028850555,0.03544021397829056,0.0030703130178153515,-0.37227877974510193,0.9274390339851379,0.0,0.0,0.0,0.0,0.0,0.0
2298,1724915241248154681,-0.46269211173057556,0.08561567217111588,0.16499146819114685,0.03490247577428818,0.002976019401103258,-0.3735325038433075,0.92695552110672,0.0,0.0,0.0,0.0,0.0,0.0
2300,1724915241258269022,-0.4627093970775604,0.08578802645206451,0.16536392271518707,0.033478379249572754,0.002560370834544301,-0.37444692850112915,0.9266402721405029,0.0,0.0,0.0,0.0,0.0,0.0
2302,1724915241268006925,-0.4627383351325989,0.08617407083511353,0.16582274436950684,0.03241246938705444,0.0023971102200448513,-0.37530648708343506,0.9263308048248291,0.0,0.0,0.0,0.0,0.0,0.0
2304,1724915241277945909,-0.46281978487968445,0.08660074323415756,0.16655708849430084,0.031168894842267036,0.0014685727655887604,-0.37684428691864014,0.9257509708404541,0.0,0.0,0.0,0.0,0.0,0.0
2306,1724915241288857355,-0.46289879083633423,0.08711018413305283,0.16719259321689606,0.030367067083716393,0.0012165659572929144,-0.3777214586734772,0.925420343875885,0.0,0.0,0.0,0.0,0.0,0.0
2308,1724915241299712392,-0.46295690536499023,0.08761196583509445,0.16776815056800842,0.030772825703024864,0.001322594122029841,-0.37858474254608154,0.9250540137290955,0.0,0.0,0.0,0.0,0.0,0.0
2310,1724915241308224969,-0.4629274606704712,0.08816519379615784,0.1683540940284729,0.02996276505291462,0.0014977195532992482,-0.37884435057640076,0.9249740242958069,0.0,0.0,0.0,0.0,0.0,0.0
2312,1724915241320612444,-0.4629822373390198,0.0887257382273674,0.16904251277446747,0.028564484789967537,0.0016597426729276776,-0.38032180070877075,0.9244115352630615,0.0,0.0,0.0,0.0,0.0,0.0
2314,1724915241328024176,-0.46313536167144775,0.08930265158414841,0.16993197798728943,0.025204559788107872,0.0003356141096446663,-0.3818820118904114,0.9238673448562622,0.0,0.0,0.0,0.0,0.0,0.0
2316,1724915241338976556,-0.46301132440567017,0.09000370651483536,0.1708783358335495,0.02448258548974991,0.00014991351054050028,-0.38364431262016296,0.9231563210487366,0.0,0.0,0.0,0.0,0.0,0.0
2318,1724915241348653676,-0.4628300070762634,0.09071490913629532,0.1718227118253708,0.024024633690714836,0.0020807450637221336,-0.38591107726097107,0.9222208261489868,0.0,0.0,0.0,0.0,0.0,0.0
2320,1724915241357891170,-0.46268004179000854,0.09128055721521378,0.17241482436656952,0.022952238097786903,0.00259717577137053,-0.38718175888061523,0.9217141270637512,0.0,0.0,0.0,0.0,0.0,0.0
2322,1724915241367876984,-0.46255677938461304,0.09189549833536148,0.172730952501297,0.020592710003256798,0.0013112983433529735,-0.38740161061286926,0.9216800928115845,0.0,0.0,0.0,0.0,0.0,0.0
2324,1724915241378035372,-0.46225813031196594,0.09268434345722198,0.17337560653686523,0.021322570741176605,0.0023599399719387293,-0.38869762420654297,0.9211156368255615,0.0,0.0,0.0,0.0,0.0,0.0
2326,1724915241388604391,-0.4620428681373596,0.09354711323976517,0.17380885779857635,0.0206181351095438,0.0016169793670997024,-0.3894174098968506,0.9208292365074158,0.0,0.0,0.0,0.0,0.0,0.0
2328,1724915241398648310,-0.4618568420410156,0.0946597084403038,0.17398583889007568,0.02062050998210907,0.0014385994290933013,-0.3883078992366791,0.9212979078292847,0.0,0.0,0.0,0.0,0.0,0.0
2330,1724915241407933606,-0.4617149233818054,0.09571970999240875,0.17426429688930511,0.019105764105916023,0.0001662998547544703,-0.3878769874572754,0.9215131402015686,0.0,0.0,0.0,0.0,0.0,0.0
2332,1724915241421011267,-0.4614493250846863,0.09703957289457321,0.17511489987373352,0.015147047117352486,-0.00015127296501304954,-0.39077648520469666,0.9203609228134155,0.0,0.0,0.0,0.0,0.0,0.0
2334,1724915241427805229,-0.46118462085723877,0.0985381156206131,0.1756443977355957,0.014160171151161194,-0.0003628358826972544,-0.3914417326450348,0.9200939536094666,0.0,0.0,0.0,0.0,0.0,0.0
2336,1724915241438422600,-0.4609033763408661,0.09967202693223953,0.17600150406360626,0.01278551947325468,-0.0032280038576573133,-0.390869677066803,0.9203515648841858,0.0,0.0,0.0,0.0,0.0,0.0
2338,1724915241448185580,-0.46056264638900757,0.10104726254940033,0.17667251825332642,0.01198527216911316,-0.002963207196444273,-0.39256253838539124,0.9196425676345825,0.0,0.0,0.0,0.0,0.0,0.0
2340,1724915241458248392,-0.4601801633834839,0.10231219977140427,0.17672617733478546,0.010953633114695549,-0.004957274068146944,-0.39175233244895935,0.9199921488761902,0.0,0.0,0.0,0.0,0.0,0.0
2342,1724915241468247158,-0.45967769622802734,0.10368239134550095,0.17698846757411957,0.008819256909191608,-0.005217207595705986,-0.39273393154144287,0.9195950627326965,0.0,0.0,0.0,0.0,0.0,0.0
2344,1724915241477873796,-0.45943495631217957,0.10511920601129532,0.17696993052959442,0.0037308966275304556,-0.00662419805303216,-0.39289364218711853,0.9195525050163269,0.0,0.0,0.0,0.0,0.0,0.0
2346,1724915241503325781,-0.45909059047698975,0.10650607943534851,0.17696931958198547,0.0019592309836298227,-0.00607548002153635,-0.39351630210876465,0.9192954301834106,0.0,0.0,0.0,0.0,0.0,0.0
2348,1724915241503563571,-0.4588601589202881,0.10765008628368378,0.176943838596344,0.0011113889049738646,-0.006749046966433525,-0.39456015825271606,0.9188446998596191,0.0,0.0,0.0,0.0,0.0,0.0
2350,1724915241507838504,-0.45857957005500793,0.10923977941274643,0.17703701555728912,0.001187431626021862,-0.005414014216512442,-0.3957410752773285,0.9183453917503357,0.0,0.0,0.0,0.0,0.0,0.0
2352,1724915241521387938,-0.4585780203342438,0.11074242740869522,0.17712397873401642,-0.003519649850204587,-0.007014350965619087,-0.39647728204727173,0.9180110096931458,0.0,0.0,0.0,0.0,0.0,0.0
2354,1724915241527682117,-0.45854681730270386,0.11218944191932678,0.1771455854177475,-0.008377385325729847,-0.010218042880296707,-0.39559319615364075,0.9183307886123657,0.0,0.0,0.0,0.0,0.0,0.0
2356,1724915241538791264,-0.4584764242172241,0.11348912864923477,0.1773039847612381,-0.010092617943882942,-0.011084850877523422,-0.39532214403152466,0.9184201955795288,0.0,0.0,0.0,0.0,0.0,0.0
2358,1724915241550292146,-0.45851239562034607,0.11469956487417221,0.17748108506202698,-0.012272040359675884,-0.012018559500575066,-0.395635187625885,0.9182471036911011,0.0,0.0,0.0,0.0,0.0,0.0
2360,1724915241558856443,-0.4584273099899292,0.1159505769610405,0.1776665896177292,-0.013683979399502277,-0.012047972530126572,-0.396359384059906,0.9179144501686096,0.0,0.0,0.0,0.0,0.0,0.0
2362,1724915241568414010,-0.45836490392684937,0.11715199053287506,0.1777680516242981,-0.016162659972906113,-0.013620937243103981,-0.3965766727924347,0.9177582263946533,0.0,0.0,0.0,0.0,0.0,0.0
2364,1724915241577804349,-0.458462119102478,0.11829913407564163,0.17764964699745178,-0.019804002717137337,-0.015506523661315441,-0.39548173546791077,0.9181294441223145,0.0,0.0,0.0,0.0,0.0,0.0
2366,1724915241613381374,-0.4584137201309204,0.11932078003883362,0.17758607864379883,-0.021034009754657745,-0.01615665666759014,-0.39532071352005005,0.9181602001190186,0.0,0.0,0.0,0.0,0.0,0.0
2368,1724915241613695410,-0.45830482244491577,0.12018992006778717,0.17760063707828522,-0.02396215870976448,-0.016686758026480675,-0.39558088779449463,0.9179668426513672,0.0,0.0,0.0,0.0,0.0,0.0
2370,1724915241614257234,-0.4581344723701477,0.12108831852674484,0.17768362164497375,-0.02526094950735569,-0.01666230335831642,-0.39610111713409424,0.917708158493042,0.0,0.0,0.0,0.0,0.0,0.0
2372,1724915241617960124,-0.45808687806129456,0.12223801016807556,0.17778654396533966,-0.029471470043063164,-0.016310585662722588,-0.3961925506591797,0.9175493717193604,0.0,0.0,0.0,0.0,0.0,0.0
2374,1724915241628270802,-0.45803481340408325,0.12321646511554718,0.17789694666862488,-0.03425015136599541,-0.017147663980722427,-0.39640897512435913,0.9172747135162354,0.0,0.0,0.0,0.0,0.0,0.0
2376,1724915241638593180,-0.45790618658065796,0.12412674725055695,0.1777724176645279,-0.03508045896887779,-0.019273096695542336,-0.3955879807472229,0.9175555109977722,0.0,0.0,0.0,0.0,0.0,0.0
2378,1724915241648582016,-0.45776447653770447,0.12504972517490387,0.17773248255252838,-0.03510359302163124,-0.020396679639816284,-0.395694762468338,0.9174843430519104,0.0,0.0,0.0,0.0,0.0,0.0
2380,1724915241658139651,-0.4577590823173523,0.1260325312614441,0.17763276398181915,-0.03754904866218567,-0.02097141370177269,-0.39478573203086853,0.9177660346031189,0.0,0.0,0.0,0.0,0.0,0.0
2382,1724915241668687267,-0.4577796757221222,0.12689638137817383,0.1773761510848999,-0.04097519814968109,-0.02142326347529888,-0.39323264360427856,0.9182755947113037,0.0,0.0,0.0,0.0,0.0,0.0
2384,1724915241678117202,-0.45774221420288086,0.12771621346473694,0.17695367336273193,-0.04313446581363678,-0.02207646332681179,-0.3917437195777893,0.9187976121902466,0.0,0.0,0.0,0.0,0.0,0.0
2386,1724915241688305388,-0.4576684832572937,0.12859272956848145,0.17673717439174652,-0.044699639081954956,-0.021782521158456802,-0.39208829402923584,0.9185827374458313,0.0,0.0,0.0,0.0,0.0,0.0
2388,1724915241698215628,-0.45768383145332336,0.12936535477638245,0.17655618488788605,-0.046038828790187836,-0.02186170592904091,-0.39267435669898987,0.9182643294334412,0.0,0.0,0.0,0.0,0.0,0.0
2390,1724915241707807997,-0.4577925205230713,0.13019214570522308,0.17637662589550018,-0.04779553413391113,-0.021922007203102112,-0.3924395442008972,0.9182735681533813,0.0,0.0,0.0,0.0,0.0,0.0
2392,1724915241720343261,-0.4579325318336487,0.13108322024345398,0.1758047491312027,-0.049430519342422485,-0.022197609767317772,-0.39096906781196594,0.9188074469566345,0.0,0.0,0.0,0.0,0.0,0.0
2394,1724915241727742867,-0.45785996317863464,0.1319424957036972,0.17495235800743103,-0.047556500881910324,-0.02355094626545906,-0.3893742561340332,0.9195495843887329,0.0,0.0,0.0,0.0,0.0,0.0
2396,1724915241739432649,-0.4578251242637634,0.13268668949604034,0.17422860860824585,-0.048976682126522064,-0.02419908717274666,-0.38889259099960327,0.9196620583534241,0.0,0.0,0.0,0.0,0.0,0.0
2398,1724915241748895147,-0.4578521251678467,0.1333330124616623,0.17352017760276794,-0.04994457587599754,-0.0249152984470129,-0.3883964419364929,0.9198005795478821,0.0,0.0,0.0,0.0,0.0,0.0
2400,1724915241758062834,-0.4579292833805084,0.13408797979354858,0.17295582592487335,-0.05222487449645996,-0.024390511214733124,-0.38783085346221924,0.9199265837669373,0.0,0.0,0.0,0.0,0.0,0.0
2402,1724915241770818260,-0.4579453468322754,0.13475967943668365,0.17250199615955353,-0.053194545209407806,-0.02400404028594494,-0.38769441843032837,0.9199386835098267,0.0,0.0,0.0,0.0,0.0,0.0
2404,1724915241778034066,-0.45796945691108704,0.1353617012500763,0.17209263145923615,-0.05370745435357094,-0.024086905643343925,-0.3875112235546112,0.9199838638305664,0.0,0.0,0.0,0.0,0.0,0.0
2406,1724915241789203781,-0.4580215513706207,0.1359286606311798,0.1715947389602661,-0.05387166514992714,-0.024474823847413063,-0.386581689119339,0.9203550219535828,0.0,0.0,0.0,0.0,0.0,0.0
2408,1724915241801627585,-0.4581575393676758,0.1364506185054779,0.17113327980041504,-0.054847314953804016,-0.02505938895046711,-0.3853790760040283,0.9207859635353088,0.0,0.0,0.0,0.0,0.0,0.0
2410,1724915241808080035,-0.45828181505203247,0.1370241492986679,0.1707729995250702,-0.05469704046845436,-0.025112222880125046,-0.38474366068840027,0.9210591316223145,0.0,0.0,0.0,0.0,0.0,0.0
2412,1724915241818211875,-0.45854300260543823,0.13756446540355682,0.17037451267242432,-0.056786298751831055,-0.025265268981456757,-0.38364362716674805,0.9213873744010925,0.0,0.0,0.0,0.0,0.0,0.0
2414,1724915241827735463,-0.4587283432483673,0.13801753520965576,0.16977494955062866,-0.05763869360089302,-0.02515520714223385,-0.38197964429855347,0.9220285415649414,0.0,0.0,0.0,0.0,0.0,0.0
2416,1724915241838493517,-0.4588596522808075,0.1384194791316986,0.16907432675361633,-0.058579254895448685,-0.02534588612616062,-0.3805418908596039,0.9225584268569946,0.0,0.0,0.0,0.0,0.0,0.0
2418,1724915241849644796,-0.4589972496032715,0.13867349922657013,0.16831696033477783,-0.059919144958257675,-0.02669968456029892,-0.3784733712673187,0.9232848286628723,0.0,0.0,0.0,0.0,0.0,0.0
2420,1724915241858051322,-0.4590177834033966,0.1389538049697876,0.16774605214595795,-0.06001373380422592,-0.02753322757780552,-0.37686121463775635,0.9239134788513184,0.0,0.0,0.0,0.0,0.0,0.0
2422,1724915241868224358,-0.45904839038848877,0.13923843204975128,0.16745679080486298,-0.060105714946985245,-0.027705838903784752,-0.3758060336112976,0.9243319034576416,0.0,0.0,0.0,0.0,0.0,0.0
2424,1724915241946606333,-0.45903488993644714,0.13951951265335083,0.16728036105632782,-0.060599956661462784,-0.027511708438396454,-0.3750435411930084,0.9246151447296143,0.0,0.0,0.0,0.0,0.0,0.0
2426,1724915241947060170,-0.459153413772583,0.13985969126224518,0.1671171933412552,-0.061364199966192245,-0.026601269841194153,-0.37423059344291687,0.9249207377433777,0.0,0.0,0.0,0.0,0.0,0.0
2428,1724915241947310520,-0.4592473804950714,0.14003518223762512,0.16683991253376007,-0.06214500218629837,-0.027269242331385612,-0.3720746636390686,0.9257185459136963,0.0,0.0,0.0,0.0,0.0,0.0
2430,1724915241947559470,-0.4592931568622589,0.14040568470954895,0.1666022688150406,-0.06220978870987892,-0.026466265320777893,-0.37032708525657654,0.9264379739761353,0.0,0.0,0.0,0.0,0.0,0.0
2432,1724915241947980838,-0.459430456161499,0.14067953824996948,0.16647596657276154,-0.06238493695855141,-0.026335854083299637,-0.3691834807395935,0.926886260509491,0.0,0.0,0.0,0.0,0.0,0.0
2434,1724915241948232858,-0.4594227969646454,0.14080576598644257,0.16608662903308868,-0.06090240180492401,-0.02764725126326084,-0.36743107438087463,0.9276426434516907,0.0,0.0,0.0,0.0,0.0,0.0
2436,1724915241948485214,-0.45939740538597107,0.14096833765506744,0.1657702773809433,-0.05978555977344513,-0.02840300276875496,-0.36623215675354004,0.9281665086746216,0.0,0.0,0.0,0.0,0.0,0.0
2438,1724915241948736443,-0.45941630005836487,0.14116409420967102,0.1654498279094696,-0.059699781239032745,-0.02864661067724228,-0.3649276793003082,0.9286782145500183,0.0,0.0,0.0,0.0,0.0,0.0
2440,1724915241959075684,-0.4594108462333679,0.14133329689502716,0.1652071177959442,-0.05959903076291084,-0.028237266466021538,-0.3633761405944824,0.929305374622345,0.0,0.0,0.0,0.0,0.0,0.0
2442,1724915241986695862,-0.4593780040740967,0.14155001938343048,0.16515061259269714,-0.05959911271929741,-0.02750391699373722,-0.36223092675209045,0.9297743439674377,0.0,0.0,0.0,0.0,0.0,0.0
2444,1724915241986991563,-0.4594420790672302,0.14171430468559265,0.16497939825057983,-0.06146043539047241,-0.028023291379213333,-0.36007657647132874,0.9304741621017456,0.0,0.0,0.0,0.0,0.0,0.0
2446,1724915241989187512,-0.4595332145690918,0.14195968210697174,0.164823517203331,-0.06189215928316116,-0.02735820598900318,-0.3582156300544739,0.931183397769928,0.0,0.0,0.0,0.0,0.0,0.0
2448,1724915241999687535,-0.45954424142837524,0.14210715889930725,0.16475099325180054,-0.062007054686546326,-0.027521410956978798,-0.3568525016307831,0.9316942095756531,0.0,0.0,0.0,0.0,0.0,0.0
2450,1724915242047323144,-0.4595808982849121,0.14225423336029053,0.16470369696617126,-0.06182245537638664,-0.027407001703977585,-0.355817586183548,0.9321054816246033,0.0,0.0,0.0,0.0,0.0,0.0
2452,1724915242047583902,-0.45967748761177063,0.14237816631793976,0.1646730601787567,-0.06259888410568237,-0.027495713904500008,-0.35440942645072937,0.9325874447822571,0.0,0.0,0.0,0.0,0.0,0.0
2454,1724915242048443954,-0.4597524404525757,0.14239820837974548,0.16458207368850708,-0.062493741512298584,-0.028174156323075294,-0.352455198764801,0.9333146810531616,0.0,0.0,0.0,0.0,0.0,0.0
2456,1724915242048827215,-0.4598492980003357,0.14248359203338623,0.16461382806301117,-0.06258711963891983,-0.028295986354351044,-0.35099008679389954,0.9338566064834595,0.0,0.0,0.0,0.0,0.0,0.0
2458,1724915242050993502,-0.4598730206489563,0.1425933986902237,0.16459351778030396,-0.061619531363248825,-0.02846718765795231,-0.34949249029159546,0.9344772696495056,0.0,0.0,0.0,0.0,0.0,0.0
2460,1724915242058528950,-0.45989713072776794,0.14268094301223755,0.16454988718032837,-0.0612349770963192,-0.02862149477005005,-0.34807223081588745,0.9350277781486511,0.0,0.0,0.0,0.0,0.0,0.0
2462,1724915242073373258,-0.4598741829395294,0.14270731806755066,0.16452188789844513,-0.06098248064517975,-0.02913741022348404,-0.34616896510124207,0.9357346296310425,0.0,0.0,0.0,0.0,0.0,0.0
2464,1724915242078382688,-0.46000009775161743,0.14280425012111664,0.1644701361656189,-0.06176775321364403,-0.029297148808836937,-0.344059556722641,0.9364559054374695,0.0,0.0,0.0,0.0,0.0,0.0
2466,1724915242089408450,-0.46000173687934875,0.14292055368423462,0.16442248225212097,-0.06138578802347183,-0.029129551723599434,-0.34226030111312866,0.9371451735496521,0.0,0.0,0.0,0.0,0.0,0.0
2468,1724915242130884054,-0.46005523204803467,0.14313602447509766,0.1643618494272232,-0.06253452599048615,-0.028479279950261116,-0.3404712378978729,0.9377408027648926,0.0,0.0,0.0,0.0,0.0,0.0
2470,1724915242131309354,-0.4600945711135864,0.14332468807697296,0.16430307924747467,-0.06350934505462646,-0.02760356478393078,-0.33888354897499084,0.9382764101028442,0.0,0.0,0.0,0.0,0.0,0.0
2472,1724915242132269276,-0.4601232409477234,0.14345978200435638,0.16435538232326508,-0.06478813290596008,-0.027198132127523422,-0.3375674784183502,0.9386751651763916,0.0,0.0,0.0,0.0,0.0,0.0
2474,1724915242132882127,-0.4601329565048218,0.14356350898742676,0.1643829643726349,-0.06469091773033142,-0.0268571674823761,-0.33618468046188354,0.9391878247261047,0.0,0.0,0.0,0.0,0.0,0.0
2476,1724915242139586295,-0.46019911766052246,0.1436484456062317,0.16436845064163208,-0.06440366804599762,-0.026866920292377472,-0.33439531922340393,0.939845860004425,0.0,0.0,0.0,0.0,0.0,0.0
2478,1724915242149748862,-0.46022653579711914,0.14370839297771454,0.16448239982128143,-0.06412837654352188,-0.026470012962818146,-0.333681583404541,0.9401295781135559,0.0,0.0,0.0,0.0,0.0,0.0
2480,1724915242158048391,-0.46021145582199097,0.1436629593372345,0.16448673605918884,-0.06283589452505112,-0.026860153302550316,-0.33240336179733276,0.940658450126648,0.0,0.0,0.0,0.0,0.0,0.0
2482,1724915242168399337,-0.4602271616458893,0.14367441833019257,0.16451728343963623,-0.06158038228750229,-0.026945436373353004,-0.3312057852745056,0.9411613345146179,0.0,0.0,0.0,0.0,0.0,0.0
2484,1724915242177800698,-0.4602682292461395,0.1436377912759781,0.16458988189697266,-0.0608571358025074,-0.026817718520760536,-0.329987496137619,0.94163978099823,0.0,0.0,0.0,0.0,0.0,0.0
2486,1724915242188250527,-0.4604005217552185,0.14350107312202454,0.1645822823047638,-0.06152019649744034,-0.0271384809166193,-0.32818055152893066,0.9422188997268677,0.0,0.0,0.0,0.0,0.0,0.0
2488,1724915242204245928,-0.4604865312576294,0.1433982253074646,0.16459989547729492,-0.061633381992578506,-0.027122829109430313,-0.3269457221031189,0.9426410794258118,0.0,0.0,0.0,0.0,0.0,0.0
2490,1724915242207946990,-0.4605537950992584,0.1432199478149414,0.164601668715477,-0.061216335743665695,-0.027143608778715134,-0.3255480229854584,0.9431512355804443,0.0,0.0,0.0,0.0,0.0,0.0
2492,1724915242220789988,-0.4605867266654968,0.14305269718170166,0.16469570994377136,-0.06060608848929405,-0.026623744517564774,-0.32392650842666626,0.9437636137008667,0.0,0.0,0.0,0.0,0.0,0.0
2494,1724915242227745989,-0.46063435077667236,0.14300008118152618,0.16498485207557678,-0.05923814699053764,-0.025509586557745934,-0.3228279650211334,0.9442575573921204,0.0,0.0,0.0,0.0,0.0,0.0
2496,1724915242238880120,-0.4608021080493927,0.14282460510730743,0.16525864601135254,-0.05902193486690521,-0.025159331038594246,-0.32130226492881775,0.9448007345199585,0.0,0.0,0.0,0.0,0.0,0.0
2498,1724915242248129767,-0.46103477478027344,0.14254330098628998,0.1653919816017151,-0.05921684205532074,-0.025463493540883064,-0.31916534900665283,0.9455044269561768,0.0,0.0,0.0,0.0,0.0,0.0
2500,1724915242258882060,-0.46123260259628296,0.1422322541475296,0.16554734110832214,-0.05831846594810486,-0.025234943255782127,-0.3176296055316925,0.9460833668708801,0.0,0.0,0.0,0.0,0.0,0.0
2502,1724915242269462169,-0.4614579379558563,0.14198847115039825,0.16588662564754486,-0.05799593776464462,-0.02440187707543373,-0.31692278385162354,0.9463619589805603,0.0,0.0,0.0,0.0,0.0,0.0
2504,1724915242277774159,-0.4616231918334961,0.14172613620758057,0.16642145812511444,-0.05762145295739174,-0.023813100531697273,-0.31614169478416443,0.9466610550880432,0.0,0.0,0.0,0.0,0.0,0.0
2506,1724915242288652426,-0.4619091749191284,0.14135512709617615,0.16705748438835144,-0.05906572565436363,-0.024247104302048683,-0.31485480070114136,0.946989893913269,0.0,0.0,0.0,0.0,0.0,0.0
2508,1724915242301467130,-0.46207982301712036,0.14102454483509064,0.16767826676368713,-0.0587504543364048,-0.02370711974799633,-0.3142211437225342,0.9472336173057556,0.0,0.0,0.0,0.0,0.0,0.0
2510,1724915242307932642,-0.4623354971408844,0.14063674211502075,0.1680925041437149,-0.05941618233919144,-0.022876430302858353,-0.3131575584411621,0.9475647211074829,0.0,0.0,0.0,0.0,0.0,0.0
2512,1724915242321379276,-0.4624975919723511,0.14016494154930115,0.16863565146923065,-0.057813726365566254,-0.022486036643385887,-0.312419593334198,0.9479166269302368,0.0,0.0,0.0,0.0,0.0,0.0
2514,1724915242327706367,-0.4626307189464569,0.13977918028831482,0.16944657266139984,-0.05805046483874321,-0.021573513746261597,-0.312113881111145,0.9480240941047668,0.0,0.0,0.0,0.0,0.0,0.0
2516,1724915242338662264,-0.46259060502052307,0.13936284184455872,0.1703396737575531,-0.0572243332862854,-0.021454105153679848,-0.31133386492729187,0.9483335018157959,0.0,0.0,0.0,0.0,0.0,0.0
2518,1724915242348611986,-0.4625816345214844,0.13894709944725037,0.17125080525875092,-0.05603162944316864,-0.02122809924185276,-0.31107741594314575,0.9484938979148865,0.0,0.0,0.0,0.0,0.0,0.0
2520,1724915242357798819,-0.46260055899620056,0.13838067650794983,0.171781525015831,-0.05391053482890129,-0.02115594409406185,-0.30986088514328003,0.9490165710449219,0.0,0.0,0.0,0.0,0.0,0.0
2522,1724915242369668993,-0.4625568389892578,0.13778728246688843,0.172332301735878,-0.05106238275766373,-0.020598361268639565,-0.3088216781616211,0.9495248794555664,0.0,0.0,0.0,0.0,0.0,0.0
2524,1724915242377894875,-0.4626312553882599,0.13715583086013794,0.17306524515151978,-0.05018718168139458,-0.020374571904540062,-0.307849258184433,0.9498921632766724,0.0,0.0,0.0,0.0,0.0,0.0
2526,1724915242389394488,-0.4626946449279785,0.1364351063966751,0.17371076345443726,-0.05009181424975395,-0.020876392722129822,-0.3063066303730011,0.9503848552703857,0.0,0.0,0.0,0.0,0.0,0.0
2528,1724915242398551702,-0.46266838908195496,0.13578324019908905,0.17439548671245575,-0.05049095302820206,-0.020518455654382706,-0.3059072494506836,0.9505000710487366,0.0,0.0,0.0,0.0,0.0,0.0
2530,1724915242409196827,-0.46252474188804626,0.13508403301239014,0.1748683899641037,-0.0491204708814621,-0.02016116864979267,-0.3055250346660614,0.9507024884223938,0.0,0.0,0.0,0.0,0.0,0.0
2532,1724915242419083202,-0.46228674054145813,0.13425517082214355,0.17496830224990845,-0.045996010303497314,-0.01885584183037281,-0.30442026257514954,0.9512397646903992,0.0,0.0,0.0,0.0,0.0,0.0
2534,1724915242427914737,-0.46203577518463135,0.13342233002185822,0.17484726011753082,-0.04184272885322571,-0.017123961821198463,-0.3038981854915619,0.9516311883926392,0.0,0.0,0.0,0.0,0.0,0.0
2536,1724915242438768650,-0.46198052167892456,0.13267959654331207,0.174750417470932,-0.0409553162753582,-0.015988223254680634,-0.30393674969673157,0.9516772627830505,0.0,0.0,0.0,0.0,0.0,0.0
2538,1724915242448213456,-0.46200448274612427,0.13200590014457703,0.1745537370443344,-0.04011378064751625,-0.014459467492997646,-0.30371567606925964,0.9518081545829773,0.0,0.0,0.0,0.0,0.0,0.0
2540,1724915242458814541,-0.4621051549911499,0.13107481598854065,0.17464184761047363,-0.03818536549806595,-0.013666286133229733,-0.30415603518486023,0.9517585635185242,0.0,0.0,0.0,0.0,0.0,0.0
2542,1724915242550528036,-0.4624427556991577,0.12977997958660126,0.17457759380340576,-0.03509964793920517,-0.014128929004073143,-0.3028104901313782,0.9522994756698608,0.0,0.0,0.0,0.0,0.0,0.0
2544,1724915242551261481,-0.4628443419933319,0.1285444051027298,0.1746816635131836,-0.032472796738147736,-0.014457674697041512,-0.30206385254859924,0.9526247382164001,0.0,0.0,0.0,0.0,0.0,0.0
2546,1724915242551604585,-0.4631204307079315,0.12729746103286743,0.17484435439109802,-0.03002139925956726,-0.014255310408771038,-0.3008078336715698,0.9531055688858032,0.0,0.0,0.0,0.0,0.0,0.0
2548,1724915242551862349,-0.4632419943809509,0.12604784965515137,0.1751614660024643,-0.02500215917825699,-0.014160791411995888,-0.30119991302490234,0.9531279802322388,0.0,0.0,0.0,0.0,0.0,0.0
2550,1724915242552188322,-0.46350225806236267,0.12490279972553253,0.1755252182483673,-0.024194760248064995,-0.01291363500058651,-0.30201634764671326,0.9529082179069519,0.0,0.0,0.0,0.0,0.0,0.0
2552,1724915242552437978,-0.463636577129364,0.12343473732471466,0.1756209284067154,-0.023261776193976402,-0.013055669143795967,-0.3014969825744629,0.953093945980072,0.0,0.0,0.0,0.0,0.0,0.0
2554,1724915242552802688,-0.46349993348121643,0.12209425866603851,0.17555594444274902,-0.01926647126674652,-0.012438797391951084,-0.30160272121429443,0.953157901763916,0.0,0.0,0.0,0.0,0.0,0.0
2556,1724915242553104801,-0.46343231201171875,0.1211516261100769,0.17543841898441315,-0.015476003289222717,-0.010065700858831406,-0.30232566595077515,0.9530259370803833,0.0,0.0,0.0,0.0,0.0,0.0
2558,1724915242553862323,-0.4634997844696045,0.12010509520769119,0.17509591579437256,-0.01443422120064497,-0.009835589677095413,-0.30197274684906006,0.953156590461731,0.0,0.0,0.0,0.0,0.0,0.0
2560,1724915242558172855,-0.46357211470603943,0.11899097263813019,0.17467425763607025,-0.013808074407279491,-0.010396269150078297,-0.30021414160728455,0.9537152051925659,0.0,0.0,0.0,0.0,0.0,0.0
2562,1724915242571592564,-0.4634973108768463,0.1176861897110939,0.17448288202285767,-0.0073167444206774235,-0.010153115727007389,-0.29993391036987305,0.9538779258728027,0.0,0.0,0.0,0.0,0.0,0.0
2564,1724915242578458323,-0.4636968672275543,0.11656012386083603,0.1745835542678833,-0.004053570795804262,-0.009171715937554836,-0.29971635341644287,0.9539757370948792,0.0,0.0,0.0,0.0,0.0,0.0
2566,1724915242588932895,-0.46394097805023193,0.11533625423908234,0.1748337298631668,-0.0014445176348090172,-0.009293854236602783,-0.299397736787796,0.9540820717811584,0.0,0.0,0.0,0.0,0.0,0.0
2568,1724915242598731413,-0.4640451967716217,0.11418610066175461,0.17518427968025208,-5.3890467825112864e-05,-0.008829872123897076,-0.3000372052192688,0.9538866281509399,0.0,0.0,0.0,0.0,0.0,0.0
2570,1724915242614295235,-0.4640945494174957,0.11301946640014648,0.1754341572523117,0.0014757717726752162,-0.008701310493052006,-0.30014270544052124,0.9538534879684448,0.0,0.0,0.0,0.0,0.0,0.0
2572,1724915242621079720,-0.46400198340415955,0.11180564761161804,0.17570757865905762,0.006285948678851128,-0.007792667485773563,-0.29958632588386536,0.9540166854858398,0.0,0.0,0.0,0.0,0.0,0.0
2574,1724915242629009811,-0.4640194773674011,0.11056753993034363,0.17592434585094452,0.010863978415727615,-0.006467815488576889,-0.29934418201446533,0.9540614485740662,0.0,0.0,0.0,0.0,0.0,0.0
2576,1724915242637939890,-0.4641135334968567,0.10930736362934113,0.17611189186573029,0.013404246419668198,-0.005499220918864012,-0.3001205027103424,0.9537912607192993,0.0,0.0,0.0,0.0,0.0,0.0
2578,1724915242649747385,-0.4642660915851593,0.10812205076217651,0.17630700767040253,0.011268805712461472,-0.007043476216495037,-0.30138662457466125,0.9534094333648682,0.0,0.0,0.0,0.0,0.0,0.0
2580,1724915242659627574,-0.4642886221408844,0.10697851330041885,0.1761830449104309,0.012011065147817135,-0.007520671002566814,-0.30144625902175903,0.953377902507782,0.0,0.0,0.0,0.0,0.0,0.0
2582,1724915242670173077,-0.4642503261566162,0.10600712895393372,0.17570781707763672,0.015543987043201923,-0.00696024764329195,-0.30086714029312134,0.9535139799118042,0.0,0.0,0.0,0.0,0.0,0.0
2584,1724915242678291504,-0.4641762673854828,0.1050817146897316,0.17525121569633484,0.020195595920085907,-0.005429076496511698,-0.30174052715301514,0.9531607031822205,0.0,0.0,0.0,0.0,0.0,0.0
2586,1724915242688632538,-0.4641736149787903,0.10418049991130829,0.17487193644046783,0.02107815258204937,-0.004909344483166933,-0.30264297127723694,0.9528582692146301,0.0,0.0,0.0,0.0,0.0,0.0
2588,1724915242699241885,-0.46417394280433655,0.10315395146608353,0.17426009476184845,0.02239128015935421,-0.006138141732662916,-0.3026793599128723,0.9528096318244934,0.0,0.0,0.0,0.0,0.0,0.0
2590,1724915242708693357,-0.4641428589820862,0.102362260222435,0.17381450533866882,0.025421256199479103,-0.005799267441034317,-0.3022574782371521,0.952869713306427,0.0,0.0,0.0,0.0,0.0,0.0
2592,1724915242719755242,-0.4641871750354767,0.10163551568984985,0.17334286868572235,0.02668924629688263,-0.0051413727924227715,-0.3020516633987427,0.9529039859771729,0.0,0.0,0.0,0.0,0.0,0.0
2594,1724915242727973701,-0.46423792839050293,0.10089738667011261,0.1730097234249115,0.02670936845242977,-0.004126962274312973,-0.30303657054901123,0.952595591545105,0.0,0.0,0.0,0.0,0.0,0.0
2596,1724915242738914915,-0.4644010365009308,0.10002152621746063,0.17229798436164856,0.02651994861662388,-0.004852261859923601,-0.3037315309047699,0.952376127243042,0.0,0.0,0.0,0.0,0.0,0.0
2598,1724915242748479599,-0.46463456749916077,0.09926591068506241,0.17191238701343536,0.026906242594122887,-0.003428712021559477,-0.3059188723564148,0.9516711235046387,0.0,0.0,0.0,0.0,0.0,0.0
2600,1724915242758008737,-0.4647957682609558,0.09839992970228195,0.17145898938179016,0.027170848101377487,-0.0026981194969266653,-0.306719571352005,0.9514082074165344,0.0,0.0,0.0,0.0,0.0,0.0
2602,1724915242771163540,-0.46491217613220215,0.0976373702287674,0.17117100954055786,0.02895982749760151,-0.0022531833965331316,-0.3075632154941559,0.9510841965675354,0.0,0.0,0.0,0.0,0.0,0.0
2604,1724915242778468113,-0.4651256203651428,0.09685393422842026,0.17054806649684906,0.029887761920690536,-0.0023302685003727674,-0.3081384599208832,0.950869083404541,0.0,0.0,0.0,0.0,0.0,0.0
2606,1724915242789216943,-0.46541115641593933,0.09605025500059128,0.16953592002391815,0.030270162969827652,-0.0033710068091750145,-0.3070351779460907,0.9512106776237488,0.0,0.0,0.0,0.0,0.0,0.0
2608,1724915242799111745,-0.4655848443508148,0.09533655643463135,0.16881538927555084,0.03206804394721985,-0.0021137797739356756,-0.30754852294921875,0.9509895443916321,0.0,0.0,0.0,0.0,0.0,0.0
2610,1724915242808128084,-0.46572932600975037,0.09453203529119492,0.16831964254379272,0.032927364110946655,-0.00220303051173687,-0.3086649775505066,0.9505982398986816,0.0,0.0,0.0,0.0,0.0,0.0
2612,1724915242818547823,-0.4658065736293793,0.09384213387966156,0.16777671873569489,0.033904191106557846,-0.0030170667450875044,-0.3088993430137634,0.9504855275154114,0.0,0.0,0.0,0.0,0.0,0.0
2614,1724915242827910812,-0.4660032093524933,0.09314281493425369,0.16724509000778198,0.03245149180293083,-0.0037605073302984238,-0.30928975343704224,0.9504066109657288,0.0,0.0,0.0,0.0,0.0,0.0
2616,1724915242839011955,-0.46606776118278503,0.09255833178758621,0.16693803668022156,0.032864734530448914,-0.0037975830491632223,-0.3100453317165375,0.950145959854126,0.0,0.0,0.0,0.0,0.0,0.0
2618,1724915242848939634,-0.46611130237579346,0.09212685376405716,0.16655205190181732,0.03439731523394585,-0.0026319425087422132,-0.3107505440711975,0.9498653411865234,0.0,0.0,0.0,0.0,0.0,0.0
2620,1724915242858158551,-0.46612513065338135,0.09159111976623535,0.16615265607833862,0.03491555154323578,-0.0026180180720984936,-0.31154516339302063,0.949586033821106,0.0,0.0,0.0,0.0,0.0,0.0
2622,1724915242876483243,-0.46610569953918457,0.09099556505680084,0.16592800617218018,0.03593441843986511,-0.0014155905228108168,-0.31421834230422974,0.94866943359375,0.0,0.0,0.0,0.0,0.0,0.0
2624,1724915242878110815,-0.46613582968711853,0.09050464630126953,0.16534145176410675,0.03660288825631142,-0.000886667927261442,-0.31594252586364746,0.9480715990066528,0.0,0.0,0.0,0.0,0.0,0.0
2626,1724915242888885797,-0.46614810824394226,0.09001389890909195,0.16471125185489655,0.03576844930648804,-0.0010552118765190244,-0.31745973229408264,0.9475963711738586,0.0,0.0,0.0,0.0,0.0,0.0
2628,1724915242901018041,-0.4660392701625824,0.08955835551023483,0.16426856815814972,0.03642047196626663,-0.0011843323009088635,-0.3186704218387604,0.9471649527549744,0.0,0.0,0.0,0.0,0.0,0.0
2630,1724915242908155097,-0.4658849239349365,0.0891638994216919,0.16395851969718933,0.03748268634080887,-0.0016368597280234098,-0.3195399343967438,0.9468298554420471,0.0,0.0,0.0,0.0,0.0,0.0
2632,1724915242918039809,-0.4657915234565735,0.08889160305261612,0.16382648050785065,0.03791195899248123,-0.0017087131273001432,-0.32059067487716675,0.9464572668075562,0.0,0.0,0.0,0.0,0.0,0.0
2634,1724915242927977766,-0.4656839370727539,0.08867789059877396,0.1637740135192871,0.038376715034246445,-0.001407894305884838,-0.32184678316116333,0.9460126161575317,0.0,0.0,0.0,0.0,0.0,0.0
2636,1724915242939723955,-0.46557360887527466,0.08839757740497589,0.16365216672420502,0.038772352039813995,-0.0021257768385112286,-0.3230910897254944,0.9455708861351013,0.0,0.0,0.0,0.0,0.0,0.0
2638,1724915242948320975,-0.46551623940467834,0.08815370500087738,0.16353772580623627,0.039935652166604996,-0.0022936060559004545,-0.3247375190258026,0.9449579119682312,0.0,0.0,0.0,0.0,0.0,0.0
2640,1724915242957925188,-0.46556419134140015,0.08795563876628876,0.16342201828956604,0.039302390068769455,-0.0018194722943007946,-0.3262522518634796,0.9444635510444641,0.0,0.0,0.0,0.0,0.0,0.0
2642,1724915242970762071,-0.46552252769470215,0.087794229388237,0.16332697868347168,0.03938516601920128,-0.0010088179260492325,-0.32830142974853516,0.9437509775161743,0.0,0.0,0.0,0.0,0.0,0.0
2644,1724915242977875484,-0.4655545651912689,0.08751612901687622,0.16339820623397827,0.037168651819229126,-0.0007235390366986394,-0.33163347840309143,0.9426755309104919,0.0,0.0,0.0,0.0,0.0,0.0
2646,1724915242989435009,-0.465520977973938,0.08747972548007965,0.1632058471441269,0.03688357025384903,-0.0005067386664450169,-0.33318376541137695,0.9421401619911194,0.0,0.0,0.0,0.0,0.0,0.0
2648,1724915242998964775,-0.465411514043808,0.08743693679571152,0.16296768188476562,0.037612058222293854,-0.00010219074465567246,-0.3342915177345276,0.9417189359664917,0.0,0.0,0.0,0.0,0.0,0.0
2650,1724915243008472050,-0.4654032289981842,0.08733098953962326,0.16288061439990997,0.03697025030851364,0.0005484111607074738,-0.3358036279678345,0.941206157207489,0.0,0.0,0.0,0.0,0.0,0.0
2652,1724915243021193432,-0.4653840959072113,0.08721967041492462,0.16296504437923431,0.037399761378765106,0.0009791641496121883,-0.33821600675582886,0.940324604511261,0.0,0.0,0.0,0.0,0.0,0.0
2654,1724915243028019106,-0.46536821126937866,0.0871698409318924,0.16306334733963013,0.037768129259347916,0.0017555502709001303,-0.34051549434661865,0.9394783973693848,0.0,0.0,0.0,0.0,0.0,0.0
2656,1724915243038948172,-0.4653320908546448,0.08706607669591904,0.16302023828029633,0.03889529034495354,0.0016869038809090853,-0.3418762683868408,0.9389382004737854,0.0,0.0,0.0,0.0,0.0,0.0
2658,1724915243049588965,-0.4653124511241913,0.08689304441213608,0.16301901638507843,0.03796869516372681,0.0013770656660199165,-0.34340858459472656,0.9384173154830933,0.0,0.0,0.0,0.0,0.0,0.0
2660,1724915243058171921,-0.4652615487575531,0.08680058270692825,0.16307432949543,0.03830529376864433,0.001146030379459262,-0.3454044461250305,0.9376711249351501,0.0,0.0,0.0,0.0,0.0,0.0
2662,1724915243072084019,-0.4651842713356018,0.08672814071178436,0.16313450038433075,0.03898836672306061,0.0019925707019865513,-0.3474617004394531,0.9368812441825867,0.0,0.0,0.0,0.0,0.0,0.0
2664,1724915243077917986,-0.4651356041431427,0.08667789399623871,0.16318650543689728,0.03912860155105591,0.002650894457474351,-0.34918084740638733,0.9362343549728394,0.0,0.0,0.0,0.0,0.0,0.0
2666,1724915243088833855,-0.46512287855148315,0.08660148829221725,0.16313442587852478,0.039958368986845016,0.003926848527044058,-0.3510529696941376,0.9354943633079529,0.0,0.0,0.0,0.0,0.0,0.0
2668,1724915243100872888,-0.46508851647377014,0.08639600872993469,0.16294384002685547,0.03885034844279289,0.002527597127482295,-0.35193145275115967,0.9352157115936279,0.0,0.0,0.0,0.0,0.0,0.0
2670,1724915243108216694,-0.46496516466140747,0.08628159016370773,0.16284699738025665,0.03916705399751663,0.002543424954637885,-0.35296010971069336,0.9348147511482239,0.0,0.0,0.0,0.0,0.0,0.0
2672,1724915243117993078,-0.4649209678173065,0.08613597601652145,0.1627741903066635,0.0379737988114357,0.0020372194703668356,-0.3541781008243561,0.9344045519828796,0.0,0.0,0.0,0.0,0.0,0.0
2674,1724915243128866190,-0.4648798406124115,0.08603168278932571,0.16272872686386108,0.0369793064892292,0.0017496916698291898,-0.3553474247455597,0.9340009093284607,0.0,0.0,0.0,0.0,0.0,0.0
2676,1724915243138807145,-0.4648208022117615,0.08595532178878784,0.16271044313907623,0.037162695080041885,0.0019148035207763314,-0.3566226065158844,0.9335071444511414,0.0,0.0,0.0,0.0,0.0,0.0
2678,1724915243148589307,-0.4647133946418762,0.0858568549156189,0.1627330183982849,0.038239702582359314,0.0020471031311899424,-0.3579281270503998,0.9329635500907898,0.0,0.0,0.0,0.0,0.0,0.0
2680,1724915243158024473,-0.464633971452713,0.08579191565513611,0.16273683309555054,0.03776026889681816,0.0021305677946656942,-0.35912635922431946,0.9325222969055176,0.0,0.0,0.0,0.0,0.0,0.0
2682,1724915243167959562,-0.46450331807136536,0.08576987683773041,0.16290752589702606,0.03812170401215553,0.0027527727652341127,-0.36089521646499634,0.9318228960037231,0.0,0.0,0.0,0.0,0.0,0.0
2684,1724915243255577650,-0.4643506407737732,0.08578505367040634,0.1631949245929718,0.03831404820084572,0.0038725051563233137,-0.3633996248245239,0.9308372139930725,0.0,0.0,0.0,0.0,0.0,0.0
2686,1724915243255854879,-0.4642556309700012,0.08580871671438217,0.16329817473888397,0.03840436041355133,0.004245494958013296,-0.3649141490459442,0.9302391409873962,0.0,0.0,0.0,0.0,0.0,0.0
