seq,stamp,px,py,pz,ox,oy,oz,ow,lx,ly,lz,ax,ay,az,timestamp,wx,wy,wz,aa_x,aa_y,aa_z,roll,pitch,yaw,vx,vy,vz,jx,jy,jz,fw
16,1724913732845594745,0.0226738471537828,0.0676588714122772,0.1842740923166275,0.0053816079162061,-0.0383497402071952,-0.1287100613117218,0.9909259676933287,0.0,0.0,0.0,8.150034708533768,4.563997544522089,2.681167342490179,0.0,0.0,0.0,0.0,0.6580153084760891,-0.2651464759382366,0.2833055921444962,0.0205964161344112,-0.0746875908212201,-0.2591006447473452,0.0050579694607358,0.0025941204094696,0.0006203119518245,1373.9201665084497,2235.8887770521287,-465.7275093962149,0.0
18,1724913732922032890,0.0230604689568281,0.0678571611642837,0.1843215078115463,0.0071550346910953,-0.0393690876662731,-0.1278200447559356,0.9909899234771729,0.0,0.0,0.0,113.16994361453078,175.4711880887054,-32.91817955122656,0.076438145,0.050297469561515,-0.0202673047740059,0.0216553539316518,-2814.066850540865,-5998.949751592139,1932.8494346319171,0.0243185457489679,-0.0762735586804758,-0.257475901836062,0.6280315042666729,0.351457626497293,0.2055637700463535,-157471.97180042678,-112209.56690619553,-24881.60424632447,1.5572549694145697e-05
20,1724913732922663007,0.0234594382345676,0.0680804327130317,0.1844521015882492,0.0064427456818521,-0.0404981561005115,-0.1274599581956863,0.990995705127716,0.0,0.0,0.0,13.11907401560734,104.17156123557989,-48.72332628854892,0.077068262,-1.7375145933818374,-3.8314668677390538,1.249615090156275,-2355.771606940491,1413.839811748493,333.37326028174033,0.0231670373725594,-0.0787058468425461,-0.2567438461312072,0.6998873211034358,0.4629127590231263,0.1846365495896691,-163307.30446610792,-130809.09447157053,-26881.55407814112,9.692918352482738e-05
22,1724913732923201412,0.0238669551908969,0.0683796182274818,0.18454110622406,0.0057049011811614,-0.0403070338070392,-0.1273066401481628,0.9910276532173156,0.0,0.0,0.0,-76.88849151063698,25.62075377041898,-64.0239557819218,0.077606667,-2.784364580445948,0.3626911736726337,0.6859506067553764,-1557.1545691623148,6597.7506573520595,-929.6278799914516,0.0216384878258076,-0.0785188827381621,-0.2563690508905507,0.6605248762226559,0.4855503247724768,0.1512676493987825,-132634.3761914765,-129579.05650219668,-15769.64802450371,5.5248292502715405e-05
24,1724913732926221293,0.0242292843759059,0.0686578974127769,0.18476003408432,0.0043419012799859,-0.0399883314967155,-0.127563863992691,0.9910144209861756,0.0,0.0,0.0,107.62280607146266,-89.32114477756289,102.60296722424236,0.080626548,-0.928272309642978,0.0929328514148317,-0.1347603935210379,2788.785576558714,1.6364096664687366,2075.482679694203,0.0188667237478523,-0.0782300564448464,-0.2567714918710239,0.3643186042907302,0.2847123551107913,-0.0767436310348159,54729.23073374397,14014.324305293012,-66802.60798157757,0.0001895448162018
26,1724913732927108521,0.0246162079274654,0.0689606964588165,0.1846530437469482,0.005236271303147,-0.0400604009628295,-0.1265067607164383,0.991142749786377,0.0,0.0,0.0,154.51977954622987,-63.31290365820743,11.538250896143245,0.081513776,2.1127413821001975,0.1180957058009303,2.3185094753404476,3865.981812569464,-3290.513896744681,249.64261519461377,0.0205798946140764,-0.0781658778552274,-0.2547064997158992,0.5134252480158885,0.1995168601287176,0.0607144687792526,19140.43068328136,98461.9152998006,-136633.68789746758,-0.0001379535973739
28,1724913732927832050,0.0250333081930875,0.0690214037895202,0.1848039478063583,0.0068816212005913,-0.0418122038245201,-0.1260755509138107,0.9911152124404908,0.0,0.0,0.0,148.47402442101236,48.72670544651564,-107.37784136816572,0.082237305,5.168583865377424,-4.220933909356436,1.014931944737719,-3385.418878482814,3298.327473934793,870.3359236837346,0.0242663511909042,-0.0812355331227339,-0.2540386703630028,0.6172362008649515,0.1730089883715919,-0.015543113845382,-52886.43388201902,73725.30323460278,50717.94199266399,0.0001148804391223
30,1724913732928466501,0.0254475884139537,0.069180741906166,0.1846694052219391,0.0065816114656627,-0.040813572704792,-0.1251247674226761,0.991279363632202,0.0,0.0,0.0,90.1460742949556,50.36801066090334,44.4542443533998,0.082871756,-1.2124575544653171,3.0430752152143428,3.0536741240222383,-3112.7331357669277,3737.5524255150985,1045.602895330968,0.0233375563467508,-0.0793515082711441,-0.2520494596148388,0.7142148290701655,0.2514148867661916,-0.0847712702129115,-99825.98388135585,-56669.261610922185,231358.36994609743,-0.0001687383490813
32,1724913732929094912,0.0259345266968011,0.0693389028310775,0.1846953630447387,0.0069340667687356,-0.04067949578166,-0.1243731975555419,0.9913771152496338,0.0,0.0,0.0,22.502457843373243,-22.12634363704394,184.8914815222495,0.083500167,1.1541370630501364,0.5917932959919019,2.3614463962678687,3540.5327493655245,-3676.750477078735,-1049.996081982674,0.0239444166534394,-0.0790148119772197,-0.2505524659843139,0.7318321633451249,0.2374970345256908,0.0387501753358139,-101651.21094570847,-108554.453755719,209368.81450375592,-1.481973617965842e-05
34,1724913732939235403,0.0263128224760293,0.0694257840514183,0.1846699118614196,0.0076996521092951,-0.040969830006361,-0.1235849112272262,0.991457998752594,0.0,0.0,0.0,-27.940533464463652,-9.077116159086856,-1.0652535225998556,0.093640658,0.1630295458167856,-0.036261770595603,0.1503710889968784,1.6069130198284398,-40.22417212714073,-74.69902434552445,0.0254773238694236,-0.0794200743539572,-0.2490323700390115,0.0547485666097475,0.0166180991989275,0.0040163753714139,3.0028179177177066,1213.4680698472555,-7663.976183417363,-5.726199369532669e-05
36,1724913732946715822,0.0268186181783676,0.0695945173501968,0.184735968708992,0.0102225095033645,-0.0421209409832954,-0.122060976922512,0.9915757179260254,0.0,0.0,0.0,-0.4519837080876652,-0.4047639765244623,0.5059953334164033,0.101121077,0.7232471934212085,-0.2173499585894347,0.3825901423641904,24.005993878395316,-3.381686594467226,4.046449256988406,0.0306610593823633,-0.0811256225636162,-0.2462080870283113,0.0600098153991623,0.018824144481035,0.0090706734166783,2015.2729646974767,632.49417136299,119.19363595043671,2.0610517170067324e-05
38,1724913732956126186,0.0272932890802621,0.0697274729609489,0.1848241686820984,0.0118187880143523,-0.042337130755186,-0.1215206608176231,0.9916151762008668,0.0,0.0,0.0,-1.1326191781521149,-0.6896928969840179,0.5520927538164492,0.110531441,0.3467612104010078,-0.0026225994225415,0.1010702443030894,-37.93732212063845,5.321272674762664,-17.397060207634272,0.033846962700414,-0.0811809680030572,-0.2452551542843942,0.0420795378391878,0.0067322719108902,0.0118236199928727,5.592142201141661,33.99600275745922,-14.674131749568732,4.489194847576729e-05
40,1724913732968279528,0.0276734512299299,0.0696932002902031,0.1850063353776931,0.0111466767266392,-0.0435638055205345,-0.1210378259420394,0.9916288256645204,0.0,0.0,0.0,0.1583718403035829,0.7323108682188078,0.0665425404500428,0.122684783,-0.0818094153452515,-0.2125802629828388,0.0861323831016995,-55.35835920398683,-7.18905870094339,1.9689546147419756,0.03277331592169,-0.0837979500375367,-0.2442916791003702,0.0404435027655143,0.0076933105326224,0.0226072302559945,34.16592062689898,42.050074284529344,-74.64538317915134,0.0001479550691379
42,1724913732976309451,0.0280468240380287,0.0698107555508613,0.1852282881736755,0.0085005052387714,-0.0441245101392269,-0.1206843703985214,0.9916734099388124,0.0,0.0,0.0,0.0504104811630758,0.6722948397466798,-0.7169202362121463,0.130714706,-0.6329456845137228,-0.2167930106439581,0.1189103263804756,-20.333216222742134,10.745183617927898,1.8933268291989291,0.0276142537545273,-0.0855668279173359,-0.2433866240982532,0.0432696663680889,0.0170394533681617,0.0187870476451355,-19.86830668102112,-36.607143472210026,-46.841869020521706,0.0001868850319239
44,1724913732986665766,0.0284518226981163,0.0700192749500274,0.1853045970201492,0.0074850404635071,-0.0437741689383983,-0.1201664358377456,0.991759955883026,0.0,0.0,0.0,-0.2411477214687356,-0.0959422439354766,-0.5244969986331445,0.141071021,-0.1983663492428606,0.0450150133601163,0.1092851044713952,28.97812263574874,6.235997222638936,-1.4859684859542703,0.0254620490186008,-0.085130824685291,-0.2422386551843105,0.0397641071905983,0.0174355365563561,0.0081410691352381,-15.592588528234092,-32.46586619367575,21.859594068081915,3.9212379111218895e-05
46,1724913732997232347,0.0288790836930274,0.0701744109392166,0.1853989511728286,0.0072363601066172,-0.0442518815398216,-0.1197186633944511,0.991794764995575,0.0,0.0,0.0,-0.270496079337398,0.0107353375495151,-0.2581611670216927,0.151637602,-0.0321553168707042,-0.0944078175964084,0.0875831339773575,-0.8140991981318315,-5.147898731805416,-1.8729099556347288,0.0250450143015043,-0.0861514450073134,-0.2413353802097222,0.038265510830403,0.0149750606491734,0.0080269272505368,7.12724907596102,16.588375924572407,24.66401001398206,5.514744413253175e-05
48,1724913733006907013,0.0292300712317228,0.0703218877315521,0.1854686141014099,0.0062837693840265,-0.0444962009787559,-0.1194201409816742,0.9918262958526612,0.0,0.0,0.0,-0.113805963262616,0.2287342348708866,-0.0243415406348692,0.161312268,-0.1865786137459366,-0.0729331871841014,0.0710659600125173,-15.326037129280175,-10.922282240255685,6.97238588833382,0.0231817904052985,-0.0868734180620082,-0.2406625277610393,0.0345087709299918,0.0172366491495705,0.0033381890133661,28.11205570882459,7.695683026616937,34.84160597844068,3.760392590871809e-05
50,1724913733016515643,0.0295447595417499,0.070506528019905,0.1854638308286667,0.0045006549917161,-0.0457599051296711,-0.1184464693069458,0.9918952584266664,0.0,0.0,0.0,0.270028595254423,0.1610863728534823,0.4122949919725464,0.170920898,-0.3277754829420047,-0.3032956578324527,0.2208912889048725,3.6863618923492014,6.772663155543309,-9.11120449594994,0.0198498929025826,-0.0898326672810068,-0.2385951961011205,0.0360348265903294,0.0193864726278834,0.0074969569436191,27.69767351830843,-4.309296574347562,-0.390570068746924,-3.331235234310598e-05
52,1724913733027189643,0.0299683380872011,0.0707154795527458,0.1856386512517929,0.0042533734813332,-0.0450041145086288,-0.11935655772686,0.991821825504303,0.0,0.0,0.0,0.4204289507944061,0.1474720756347571,-0.13533483542954,0.181594898,-0.0704727659264458,0.1335805197666713,-0.1692891574335012,20.260662865466543,14.06556135068823,-10.543284452748814,0.0192565790014523,-0.0883717693206325,-0.2403810470659459,0.0402357510101376,0.0203630076069294,0.0116544670269309,-11.299015172810186,-6.542411272428298,-74.44060443313926,0.000136343933989
54,1724913733037027262,0.030369171872735,0.0709229409694671,0.1857104748487472,0.0047367727383971,-0.0449200198054313,-0.1195165067911148,0.9918042421340942,0.0,0.0,0.0,0.0790739381559135,0.0353560999757369,-1.0774182222238204,0.191432517,0.0939831278135719,0.0283873946036879,-0.0371740977439842,13.715967504665135,-4.743729073796192,13.068832028087533,0.0202130072825167,-0.0880853526267354,-0.2407426026853091,0.0446153303583636,0.022321383410035,0.0055645465160836,-50.4275193888882,-18.364482733698217,-40.57880716037412,3.5639195258537395e-05
56,1724913733045719471,0.0307867024093866,0.0711264312267303,0.185745507478714,0.0055591189302504,-0.044878713786602,-0.1191611811518669,0.9918445944786072,0.0,0.0,0.0,-0.4800505731793572,-0.1777858403839757,-1.0063114964060138,0.200124726,0.1901564459322062,0.0328448507945003,0.0736523438755751,3.736868183449444,-11.639507872529707,25.905661714220734,0.0218089196455134,-0.0878133710625662,-0.2400940362078064,0.0424908508927583,0.0213713561463322,-0.0073209844877659,-9.149414695602813,10.81839796890882,70.85630388515948,-2.902206533556581e-06
58,1724913733055838383,0.0311513543128967,0.0713186636567115,0.1855377107858657,0.0060209990479052,-0.0461223199963569,-0.1166722327470779,0.9920807480812072,0.0,0.0,0.0,0.0773215238057134,0.3479755801489483,0.4489847462612801,0.210243638,0.1416537430033448,-0.2280860405349671,0.490759309432411,-1.858748129721011,-8.690788439056336,10.00336660677032,0.0228037589477064,-0.090231555024477,-0.2351612738379961,0.0348574879526255,0.0187655659301611,-0.0118952687190514,42.4878168292344,43.46676732047368,118.29063092778318,-0.0002410083243624
60,1724913733067740083,0.0315497107803821,0.0715387612581253,0.1855170875787735,0.0068577411584556,-0.0467843301594257,-0.1156110391020774,0.9921685457229614,0.0,0.0,0.0,0.4066949889647651,0.7464346137642832,1.4994771316240256,0.222145338,0.1606106734614024,-0.0922060026196474,0.1728201529645044,25.025871516533854,22.231966669602073,-24.37090496305593,0.0245304310646028,-0.0913773313865776,-0.2331225658111234,0.0474201947910817,0.0313831047532318,0.0060616672775815,-44.475705798477975,-23.92598303459703,-25.491215966598645,-5.8758602855034775e-05
62,1724913733075870830,0.0320127569139003,0.0718655288219451,0.1856096684932708,0.0089235035702586,-0.0464166775345802,-0.1155623272061348,0.992175042629242,0.0,0.0,0.0,-0.3556903695792142,0.2330364939599578,0.660350737786576,0.230276085,0.4942508198229793,0.1486299637838711,-0.0123199140741449,5.848431327901085,1.65253496111316,-10.510212451346382,0.0285552571443416,-0.0901666227615518,-0.2331909015555195,0.0471228681084747,0.035709638454767,0.0182019146321001,-46.16843350194812,-42.8942585574507,-109.50866763850306,4.628185618496087e-05
64,1724913733086500008,0.0323770828545093,0.0721828490495681,0.1858978420495987,0.0091313598677515,-0.0476331524550914,-0.1153118684887886,0.9921446442604064,0.0,0.0,0.0,-0.1850427721560441,0.0584659601491694,-0.5912404961804372,0.240905263,0.0674944431450037,-0.2224276836229961,0.0463240340647135,-44.06965070008331,-2.856573000827417,9.277615412591116,0.0292338370781089,-0.092544086856553,-0.2327652534366659,0.0389078633495205,0.0340307593263027,0.0136491817338786,35.653831606123944,-7.117086118119635,-48.39280492150482,0.0002493514975059
66,1724913733095394385,0.0327576175332069,0.0725166201591491,0.1859190464019775,0.0075329560786485,-0.0474990159273147,-0.1146950125694274,0.9922359585762024,0.0,0.0,0.0,0.277947064617944,0.0644304597174652,-0.5054546448427737,0.24979964,-0.3536540725007417,-0.0092754709578427,0.1568298900560161,-13.208982122707228,12.034668919465975,5.455515492034596,0.0259590159687996,-0.0926650374555421,-0.2313671487467001,0.0416370760587696,0.0361615002483146,0.0071779254207902,55.64006223635131,12.03879280108839,-1.6498719966691198,-1.677348889440969e-05
68,1724913733106750608,0.0332138314843177,0.0729074925184249,0.1860700696706771,0.0074228774756193,-0.0477552600204944,-0.1140358969569206,0.9923003911972046,0.0,0.0,0.0,0.9618008836987276,0.3659786212219575,-0.6879600019763287,0.261155863,-0.0086317526232026,-0.0455881317463945,0.1177411209134977,18.29783662537387,6.064644644731742,-0.6772887838661426,0.0257376472066033,-0.0932171194030674,-0.2300381157659279,0.0443744713134552,0.0343538939811027,0.0046583842247009,1.255447157212405,-21.658209576733125,22.80317248133416,0.0001048068279535
70,1724913733118094236,0.0337648056447505,0.0732964500784874,0.186025008559227,0.0078164609149098,-0.0470800027251243,-0.1132179051637649,0.992423415184021,0.0,0.0,0.0,0.3079299816911494,-0.425993889563089,0.0111952765501667,0.272499491,0.0620083183649094,0.1281578722816423,0.1413859296826732,50.84669123213341,14.780027960029487,-2.055849575498474,0.0262887980681426,-0.0918055734446783,-0.2283900220075175,0.0634516671143043,0.0444559391808532,-0.0084269296797643,-68.94387051956734,-79.94941710997307,105.2987789739951,-9.920564247323317e-05
72,1724913733125523558,0.0343086123466491,0.073676198720932,0.1859407275915146,0.0103184441104531,-0.0464915409684181,-0.112705148756504,0.9924865961074828,0.0,0.0,0.0,-0.2592672357888324,-1.0692676623276325,1.0059531397791344,0.279928813,0.6568699060622765,0.2353525721229706,0.1059670351255186,9.363571857107049,-3.6754205788062686,-8.389601424088852,0.0310925607959585,-0.0900803552416283,-0.2275494216794234,0.0590547445402842,0.0348851799213765,-0.0026764964297987,-18.4630165003893,-1.507688923701643,57.138561907812466,-0.0001391467284223
74,1724913733137398496,0.0347414463758468,0.0737824067473411,0.1860734671354293,0.0068515092134475,-0.0469985716044902,-0.113239973783493,0.9924318790435792,0.0,0.0,0.0,0.6201438098864971,0.527675501538841,0.2275522843763744,0.291803751,-0.5739889667264182,-0.1519207874906855,-0.0624102041284929,8.153970953887587,16.405237432174033,-9.137956893502295,0.0243486068113352,-0.0918631806815302,-0.2283435653087633,0.0622883238820444,0.0263439776026803,0.0136714281976519,-3.2406039905262425,45.49630633358815,-112.24792800603262,9.077792742556447e-05
76,1724913733145380487,0.0353772640228271,0.0740860402584075,0.186195969581604,0.007341485004872,-0.0460781008005142,-0.1136451810598373,0.9924252033233644,0.0,0.0,0.0,0.1795603440794746,0.4134049002965934,-0.918956991560406,0.299785742,0.090963540606648,0.2420196626802376,-0.1083016389165289,50.33073722612229,20.49743950801736,7.780884685133733,0.0251490809623934,-0.0899105775709322,-0.229163333959099,0.0691045649119412,0.0372460327237211,0.0093224040083121,-9.48361473417502,-39.56709413175038,-98.57610542722892,6.151291002453852e-05
78,1724913733155788804,0.0359533131122589,0.0744629353284835,0.1862112283706665,0.0082055730745196,-0.0458538606762886,-0.112795203924179,0.9925258159637452,0.0,0.0,0.0,0.7012849868921118,-0.3411337817624338,-1.3333934651097237,0.310194059,0.1672673218225679,0.0637215660871566,0.1563194281507089,0.43219659783517,-15.10756845011082,12.9457064215884,0.0267423852485475,-0.0892897813550217,-0.2275130469337015,0.0618205106690372,0.0286223708108659,-0.005319779286907,49.90102983518125,4.204236018967407,29.00582852779605,-4.05474324776766e-05
80,1724913733166334015,0.0366744063794612,0.0746836885809898,0.1860826313495636,0.0086364764720201,-0.046306237578392,-0.111939825117588,0.9925979375839232,0.0,0.0,0.0,1.2251010410757646,0.5226355787284795,-0.2922155471598969,0.32073927,0.0981183425400073,-0.0739797409958651,0.1595177086923424,-10.61749058336662,1.262090174195545,-2.3566999042820127,0.0276277253731093,-0.0901153387099708,-0.2258459973944784,0.0841850907169101,0.0302323988217372,-0.0185966695793222,28.82646278538805,47.80420926933857,72.68253414132474,-0.0001972047885964
82,1724913733175532556,0.0375755950808525,0.0750363916158676,0.185860201716423,0.0084920534864068,-0.0460544899106025,-0.111412726342678,0.9926701784133912,0.0,0.0,0.0,1.32299013954114,0.6886964542170741,0.167319386445922,0.329937811,-0.0321247668932174,0.0525333331159928,0.1164961388919225,-13.673228298177277,8.418964955291857,-9.008618071293844,0.0272344807499053,-0.0896616784319172,-0.2247571479258975,0.0882670560810872,0.0380083617366748,-0.0135269386735226,0.3634803606911987,-17.97185566876516,-2.367582610245744,-0.0003078853697652
84,1724913733188314672,0.0385314784944057,0.0755162686109542,0.1858765333890915,0.0073030060157179,-0.0454943031072616,-0.1119469925761222,0.9926454424858092,0.0,0.0,0.0,1.1450747791014262,-0.1808868159973737,-0.7923278180674758,0.342719927,-0.198267517511156,0.0653928497596599,-0.0755903351147984,12.258146306341317,-21.606352950453424,15.906832740016544,0.0247846764788767,-0.088800988558943,-0.2257050946908291,0.120794324301015,0.0440289592127793,-0.0182056721181709,480.6218570132485,32.83609267944903,44.48641161191362,-7.370503930785031e-05
86,1724913733195498149,0.0395849533379077,0.0758587345480918,0.1856670975685119,0.0071740420535206,-0.0461409464478492,-0.1113698855042457,0.992681324481964,0.0,0.0,0.0,6.594108967986536,0.4621993583283152,0.0099269297312585,0.349903404,-0.0082502315946398,-0.1811038442358707,0.1635612258726905,22.74298953409554,-25.321546979971423,25.48400665782582,0.0246229215705363,-0.0901305471084385,-0.2245580061926767,0.1233693576749424,0.0400977781893444,-0.0256183062307693,26.144454753473724,-250.47346985067225,-1351.037717090308,-0.0003080691407624
88,1724913733223089632,0.0405213981866836,0.0761621668934822,0.1853350847959518,0.010359238833189,-0.0454885400831699,-0.1106806769967079,0.9927604794502258,0.0,0.0,0.0,-70.3034550869296,-42.480849520642195,-192.28304462956612,0.377494887,0.2261900752204572,0.0732808244354851,0.0392390296039207,-1356.1246154537446,-582.4562525614089,-1978.4327869199851,0.0307621346032616,-0.0881393895097927,-0.2234152778652201,0.9661510439474696,0.1598302277120495,0.0850663029827387,-38289.84118164868,-4725.464813323502,4869.420802512381,-0.0004204789091065
90,1724913733224030305,0.0414601266384124,0.0763172879815101,0.1854182183742523,0.009863399900496,-0.0456528924405574,-0.1115866303443908,0.9926565289497375,0.0,0.0,0.0,-107.46025965256442,-47.02759976606138,-187.32284165484492,0.37843556,-1.093243483074147,-0.493595239746589,-1.8851236021142657,-220.64104083389117,281.43962418017213,-404.6239759982365,0.0298919911745531,-0.0885497114890854,-0.2252088057134312,0.8967842471986547,0.1183681002659291,-0.1021043817157121,-34531.48574395924,-2543.039160951361,14641.10689457156,-5.834541049850469e-06
92,1724913733225540026,0.0425689369440078,0.0763832330703735,0.1848025321960449,0.0110642714425921,-0.0442312657833099,-0.1104120761156082,0.9928395748138428,0.0,0.0,0.0,-147.55385335681962,-45.317057371543605,-142.51995240980256,0.379945281,1.4376627094887366,2.073402785168461,1.4804179890253346,1438.5599374283674,1456.0590804625454,1918.7862979153144,0.0318591453148,-0.0854899401160757,-0.2228693753172272,0.6528488463066453,0.0402204361012689,-0.3566756382822649,-21550.224571515617,1548.5481543093244,27846.69372875258,-0.0007140260087637
94,1724913733235628187,0.0436544008553028,0.0765557512640953,0.1846516281366348,0.0108330119401216,-0.0426918901503086,-0.1108690574765205,0.9928585290908812,0.0,0.0,0.0,-27.449922982398135,-1.6840332066847363,15.069338125361304,0.390033442,-0.0832642986099461,0.2971010103828937,-0.0908826828445494,-36.02005299610745,-92.7079695404412,-66.62110803701218,0.0310883551732313,-0.0824653591941124,-0.2236943250163014,0.1095733972093198,0.0175775757910203,-0.0349297225112277,7191.909429938103,2170.482018762327,6936.102459903719,-0.0002470230439508
96,1724913733245419224,0.0447460114955902,0.0767323821783065,0.1841198503971099,0.0140907261520624,-0.0421695336699485,-0.1102172285318374,0.992912530899048,0.0,0.0,0.0,-1.82470812110164,-0.9080517210930348,0.4493056618768023,0.399824479,0.6544309816196727,0.1816298929234988,0.1038550636759712,2.047632456550023,-20.798689905032855,13.73453843478346,0.0374078428003622,-0.0807228741742507,-0.2226135819391121,0.0917076055746306,0.006415055975967,-0.0472588367758035,1539.1593340245283,88.1626715407083,-722.8258616112838,-0.0006277793707674
98,1724913733257391037,0.0455543249845504,0.0766390115022659,0.1836573332548141,0.0115726059302687,-0.0431083291769027,-0.1092739924788475,0.9930090308189392,0.0,0.0,0.0,0.8209495681461085,0.2778193113057206,3.0728344553282536,0.411796292,-0.3939897178554724,-0.1991881793045375,0.1781857294651306,-44.708897680536865,1.0622751490987703,-14.112119536536865,0.0325228042423976,-0.08318063886601,-0.2205581534506945,0.0698625514953661,-0.0010595340961807,-0.0168698258623116,120.72927002091406,69.46924049694869,41.45992280446958,-0.0005306551797992
100,1724913733269312332,0.0464150086045265,0.0767063871026039,0.1837145835161209,0.0092897815629839,-0.0416141524910926,-0.1107357963919639,0.9929348826408386,0.0,0.0,0.0,1.0699979932089612,0.754767290758895,1.4578264991600065,0.423717587,-0.4181253296806632,0.2036967167080567,-0.2312785193494913,1.3789534164398205,21.9133061522443,-41.357188514945776,0.0277584750035249,-0.0806703324761739,-0.2232499205156165,0.1110558996685862,0.012962063620951,0.0261068435243743,-89.4325698397574,61.196791584267594,-105.97488009049977,-1.6477844315485594e-05
102,1724913733275926312,0.0472921207547187,0.0768189430236816,0.1839654296636581,0.008172458037734,-0.040450919419527,-0.1125227436423301,0.9927917718887328,0.0,0.0,0.0,0.0736644871561864,1.237272849436601,0.865151236675737,0.430331567,-0.3965158260923199,0.3050300124043863,-0.5305366665803264,9.143891486757097,3.901146611941229,-14.335100153398884,0.0254114974226188,-0.0785602888669783,-0.226714944743843,0.1093795489132687,0.0164077189716045,0.0278697852213838,-77.47465908168755,33.86156157624819,-66.79123435134673,0.0001771282538715
104,1724913733289166484,0.0481244772672653,0.0770200118422508,0.1840678751468658,0.0073995320126414,-0.0400121919810771,-0.1119014173746109,0.9928858876228333,0.0,0.0,0.0,0.9871329734037388,0.6495118887709479,0.5856164428403847,0.443571739,-0.1196898878919449,0.0539990061829699,0.0989591152816421,20.222310109190573,79.14409155427002,-42.10419510382392,0.0237227442613034,-0.0778777420671117,-0.2253834943385703,0.1190251307353813,0.051775000762479,0.0551903955973038,-173.33719703988615,-250.4058656903503,-216.19576130360335,3.343895042988444e-05
106,1724913733295683545,0.0490803197026252,0.0774748027324676,0.1845797747373581,0.0078144064173102,-0.0371428094804286,-0.1133762225508689,0.9928269386291504,0.0,0.0,0.0,-0.9198650916575044,-1.6432529555643969,-1.44913604018342,0.4500888,0.0099004688886142,0.8844854692734172,-0.4630129576639848,13.575807867774694,61.458566137998915,-34.905980543423475,0.0240034928994667,-0.0720431315883285,-0.2282707126567114,0.1262879562452326,0.0495226659381065,0.0542662271397045,-211.17825011703417,-203.9079626839085,-218.6296071786205,0.0004350084315873
108,1724913733305839420,0.0500403456389904,0.0776570737361908,0.1847466081380844,0.0083244191482663,-0.0348282195627689,-0.1133747547864914,0.9929067492485046,0.0,0.0,0.0,-1.7756920794815798,-1.373361578506618,-2.188319832006977,0.460244675,0.0479261040520959,0.4645166269488737,-0.0052234966360091,-14.2338285674255,-33.99849087112387,18.075299887650672,0.0244859400718228,-0.0673256406764499,-0.2282091860738474,0.0847502546392129,0.0122968767921904,0.0188586423793566,31.29731962280073,112.1947088767146,8.872350291707122,9.662215668771544e-05
110,1724913733317162399,0.0508765205740928,0.0777249783277511,0.1849908381700515,0.0065505490638315,-0.0336340479552745,-0.1142284125089645,0.9928634762763976,0.0,0.0,0.0,0.0376217217151886,0.9778988014867268,-1.057013604161981,0.471567654,-0.3402015756684051,0.1723884920622985,-0.1414236703984664,-35.75152106587349,4.715552308722721,-22.97690862748063,0.0207372612115449,-0.065337996555239,-0.2297694630609718,0.0938606442510567,0.0256820496734766,0.0104677504355272,1334.7816427610169,399.4252814158739,-176.8486793441956,0.0001861971684311
112,1724913733325662937,0.0518021024763584,0.0780689120292663,0.1850089728832245,0.004048547707498,-0.0315868146717548,-0.1160255670547485,0.9927356243133544,0.0,0.0,0.0,18.880091563455068,5.597044212570844,-4.326511503008022,0.480068192,-0.6535130021014263,0.4072097515501345,-0.4066075594211403,-17.891622280636696,14.64436222021131,-16.759752238448627,0.0153980474960983,-0.0618146008197634,-0.2331695915878271,0.0892859165475977,0.0326914201166512,-0.0005337999538141,435.3154371256617,83.45678518673009,-30.161192595727215,-4.106291109665703e-05
114,1724913733345110114,0.0526664853096008,0.0783590301871299,0.1848799288272857,0.0026837734039872,-0.0302999019622802,-0.1169404685497284,0.9926730394363404,0.0,0.0,0.0,-51.90531771302494,-13.242788191749696,10.857077246210451,0.499515369,-0.1576393625886013,0.1145188836764216,-0.0902565968474095,4123.556096777896,5491.196021228276,-3110.1026733186623,0.0124371642286738,-0.0595633215508344,-0.2348968556726099,1.3203774039705394,0.353867188720983,-0.2195803075571802,-11888.4053518843,-3121.716861307763,2003.201616229886,-0.0001808353133299
116,1724913733345801603,0.0536108836531639,0.0786120593547821,0.1847228556871414,0.0038307846989482,-0.0290217064321041,-0.1177027001976966,0.99261736869812,0.0,0.0,0.0,-60.328829653626414,-15.454356607803312,12.272325871292043,0.500206858,2.7945152205759856,4.047005245965459,-2.3177279346775688,3969.06514152169,5287.884035434595,-2996.45050235445,0.0144606506210662,-0.0567435582214491,-0.2364644037602854,1.2816527318138529,0.343978270262504,-0.2115288647792712,-11432.685244217768,-3002.967660338912,1910.955932293166,-0.0002122626268661
118,1724913733355676122,0.0544086843729019,0.0789147987961769,0.1848371177911758,0.0021624884102493,-0.0288872253149747,-0.1187566518783569,0.9925007820129396,0.0,0.0,0.0,-67.60324705685096,-17.567865483408795,12.00543865160578,0.510081377,-0.3447154277973287,-0.014237795645133,-0.2049703230543666,-152.77769770672518,-218.08145563573115,130.8198676981983,0.0111719289643136,-0.0568581984282195,-0.2384932932595631,0.0757935920816712,0.0287269448400881,-0.0016939616955875,2081.9292840370717,528.2720236058126,-407.2401378336834,6.869133518261374e-05
120,1724913733367739071,0.0552492924034595,0.0792328640818595,0.184621199965477,0.0037530802655965,-0.0278548598289489,-0.1178254932165145,0.992636501789093,0.0,0.0,0.0,-0.9528369132376948,-0.2563988659594824,1.4899663245116122,0.522144326,0.2458218946769921,0.2021812581678943,0.1479096135709638,15.560356558260189,6.940962399207061,-1.6236987791253883,0.0140361702913538,-0.0544419738713476,-0.2366756455506835,0.0636535182996724,0.0283898811536271,0.0068935429736018,2427.189114868073,603.5554563738931,-385.9154335500336,-0.000263087418138
122,1724913733377382845,0.055816650390625,0.0795222446322441,0.1848788261413574,0.0045345379039645,-0.0270493794232606,-0.1183098927140235,0.9925979375839232,0.0,0.0,0.0,-1.4306080067768336,-0.8468051548085446,1.5136925362590108,0.5317881,0.138420727159839,0.184312219076564,-0.1058023331455685,0.2683707094302896,-12.603515704736976,-2.078250777271787,0.0154243481614686,-0.0526496757480024,-0.2376711319652752,0.0548774827955353,0.0241558825445098,0.0272612114148209,-57.14869662599682,-37.26854560351771,-59.79768567288717,0.0002254108336288
124,1724913733386014011,0.0562597624957561,0.0796855390071868,0.1851183474063873,0.0055035641416907,-0.0271996520459651,-0.1180115342140197,0.9926244616508484,0.0,0.0,0.0,-1.982629343187257,-0.9834424034524633,0.516633417913696,0.540419266,0.2288409980263789,-0.007517994132429,0.0634347548882471,1.9591024148969067,-11.545457193378793,3.714053936693267,0.0173707001608564,-0.0527235350078346,-0.2371240007783787,0.038508192766657,0.0136970253958148,0.0357042735491965,-21.157459549669625,5.932324250511165,-131.1802040638822,0.0002139137210127
126,1724913733395801358,0.0564942583441734,0.0797616392374038,0.1855560690164566,0.0062582064419984,-0.0272958781570196,-0.1183632388710975,0.9925754070281982,0.0,0.0,0.0,-1.7147009413686738,-0.6838460612340177,-0.9410929643258512,0.550206613,0.1534912227073637,-0.0019882392739543,-0.0766083145073745,-10.735822666088891,-4.015168904251304,-4.413166436250859,0.0189125525970343,-0.0527293828680829,-0.2378750358846472,0.0181479780339905,0.0066056368058027,0.0356380205668074,30.997864025117565,14.742205372389767,-90.3785834576065,0.0004235274691068
128,1724913733406281881,0.0566192418336868,0.0798177421092987,0.1858276128768921,0.0062365108169615,-0.0277963429689407,-0.1184267848730087,0.9925541281700134,0.0,0.0,0.0,-1.3491682091792616,-0.7074274810826524,-1.2310864118095386,0.560687136,0.0068891057803317,-0.0954714832386573,-0.0118063993636098,-6.250797085618792,-6.937082774973134,6.008292545798846,0.0189923577380075,-0.0537274549749794,-0.2380179409009465,0.004279595301933,-0.0001046543359599,0.0152891531221914,-7.192481358447367,-23.27191771902547,94.90543700620265,0.000263696877674
130,1724913733416187361,0.0565900541841983,0.079765610396862,0.1858796328306198,0.0062303273007273,-0.0285238418728113,-0.1182023659348487,0.9925602674484252,0.0,0.0,0.0,-1.8142703376180789,-1.134753727840207,0.856544963397378,0.570592616,0.0174080649734832,-0.1456252687601344,0.0460722615027819,-2.896578737785251,-9.823708929836029,-9.226915632435167,0.0191414210401989,-0.0551783809625591,-0.2375885166197589,-0.0093271819838256,-0.0077408561499434,0.009746367582732,-55.24596783327942,-36.380809195401135,163.259745630919,5.392018658714948e-05
132,1724913733426342883,0.0564288981258869,0.0796611979603767,0.1860254108905792,0.0058146612718701,-0.0299719478935003,-0.1192500740289688,0.992394745349884,0.0,0.0,0.0,-2.4616566864449703,-1.4338399452671344,2.020016177364322,0.580748138,-0.0532237397856887,-0.2949556108973311,-0.2045389618014148,-9.98185387030708,-6.8321873606604715,-21.7522235913446,0.0187219113944253,-0.058133948576824,-0.2397254616280936,-0.0323396079768749,-0.0230532016846733,0.0331894167355599,17.844466892975717,18.63283841270224,-71.34324930374547,0.0001557752742975
134,1724913733436030909,0.0559633672237396,0.0793198198080062,0.1865210235118866,0.0048492136411368,-0.0312445014715194,-0.1211500018835067,0.9921305775642396,0.0,0.0,0.0,-1.5347044829238077,-0.8089349523074791,-0.3893360072007394,0.590436164,-0.1779024002889291,-0.2883911016465058,-0.3882410376051315,5.798042160686782,4.492613092410675,-7.895982237528781,0.0172253902257821,-0.0608598491552209,-0.243543139498049,-0.0579964589875166,-0.0362608747854169,0.0500940897380122,79.22370853457392,-19.256858979303672,-285.57220602249186,0.000524730637042
136,1724913733445501096,0.0553220734000206,0.0789669454097747,0.186985582113266,0.0050158007070422,-0.0322537645697593,-0.1228411644697189,0.991889476776123,0.0,0.0,0.0,-0.9367828822335847,-1.7666849732244922,-3.435150508086266,0.599906351,0.0498148485307232,-0.2105286072670684,-0.3605787872595367,19.278113040361987,0.6209725366192878,20.08236749060292,0.017910674851963,-0.062793303246971,-0.2469989924911042,-0.0622215201149847,-0.0387897585051635,0.0266498219744688,-32.192392950559906,-89.2896227867446,-121.26389259451494,0.0005061066292321
138,1724913733457714853,0.05464868247509,0.0784691050648689,0.1869581490755081,0.0060162781737744,-0.0343706272542476,-0.1218701750040054,0.9919325709342957,0.0,0.0,0.0,-2.831620385539768,-2.670685347023106,-1.760176073953684,0.612120108,0.2101733090164058,-0.3226744669972084,0.1550311777700652,48.27118088568842,-49.11912068915352,39.415741739835106,0.0203597639538994,-0.0667698809444631,-0.2451774014691814,-0.0813917886109809,-0.0839903188092181,-0.0304214721205333,-28.149149606292895,118.48035206006745,280.2968100869713,2.1308832356891548e-05
140,1724913733466129395,0.0538115873932838,0.0775117576122284,0.1865388303995132,0.008874506689608,-0.0388402007520198,-0.1198106929659843,0.9919970631599426,0.0,0.0,0.0,-2.332304664710651,-0.5578107399259995,1.4282988543694095,0.62053465,0.8200744260808107,-0.9675097387631538,0.4704660294401857,-10.516784209158416,-38.42053181265681,10.191480104324937,0.026993068008764,-0.0750025083435694,-0.2414030073017995,-0.1125348617461226,-0.1004912758015734,-0.0283482862074002,158.47795734280902,186.2306805178064,225.74423268711067,-0.0003437558977417
142,1724913733476214974,0.0525188185274601,0.0766588002443313,0.1865126341581344,0.006839876063168,-0.0431433320045471,-0.1186888292431831,0.9919701814651488,0.0,0.0,0.0,0.4644677066862579,0.5362872093488935,1.8533474259005376,0.630620229,-0.289318936426869,-0.8930676510474862,0.2432936042396919,0.3402500584768901,22.63923499530783,-16.3162332104646,0.0238978366577777,-0.0840691571895983,-0.2391721370927557,-0.1195108521383039,-0.0891546569569197,0.0003445045721797,172.8824535823921,4.26400484964525,-57.4439569571928,8.949490099412174e-05
144,1724913733485455210,0.0514879003167152,0.0757961943745613,0.1865407228469848,0.0094761596992611,-0.0460450835525989,-0.1179113388061523,0.9919108152389526,0.0,0.0,0.0,1.177935156371733,-0.3065906762835881,0.4794636272560101,0.639860465,0.6479206454394526,-0.5547037781164705,0.1450852083885516,7.993760530129455,26.52567378195748,-23.090359829409124,0.0297803435084279,-0.0892288959579507,-0.2379650398156249,-0.1054314092265147,-0.0891750237417445,0.0090753642824452,4.922213672495408,-58.02843289521349,-102.32959665804928,0.0001312873424038
146,1724913733495630119,0.0504839047789573,0.0749356597661972,0.1867006868124008,0.0076884017325937,-0.0478511750698089,-0.1191624924540519,0.9916912913322448,0.0,0.0,0.0,0.418061774012175,-0.5251621202620438,-0.0423597410021113,0.650035374,-0.3176179804700447,-0.3978891158525389,-0.2294831169539854,-41.20909468427239,-5.4263759946663725,-8.324003217861913,0.0267725736163513,-0.0932097589982181,-0.240423776701873,-0.0973201348317518,-0.0957049412212995,0.0087393451976449,-68.69796251748517,17.53025399096187,-37.41481914854405,0.0002596472348896
148,1724913733505931039,0.0494955331087112,0.0738337337970733,0.1867178976535797,0.0063500367105007,-0.0511660315096378,-0.1193258240818977,0.991515576839447,0.0,0.0,0.0,-0.2271953576908707,0.0622484865121606,-0.2831184966734801,0.660336294,-0.1822561534782433,-0.671097548445871,-0.0181313597001265,34.54445477613467,13.113343790208,-1.4259478356113018,0.0249305847234788,-0.1001155490507205,-0.2407908671309453,-0.0969673866165599,-0.0998985846304747,0.0082056461599258,-28.11669705938079,11.00610655315656,-67.47289355354583,0.0001193214864904
150,1724913733515836583,0.0485253259539604,0.0729115754365921,0.1868614256381988,0.0081009892746806,-0.0521769821643829,-0.1204233095049858,0.9913173913955688,0.0,0.0,0.0,-0.1768532783784451,-0.2670764061771935,-1.3715451469964122,0.670241838,0.363803093051721,-0.1636556052527356,-0.2412774611991955,20.340304535332848,9.363267873705835,-4.258493567930623,0.0287805319606808,-0.1016718799128783,-0.2432359382865786,-0.1017081831760355,-0.0948111455063536,0.0031979182779675,72.48079858266865,8.318230956633561,-39.00466585549407,0.0002482091377718
152,1724913733525286902,0.0475302301347255,0.0720001086592674,0.1867898404598236,0.0090076047927141,-0.0544304214417934,-0.1209276467561721,0.9911269545555116,0.0,0.0,0.0,1.1157800251086516,0.1862819544813705,-1.1011336513864791,0.679692157,0.2423914530141979,-0.4526234416617112,-0.1168089028651689,-17.92773185524113,-32.10399773711363,9.02384726303378,0.0311995103953975,-0.1059142892706099,-0.2444742332036407,-0.1006589473154027,-0.1043736486691702,-0.017571463863474,-100.5721950544133,-205.3919216690572,22.22878909934496,4.265999548302056e-05
154,1724913733535602085,0.0465441420674324,0.0708342418074607,0.1864960342645645,0.0085290791466832,-0.0585212633013725,-0.1213237196207046,0.9908497333526612,0.0,0.0,0.0,-2.5940578628859288,-4.785056653636856,-0.9437320500521202,0.69000734,0.0002626999832197,-0.8009683490591307,-0.0704179771455407,-10.443369411335189,-7.419566309631252,0.1191399794428447,0.0313109608256184,-0.1141497338526922,-0.245464477556597,-0.077836754634738,-0.0889618771340325,-0.0165829070759415,-116.58432541619284,-178.5458669568834,-8.799796928522206,-0.0001722018797952
156,1724913733553714762,0.0456991270184516,0.0699881985783577,0.1865741461515426,0.0105557041242718,-0.0596257969737052,-0.1230732500553131,0.9905484914779664,0.0,0.0,0.0,3.024811652159528,1.6304146568679414,-1.8683043977846872,0.708120017,0.2255074207746648,-0.0972909915817895,-0.2075065489416923,439.1464341023785,-316.5928029725906,-352.4664477278525,0.0358361165397235,-0.11578476744308,-0.2493053377691948,-0.2776917157518372,-0.3753369551726493,-0.0667393177985644,1497.6609130139975,2094.3755411660054,392.5428781985309,0.0001848268387894
158,1724913733556204174,0.0449287891387939,0.0689413920044899,0.1863836944103241,0.0122965928167104,-0.0610757730901241,-0.1244604960083961,0.9902666807174684,0.0,0.0,0.0,7.159385195790218,7.439572339768064,-0.7393316180005693,0.710609429,1.4647209917298658,-1.0070340903423602,-1.2029460042671478,379.296396630953,-294.26562312451074,-305.4924529227754,0.0398452331247169,-0.118176604110059,-0.2524139030392489,-0.265351559257527,-0.3653107628998373,-0.0710820826915488,1346.4559773820051,1946.408664475821,438.77439122530734,-8.385420511384057e-05
160,1724913733567094235,0.044139701873064,0.0675924718379974,0.1858679354190826,0.0114828590303659,-0.0654642805457115,-0.1247127279639244,0.9899643063545228,0.0,0.0,0.0,6.844270921868437,10.19318940358177,3.3369653787841473,0.72149949,-0.0498261172631891,-0.8206822282533867,-0.0337459000861987,-62.777824114630775,5.615670895539651,50.35777425275672,0.0393915104791007,-0.127092351071466,-0.253140567371791,-0.082468399479449,-0.1217468344632637,-0.0312483736264237,-464.38203512527696,-507.9730256291445,113.26873175703136,-0.0003980228251593
162,1724913733575223750,0.0434085316956043,0.0666155964136123,0.1857116818428039,0.0106557346880435,-0.0688154697418212,-0.1246578246355056,0.9897531867027284,0.0,0.0,0.0,0.4264585216263272,1.4463370777222964,2.6735707566522486,0.729629005,-0.0971445812330665,-0.8447984830630488,0.0296823022892689,18.383742598986284,17.052729357867513,6.821852358753331,0.0386052668956823,-0.1339643575499464,-0.2531674513918986,-0.0872076534292869,-0.1127530740866333,-0.006067551835569,-435.9972606755907,-688.4865916796925,-151.20688064666356,-4.9349956320632e-05
164,1724913733585785890,0.0425249300897121,0.0655263811349868,0.1858280897140503,0.0126101551577448,-0.0711409896612167,-0.1240617558360099,0.9896407127380372,0.0,0.0,0.0,0.6716601592148286,-0.5086827478372618,0.1213532017121889,0.740191145,0.4291754113285912,-0.389967439272153,0.0882824871864447,18.98705058643402,33.08737103627019,-1.2056477065670306,0.043033768485883,-0.1381178801910092,-0.2523967544950117,-0.0688512816152226,-0.0928105680645803,0.0163542202346382,-19.3060068337235,-134.38362022413776,-207.13659603874572,0.0002503346651727
166,1724913733597841055,0.041898638010025,0.064549446105957,0.1860986202955246,0.0139163276180624,-0.0720797628164291,-0.1240855455398559,0.9895522594451904,0.0,0.0,0.0,-0.1461356412567802,-1.4309227604433588,-1.900995466840142,0.75224631,0.2336807961112992,-0.1283424544119757,-0.0191787099786841,-36.74838435852001,-37.589077601500335,15.434787803989629,0.0458927279507739,-0.1396532552878168,-0.2526993973902487,-0.0754255142995723,-0.1319208966311684,-0.0097218316135663,-1675.8790233529298,-2585.593546545653,-629.009205534938,0.0003685514739722
168,1724913733605454967,0.041211474686861,0.0633003264665603,0.1858699321746826,0.0129809565842151,-0.0746582299470901,-0.1233502924442291,0.9894657135009766,0.0,0.0,0.0,-20.638983554391547,-33.18328763482617,-8.908311467317267,0.759860222,-0.1448524093638068,-0.6996666597246117,0.2154310102210984,-32.55111506870522,-47.91800764941644,19.823667883130625,0.0445895145233118,-0.1450491946626552,-0.2512874465682486,-0.0746184309865079,-0.134095628065927,-0.0229356083099223,-528.6765936085462,-777.4590174161021,-135.69019111524483,-0.0001132558564029
170,1724913733626976958,0.0405565537512302,0.0622370690107345,0.1858082413673401,0.0150113869458436,-0.0757824778556823,-0.1234835609793663,0.9893349409103394,0.0,0.0,0.0,99.55930366463964,156.48994371147273,35.90535063644256,0.781382213,0.1988166889548405,-0.0811675632931802,-0.0264836099080448,6628.697894185439,-32871.969822673236,18289.880557478544,0.0489641271051978,-0.1467675330400332,-0.2519455022828501,-1.7808418376509678,-2.84961153611286,-0.6510230743670036,16591.821768769354,26465.44668511505,6061.595772252927,5.1359786976844166e-05
172,1724913733627327382,0.0399225167930126,0.0612225197255611,0.1855764091014862,0.0151138193905353,-0.0778980702161789,-0.1223557218909263,0.9893091917037964,0.0,0.0,0.0,105.43627784387633,165.86479012916223,38.052184166951626,0.781732637,2.559401450349971,-11.788014688706046,6.487149312110397,6479.8492114141245,-32137.93506663163,17881.350695391116,0.0495509460889363,-0.1510052603891958,-0.2498552716826187,-1.7449334841010458,-2.793160922072114,-0.6380696033615921,16103.0042785606,25698.051002652697,5884.690438129071,-0.0001178436420729
174,1724913733636532200,0.0394340604543685,0.0601850971579551,0.1853867918252945,0.0155099797993898,-0.0807745680212974,-0.1211705654859542,0.9892181754112244,0.0,0.0,0.0,92.13831300731162,147.3679207503706,33.779774818723915,0.790937455,0.1819868899072256,-0.6054331502056464,0.2550760911996421,-121.71534451885124,624.1596817977995,-351.9518190299338,0.0509058507354408,-0.1566890058494549,-0.2477653849192362,-0.0574786547499228,-0.112474095214484,-0.0249699956766615,-5605.616881821319,-8714.174676575181,-1983.462050803243,-9.563055605271547e-05
176,1724913733645972647,0.0388487055897712,0.0591255202889442,0.1851087510585785,0.0168905165046453,-0.083001971244812,-0.1206924691796302,0.9890697002410888,0.0,0.0,0.0,-1.0679095462856796,0.1866106134920455,0.3448562065663567,0.800377902,0.3551672030625203,-0.4323280652063652,0.0800778731100274,-13.923048611114265,3.2293474594489275,-18.69717631379373,0.0541722594032084,-0.1608044736912401,-0.2472179471026269,-0.0705117354629316,-0.1141092050821481,-0.0239045520351304,-4962.6673536692315,-7922.1632701486,-1798.6745409918326,-0.0001613821370732
178,1724913733655757196,0.0380725115537643,0.0579900369048118,0.1849311143159866,0.0160817839205265,-0.0856094434857368,-0.1212873384356498,0.9887880682945251,0.0,0.0,0.0,0.1720022440133353,0.4379247633895877,0.4216596398343021,0.810162451,-0.1082950360442616,-0.5539352658807246,-0.1044892432246111,-38.7410568892416,-3.388730037302686,-2.3461294212235657,0.0533290692766442,-0.1661617170984836,-0.2485477465226862,-0.0777901245072005,-0.1086343690974347,-0.0181775655838247,98.60787944825402,-16.589096989571196,-17.151392316441832,-2.79725866711716e-05
180,1724913733665446997,0.0373335033655166,0.0570085383951664,0.1847547590732574,0.0138542847707867,-0.087771289050579,-0.1213421747088432,0.988625466823578,0.0,0.0,0.0,0.8577164176076297,-0.1284793194378783,0.015558613335647,0.819852252,-0.4009163176499228,-0.5000260851146994,0.0312737781791891,6.3599677554903655,14.944257437673924,-6.279740856666588,0.0494350958885986,-0.1710160298740572,-0.2484931593309556,-0.0673348165524769,-0.1055579711491692,-0.0156621438390516,-12.932933313123163,-40.35277608213326,-62.19348198151165,-3.68538559929031e-05
182,1724913733675968498,0.0367270819842815,0.0558491721749305,0.1846189647912979,0.0142621183767914,-0.0890305414795875,-0.122707113623619,0.988338589668274,0.0,0.0,0.0,-0.2345900136353242,-0.3462562489910183,-0.8705388632600859,0.830373753,0.0836700290471228,-0.2356187456419962,-0.2666109539450957,25.777646276218913,-0.1233407979703216,5.386664032102081,0.0508242577250326,-0.1733514317681563,-0.2514629383945495,-0.0608384410906563,-0.1120047621197248,-0.0182864564944154,-68.15703546200861,30.009190918416284,-74.4960715198056,-1.7389927412185776e-05
184,1724913733685545960,0.0361164882779121,0.0547606311738491,0.1843969225883484,0.0146877011284232,-0.0912887826561927,-0.1222996264696121,0.9881768226623536,0.0,0.0,0.0,-0.5764768549780701,0.3832297541130121,-1.4992670548560292,0.839951215,0.1537584916206935,-0.4569635343182203,0.0787688339322118,11.9970936634732,-7.945808139908964,29.301299774535632,0.0522032078430822,-0.1777610174413468,-0.2509266314273875,-0.0705133069401997,-0.1129979063263202,-0.0320389692557974,45.61986559633631,100.54737103138812,14.298227687722765,-9.859723237480754e-05
186,1724913733695590232,0.0353370234370231,0.0536325871944427,0.1839818358421325,0.0159233678132295,-0.0933804810047149,-0.1206805035471916,0.9881613850593568,0.0,0.0,0.0,0.7383200894192647,1.6499742915540483,-0.5135257676647411,0.849995487,0.3235487068909405,-0.3770256999069749,0.3018658723432221,5.607878610974636,-3.9337187617636142,20.325454445123984,0.0549397719596467,-0.1817049236580703,-0.2480555261382776,-0.0717351442760643,-0.1040194474332021,-0.0477652548770528,-1388.1223924859607,-1927.2528139788276,-815.4373536000061,-0.0002507163872651
188,1724913733705851643,0.0346624329686164,0.0526520833373069,0.1834241896867752,0.0166842639446258,-0.0963306874036789,-0.1181103289127349,0.9881761074066162,0.0,0.0,0.0,-29.430058727472897,-39.65232672509185,-18.45831432498824,0.860256898,0.2626715338004095,-0.5420607550384515,0.4906632044620489,-7.478878182573134,-6.793037164781549,7.860244759952492,0.0567543439710642,-0.1875395969882978,-0.2432573761981104,-0.0551437124438175,-0.0791621507816245,-0.0420045868756355,3434.9985170143777,4792.860886407392,2430.408164121235,-0.0004058772911351
190,1724913733730956347,0.0339289121329784,0.0516714230179786,0.1831275522708892,0.0161757171154022,-0.0980708301067352,-0.1176589429378509,0.9880672097206116,0.0,0.0,0.0,448.34992988055,622.2564354389506,299.2371811796975,0.885361602,-0.0200524810124716,-0.1420125265853731,0.0407261172951614,-20866.72541393133,-78374.23083601834,31803.906956463343,0.0560938308247178,-0.1911567556978618,-0.242422710314686,-2.700850021959596,-3.6588123430372264,-1.6735674502515394,47632.40800605365,64553.78373266314,28903.088746690308,-0.000137111168347
192,1724913733731278071,0.0330489687621593,0.0504793711006641,0.1825822740793228,0.0144414855167269,-0.1020494624972343,-0.1161784753203392,0.9878664016723632,0.0,0.0,0.0,463.79233987518535,643.1823849436454,308.60298988354185,0.885683326,-6.819365623513564,-25.680085090940803,10.404007222095112,-19493.379664730182,-73244.7523725487,29709.54339929436,0.0533278500266559,-0.1995893922049058,-0.2394762659756906,-2.5543220402648665,-3.455464067643456,-1.5757939626251811,43653.15740051944,59041.54477917767,26251.5270846127,-0.0003475780932703
194,1724913733735428390,0.0321259386837482,0.0495090149343013,0.1824172139167785,0.0144317774102091,-0.1046320274472236,-0.1167207807302475,0.987532377243042,0.0,0.0,0.0,412.2932250973321,566.8956661036999,264.44175847087604,0.889833645,0.1156200183265464,-1.2501572657140794,-0.2584114432835473,1203.7146866362664,4247.4065088215575,-1828.7709820762088,0.0540842842487164,-0.2047128896210956,-0.2408537729412061,-0.1825837933707702,-0.1904587629853751,-0.0434546559757205,-19902.675361449303,-28321.60974373244,-14762.942664023658,3.64385166901797e-05
196,1724913733745934199,0.0312665998935699,0.0486607663333416,0.1818627119064331,0.0159269422292709,-0.1059498563408851,-0.1154321059584617,0.9875203371047974,0.0,0.0,0.0,3.901478291248792,4.995517922153048,-0.2871117979453634,0.900339454,0.3360716152677943,-0.2112248208149489,0.2158385353113883,14.963791807852342,44.4467222170685,30.52401390116801,0.0571679265192621,-0.2070546073701631,-0.2386669005066078,-0.0839117392467607,-0.0798304070907187,-0.051447450268748,-19618.215321809213,-26892.83660530098,-12499.910766997764,-0.0003528561524961
198,1724913733756355323,0.0303702801465988,0.0478382557630538,0.1813403517007827,0.0177400037646293,-0.1078389436006546,-0.1132501065731048,0.9875375628471376,0.0,0.0,0.0,-1.5038824708965048,-0.3746369886641236,0.7148999103687133,0.910760578,0.4297817831041502,-0.3108395856815572,0.3828283679858623,-23.637050777199057,-15.42447281989432,7.30262090386767,0.0608434102710837,-0.210523530688325,-0.2347911816121086,-0.100011612865001,-0.0849842617679872,-0.0495429301487106,-152.8430787770079,-185.010238084824,79.63091121186129,-0.000306644724293
200,1724913733765858720,0.0292984843254089,0.046978123486042,0.1808745712041854,0.0169091261923313,-0.1102134212851524,-0.1115648299455642,0.9874818921089172,0.0,0.0,0.0,0.2142205697353869,0.7297143015331744,1.3284844137250686,0.920263975,-0.0776326426544564,-0.5082581605457376,0.376642890782808,-23.066269478103703,-15.873435192696984,-13.995292119416952,0.0593955087345309,-0.2155600884433675,-0.2314325758067918,-0.1139478949210297,-0.0875052880117537,-0.0381371308971054,169.7923057390532,96.26389872520204,12.610409470135592,-0.0002092877650098
202,1724913733775345914,0.0282063800841569,0.0461763814091682,0.1806157529354095,0.0164802223443985,-0.1130862906575203,-0.1110679879784584,0.987220287322998,0.0,0.0,0.0,1.7209297949395117,1.4541170313400305,0.9560612362238968,0.929751169,-0.0092422351508852,-0.6124441564969637,0.1174815701117153,4.958271465981824,0.4416444699162394,-19.273604421931356,0.0591371977329615,-0.2214262869521687,-0.2306454021963559,-0.095997855109256,-0.0711587720997761,-0.0243183802444231,-901.8943057601896,-518.0382717240184,-320.96449000331614,1.735417363615886e-06
204,1724913733792902591,0.0271420404314994,0.0453607775270938,0.1802850514650344,0.0162530113011598,-0.11512041836977,-0.1107465177774429,0.987025022506714,0.0,0.0,0.0,-48.575557819743295,-26.952651564029033,-13.831678255733006,0.947307846,0.0046923459467756,-0.2335466889705252,0.0404281020828387,14.071339800112847,4.583979255676704,13.099563097813329,0.0591136022730154,-0.2255613609080608,-0.2301672482039623,-0.0713430014008071,-0.0543655354915899,-0.0237945053669008,759.6984081395158,458.3910770529317,265.12408628935253,-7.068347397088439e-05
206,1724913733804703343,0.0262151099741458,0.0446564815938472,0.179964929819107,0.0174286160618066,-0.1171625182032585,-0.1086450144648552,0.9869982600212096,0.0,0.0,0.0,-10.861344551715092,-5.073543222138596,-1.919153987630068,0.959108598,0.2760616734220067,-0.3142739805098343,0.3337290135606192,2561.4479450049703,-3245.916846476121,2665.0149940562173,0.0615129043684755,-0.2295006950886815,-0.2263616284091313,-1.041006185620471,-0.593799722855529,-0.2969668332543165,11224.304632193562,6278.1910013334755,3302.29812510174,-8.69486938696292e-05
208,1724913733805718909,0.0250737816095352,0.0440067574381828,0.1796397566795349,0.0185724012553691,-0.1193134114146232,-0.1068552434444427,0.986915111541748,0.0,0.0,0.0,1.2393509920238062,1.6890403029360654,1.634938526702942,0.960124164,3.0992393652972705,-3.8938088740551344,3.2709751087357875,2554.1356338364217,-3238.402720978941,2656.1955597035194,0.0639370568891942,-0.2336555726057177,-0.2232100132665298,-1.0458043245351054,-0.5954004923144129,-0.297060417097905,11183.551643963809,6248.033896311477,3275.374255959583,-3.512167008687969e-05
210,1724913733818239450,0.0240246132016181,0.043400265276432,0.1794905662536621,0.0197439640760421,-0.1210326626896858,-0.1061324179172515,0.9867609739303588,0.0,0.0,0.0,28.32180007289049,16.491310872026403,8.0299534840734,0.972644705,0.2282728119265225,-0.2518315321992478,0.0940924983229404,-97.01751764585887,103.6881527492228,-93.629825533936,0.0665626435276149,-0.2368787315955205,-0.2222125294204266,-0.1096852195022342,-0.0702212915749993,-0.0099947975598251,-1383.2884485179766,-738.5021708130812,-537.9458567647268,0.0001183495459048
212,1724913733826054384,0.0230411458760499,0.0427452437579631,0.1794218271970749,0.0199738200753927,-0.1224586814641952,-0.1055524051189422,0.986642599105835,0.0,0.0,0.0,0.2130629909741186,1.3508978938052825,-1.2894861973567333,0.980459639,0.1153426073651778,-0.3546082334535602,0.1433424177922889,-7.935576840107164,-6.1486650580292785,13.896276501455324,0.0672375323681388,-0.2397186530322769,-0.2212529588487047,-0.114902836701377,-0.0655037940660236,-0.0199094434030886,-2004.4547407214209,-1094.1801976345153,-633.6743949205132,0.0001840588203924
214,1724913733836228381,0.0220170505344867,0.0423213653266429,0.1790720671415329,0.0201663263142108,-0.1241905763745307,-0.1035758033394813,0.9866317510604858,0.0,0.0,0.0,0.9106178594536658,1.386903684859505,-0.3345194969669514,0.990633636,0.1208982573140693,-0.3244132956261341,0.3853103115631606,1.8675956466971275,5.75968192389392,17.765640693215893,0.0675589545471902,-0.243275790183314,-0.2174537753229175,-0.1010699713436782,-0.0418623507328388,-0.0333042617922121,32.13472932744888,-52.17056556873034,99.4421672582026,-7.748018534703454e-05
216,1724913733845746233,0.0210514143109321,0.0419211499392986,0.1787646412849426,0.020455989986658,-0.1254614293575287,-0.10115846991539,0.9867157936096193,0.0,0.0,0.0,0.8921175628514799,0.3943126775219248,0.6616291506875989,1.000151488,0.1504407080006699,-0.2447349946451031,0.5008225850046782,-4.409090415578865,9.593566956499092,-4.972122793909053,0.0678431166890413,-0.2459222744551273,-0.2127144400961315,-0.0964008544942096,-0.0370033736851787,-0.027743933989905,-15.107594976723636,-67.8972462746327,41.51795406224812,-4.841520781784014e-05
218,1724913733855717318,0.0201429910957813,0.0416048914194107,0.178535595536232,0.0203544814139604,-0.1261737495660781,-0.0998140722513198,0.9867639541625975,0.0,0.0,0.0,0.603970201856721,0.0974302610082671,0.4160214055751925,1.010122573,0.0279973526028255,-0.1363106973435224,0.2725314008566864,2.1633470015158345,-1.114722277764649,-20.368966221158097,0.0674626726625768,-0.2474620240943898,-0.2100133195901616,-0.0833108872629541,-0.0342854543630806,-0.0203379548106266,-54.73636051485526,-5.370031034154618,-62.258811868711575,1.3070392947287592e-05
220,1724913733867222315,0.0192879755049943,0.0411763489246368,0.1783365607261657,0.0215138997882604,-0.1280721873044967,-0.0992652252316474,0.9865500926971436,0.0,0.0,0.0,-0.3687686716167091,0.3596122631235141,-0.799757474672155,1.02162757,0.2446182622688536,-0.3082827169158903,0.0717235517156026,0.5392223637019962,-2.6656849189218708,-8.927244885767777,0.070129513789217,-0.2510571352505578,-0.2094154132832997,-0.0857717449547701,-0.0354896125493739,-0.0198888537913681,-1.1531686789181403,62.26241556515779,-65.54752344014511,3.468749761840491e-05
222,1724913733876087882,0.0184493046253919,0.0408737286925315,0.1781425476074218,0.0219201501458883,-0.1292162835597992,-0.0989958569407463,0.9864190220832824,0.0,0.0,0.0,0.1907418761278494,1.181276198477654,-1.1067429172527583,1.030493137,0.1244531177088417,-0.2480096470456314,0.0508301744585583,-12.570655253715715,12.051942143564784,5.727765589418896,0.071157030243975,-0.2532822069843787,-0.209111485083303,-0.0900991354290594,-0.0291296668127212,-0.0327095079961328,49.20915569510017,40.587078624664045,22.946719865696735,3.5432929767677084e-05
224,1724913733886116934,0.0175967440009117,0.0406383648514747,0.1776916831731796,0.0218042079359293,-0.1295770108699798,-0.0980077907443046,0.9864729642868042,0.0,0.0,0.0,0.5265488965177849,0.9973159437967783,-0.223425316995691,1.040522189,0.0095392323107284,-0.0675392466868026,0.1999942096600886,8.193784351896586,5.178457729956424,20.17334879538136,0.0707464158193629,-0.2541000639626039,-0.2070942425724473,-0.0804844217761424,-0.0120195335590569,-0.0399588047006709,12.793914861340486,-73.06051009089353,84.35800845799689,-0.0002095489449347
226,1724913733896755571,0.0167915616184473,0.0406396947801113,0.177322968840599,0.0230664201080799,-0.1306217014789581,-0.0953165218234062,0.9865701794624328,0.0,0.0,0.0,0.429171915811982,-0.397453359695886,0.6320716926631804,1.051160826,0.3184868294558658,-0.1570830128570813,0.4744248432572053,17.686859312096804,-2.100998325342787,10.876692691560203,0.0728530428354757,-0.256128989214515,-0.2020155137014525,-0.0797594468574318,-0.0094077868380306,-0.0366998303102743,0.5409344230877018,-56.49569548819278,65.82942278007151,-0.0001447031527377
228,1724913733905500983,0.0160647388547658,0.0404888875782489,0.1769873350858688,0.0244372058659791,-0.13139209151268,-0.0931113362312316,0.986645519733429,0.0,0.0,0.0,0.503594317569942,-0.3551639184750237,1.1029260069065674,1.059906238,0.3915457644355341,-0.1300518469671403,0.4622920658533363,-7.336772828464976,2.9094950580706143,-11.468520605111042,0.0752404327426713,-0.2575623553397006,-0.1979339261744352,-0.0734107062167764,-0.0175059104413337,-0.0288303406797707,-19.92473211951603,24.00634059572816,17.64792303093146,-0.0001283075510141
230,1724913733916913859,0.0153713580220937,0.0402851961553096,0.1768005043268203,0.0246656760573387,-0.132017120718956,-0.0920490697026252,0.9866560697555542,0.0,0.0,0.0,-0.147307893252873,0.2043453265433309,0.7652942711345633,1.071319114,0.074114886230681,-0.0995479291900856,0.1812545109514206,-10.274545701706971,-4.297495686429155,-17.30813401445228,0.0755641203714197,-0.2588510843253977,-0.195888959314426,-0.0709750163604302,-0.0130575653598614,-0.0132180606910807,10.94570302414208,5.8093958155361705,-49.29613565469512,8.654594324506359e-06
232,1724913733926218495,0.0146334283053874,0.0402000360190868,0.1767014265060424,0.0250488519668579,-0.1329566985368728,-0.0916550382971763,0.9865568280220032,0.0,0.0,0.0,0.4702079051830705,-0.0694223648627996,0.1570740541618754,1.08062375,0.1115609158778559,-0.1924098326827513,0.0757101965934463,-7.886935065818336,-11.828762122596668,-7.381569859767966,0.0764515835636834,-0.2606896593366563,-0.195302778207061,-0.0750820560952663,-0.0125627740847831,-0.0106689500939207,-80.07055494846051,-48.71164247848627,-77.79697372539744,0.0001036586930366
234,1724913733936120072,0.0139345228672027,0.0400397107005119,0.1765955686569214,0.0244207754731178,-0.1345272213220596,-0.0915396139025688,0.9863704442977904,0.0,0.0,0.0,-1.8655966301786449,-0.7549882585369753,-0.7442063884215581,1.090525327,-0.0920402240253375,-0.3290114430127532,0.0443639406192893,-16.836834949232657,-10.800954151465533,-2.5243918998026764,0.0754890301018804,-0.2639713769923778,-0.1951052985594509,-0.0608208426906905,-0.0145419702556112,-0.0103452890020633,-1094.9339786878263,-1425.9964668900138,1293.8875411279746,9.048051269747986e-05
236,1724913733987578569,0.013416071422398,0.0397326424717903,0.1761556714773178,0.0248877108097076,-0.136798158288002,-0.089278295636177,0.9862537384033204,0.0,0.0,0.0,-287.93994392953937,-436.9722764442008,436.2039211771654,1.141983824,0.037914469978305,-0.0838624959325214,0.0859899510469589,12910.085548842782,-5053.712621036696,14119.67604424178,0.07632582611819,-0.2686099868601155,-0.190871161171103,-1.0409162133807186,-0.2018431681073167,-0.2564057096632268,673037.2373322158,169081.52095958905,1071845.4871800777,-0.0002731136866451
238,1724913733987937970,0.0130393775179982,0.0396596081554889,0.1760628968477249,0.0255640596151351,-0.1372358649969101,-0.0882500857114791,0.986268162727356,0.0,0.0,0.0,-44.346301619021915,-375.758508194751,824.0954507018163,1.142343225,4.7102121719416745,-1.9128694531204544,5.19605626144641,-5791.08518289987,-8687.267074027879,6482.032016613593,0.0775198932586721,-0.2694389467652372,-0.1889945432438464,-1.145077083263864,-0.3599791751091885,-0.0985266395026656,2007143.9690626804,745251.7021411142,558990.7707827894,1.6426722873856295e-05
240,1724913733988244968,0.0126624144613742,0.0395079851150512,0.1760745048522949,0.0250784903764724,-0.1380651593208313,-0.087532952427864,0.9862287044525146,0.0,0.0,0.0,920.4504224144378,3.7994594836626447,859.2681199977401,1.142650223,-1.9953945337849424,-5.523426006748833,5.157305089571852,2636.724277944367,-16496.928295192607,3439.707571849638,0.0765059767172026,-0.2712513661431114,-0.1874917995176483,-1.0943198737328608,-0.4584901891160484,0.2553803431998744,2372107.7849051426,1068103.436808057,-1281137.4159804997,0.0001192987551939
242,1724913733988502669,0.0124093033373355,0.0393974892795085,0.1761873811483383,0.0253411047160625,-0.1395041793584823,-0.0866308882832527,0.986099123954773,0.0,0.0,0.0,1365.0546183096872,242.65498992603443,227.19837196214576,1.142907924,3.979439625861067,-10.79920996826199,6.8151039278776695,11698.832121825082,9543.787888170513,-2790.6248081556205,0.0771014698464043,-0.2741608821458139,-0.1858952476262952,-0.6937721012974976,-0.3872753520417547,0.4133180022136571,402459.2616476552,381833.4475321771,-1963634.9975189103,0.0001819391774145
244,1724913733988756163,0.0123053546994924,0.0393096655607223,0.1762859970331192,0.0257739871740341,-0.1396730691194534,-0.0860856771469116,0.9861117601394652,0.0,0.0,0.0,1137.224876551326,203.5393198794406,-148.61388727823515,1.143161418,4.080846882914584,-0.8951848991147261,3.807726012298822,362.4780032239308,37619.967769704286,-11442.20928816907,0.0778700783653961,-0.2744618512979289,-0.1849137846791879,-0.3949313641633251,-0.3341650029090064,0.3747415826694333,-871540.9773082519,-149544.4406039944,-1426668.7762609615,0.0001260851024013
246,1724913733995309566,0.0122809056192636,0.0392015613615512,0.1763216704130172,0.0259588938206434,-0.1398199796676635,-0.0852952823042869,0.9861547350883484,0.0,0.0,0.0,36.7758642334219,30.236938013687706,-34.24457726152547,1.149714821,0.0928600760479181,-0.0313053648170794,0.2322693015502143,-375.09964667701007,74.59400736455318,-329.3289220036253,0.0780555714603413,-0.2747849152202462,-0.1833537604424878,-0.0006285467604967,-0.0123945128071178,0.0047888896277967,-103442.63708980518,-17209.5393728996,11932.214616064275,4.4037374760646e-05
248,1724913734005457489,0.0123232752084732,0.0391402319073677,0.1763599812984466,0.0254519116133451,-0.1407068222761154,-0.0839063450694084,0.9861610531806946,0.0,0.0,0.0,0.2506567055693512,0.7164604563552179,0.1061986117701094,1.159862744,-0.045385099676728,-0.1736056843061516,0.2885622268539103,-9.39178880298391,2.626860450370113,0.5187520832248289,0.0768073935500038,-0.2767679406605939,-0.1804612380368672,0.0049910733727315,-0.0019631994788849,0.006245529997523,-1386.6326773369378,-1304.1337700494396,1867.2931899210369,2.643548482664693e-05
250,1724913734015878726,0.0123840197920799,0.0391634404659271,0.1764515042304992,0.024786327034235,-0.140531525015831,-0.0827398300170898,0.9863015413284302,0.0,0.0,0.0,9.479776997660998,4.301089595897412,3.3232789139828287,1.170283981,-0.0979770842361741,0.0319505717596936,0.2401538704580758,-2.402484086355312,13.205441102785622,-4.968765920887029,0.0750705019579757,-0.2766257981416582,-0.1778408112981927,0.0043593293775646,0.0021699284477488,0.0069526187310016,-240.70558927723744,-116.25778933404628,-88.68596091800475,7.011211515308764e-05
252,1724913734037274043,0.0124127361923456,0.0392073579132556,0.1765198856592178,0.0242806933820247,-0.1402370035648346,-0.0815200209617614,0.9864576458930968,0.0,0.0,0.0,-45.144205262423384,-18.40223938261488,-16.029808540469844,1.191679298,-0.0332337714213178,0.0281204636824448,0.119631130474359,-2391.9580710528694,36837.73691055736,36999.43966365578,0.0736226885445234,-0.2762159569632764,-0.1751411792055517,0.6262503211454415,0.2657000645328935,0.2210520166696596,-6938.096230799798,-2934.4877135402785,-2470.004051366377,5.645268167192775e-05
254,1724913734037535348,0.0125783728435635,0.0392776280641555,0.1765783429145813,0.0241174027323722,-0.1390016973018646,-0.0802243798971176,0.9867425560951232,0.0,0.0,0.0,-46.97115868902949,-19.175014248756938,-16.680228894043353,1.191940603,-0.6659076478420379,9.77156860668494,9.905866470260914,-2341.3256336525046,36057.19754404004,36215.45718169045,0.0726675293684661,-0.2738585217305629,-0.1722649042084823,0.6142170804147914,0.2607934304131107,0.2167802550721758,-6747.963302477248,-2856.8055997214683,-2403.083286943611,8.274943634461242e-06
256,1724913734045450462,0.0127251138910651,0.0393934473395347,0.1766320914030075,0.0238621439784765,-0.1383726149797439,-0.0793157368898391,0.98691064119339,0.0,0.0,0.0,-41.956797128394385,-17.6768402688955,-15.072442814094623,1.199855717,-0.0455061721754359,0.1631164242424761,0.2350922083210962,46.012663293579486,-691.7642645088176,-692.2594329635733,0.0717610270550265,-0.2727050699189217,-0.1702407075464452,0.0217166166796907,0.0136963815765129,0.0050527856846507,2189.207412616648,875.676336030561,778.8113717483197,8.082472186885473e-06
258,1724913734055683948,0.0129893887788057,0.0395212210714817,0.176660805940628,0.0237331259995698,-0.1384270340204239,-0.0785242244601249,0.9869694709777832,0.0,0.0,0.0,1.0296369874089648,0.3660338748836811,0.5143247420205885,1.210089203,-0.0029106582200445,-0.0072140171464279,0.1573206387982742,-0.5685820489726217,-9.128846883233502,-4.925678508772972,0.0712834571811042,-0.2728937857154269,-0.1685787199026213,0.0276502068472274,0.0119677259327199,0.0053109123532477,2232.8771636081256,956.5365222975436,832.122844977047,-4.882362019631392e-05
260,1724913734067217722,0.013332032598555,0.0396525189280509,0.1767546236515045,0.0232144985347986,-0.1384976357221603,-0.0778129547834396,0.9870282411575316,0.0,0.0,0.0,1.2045998419831363,0.9134929505782136,1.12945232461452,1.221622977,-0.070967469800281,-0.0148070369923945,0.1352695137081148,26.19827105561968,5.430349643610398,6.562273100277549,0.070032512092506,-0.2731742921503808,-0.1669751021202987,0.0453730907104971,0.0231435120456251,0.0176009783738297,-22.14875873637444,4.988506115671264,19.896882999808028,-7.986990872200318e-06
262,1724913734075543747,0.0138039644807577,0.0399158932268619,0.1769580692052841,0.0244947299361228,-0.138355553150177,-0.0766206607222557,0.9871104955673218,0.0,0.0,0.0,0.7958900849487003,0.6997218752418822,1.094151211272223,1.229949002,0.3400876402024783,0.0670016362640014,0.2408402499158639,17.306108256106867,11.3611171472563,-0.8938911068532214,0.0722930301281544,-0.2727604230660123,-0.1648568406689134,0.0534071173677478,0.0304158869080153,0.0273887738223761,-43.679969251165545,-34.925488470975495,-38.41126034171851,5.758334205984149e-05
264,1724913734086550872,0.0143441753461956,0.0402329787611961,0.1773025244474411,0.0249073058366775,-0.1372222006320953,-0.0763610526919364,0.9872784614562988,0.0,0.0,0.0,0.3937978027447575,0.1806841252291569,0.174105758677951,1.240956127,0.0639992216745264,0.214398227683678,0.0334852448870102,-6.652727700988299,17.484603610448453,-8.582025772772157,0.0728474553845677,-0.270433441630214,-0.1642976219027829,0.0597077896594476,0.0355897801743396,0.0382475131465493,-57.55651701465987,-12.951790929312605,-44.23906285204899,0.0001736796045347
266,1724913734095620554,0.0149651430547237,0.0406064540147781,0.1777013838291168,0.0256599504500627,-0.1354677081108093,-0.076082743704319,0.9875229597091676,0.0,0.0,0.0,-0.2853568172123779,0.3188228582738694,0.0669241555798751,1.250025809,0.1413931158857814,0.4035704730141333,0.0322964754698831,0.1395484143385761,-10.61442278599085,10.857593216964707,0.0739755351016201,-0.2668045363302936,-0.1637161830069317,0.0619445377704903,0.0350660246335268,0.0337552188819074,-41.20612025192878,29.615739362217383,19.20722891544427,0.000203898281692
268,1724913734105869652,0.0155244842171669,0.0408950559794902,0.1779289543628692,0.02567551843822,-0.135873794555664,-0.0746895149350166,0.9875730276107788,0.0,0.0,0.0,-0.317653900318855,0.7889618987685612,0.6231065677286094,1.260274907,0.0456084398889442,-0.0697236903385335,0.2708464490274923,-28.24775371328642,-9.6954063626211,-5.963770127492465,0.0736993828307516,-0.2677219262481173,-0.1609005378714229,0.0528586152414822,0.0426950709759474,0.0409528495136513,18.551526669015004,-34.03351715781381,-44.10747076899199,5.783363622821914e-05
270,1724913734115766325,0.0160312093794345,0.0414565093815326,0.1785134226083755,0.0237625110894441,-0.1348174661397934,-0.075275145471096,0.9877212643623352,0.0,0.0,0.0,0.0733438192169133,-0.3114560260375674,-0.7535081164559554,1.27017158,-0.4145855915130965,0.182975628913868,-0.0675935039452968,-5.353324238031821,9.749026485333427,-1.944158528584401,0.0697432641402079,-0.2658678275392327,-0.1614577362665291,0.0551510908416523,0.0509293751081987,0.0463630198783633,-0.094861379239667,-98.793107368992,-100.67548133771152,0.0004108362249631
272,1724913734125263269,0.0165909696370363,0.0418873056769371,0.1788380444049835,0.0232523027807474,-0.1341907531023025,-0.0743431448936462,0.9878893494606018,0.0,0.0,0.0,-0.2884721783303181,-1.1367049755622136,-1.3594525860883322,1.279668524,-0.0904424999323475,0.1317095836779354,0.207877846778363,23.418534361908,-1.3147741590236652,14.627995259991934,0.0683257465770929,-0.2647561607585253,-0.1593274211218004,0.0544050134257322,0.0375505174369406,0.0273580444503682,2020.0738786408615,1580.6176594649703,873.3749809416942,0.0001510385537394
274,1724913734139593726,0.0172725301235914,0.0422565154731273,0.1790825426578521,0.0233525242656469,-0.1327915638685226,-0.0735420733690261,0.9881359338760376,0.0,0.0,0.0,73.16603912985289,57.57260368233623,31.421979590065856,1.293998981,0.0135027578349617,0.2011674894044993,0.1065867920341282,1.4491316801528535,0.9374790568616144,-4.54685972053012,0.0680553852304597,-0.2619840864070873,-0.1575456501424359,0.0457319268458191,0.0271438056792965,0.0217529157995635,-1634.980884429112,-1255.8523213148428,-759.4502692506021,4.457621631980319e-05
276,1724913734155171953,0.0179539900273084,0.0427027344703674,0.179500862956047,0.0228781700134277,-0.1316188871860504,-0.0729753151535987,0.9883459210395812,0.0,0.0,0.0,-66.7948226990793,-52.636944285342,-32.008525356440714,1.309577208,-0.0622163969231404,0.1495675640581557,0.0784533865333737,-42042.58867654045,40196.378375651075,15662.505165551953,0.0667187697435798,-0.2597416714865077,-0.1561211728332966,2.434818952079837,1.911292175798053,1.0499953302091851,-28204.65299781566,-22172.214216040593,-12219.039264097097,0.0002122103620764
278,1724913734155424093,0.0185776632279157,0.0431923307478427,0.1797697842121124,0.0215563885867595,-0.1302288323640823,-0.0726150050759315,0.9885862469673156,0.0,0.0,0.0,-73.98478159725109,-58.28905962799316,-35.12268295468979,1.309829348,-10.834390229526376,10.448736920149654,4.091523326915396,-41693.60538162094,39863.35334493111,15533.011366406248,0.0636694438121145,-0.2571799143546057,-0.1548788170130574,2.417078853327475,1.897311900185898,1.0415247080618606,-27967.753076865112,-21983.221064357265,-12107.818320174556,8.540372848118551e-05
280,1724913734165889663,0.0193562917411327,0.0437392145395278,0.1797967851161956,0.0213754512369632,-0.1284939050674438,-0.0712038353085517,0.9889197945594788,0.0,0.0,0.0,-128.64054441527088,-100.10934870770598,-56.241748517587126,1.320294918,-0.0245125722647879,0.3393687559691256,0.2685850989644384,602.9200918542755,-557.7902881651843,-219.41583530841345,0.0626216046870323,-0.2538126790315083,-0.1517477581308893,0.067389245649682,0.0524837920045289,0.0102927424776133,732.9773162440853,641.3233779387164,489.70688059535735,-0.000187280013544
282,1724913734180345868,0.0201905090361833,0.0445024892687797,0.1800995916128158,0.0223392937332391,-0.1255005747079849,-0.0709718242287635,0.9892995953559875,0.0,0.0,0.0,0.8762570285884159,1.7619568589190422,0.9118625926328016,1.334751123,0.1053831095673081,0.4264679914966007,0.0094979213940542,-46.85465560653488,65.37870956459194,42.98780451200805,0.0640100525235494,-0.2476686497029875,-0.1512036547732324,0.1222286072552778,0.1262158828377488,0.0417972127409953,2011.6724525385875,1479.8732764388394,928.2791196395648,6.303129291727446e-05
284,1724913734185450372,0.0209307204931974,0.0452790856361389,0.1803505271673202,0.021795880049467,-0.1232874765992164,-0.0701420232653617,0.9896490573883056,0.0,0.0,0.0,-1.377519207974645,-0.7180548366767723,0.197463358245316,1.339855627,-0.2344332709433011,0.8671733262999521,0.3387139656103828,-44.14397028482136,45.652600590819446,37.46895725198354,0.062311005744994,-0.243360084137419,-0.149136744224231,0.1214434378446416,0.1291926083448229,0.0441673734697607,-290.67953489009653,-336.1164525764004,-103.2529486762129,4.0105787598190736e-05
286,1724913734196626954,0.0217112936079502,0.0461614690721035,0.1807219982147216,0.0208895150572061,-0.1211171150207519,-0.069687083363533,0.989968717098236,0.0,0.0,0.0,-0.9348266403374534,-0.8105061827362112,-0.0583971999048489,1.351032209,-0.1789627069823672,0.3818068655484907,0.0961100515290931,-14.421330277503918,-17.384754913273518,-26.04868532392011,0.0599828330662801,-0.239166415028188,-0.1477640511321035,0.0761014329954581,0.0893243280506057,0.0398437188042812,144.8319934977205,139.813788751045,4.14473989427112,0.0001491908022337
288,1724913734206269049,0.0224971547722816,0.0471090450882911,0.1811611354351043,0.0188584122806787,-0.1188800856471061,-0.0708355829119682,0.9901990294456482,0.0,0.0,0.0,1.3369325611783838,1.7694104695308468,0.2064707340778406,1.360674304,-0.4792598138847729,0.430808997234194,-0.1911738017472487,-7.801548380073012,5.01469613461726,-12.052701684500397,0.0557482688780509,-0.234912816684504,-0.1494100502493588,0.0930578407143409,0.1044397031215962,0.0420128069759364,51.91243117699502,77.19996256338437,-39.579239256124005,0.0002198675780474
290,1724913734216199175,0.0235393978655338,0.0482091903686523,0.1815422177314758,0.0175400506705045,-0.1163961663842201,-0.0716143101453781,0.9904624223709106,0.0,0.0,0.0,-0.0261859141810241,0.5891667666587264,-0.8722522117940745,1.37060443,-0.3180085707523972,0.4799161953187358,-0.1294149121027402,17.313670407314365,29.196555390953545,-2.5813669296061637,0.052833014206159,-0.230084523657727,-0.1504630270941128,0.1020216488224092,0.1240735866577344,0.04387399944369,-32.42462106354433,-28.435809389831235,-68.8755416740514,0.0001077071477107
292,1724913734225894314,0.0245007202029228,0.0495378524065017,0.1820196211338043,0.0173464808613061,-0.1115604043006897,-0.0727495029568672,0.990939438343048,0.0,0.0,0.0,0.6518987250984667,1.169358370608669,-1.1636931454707038,1.380299569,-0.1399737256870518,0.9925365175143404,-0.2377466440470474,25.566833854034343,13.479179792469289,8.97758120157373,0.0518879147383942,-0.2203542417861535,-0.1523078135812325,0.0929753166863145,0.1166468798758897,0.0253867561220619,64.20371842631809,73.20472146853344,83.79300856372612,0.0002261481266263
294,1724913734238673168,0.0255847498774528,0.0506849065423011,0.1819422394037246,0.0193756595253944,-0.1085530519485473,-0.0711036548018455,0.9913551807403564,0.0,0.0,0.0,1.3757186841046352,2.3298782622991183,1.8247660867658575,1.393078423,0.3080729453374226,0.5012430462708344,0.2163946668322172,-48.31149685367412,46.3510988601593,-29.071189480688165,0.0551396756315695,-0.21410597358956,-0.1491291701758643,0.1280022526653814,0.164188356123879,0.0230334971885532,-211.2684843096248,-327.64040200200157,11.638174496672164,-0.0003381602132314
296,1724913734245308406,0.0265828147530555,0.0520307533442974,0.1821952909231186,0.018721142783761,-0.1048478260636329,-0.0717951208353042,0.9917166829109192,0.0,0.0,0.0,-0.9491173838735688,-1.28578068324396,1.1363787250513089,1.399713661,-0.299726628105453,1.1009404328305663,-0.1990963140687671,-73.32005855689889,42.89713629362585,-46.269502654001414,0.0533480584501344,-0.2067400880075865,-0.1500730499202147,0.1324267079981687,0.1748572160123878,0.0420624872547747,-121.56733413349876,-286.4406399100345,-156.34363796233868,7.359013811429968e-06
298,1724913734255429247,0.0276453308761119,0.0533685758709907,0.1826815903186798,0.0154205216094851,-0.100505493581295,-0.0742034837603569,0.9920457005500792,0.0,0.0,0.0,1.3527689493282438,-0.194563002390451,-1.257907384167348,1.409834502,-0.7595634732410231,0.802068631934691,-0.4149896835159156,-7.613361364577774,-24.08521916911679,0.8845241826377426,0.0464389980095099,-0.1984230543913394,-0.1539421293845954,0.0978749499071925,0.1171727253101821,0.0268337389300805,155.23835842494856,103.65415650224574,-108.91289932057768,0.0002409563472179
300,1724913734270437004,0.0289560295641422,0.0547929890453815,0.1826121658086776,0.0154240671545267,-0.0963154062628746,-0.0734720379114151,0.9925156831741332,0.0,0.0,0.0,2.0757427163092785,1.2683702956522964,-0.0515222460095174,1.424842259,-0.0321346867099035,0.5617809927342541,0.0926897175701605,45.71946858721359,220.82498806764383,-23.064856260177105,0.0456070524215936,-0.1900649005573914,-0.1521305990475076,0.2242565934568707,0.2367632487397646,0.0134474022274062,-510.58317621650065,-560.9638678557525,15.856169418292378,-0.0003451173297704
302,1724913734275482143,0.030319657176733,0.0562280751764774,0.182710662484169,0.0163234658539295,-0.0911437720060348,-0.0736439377069473,0.9929767847061156,0.0,0.0,0.0,-1.4478815428515563,-2.678500527363779,-0.0809662167349151,1.429887398,0.1938611192927118,2.0775516988869396,-0.1201666629850017,15.868701879248889,168.84517972721486,-29.87480154387667,0.0466080197028234,-0.1795664902060492,-0.1522552104907288,0.2239671833976181,0.2317986749843126,0.0146128649863941,-480.5078094050853,-544.9421348959496,-25.180396700237548,-0.0001805543087668
304,1724913734287057552,0.0316820368170738,0.0575129315257072,0.182749405503273,0.0143802603706717,-0.0878771096467971,-0.0745969861745834,0.993230164051056,0.0,0.0,0.0,-1.2225972645221663,-2.6823092662075414,-0.8861902084758797,1.441462807,-0.3906779057935851,0.5370266359941509,-0.1388991653457361,0.0133230507989239,15.654121563064066,10.219230116883658,0.0423228354537544,-0.1732848655177868,-0.1536060981609149,0.1702776450845213,0.1557917833011388,0.0053901815743024,98.3871717537552,136.6641103107304,-10.095706374142356,-0.0002224748297255
306,1724913734295462310,0.0334340631961822,0.0590956769883632,0.1828071773052215,0.0145234139636158,-0.0812711864709854,-0.0744502171874046,0.9938014149665833,0.0,0.0,0.0,0.0859690103950514,-0.6976676954381782,-0.6081357478027525,1.449867565,-0.0823139930347136,1.5762955796712863,0.0192305745437747,12.953884239860724,44.14085903264284,14.13647965669066,0.0415104247807467,-0.1600547910291806,-0.1528793725904936,0.1808462797816017,0.1569496422468783,-0.0026038619506207,171.43289508820965,180.64993178303865,4.1820101890626304,-0.0002563533303228
308,1724913734307488362,0.0351338237524032,0.0604434311389923,0.1826127767562866,0.012799265794456,-0.0767140835523605,-0.0738986581563949,0.9942284226417542,0.0,0.0,0.0,2.418467360408945,0.520104187421687,-1.0551597768174092,1.461893617,-0.3349584625998966,0.7389301266195377,0.1087422264280228,-9.210521702629798,-1.654831067192518,-5.8464853455561006,0.0372222365737663,-0.151226702245781,-0.1512026458601583,0.1617215947146679,0.1341836875939019,-0.0040151641618191,76.7008829190392,4.576464272555691,-60.82944750330129,-0.0004735705285815
310,1724913734317468639,0.0369166620075702,0.0619657821953296,0.1826733350753784,0.0116627300158143,-0.0702098309993743,-0.0742370337247848,0.9946976900100708,0.0,0.0,0.0,2.212814730187766,-0.2350135923774292,-1.858203391807277,1.471873894,-0.329168450906151,1.2854137704783208,-0.0596788516636524,-1.9090993594235783,18.318818900042757,10.758144285664487,0.0339572111361252,-0.1383847636742305,-0.1513428760096543,0.2190609977512729,0.1593614771966169,-0.02231334144696,-247.7196771563355,-189.3625349722262,-8.478642550465906,-0.0002116122634821
312,1724913734325460928,0.0389261916279792,0.0632831305265426,0.1823133528232574,0.0105287516489624,-0.0653470605611801,-0.0734737440943718,0.9950982332229614,0.0,0.0,0.0,-1.2206269042575195,-2.4761766547740685,-1.4652458958479544,1.479866183,-0.360358417079722,1.1986121732650803,0.2031660323915054,10.148961644003936,-10.708486816131266,16.685067550610025,0.0308172230625016,-0.1288626593928613,-0.1493923598271409,0.2141376977422986,0.1398326600069475,-0.0373231725223472,-70.37968219489906,-72.84766560485856,-36.64092466057383,-0.0006362375907708
314,1724913734339015785,0.0409714058041572,0.0646039396524429,0.1819848716259002,0.0117056462913751,-0.0582709908485412,-0.0729685649275779,0.9955617189407348,0.0,0.0,0.0,6.083344718278184,1.3081493177302803,-3.9345422961264074,1.49342104,0.1002375003565913,1.0569586474052872,0.0568575738172266,-11.9827109557833,10.782572514682457,8.556774316113254,0.0320266811914825,-0.1145669088983906,-0.1481628569893203,0.1836926946237906,0.1055162575177579,-0.0476946987538102,192.20453229621583,167.77677346044106,92.33141312280532,-0.0005865022858888
316,1724913734349137164,0.0430785827338695,0.0657329335808754,0.1813248246908188,0.0102536287158727,-0.0514671020209789,-0.0715371593832969,0.9960564970970154,0.0,0.0,0.0,5.408943802658396,2.164294412681482,-0.9254421304334048,1.503542419,-0.3684133151800994,1.3265635756418546,0.2897080334645626,-21.36758759328964,81.15245005665348,16.348735693718854,0.0279366526098655,-0.1012340766945446,-0.1448099407091211,0.3082149077929701,0.147776374154926,-0.1114707058331205,-792.4278164689197,-249.79620756968495,736.3308537867239,-0.0008902957064226
318,1724913734355292980,0.0453503839671611,0.066778264939785,0.1804654449224472,0.009396038018167,-0.0451638251543045,-0.0704156905412674,0.9964505434036256,0.0,0.0,0.0,-2.186451383770293,-0.6253264690640599,5.2509852373008865,1.509698235,-0.4065907627410539,2.0302263161246836,0.3654240240717213,7.286236806711207,48.90890336573989,-7.730719005623351,0.0251877549479811,-0.0888004394624479,-0.1422176300216313,0.3157006893984579,0.1535701219499174,-0.0970412232536359,-863.6383418417648,-355.6597714287867,618.5731751517725,-0.0010761318308552
320,1724913734365994476,0.04773635789752,0.0681195333600044,0.1802188009023666,0.0095070544630289,-0.0380006432533264,-0.0708450376987457,0.9967178702354432,0.0,0.0,0.0,-4.541177352774934,-2.6173812126321776,4.712336649290562,1.520399731,-0.0776864797681727,1.3369370296324472,-0.0899535283091355,-22.088879379656746,-78.52091088418851,-62.63624737939771,0.0244060829940925,-0.0744736084601069,-0.1428272421387653,0.229002681671453,0.1177350554079419,0.0132326021118451,60.149105519177354,-32.495138832028005,-368.6843949927845,-0.0004480405671248
322,1724913734375417599,0.0499444417655468,0.0691659078001976,0.1806445270776748,0.0064191580750048,-0.0354519486427307,-0.0749286636710167,0.9965378046035768,0.0,0.0,0.0,-1.6495509210342192,-1.6486639463082682,-1.4033221772066664,1.529822854,-0.7241319883296664,0.4830461119461809,-0.846825042573651,-4.952946613026098,-34.936821559205896,-3.0358318488338942,0.0181517365860927,-0.0697530061713882,-0.1507288765454311,0.2157521219822262,0.0991384384841311,0.0112365704874441,174.45520532228264,84.15475243415155,-295.07727868525,0.000258649096271
324,1724913734385631520,0.0519424825906753,0.0700467005372047,0.1803835183382034,0.0063507719896733,-0.0316446609795093,-0.0750294774770736,0.9966589212417604,0.0,0.0,0.0,-1.3335988938176726,-0.9955608055285844,-0.4988490732737749,1.540036775,-0.070056505993896,0.7426391280083041,-0.0222059329568825,18.98481904357888,1.8551406699179085,39.30427437360499,0.0174422462823908,-0.0621649085374037,-0.150820892433328,0.1962093036824215,0.0858955005952015,-0.0162880413351755,-64.79681722630883,27.276844643303832,123.00334266046846,-0.0003953687606646
326,1724913734396565855,0.0540948063135147,0.0709819421172142,0.1803138852119445,0.0044397553429007,-0.0288275200873613,-0.0755013450980186,0.9967190027236938,0.0,0.0,0.0,-3.1626857882318777,-1.1264981612641645,1.249371568941187,1.55097111,-0.3898388065573488,0.4871353505364325,-0.0774076772698019,0.5355287895519698,-30.41075151234407,4.820789940812445,0.0132251425784505,-0.056826037966971,-0.1515868502350742,0.1884136133212788,0.0785330429022517,0.003962372317197,-177.47144290730876,24.854720406492035,113.33837964799102,-0.0001988488646186
328,1724913734405658625,0.0557442866265773,0.0716430991888046,0.1804280281066894,0.0037643371615558,-0.0280604269355535,-0.0753330513834953,0.9967564940452576,0.0,0.0,0.0,-4.853459981950252,-0.622017956161927,1.9279862612111145,1.56006388,-0.159782698290564,0.157357835910195,0.0410517617365782,12.305862053018105,-35.648151039021684,9.596910101985536,0.0117503073422357,-0.0554000017693424,-0.1511951476373298,0.1411327383985798,0.0648635146363143,0.0107659114094831,-20.860636082019013,69.33905737344773,85.99380840536537,1.8588121990455707e-05
330,1724913734416895592,0.0567709282040596,0.0722629725933075,0.1805241852998733,0.0025180238299071,-0.0292909163981676,-0.0748027190566062,0.9967649579048156,0.0,0.0,0.0,-2.795348510042033,0.3495802722674073,3.0520702392350154,1.571300847,-0.2019628410998957,-0.2346101220674722,0.1012468685880062,-3.662517000330425,5.879502442462819,-14.555020017032108,0.0094178378862772,-0.0580482023614457,-0.1500836168742721,0.0914045634616149,0.0701126626114163,0.0488135768119484,104.31258869161138,-45.84597008438509,-137.80084824156808,3.526097036208393e-05
332,1724913734425609417,0.0575676932930946,0.0729749351739883,0.1812215596437454,0.0015554486308246,-0.0288133211433887,-0.0755268335342407,0.9967261552810668,0.0,0.0,0.0,-2.4191458777338988,-0.9439651750591684,0.2441903677844947,1.580014672,-0.2332612652091436,0.0920576371269549,-0.1601322875155029,-7.136170370419272,29.951551188567414,-15.052231638651842,0.0074653637536699,-0.0572342679055203,-0.1514744450604903,0.0780610758630064,0.0723645194560198,0.0731527671514502,-37.46929769970703,-113.99032662413376,-315.3009468447683,0.0006511523797165
334,1724913734435609695,0.0581948161125183,0.0735914036631584,0.1818741708993911,-3.0201814297470264e-05,-0.0271612908691167,-0.0762675106525421,0.9967173933982848,0.0,0.0,0.0,-3.719353947505678,-1.6884471697623804,-2.829352739885202,1.59001495,-0.3453023258591966,0.3050831351526115,-0.1391552927675139,5.929983636607136,2.1488265905218884,10.60431714599765,0.0040888529740829,-0.0541753655327237,-0.1528505338715661,0.0436794537698004,0.0491252061307441,0.0463409853816569,-87.40542973449004,-4.17022886983645,-144.18572646790454,0.0006202873052094
336,1724913734446853777,0.0584453493356704,0.0739854872226715,0.1821560561656952,-0.0003537135198712,-0.0266466103494167,-0.0757859498262405,0.9967679977416992,0.0,0.0,0.0,-4.163424868380024,-0.8468684052037827,-2.3878239451198215,1.601259032,-0.0620098295111733,0.0870996011692663,0.0876269060781707,5.793934115922124,-4.3779265027822,7.262038198644483,0.0033384660673437,-0.0531996807112911,-0.1518602057375964,-0.0016974662431823,0.0381735144675108,0.0126532591219827,21.845939722274693,33.38214015350286,99.0193391496994,0.0002700592968371
338,1724913734455343053,0.0582772493362426,0.0743295848369598,0.1821838915348053,-0.0008945941808633,-0.0259841084480285,-0.0755200833082199,0.9968053102493286,0.0,0.0,0.0,-3.584818139955278,-0.8292390183224195,-1.1642491013456435,1.609748308,-0.1371714690118786,0.1461301883413652,0.0665503095348762,-12.896297885481808,-9.066064698543002,-1.6737949038764943,0.0021440669962629,-0.0519606926273636,-0.1512910514318596,-0.0378610370864227,0.0317990267483936,-0.0037193341734473,92.98926621859898,5.9585718616778784,114.9307305596108,3.8447121666537176e-05
340,1724913734465799731,0.0576487407088279,0.074549600481987,0.1820548623800277,-0.0026529256720095,-0.0266636405140161,-0.0752533301711082,0.996804416179657,0.0,0.0,0.0,-2.292623805224188,-0.7169330878232142,-0.3385663826890983,1.620204986,-0.3240924711854184,-0.1550037937408893,0.0594671068773655,9.13223231513237,-2.413803707530638,-13.15015524043017,-0.0012776745800998,-0.053581787490712,-0.1506690611506366,-0.0666510948221525,0.0221187662480031,-0.0060483845368572,95.207732608189,25.811592834574625,25.001745304813024,-9.36386990759099e-05
342,1724913734475996427,0.0569040402770042,0.0747858583927154,0.1820557415485382,-0.0024032408837229,-0.0262602940201759,-0.0762587934732437,0.9967393279075624,0.0,0.0,0.0,-1.603890126997972,-0.3038817434463983,-0.6201699840023769,1.630401682,0.0375713361183834,0.0827285833057725,-0.1986399959896649,19.019218904212075,-1.9284466364227384,-4.115604242519622,-0.000786746741632,-0.0527403186198208,-0.1526982656248141,-0.0854479958514886,0.0168847124914486,-0.0106523919946024,120.9366192982728,40.25641731938339,20.49202178161701,4.166767532131451e-05
344,1724913734485828583,0.0559462048113346,0.0748922824859619,0.1818491965532302,-0.0021278918720781,-0.0271466765552759,-0.0764347240328788,0.9967027306556702,0.0,0.0,0.0,0.0913667624482936,0.0895371334397736,0.0374168468874547,1.640233838,0.068619275620565,-0.1755531136759619,-0.0381419307817661,3.4797707024001303,2.7044956113572693,0.7571040377387703,-9.199023278735691e-05,-0.0544665490860283,-0.1530730630037023,-0.098946695106282,0.0158824040848672,-0.018348915646456,-2049.195442883913,616.840650993485,-1.0327925127283066,-0.0001538245741918
346,1724913734495222083,0.05500303581357,0.0750868692994117,0.1817006915807724,-0.0015789094613865,-0.0266714319586753,-0.0772217363119125,0.9966559410095216,0.0,0.0,0.0,-39.09544507338249,11.060515759291214,-0.5817734017083407,1.649627338,0.1041960392052548,0.1098724436818961,-0.170731978514211,0.5544307935219343,20.10737605056703,-8.796361452265169,0.0009733589551939,-0.0534337579099758,-0.1546787227453102,-0.0849473839833463,0.0184418831053967,-0.0106365550073235,549.5645417639048,-138.26514905885745,36.51254417348926,-9.696588925259374e-05
348,1724913734517243341,0.0539304614067077,0.0753756314516067,0.1817335039377212,-0.0020878775976598,-0.0263879429548978,-0.0782230198383331,0.996584415435791,0.0,0.0,0.0,216.73982676755168,-59.41623088859069,5.510158354521764,1.671648596,-0.0504945019716605,0.0220614865123135,-0.0898618954239789,7691.019871706861,431.68005739883057,197.75896386006937,-3.3249975179942304e-05,-0.0529470005927398,-0.1566601534293571,-3.0411026352381327,0.8189368672609874,-0.0958672044371269,32335.53379053203,-8739.627385567466,1186.3298621861686,9.122252587820248e-05
350,1724913734517618296,0.0527710802853107,0.0756878405809402,0.1816969364881515,-0.0015465209726244,-0.0263953320682048,-0.078211523592472,0.9965860843658448,0.0,0.0,0.0,228.996466903615,-62.72856222478236,5.960786448016073,1.672023551,2.882438806051675,0.1867035336558843,-0.0144720678156618,7451.092714374931,417.1032370354239,193.18100257803255,0.0010478204031884,-0.0528769898075646,-0.1566655441219644,-2.9575941718333376,0.7960470435436431,-0.0937412544384452,31113.22868135303,-8404.161925648048,1157.8559268214674,2.6450204360288836e-05
352,1724913734525479357,0.051681563258171,0.0759118348360061,0.1815836131572723,-0.0003976218868046,-0.0271141249686479,-0.0773751810193061,0.996633231639862,0.0,0.0,0.0,213.992787365077,-57.961929352880766,7.817192569950957,1.679884612,0.3112412391531743,-0.1594010802212362,0.2049946258235081,-203.29801173942857,-18.653943384484094,2.5210965823634464,0.0034083536602499,-0.0541336435733939,-0.1550545715733181,-0.122349803961858,0.0257721499751757,0.0010610386452656,-8729.600904111669,2438.49817453905,-138.8287655054816,-5.322263355094546e-05
354,1724913734536912866,0.0505528524518013,0.0761612355709075,0.1818531155586242,-8.872665057424456e-05,-0.0268538370728492,-0.0784423276782035,0.9965569972991944,0.0,0.0,0.0,0.7534409050663733,0.3861134792924554,-0.0058333914312408,1.691318121,0.0452617606994082,0.0492709079940675,-0.1885203216392721,-17.18990764014999,9.474379426181924,-9.388839818879111,0.0040419202176059,-0.0535622856265193,-0.1572110537354792,-0.1148133260704065,0.02864428022826,0.0198878701746423,-7812.021869708559,2146.6013290770593,-383.8506403857947,0.0003306045283304
356,1724913734545289621,0.0494923181831836,0.0764431059360504,0.1819971054792404,-0.000307923532091,-0.02652158588171,-0.0789232477545738,0.9965278506278992,0.0,0.0,0.0,1.8315284176906488,0.2220533575211296,-1.3778267691842037,1.699694876,-0.0614610021018709,0.0747718910843576,-0.1135606432587525,-4.527890492970081,-0.9108676903158284,11.120264219347868,0.0035776490687851,-0.0529323170297226,-0.1581612678489126,-0.1079232948186805,0.0327066351056291,0.0096974256539041,58.0576549483632,-22.1607214673433,-95.55368746193264,0.0002011475529862
358,1724913734555452152,0.0486258640885353,0.0767638683319091,0.1820032894611358,-0.000336257595336,-0.0264342203736305,-0.078791320323944,0.9965406060218812,0.0,0.0,0.0,1.5505927216234905,-0.0349097148200485,-1.5076603777763118,1.709857407,-0.0062244337393681,0.0167524439352026,0.0262246525381107,1.3678203047427753,-7.714378338420348,2.303821980073115,0.0035002638155688,-0.0527630144071493,-0.157893785880599,-0.0768702374127765,0.0317219358088332,-0.0062936001446596,-78.13175910678974,-2.124146385457843,40.711861046657134,5.333016585414049e-05
360,1724913734566897082,0.0478542223572731,0.0771289691329002,0.1818422973155975,-0.0006109889945946,-0.0269703548401594,-0.0793393850326538,0.9964826107025146,0.0,0.0,0.0,0.0056391379999825,0.2393077861308041,-0.3523063850149089,1.721302337,-0.042996404045651,-0.0973837299131923,-0.0950038547509347,20.347485751503044,-7.484668224941874,0.1532932541456322,0.0030663966038775,-0.053873987107509,-0.1589863001354165,-0.0785226246182948,0.0321213355111735,-0.022699691358488,-13.730509533608329,16.561204150745773,120.91890307252328,-0.0001173490571429
362,1724913734575379947,0.0471183322370052,0.0774028375744819,0.1815954595804214,0.0005170128424651,-0.0276776887476444,-0.0794176533818245,0.996457040309906,0.0,0.0,0.0,0.6515749076032362,0.3332766220387964,0.7989915035866979,1.729785202,0.2777427447742561,-0.1452322506990594,-0.0261413027745774,8.438425956746274,0.0797073678780324,-2.7507095637947163,0.0054348325883604,-0.0551050198094577,-0.1592136275394655,-0.0775315737965598,0.0354365628485564,-0.0188904669896396,70.49989109698575,10.012993157399436,84.90756355087686,-0.0002048860432447
364,1724913734585920940,0.0464218221604824,0.0778176560997963,0.1815300434827804,0.0004220374103169,-0.0280344020575284,-0.0804576501250267,0.9963636994361876,0.0,0.0,0.0,1.3207591146174131,0.4248802604531172,1.0284311493044287,1.740326195,-0.0180336049451838,-0.0694646825548338,-0.197497875960373,-5.486847957503236,3.126766022674768,-0.3941241646350191,0.005360546382884,-0.0558260016469542,-0.1613025928135924,-0.0636589847970778,0.0381959702796717,-0.0058845961417866,40.811606720984024,7.467806122143688,-2.567966621605443,-2.48330178110557e-05
366,1724913734595905281,0.0458090901374816,0.0781880766153335,0.1814743280410766,0.0010980740189552,-0.0284720491617918,-0.0806938782334327,0.9963316321372986,0.0,0.0,0.0,1.5138215386787257,0.4878808305856545,0.7726593673486479,1.750310536,0.1406565368233401,-0.0766524411718226,-0.0514238746770251,5.825531225587387,12.347733571539589,5.383109602365064,0.0067940592222292,-0.0565881872175713,-0.1618214753842761,-0.0504276442413571,0.0439805849923606,0.0024410672986068,10.936216733667678,-26.104149439291547,-42.074411938981584,-1.9861328449007824e-05
368,1724913734606034455,0.0454107373952865,0.0787042677402496,0.1815814822912216,0.0016714256489649,-0.0275889057666063,-0.0811427757143974,0.9963191747665404,0.0,0.0,0.0,1.5382739426455363,-0.1096233002002167,0.1773651900601596,1.76043971,0.0962006867866872,0.1827043463602685,-0.0919226476008498,-1.5554415802545112,8.411757825083901,-0.6839005875087296,0.0078196159478318,-0.0547307832932615,-0.1627404362231245,-0.0331556817250069,0.0479822755459,0.0096384397797102,18.47860779299043,-30.8358658269243,-51.748248718326565,0.000129589844512
370,1724913734615913519,0.0451426543295383,0.0791495889425277,0.1816676408052444,0.0022528306581079,-0.0271388329565525,-0.0814556628465652,0.9963048696517944,0.0,0.0,0.0,1.875609322017636,-0.1429991278127285,-0.2662010929515578,1.770318774,0.1081350415715259,0.1001461994604219,-0.0667449461370026,-0.3307653873837011,-5.491061290637289,4.242705703504055,0.0089232338627458,-0.0537359483922234,-0.1633924705167023,-0.019567039100661,0.0420365546870691,0.006253253423158,14.209745002888226,-0.7910293258964836,-15.852138441620584,0.0001005960823991
372,1724913734627393241,0.0450190044939518,0.0795915946364402,0.181706503033638,0.0027666285168379,-0.0267472323030233,-0.0814155489206314,0.9963175058364868,0.0,0.0,0.0,1.7727824819175153,-0.1175645688735067,-0.0606936744155993,1.781798496,0.0838106351035095,0.0753395743223916,0.0045591529706311,6.855516967661735,-1.4183986787988276,3.2946748240390744,0.0098821317345074,-0.0528716078940209,-0.1633319369872468,0.0086357697222632,0.0465159182007717,0.0042173153244657,903.4088215908356,1317.3540819039558,-97.98327538963866,4.494028962991412e-05
374,1724913734635311557,0.0451933816075325,0.0800036862492561,0.1817444413900375,0.003525115083903,-0.0265388209372758,-0.0813369080424308,0.9963271021842957,0.0,0.0,0.0,13.909402792275314,17.496659755354525,-1.469494994523881,1.789716812,0.1871110966709046,0.0681636696884483,0.0147174127211835,7.520169676639496,-1.9118536172495029,0.9710985475698756,0.0113572993827635,-0.0523331338811276,-0.1632095036510548,0.0189375399164117,0.0428117173089034,0.0043738794149295,-328.95356921737016,-350.05777842175166,57.09377953298973,2.744684635696217e-05
376,1724913734658838563,0.0454233102500438,0.0803656280040741,0.1818181723356247,0.003214671742171,-0.0270703807473182,-0.0811609551310539,0.9963281750679016,0.0,0.0,0.0,-123.9683813970687,-170.70978991478205,16.30187127124634,1.813243818,-0.0222214320769537,-0.0471126006758499,0.0157696673439883,-9685.901376383992,-4916.4410309050845,19912.24170123335,0.0108155057287756,-0.0534455947525934,-0.1628502911189125,1.2275584634724055,1.7102390181379403,-0.1343043190836397,-15069.645466921327,-21055.78092997789,1745.4070600786215,6.037048899473598e-05
378,1724913734659080008,0.0457227155566215,0.0807827562093734,0.1817854046821594,0.002899691928178,-0.0271988082677125,-0.0805831179022789,0.9963725805282592,0.0,0.0,0.0,-127.62969078777267,-175.82595382852497,16.725744236619903,1.813485263,-2.384811764369633,-1.246332621039941,4.872819706519354,-9425.486426451049,-4783.035230013654,19375.895592012286,0.0101767539499211,-0.0537588513605593,-0.1616753199087101,1.1971924565947942,1.6684233944539328,-0.1303133153430661,-14527.98986766132,-20311.589629170587,1673.975568714763,-4.966821607327729e-05
380,1724913734665645232,0.0459306687116622,0.0811664834618568,0.1818941235542297,0.0027993882540613,-0.0266439355909824,-0.0810666009783744,0.9963485598564148,0.0,0.0,0.0,-109.44257725312318,-152.40557152906325,13.150200322602126,1.820050487,-0.0480512810788982,0.1653323183975723,-0.147000547193323,220.1561436819363,123.06000582507303,-466.1826160648201,0.0099121038785809,-0.0526637601273396,-0.162630786971971,0.0268950947993737,0.0433482508645632,0.01449943005922,5775.746143309524,7849.000490542022,-849.2698659276066,9.694459895561224e-05
382,1724913734675995483,0.0461310446262359,0.0813687518239021,0.1820105761289596,0.0028657594230026,-0.0269661322236061,-0.0815942883491516,0.9962967038154602,0.0,0.0,0.0,-0.6196376857823085,-1.300667853939262,-0.6110848784544203,1.830400738,0.015136580034034,-0.061544114568612,-0.1025735087178386,4.900813681009822,-13.924189577046112,13.445710942462274,0.0101254046724805,-0.0532900970243308,-0.1637003023413409,0.0170132224381993,0.0180634996873578,0.0052621242683859,5057.696888473454,7055.68258107694,-600.2390549873867,0.0001051559691855
384,1724913734685514200,0.0462724491953849,0.0815277472138404,0.1820082366466522,0.0030470143537968,-0.0275758653879165,-0.0810889303684234,0.9963207244873048,0.0,0.0,0.0,-0.2416032184885584,-0.1750767017684559,0.0598808810621491,1.839919455,0.0512449621912765,-0.1240902099964047,0.105540703479751,6.920341945335092,2.714520756569116,11.828918566612366,0.0105596658664527,-0.0544816025515261,-0.1627065141546122,0.0140486106628214,0.0156820010431508,0.0019086368479968,32.86406523546237,55.50171694484892,38.68864551373695,-1.043006939485626e-05
386,1724913734695630038,0.0464058890938758,0.0816754028201103,0.1820507049560547,0.0038123747799545,-0.0276250950992107,-0.0804760158061981,0.9963663816452026,0.0,0.0,0.0,0.0171954916158115,-0.2882037803481198,0.1093808398600246,1.850035293,0.1548658589355228,0.0031910894163084,0.1173222225058789,-1.7816307611287436,6.93280596578362,-2.6346734520724353,0.0120615353103209,-0.0544627431117481,-0.1615176363724962,0.0123554820006841,0.0147184650200546,0.0069455475909396,27.298261970334195,-11.370558560648316,-23.847094564718276,3.450936247530081e-05
388,1724913734705643663,0.0465213283896446,0.0818239971995353,0.1821474879980087,0.0039006338920444,-0.027550421655178,-0.0802074447274208,0.9963898062705994,0.0,0.0,0.0,0.3075473682500257,-0.4039218248873187,-0.4143027228300344,1.860048918,0.0178275078283799,0.0166125358293404,0.0532789004940666,-3.749766826784138,-5.469052166066896,2.9909872296976614,0.0122109038939134,-0.0543028829870919,-0.1609813627630765,0.0143572064850938,0.0099198591503499,0.0041894413025538,16.994821931240814,7.578109745449052,-15.82490358184922,8.972477675439901e-05
390,1724913734715607803,0.0466924346983432,0.0818740651011467,0.1821349412202835,0.0042263660579919,-0.0281085800379514,-0.079324185848236,0.9964435696601868,0.0,0.0,0.0,0.3578988406716942,-0.1386991142885745,-0.2103660994378261,1.870013058,0.0789730193699841,-0.1053960913056965,0.1761487655939961,3.1994896119176186,-5.844122420045741,4.311612858970287,0.0129021849546544,-0.0553750174871834,-0.1592368854471346,0.0184889635227119,0.0066415770949883,-0.0013175653814148,14.239620628132418,22.71013641816813,58.0624826091554,-2.2424565763766183e-05
392,1724913734726296362,0.0469051524996757,0.0819635912775993,0.1821201890707016,0.0045900782570242,-0.0286483094096183,-0.078620545566082,0.9964823722839355,0.0,0.0,0.0,0.615427322373357,0.0592365266005781,0.8412939786673792,1.880701617,0.079495582148247,-0.0944737564010372,0.1302838823238053,-0.2026840494521078,0.6538759496419386,-1.9636250038102911,0.0136747271790695,-0.0564032231252371,-0.1578557283767313,0.0216635523104433,0.0073410979065018,0.0003588035428876,17.310582182524552,15.295903381237572,47.731568767539635,-2.744166525771738e-05
394,1724913734738462417,0.0471931137144565,0.0820385739207267,0.1821486353874206,0.0049679111689329,-0.029242668300867,-0.0777699500322341,0.9965299963951112,0.0,0.0,0.0,0.7320956376296084,0.2007020637647394,0.7204751471144777,1.892867672,0.0735459739934843,-0.0916145912433759,0.138623665384336,-18.363718177385156,-5.195447010764616,-16.23007805292427,0.0144742068163064,-0.0575414320473056,-0.1561823496522485,0.0335602764638665,0.0079757886741251,0.0200722376046229,-43.010399653782386,-6.4366517638883805,-127.37567808606286,1.0989305427903935e-05
396,1724913734745723361,0.0474796555936336,0.0821043401956558,0.1823712289333343,0.0044337660074234,-0.0297560319304466,-0.0779772922396659,0.9965012073516846,0.0,0.0,0.0,0.1918584420326292,0.0756836412736164,-0.7133370214709995,1.900128616,-0.1372514730974574,-0.1528712036811222,-0.0525252575978261,-15.785618175436555,-6.601573926780016,-15.60713019182962,0.0135007155718301,-0.058645988940122,-0.1565799196703391,0.0378109587944608,0.0100767396473395,0.0214039217643158,-62.50157493739138,-25.28834011666561,-129.0057896402195,0.0002047234974574
398,1724913734755904724,0.0478410311043262,0.0822214856743812,0.1824570596218109,0.0038133896887302,-0.0306950509548187,-0.078294388949871,0.996450424194336,0.0,0.0,0.0,-0.2745809382093642,-0.2970025509893413,-1.049381900942694,1.910309979,-0.1088643964281003,-0.1938887543604263,-0.0584055120104295,14.065616999574509,6.788906820242664,3.5791026020803174,0.0124293522034167,-0.0606121654197754,-0.1572012135110058,0.034145734733912,0.0077969217658484,0.0013389476131173,-33.87839473577757,-7.242265022453823,66.38480937629234,6.301732148420816e-05
400,1724913734766007669,0.0481724888086319,0.0822630748152732,0.182399496436119,0.004540107678622,-0.0308381058275699,-0.0781742259860038,0.9964523315429688,0.0,0.0,0.0,-0.4972059279340703,-0.0758080524312859,0.6177048901666977,1.920412924,0.1462979315399355,-0.0168529816420246,0.019424959605496,5.252219204466885,3.110667221492177,4.086993042290104,0.013895601153441,-0.0607849907328909,-0.157006844384664,0.0322279303029535,0.0040636661519251,-2.6011932980907204e-05,-11.221992798801324,32.309126216192446,103.57314211066164,-7.823291761755322e-05
402,1724913734775310261,0.0484673231840133,0.0823004245758056,0.1824478358030319,0.004606170579791,-0.0313634872436523,-0.0780504941940307,0.99644535779953,0.0,0.0,0.0,-0.5089735984025635,0.3139622910584041,1.054957533523924,1.929715516,0.0238099516971726,-0.1113681911920337,0.0264648173467954,-17.091449197074994,-6.942735374293173,-1.5074095632470832,0.0141028763085118,-0.0618243519235184,-0.1567747527623876,0.0249697221226283,0.0058742994312086,0.0121685462238163,37.22724456783476,15.53049988219394,-44.89753952990115,2.9441897193283105e-05
404,1724913734786249436,0.0486539751291275,0.0823886021971702,0.1826706379652023,0.0033827945590019,-0.0320671051740646,-0.0781951174139976,0.9964165687561036,0.0,0.0,0.0,0.3934134411318419,0.1446558077459132,-0.6183674992290964,1.940654691,-0.2136382151004635,-0.1459289219614424,-0.0191505872792299,10.896079243102928,12.394190117079386,3.4444524509167644,0.0117802802867889,-0.0634178544764335,-0.1570053501793951,0.0228913906610879,0.0108437435470225,0.0204168397494068,55.04793938254858,-12.395943911067803,-71.2414058348943,0.000210159997468
406,1724913734795097540,0.048898234963417,0.082504466176033,0.182851642370224,0.0039112009108066,-0.031777411699295,-0.0778873488306999,0.9964479207992554,0.0,0.0,0.0,0.6840778748475586,0.0570261264363701,-0.6638342633245122,1.949502795,0.1160979614863002,0.0750489962588155,0.0658203965205723,19.99260795801498,6.532997940656383,18.967254165344475,0.0127702214691291,-0.0627609993793732,-0.1564136491799042,0.0305476249105884,0.0099077729504175,0.0051236664576013,31.08506015732167,-0.3013104937417159,22.371778377371044,0.0001646861664894
408,1724913734805767407,0.049262024462223,0.0825691744685173,0.1827090233564376,0.0043765143491327,-0.032321847975254,-0.0758046954870224,0.9965890645980836,0.0,0.0,0.0,0.9930362158851462,0.1773634623617479,-0.0711622240926867,1.960172662,0.1071605854611156,-0.0925277709350373,0.3886818557920528,-7.821145663082948,-7.510614575488864,-8.370888378703274,0.013651668844875,-0.063802959362887,-0.1522715714075938,0.0355149546473079,0.0126110411052837,0.0117382710718292,8.339350400843685,-13.854475514211853,-36.88503162109014,-0.0001662407991957
410,1724913734817595929,0.0497007332742214,0.082804188132286,0.1831770688295364,0.0039314227178692,-0.0327173247933387,-0.0770996063947677,0.9964787364006042,0.0,0.0,0.0,0.8213302885782721,-0.3160797448316214,-1.719509894286576,1.972001184,-0.0769268575155029,-0.0739062944925685,-0.2168893884952736,15.24119869409694,-17.35293759545608,29.333513604672028,0.0129074606076896,-0.0646430261030471,-0.154853778770128,0.0541780634699944,0.0137125070084742,0.0018341952167144,-80.44681092274229,5.808341576350948,12.360182193589964,0.0004375016340446
412,1724913734825345691,0.0502073690295219,0.0828792005777359,0.1829996854066848,0.0045502511784434,-0.0339583754539489,-0.0754599124193191,0.9965600967407228,0.0,0.0,0.0,-0.1368728713339178,-0.0297617148273708,-0.8534009937917418,1.979750946,0.1975958638104447,-0.3044895934970509,0.4193227389339677,16.19161375140463,-11.295638134324957,37.1418874561371,0.0142266325571895,-0.0670466213363211,-0.1516294514213595,0.0567022066686675,0.0091852727345456,-0.015970956621448,-66.978645386608,72.51186006584706,131.43871540222543,-0.0002119014440505
414,1724913734835589533,0.0506707914173603,0.0829666033387184,0.1829297542572021,0.0049771997146308,-0.0348717272281646,-0.0744703710079193,0.9966009259223938,0.0,0.0,0.0,-0.0557242694228801,1.1946289897909166,0.7595055907718765,1.989994788,0.1030509363889263,-0.1702687875639752,0.1911150040077103,0.0459907618659833,22.52165175452329,-18.20155180627231,0.0151508267000817,-0.0688193932971976,-0.1496930558650467,0.0490365161691443,0.0163875075760335,-0.0051589898190229,14.562504876443285,55.732569672783896,62.50315935776362,-0.0001027250937754
416,1724913734846373162,0.0512426905333995,0.0832324922084808,0.1828930526971817,0.0061637484468519,-0.0339919961988925,-0.0742053166031837,0.9966444373130798,0.0,0.0,0.0,0.1766979096596994,1.0714706408697587,0.3556781449301904,2.000778417,0.208840272429215,0.1795202762813268,0.04110641674078,-17.867698855670287,5.308214225806974,-16.03807366631978,0.0173706235737974,-0.0668909737362626,-0.1492172597123432,0.0562978763686792,0.0348499446264813,-0.0003283976244663,10.085734196596311,-35.899059802962206,-7.34471269383954,-7.781202829652548e-05
418,1724913734855684599,0.0517931468784809,0.0836389511823654,0.1829147189855575,0.0053517776541411,-0.0338759422302246,-0.074815034866333,0.996607542037964,0.0,0.0,0.0,0.1784091761058721,0.5403884708232112,0.5293272445990103,2.010089854,-0.1800701917421854,0.0108253320097278,-0.1253351035370268,-37.69137476622591,-16.470117843764548,-16.072274963587656,0.0157719012054654,-0.0667708557275314,-0.1503850999639416,0.0539498388994558,0.0396762281856324,0.0022415411640912,-307.44183655089336,494.9428716801266,638.9247303703416,-1.8268926896527737e-05
420,1724913734946409801,0.0521208718419075,0.0837244763970375,0.1830426752567291,0.005381972528994,-0.0351394526660442,-0.0743636786937713,0.9965973496437072,0.0,0.0,0.0,-299.64716531429235,533.378329919607,606.8031152026203,2.100815056,0.0030855082664658,-0.0276636412062712,0.0100259147060081,4366.629252612144,-7354.865056740842,5573.742011447513,0.0159925780617737,-0.069294767120215,-0.1495134361679052,0.4507539496257777,0.1082129647140277,0.2742010907198278,212409.22643343,280538.3854955124,-250027.05045016424,0.0001039462703225
422,1724913734946992020,0.0523849800229072,0.0837878808379173,0.1832033395767212,0.0059977653436362,-0.0364583171904087,-0.0733937323093414,0.996618390083313,0.0,0.0,0.0,-175.17250003231732,697.7393473414166,460.2734651476371,2.101397275,2.561727634202373,-4.337284410792468,3.275984159524735,-6500.321243718807,2742.230343791199,2848.009595723218,0.0173522312976074,-0.0718514698455093,-0.1476438152283605,0.2751577555389275,0.4207460155555225,0.6297494080448018,1561921.3432627209,-359560.5751888843,-1305322.946483603,0.0001403816896115
424,1724913734947325607,0.0524426586925983,0.0839878395199775,0.1834810376167297,0.0056763407774269,-0.0366879515349864,-0.0727907121181488,0.996656060218811,0.0,0.0,0.0,603.5336016045999,455.11475921820875,-176.55052844879606,2.101730862,-1.6890631069206257,-1.4836201411803975,3.6982355767821407,8896.274576346415,4946.939992465519,6137.117198725171,0.0167002882109065,-0.0723673171075068,-0.1464155418066395,0.2408863950801958,0.6842640334056398,0.754543640667805,2633911.0873073814,-999586.1351107856,-1880645.2812561053,0.0002714723621363
426,1724913734947594015,0.0525219962000846,0.0841898247599601,0.1836667358875274,0.0063542388379573,-0.0368703305721282,-0.0719092264771461,0.9967092275619508,0.0,0.0,0.0,1375.192639305999,128.01816092442277,-675.203012315388,2.10199927,5.372006920404227,-0.934922031070313,6.397519069817316,14978.54258931823,1334.373202631043,1769.8251665219886,0.0180177888235233,-0.0726480265967025,-0.1446984995911042,0.5554085801076383,0.7341074197285309,0.5882356874425909,1315462.2935193272,-683963.1912709225,-2089271.971989021,0.0001777873157841
428,1724913734947844060,0.0527213960886001,0.0843690931797027,0.1837896853685379,0.0071319956332445,-0.0370279848575592,-0.0712681263685226,0.9967441558837892,0.0,0.0,0.0,1340.8534705372392,81.54665058489809,-1251.530149703677,2.102249315,6.478432301493055,-0.7666305627831592,4.909737731192113,-477.6136155291679,-1355.3990526947446,-7624.19298271371,0.0195484901790316,-0.0728627411056932,-0.1434714114048993,0.946645091111165,0.7526813935154735,0.406454524340802,-78294.85470275301,-28282.412631197396,-2337547.9712565765,0.0001060758413508
430,1724913734948094370,0.0529957339167594,0.0845664516091346,0.1838700622320175,0.0077456394210457,-0.0372774042189121,-0.0709236934781074,0.996754825115204,0.0,0.0,0.0,1336.04872352507,113.95047079877077,-1844.8241434253223,2.102499625,5.130430848046541,-1.614178368971921,2.581828226290241,-14386.350509689588,-13625.029432579866,-1963.7610504392997,0.0207859866222937,-0.0732797331021846,-0.142831720051801,1.226192635706397,0.7749135461090191,-0.0382518321973748,-347365.54497601604,745789.5341589751,2174565.1287167277,5.745175005852254e-05
432,1724913734948344540,0.0533350445330143,0.084756925702095,0.1837706416845321,0.0075704031623899,-0.0382202267646789,-0.0704450085759162,0.9967544674873352,0.0,0.0,0.0,1167.0958245918046,454.62687116331153,-164.47598277965457,2.102749795,-0.7191288200919617,-7.582819164621213,3.924860998563868,12943.924207880234,-4772.098894815994,13723.804120846671,0.0205359874018461,-0.0751966162215457,-0.1418866510194977,1.615249385280606,0.8097042901500231,-0.5168239718167342,-2266733.9435514226,1033593.4965597156,7292815.492977314,-0.0001271823693624
434,1724913734948593318,0.0538009405136108,0.0849703177809715,0.1836125254631042,0.0089145321398973,-0.0388315953314304,-0.069227859377861,0.9968050122261048,0.0,0.0,0.0,209.4844363274119,630.5710068786202,1792.3124654603653,2.102998573,11.487924988892935,-4.0481958318471385,9.406096339113816,9820.468430149784,23742.172061778103,-7034.042808952281,0.0232181083552105,-0.076254668898349,-0.1395625545153527,1.809590154477931,1.0008726435884796,-0.1251711086438263,-3080782.3049184834,68334.1127531305,4368985.573986698,-0.0001969017831013
436,1724913734948853218,0.0542541071772575,0.0852693021297454,0.1837185770273208,0.0093968156725168,-0.038251407444477,-0.0692460089921951,0.9968217611312866,0.0,0.0,0.0,-382.5542149695431,474.857575623784,1978.4135428815352,2.103258473,3.3837890730706786,4.711121521448308,-0.3142137608668962,-30554.152826270332,33010.493583676434,-36640.146418612385,0.0241015476347177,-0.0750286600305877,-0.1396153818014948,1.7088084174512657,1.1273268177073337,0.3998436676917882,-2231126.415524455,-587767.6476145899,698284.7929734474,6.655713898566856e-05
438,1724913734961392086,0.0546222105622291,0.0854576081037521,0.1837693154811859,0.0088771721348166,-0.0387376137077808,-0.0690176263451576,0.99682354927063,0.0,0.0,0.0,-34.30868639287676,-22.633098962699503,-11.983235769604851,2.115797341,-0.0758609131638892,-0.0826916363200058,0.0402311438746073,-51.44300695793374,-164.35451811956273,32.632258226851896,0.0231140134776074,-0.0760771328928511,-0.1391341617407446,0.0679655775159808,0.0087170935853109,0.0106615966753302,12776.876713817142,-6417.728559962596,-40106.7753530726,1.9373087824721863e-05
440,1724913734965809041,0.0549824833869934,0.0854863077402114,0.1838266998529434,0.0088909054175019,-0.0397819764912128,-0.0686020106077194,0.9968109726905824,0.0,0.0,0.0,-1.207024370295401,0.7671546548638575,-4.55196954071803,2.120214296,0.0461769279057195,-0.4695068309233193,0.191157275735698,17.088054770367833,-54.2171635635425,44.09283043955686,0.023256459850908,-0.0781699391505104,-0.1383357560954292,0.0666527121613778,0.0123382785730785,-0.0126200183095805,5150.559645119402,3619.2160283789326,1309.0406098066408,2.782880873085613e-05
442,1724913734975576647,0.0553113967180252,0.0857329815626144,0.1831502169370651,0.008563932031393,-0.041169062256813,-0.0645456090569496,0.9970284700393676,0.0,0.0,0.0,-1.5215415083478812,-0.1396796271173239,0.1687832823833357,2.129981902,-0.0146066219031738,-0.2785484561879143,0.8361775499098255,3.219249885432952,15.939609609140003,10.53380313811253,0.0224672193413104,-0.0810767221275248,-0.1302068746432308,0.0352115036741382,0.0186935964789611,-0.0415515789408083,81.4301154442791,-46.8497276971073,344.1992969966236,-0.0007043572888479
444,1724913734985388503,0.0556720420718193,0.0858517363667488,0.1830155998468399,0.0089729642495512,-0.0419918522238731,-0.0626100972294807,0.9971138834953308,0.0,0.0,0.0,0.3974125268139477,-0.1460583612979331,2.174928593053054,2.139793758,0.1100456382786983,-0.1577381088255245,0.3924803429892982,-4.704817373900135,5.609397936837295,-25.562230462406696,0.0232338748471686,-0.0827119983594104,-0.126379428266297,0.0370123068796397,0.0095333237887933,-0.0090376313153921,107.36372039228074,39.06381957789424,34.727610786623266,-0.0001662273798162
446,1724913734995486143,0.0560484416782856,0.0859212949872016,0.1829729974269867,0.0082512563094496,-0.0428293161094188,-0.060937974601984,0.9971880912780762,0.0,0.0,0.0,0.5648630329219086,0.6610911138740565,0.7617652978299028,2.149891398,-0.11837254033844,-0.1707553552513945,0.3386461054169896,-18.717015540908623,3.1635145281042414,-12.297642190161424,0.0217553289366688,-0.0845127062379268,-0.1229877000069636,0.0432478135564067,0.0162423326070308,0.0010897652520291,-2.6872569259889847,25.42602434921945,-92.73247657438024,-7.575163392382496e-05
448,1724913735005950743,0.0565657764673233,0.0861927047371864,0.183041974902153,0.0067739654332399,-0.0432146191596984,-0.0603013969957828,0.997221291065216,0.0,0.0,0.0,0.32775659528264,0.3360259059295398,0.3034246147093467,2.160355998,-0.2719008921596585,-0.0893618940042327,0.1344076845767755,20.84163484071889,1.5816202995445314,-10.268093172084017,0.0187917971530502,-0.0854761634099067,-0.121595396552212,0.0485878070182681,0.023124355226165,0.0064457452347355,-40.69940730649458,-30.30153591500986,-30.53848050284333,2.144997565956163e-05
450,1724913735016025197,0.057047039270401,0.0863984003663063,0.1831054985523224,0.0081261983141303,-0.0439752154052257,-0.0596382357180118,0.9972178339958192,0.0,0.0,0.0,-0.2572491145143245,0.0381428987835417,0.1243794806213428,2.170430452,0.2825010895054569,-0.1335255295280228,0.1206668079882165,31.96391934770089,7.699001500415012,-3.6850958474741367,0.0215352064610998,-0.086845599899492,-0.1204026927146684,0.0501193991944042,0.0233902677475796,0.0074813969661811,-65.30261972981953,-27.074482763097684,-15.182023435894116,1.8338764258697187e-05
