seq,stamp,px,py,pz,ox,oy,oz,ow,lx,ly,lz,ax,ay,az
12,1724559176393577689,-1.722049593925476,0.2525179982185364,0.19679297506809235,-0.006362081505358219,-0.025010203942656517,-0.30458685755729675,0.9521348476409912,0.0,0.0,0.0,0.0,0.0,0.0
14,1724559176404581278,-1.7218449115753174,0.252267986536026,0.1964654177427292,-0.005443571135401726,-0.02659277804195881,-0.3045128881931305,0.952121376991272,0.0,0.0,0.0,0.0,0.0,0.0
16,1724559176413932611,-1.721704363822937,0.25227347016334534,0.19679264724254608,-0.006599326152354479,-0.024940140545368195,-0.3054766058921814,0.9518500566482544,0.0,0.0,0.0,0.0,0.0,0.0
18,1724559176424405873,-1.7215303182601929,0.2521515488624573,0.19679391384124756,-0.006412190850824118,-0.024147748947143555,-0.3059200346469879,0.9517293572425842,0.0,0.0,0.0,0.0,0.0,0.0
20,1724559176436669106,-1.72137451171875,0.25207605957984924,0.196955606341362,-0.006599531974643469,-0.022719314321875572,-0.30685701966285706,0.9514615535736084,0.0,0.0,0.0,0.0,0.0,0.0
22,1724559176443271750,-1.7213300466537476,0.2521331012248993,0.1972271353006363,-0.009053662419319153,-0.022941572591662407,-0.3085778057575226,0.9508793354034424,0.0,0.0,0.0,0.0,0.0,0.0
24,1724559176453476840,-1.7211419343948364,0.251991868019104,0.1971772015094757,-0.009377052076160908,-0.02268996089696884,-0.30918508768081665,0.9506849050521851,0.0,0.0,0.0,0.0,0.0,0.0
26,1724559176463828290,-1.7209315299987793,0.2519322633743286,0.19727234542369843,-0.008541900664567947,-0.020399075001478195,-0.30993449687957764,0.9505006670951843,0.0,0.0,0.0,0.0,0.0,0.0
28,1724559176474411706,-1.7207064628601074,0.25178372859954834,0.19722886383533478,-0.008902223780751228,-0.019744860008358955,-0.3103697896003723,0.950369119644165,0.0,0.0,0.0,0.0,0.0,0.0
30,1724559176484366324,-1.7203201055526733,0.2513405680656433,0.19663964211940765,-0.006233842112123966,-0.01982790045440197,-0.30951735377311707,0.950666606426239,0.0,0.0,0.0,0.0,0.0,0.0
32,1724559176494148662,-1.7200807332992554,0.2511161267757416,0.19646479189395905,-0.007512371521443129,-0.0214626956731081,-0.30946022272109985,0.9506404995918274,0.0,0.0,0.0,0.0,0.0,0.0
34,1724559176504623628,-1.720009684562683,0.25096338987350464,0.196452334523201,-0.00938002672046423,-0.02238471619784832,-0.31032830476760864,0.9503196477890015,0.0,0.0,0.0,0.0,0.0,0.0
36,1724559176513682494,-1.7197612524032593,0.2508145272731781,0.19643527269363403,-0.009156332351267338,-0.02144772931933403,-0.3108050525188446,0.9501875042915344,0.0,0.0,0.0,0.0,0.0,0.0
38,1724559176523875564,-1.7195215225219727,0.2503812313079834,0.19597183167934418,-0.009455363266170025,-0.02373574860394001,-0.30999428033828735,0.9503951072692871,0.0,0.0,0.0,0.0,0.0,0.0
40,1724559176540415213,-1.719343900680542,0.25038668513298035,0.1960214376449585,-0.009248183108866215,-0.021706214174628258,-0.31096741557121277,0.9501277208328247,0.0,0.0,0.0,0.0,0.0,0.0
42,1724559176544199684,-1.718995213508606,0.2500237226486206,0.19552931189537048,-0.00734331551939249,-0.022015545517206192,-0.309538334608078,0.950603723526001,0.0,0.0,0.0,0.0,0.0,0.0
44,1724559176556912501,-1.7188602685928345,0.2500019967556,0.19562165439128876,-0.007871720939874649,-0.021288977935910225,-0.3100433647632599,0.9504514932632446,0.0,0.0,0.0,0.0,0.0,0.0
46,1724559176563982871,-1.7186775207519531,0.2499118149280548,0.19553476572036743,-0.0075241029262542725,-0.021650051698088646,-0.31014731526374817,0.9504122138023376,0.0,0.0,0.0,0.0,0.0,0.0
48,1724559176574371193,-1.7185505628585815,0.24986384809017181,0.19562608003616333,-0.007468259893357754,-0.021624978631734848,-0.3105440139770508,0.9502836465835571,0.0,0.0,0.0,0.0,0.0,0.0
50,1724559176584453728,-1.7184264659881592,0.2498987466096878,0.19577206671237946,-0.007710426114499569,-0.020959515124559402,-0.3111371397972107,0.9501026272773743,0.0,0.0,0.0,0.0,0.0,0.0
52,1724559176595683673,-1.7183653116226196,0.25000518560409546,0.19596341252326965,-0.008670814335346222,-0.019493935629725456,-0.3120615780353546,0.9498222470283508,0.0,0.0,0.0,0.0,0.0,0.0
54,1724559176603806070,-1.7181978225708008,0.24989396333694458,0.19585564732551575,-0.008323682472109795,-0.020171279087662697,-0.3119378983974457,0.9498518705368042,0.0,0.0,0.0,0.0,0.0,0.0
56,1724559176614438367,-1.7180535793304443,0.2499634325504303,0.1960769146680832,-0.008127301931381226,-0.019199443981051445,-0.31254708766937256,0.9496734738349915,0.0,0.0,0.0,0.0,0.0,0.0
58,1724559176623475019,-1.717946171760559,0.24985560774803162,0.1960715651512146,-0.007859957404434681,-0.019312292337417603,-0.3127122223377228,0.9496190547943115,0.0,0.0,0.0,0.0,0.0,0.0
60,1724559176634006449,-1.717781662940979,0.2496885061264038,0.19595853984355927,-0.00686989538371563,-0.01964993216097355,-0.3127095699310303,0.9496206641197205,0.0,0.0,0.0,0.0,0.0,0.0
62,1724559176654574257,-1.7177244424819946,0.24972514808177948,0.19612644612789154,-0.007605709135532379,-0.01872214488685131,-0.31358617544174194,0.9493447542190552,0.0,0.0,0.0,0.0,0.0,0.0
64,1724559176659104486,-1.7176333665847778,0.2497185468673706,0.1962531954050064,-0.008073801174759865,-0.018045730888843536,-0.3142981231212616,0.9491184949874878,0.0,0.0,0.0,0.0,0.0,0.0
66,1724559176686954905,-1.717515230178833,0.24950754642486572,0.19606979191303253,-0.007658005692064762,-0.018730800598859787,-0.3140215277671814,0.9492002129554749,0.0,0.0,0.0,0.0,0.0,0.0
68,1724559176687286699,-1.717372179031372,0.2493494153022766,0.19578225910663605,-0.007089424412697554,-0.019233379513025284,-0.3139135241508484,0.9492303729057312,0.0,0.0,0.0,0.0,0.0,0.0
70,1724559176687552053,-1.7173322439193726,0.24942970275878906,0.19595041871070862,-0.00797636341303587,-0.018089454621076584,-0.3148324489593506,0.9489413499832153,0.0,0.0,0.0,0.0,0.0,0.0
72,1724559176693787838,-1.7172497510910034,0.24935048818588257,0.19584502279758453,-0.007619034498929977,-0.018636969849467278,-0.3148609399795532,0.9489242434501648,0.0,0.0,0.0,0.0,0.0,0.0
74,1724559176703510866,-1.7171993255615234,0.24933217465877533,0.19571076333522797,-0.00618387944996357,-0.017434166744351387,-0.3157084584236145,0.9486759901046753,0.0,0.0,0.0,0.0,0.0,0.0
76,1724559176716412572,-1.7171690464019775,0.24904844164848328,0.1950092315673828,-0.004553756210952997,-0.01950358785688877,-0.3154905140399933,0.9487173557281494,0.0,0.0,0.0,0.0,0.0,0.0
78,1724559176724332173,-1.7171564102172852,0.24906452000141144,0.19503894448280334,-0.004812237340956926,-0.01936129853129387,-0.31572800874710083,0.948639988899231,0.0,0.0,0.0,0.0,0.0,0.0
80,1724559176733961122,-1.717145323753357,0.24908514320850372,0.1950725018978119,-0.004994476214051247,-0.01943781226873398,-0.31604132056236267,0.9485331177711487,0.0,0.0,0.0,0.0,0.0,0.0
82,1724559176743698126,-1.7171603441238403,0.24913769960403442,0.19514843821525574,-0.005119712557643652,-0.01876750960946083,-0.31649619340896606,0.9483943581581116,0.0,0.0,0.0,0.0,0.0,0.0
84,1724559176754273366,-1.7171674966812134,0.24923302233219147,0.19519232213497162,-0.00511202123016119,-0.01803545653820038,-0.317190557718277,0.9481765627861023,0.0,0.0,0.0,0.0,0.0,0.0
86,1724559176764770508,-1.7170928716659546,0.24932292103767395,0.19528542459011078,-0.00474718539044261,-0.017531676217913628,-0.31768324971199036,0.9480229020118713,0.0,0.0,0.0,0.0,0.0,0.0
88,1724559176774187296,-1.7170082330703735,0.24935871362686157,0.19517873227596283,-0.0047229621559381485,-0.01753395050764084,-0.3178410828113556,0.9479700922966003,0.0,0.0,0.0,0.0,0.0,0.0
90,1724559176787165776,-1.7168971300125122,0.2493492215871811,0.19486966729164124,-0.0033801968675106764,-0.017547305673360825,-0.3179342746734619,0.9479443430900574,0.0,0.0,0.0,0.0,0.0,0.0
92,1724559176793893662,-1.7167493104934692,0.24936361610889435,0.19452688097953796,-0.0023781354539096355,-0.018066033720970154,-0.3181360363960266,0.9478700160980225,0.0,0.0,0.0,0.0,0.0,0.0
94,1724559176804131250,-1.7165758609771729,0.24949143826961517,0.19472423195838928,-0.003963877446949482,-0.01796868070960045,-0.31796687841415405,0.9479233026504517,0.0,0.0,0.0,0.0,0.0,0.0
96,1724559176814167992,-1.7164270877838135,0.24948588013648987,0.19471605122089386,-0.0037602249067276716,-0.017116578295826912,-0.3183685839176178,0.9478049874305725,0.0,0.0,0.0,0.0,0.0,0.0
98,1724559176824365007,-1.7162866592407227,0.24949093163013458,0.19477345049381256,-0.003517509438097477,-0.015927283093333244,-0.31894752383232117,0.9476320147514343,0.0,0.0,0.0,0.0,0.0,0.0
100,1724559176834715746,-1.71614408493042,0.249477356672287,0.19471406936645508,-0.003233957337215543,-0.015101730823516846,-0.31926506757736206,0.9475396275520325,0.0,0.0,0.0,0.0,0.0,0.0
102,1724559176849281785,-1.7159472703933716,0.2494252473115921,0.19458165764808655,-0.0028835709672421217,-0.014644425362348557,-0.31960010528564453,0.9474349617958069,0.0,0.0,0.0,0.0,0.0,0.0
104,1724559176859246891,-1.7157745361328125,0.2493923157453537,0.1945537030696869,-0.003178810002282262,-0.014162381179630756,-0.32015570998191833,0.9472538232803345,0.0,0.0,0.0,0.0,0.0,0.0
106,1724559176864008385,-1.7156522274017334,0.24941447377204895,0.19464094936847687,-0.003741202875971794,-0.013198553584516048,-0.32115912437438965,0.946925938129425,0.0,0.0,0.0,0.0,0.0,0.0
108,1724559176874319008,-1.7156070470809937,0.24951213598251343,0.19457516074180603,-0.005857168696820736,-0.013272942043840885,-0.3224943280220032,0.9464602470397949,0.0,0.0,0.0,0.0,0.0,0.0
110,1724559176885395277,-1.7154481410980225,0.2494640052318573,0.19456501305103302,-0.006513984873890877,-0.011863580904901028,-0.3231743276119232,0.9462426900863647,0.0,0.0,0.0,0.0,0.0,0.0
112,1724559176893730366,-1.7152568101882935,0.24921844899654388,0.1943495273590088,-0.006023824214935303,-0.011671844869852066,-0.3231510519981384,0.9462562203407288,0.0,0.0,0.0,0.0,0.0,0.0
114,1724559176903809061,-1.7150390148162842,0.24893774092197418,0.19395378232002258,-0.00599650340154767,-0.012303701601922512,-0.3230006694793701,0.9462997913360596,0.0,0.0,0.0,0.0,0.0,0.0
116,1724559176914251940,-1.7148343324661255,0.2486749142408371,0.1935053914785385,-0.006148599088191986,-0.01305787730962038,-0.32271215319633484,0.9463871121406555,0.0,0.0,0.0,0.0,0.0,0.0
118,1724559176924352776,-1.7146075963974,0.24839997291564941,0.1931755542755127,-0.005578959826380014,-0.013913733884692192,-0.32253414392471313,0.9464391469955444,0.0,0.0,0.0,0.0,0.0,0.0
120,1724559176935461142,-1.7143752574920654,0.24809777736663818,0.1929161101579666,-0.005240610800683498,-0.014863683842122555,-0.32258421182632446,0.9464095234870911,0.0,0.0,0.0,0.0,0.0,0.0
122,1724559176943587533,-1.7140655517578125,0.24781566858291626,0.1926828920841217,-0.004337682388722897,-0.015117811039090157,-0.32289987802505493,0.9463024735450745,0.0,0.0,0.0,0.0,0.0,0.0
124,1724559176953781699,-1.7137417793273926,0.24774473905563354,0.19276335835456848,-0.0035048439167439938,-0.011647903360426426,-0.3240989148616791,0.9459449648857117,0.0,0.0,0.0,0.0,0.0,0.0
126,1724559176964935838,-1.7133241891860962,0.2475591003894806,0.19273793697357178,-0.0014637658605352044,-0.007799867074936628,-0.3244730830192566,0.9458616971969604,0.0,0.0,0.0,0.0,0.0,0.0
128,1724559177000739905,-1.7130051851272583,0.24737900495529175,0.19267654418945312,-0.0008826163248158991,-0.005820254795253277,-0.32512080669403076,0.9456541538238525,0.0,0.0,0.0,0.0,0.0,0.0
130,1724559177001529416,-1.7126362323760986,0.24699459969997406,0.19227828085422516,-8.065291694947518e-06,-0.0060941437259316444,-0.3248746395111084,0.9457374811172485,0.0,0.0,0.0,0.0,0.0,0.0
132,1724559177005764501,-1.711777925491333,0.2463458925485611,0.19151437282562256,-0.0009310885216109455,-0.007327452767640352,-0.3245881497859955,0.9458266496658325,0.0,0.0,0.0,0.0,0.0,0.0
134,1724559177014658727,-1.7112945318222046,0.24598389863967896,0.1910180151462555,-0.00039644798380322754,-0.009198660030961037,-0.3249320983886719,0.9456925988197327,0.0,0.0,0.0,0.0,0.0,0.0
136,1724559177024496248,-1.7108144760131836,0.24571308493614197,0.19059692323207855,-0.0003266645653638989,-0.008435345254838467,-0.3257553279399872,0.9454165101051331,0.0,0.0,0.0,0.0,0.0,0.0
138,1724559177039909667,-1.7103365659713745,0.24537047743797302,0.1902332901954651,0.0003798349353019148,-0.007444221060723066,-0.3261018991470337,0.9453052878379822,0.0,0.0,0.0,0.0,0.0,0.0
140,1724559177045612120,-1.7098369598388672,0.24500854313373566,0.18998323380947113,0.0016009809914976358,-0.0051032244227826595,-0.32663100957870483,0.9451367855072021,0.0,0.0,0.0,0.0,0.0,0.0
142,1724559177056032135,-1.7093439102172852,0.24428440630435944,0.1892624795436859,0.0024878568947315216,-0.0074403355829417706,-0.32599350810050964,0.9453394412994385,0.0,0.0,0.0,0.0,0.0,0.0
144,1724559177067774883,-1.7085349559783936,0.24359655380249023,0.18881483376026154,0.007462457753717899,-0.004166553262621164,-0.3257898986339569,0.9454036355018616,0.0,0.0,0.0,0.0,0.0,0.0
146,1724559177077783394,-1.707898497581482,0.24299447238445282,0.18872053921222687,0.0072828116826713085,-0.0027451361529529095,-0.3266126215457916,0.9451262950897217,0.0,0.0,0.0,0.0,0.0,0.0
148,1724559177084434750,-1.7074166536331177,0.2422419637441635,0.1883234977722168,0.006176920607686043,-0.004524219315499067,-0.3273046910762787,0.9448879361152649,0.0,0.0,0.0,0.0,0.0,0.0
150,1724559177094212942,-1.7067630290985107,0.2414533793926239,0.18811315298080444,0.007424511015415192,-0.0019366571214050055,-0.3281604051589966,0.9445908665657043,0.0,0.0,0.0,0.0,0.0,0.0
152,1724559177103558315,-1.7060372829437256,0.24058634042739868,0.1878644973039627,0.005861759185791016,-0.0011209624353796244,-0.3290518522262573,0.9442930817604065,0.0,0.0,0.0,0.0,0.0,0.0
154,1724559177113890647,-1.7051196098327637,0.23922030627727509,0.1871376931667328,0.009628972969949245,0.0006416502292267978,-0.3282230496406555,0.9445509314537048,0.0,0.0,0.0,0.0,0.0,0.0
156,1724559177125837146,-1.704384446144104,0.2380160242319107,0.1866820603609085,0.011859845370054245,0.002151054097339511,-0.3286052942276001,0.9443904757499695,0.0,0.0,0.0,0.0,0.0,0.0
158,1724559177133650827,-1.7035882472991943,0.23711612820625305,0.18663807213306427,0.011555003002285957,0.0035254349932074547,-0.3313652575016022,0.9434252381324768,0.0,0.0,0.0,0.0,0.0,0.0
160,1724559177144090327,-1.7027215957641602,0.2357853800058365,0.1858634054660797,0.010646193288266659,0.0007470112759619951,-0.3316958248615265,0.9433260560035706,0.0,0.0,0.0,0.0,0.0,0.0
162,1724559177156781953,-1.7017818689346313,0.23437266051769257,0.18558596074581146,0.01297033205628395,0.003581246128305793,-0.3326259255409241,0.9429628849029541,0.0,0.0,0.0,0.0,0.0,0.0
164,1724559177163915952,-1.7009021043777466,0.2329077124595642,0.18556024134159088,0.01302172988653183,0.004613789729773998,-0.333871454000473,0.9425174593925476,0.0,0.0,0.0,0.0,0.0,0.0
166,1724559177177140585,-1.699988842010498,0.2314402163028717,0.18528693914413452,0.013625268824398518,0.005228796042501926,-0.3357740044593811,0.94182950258255,0.0,0.0,0.0,0.0,0.0,0.0
168,1724559177185001894,-1.6989208459854126,0.23013344407081604,0.18528907001018524,0.013378665782511234,0.00802453514188528,-0.33797866106033325,0.9410244822502136,0.0,0.0,0.0,0.0,0.0,0.0
170,1724559177257909720,-1.697702407836914,0.22850368916988373,0.1849689781665802,0.015760520473122597,0.008796785026788712,-0.3393194377422333,0.9404981136322021,0.0,0.0,0.0,0.0,0.0,0.0
172,1724559177259820939,-1.6963996887207031,0.2267787605524063,0.1845589578151703,0.019059056416153908,0.011138672940433025,-0.34034085273742676,0.9400429725646973,0.0,0.0,0.0,0.0,0.0,0.0
174,1724559177260088172,-1.695169448852539,0.22485695779323578,0.18415965139865875,0.02032005973160267,0.010216192342340946,-0.34150850772857666,0.9396034479141235,0.0,0.0,0.0,0.0,0.0,0.0
176,1724559177260482913,-1.6940858364105225,0.2231326550245285,0.18414917588233948,0.018798161298036575,0.010981421917676926,-0.34365740418434143,0.9388427734375,0.0,0.0,0.0,0.0,0.0,0.0
178,1724559177260862597,-1.6929209232330322,0.22136640548706055,0.18387876451015472,0.020497480407357216,0.012650499120354652,-0.3459324836730957,0.9379501938819885,0.0,0.0,0.0,0.0,0.0,0.0
180,1724559177261261439,-1.6915723085403442,0.219377338886261,0.1834777444601059,0.02246331237256527,0.01281590573489666,-0.3469812572002411,0.937515377998352,0.0,0.0,0.0,0.0,0.0,0.0
182,1724559177261676251,-1.6904677152633667,0.21754103899002075,0.1829671710729599,0.021618882194161415,0.011709214188158512,-0.34833794832229614,0.9370465874671936,0.0,0.0,0.0,0.0,0.0,0.0
184,1724559177264190306,-1.689252495765686,0.21599909663200378,0.18318326771259308,0.022468972951173782,0.015126226469874382,-0.3525838255882263,0.9353882074356079,0.0,0.0,0.0,0.0,0.0,0.0
186,1724559177274324507,-1.6879966259002686,0.21404775977134705,0.1826682686805725,0.02390557900071144,0.015033034607768059,-0.3538683354854584,0.9348689317703247,0.0,0.0,0.0,0.0,0.0,0.0
188,1724559177300113472,-1.6868209838867188,0.21215292811393738,0.1824585199356079,0.023074494674801826,0.015193309634923935,-0.3564058542251587,0.9339227676391602,0.0,0.0,0.0,0.0,0.0,0.0
190,1724559177300423688,-1.6856207847595215,0.21010372042655945,0.18194541335105896,0.02467265911400318,0.016425879672169685,-0.3573438227176666,0.9335024356842041,0.0,0.0,0.0,0.0,0.0,0.0
192,1724559177303907871,-1.6842635869979858,0.2084340751171112,0.18170323967933655,0.025206808000802994,0.019499992951750755,-0.360027015209198,0.9323974251747131,0.0,0.0,0.0,0.0,0.0,0.0
194,1724559177313862561,-1.6828908920288086,0.20658478140830994,0.1812645047903061,0.02620438113808632,0.020644154399633408,-0.36237096786499023,0.9314367771148682,0.0,0.0,0.0,0.0,0.0,0.0
196,1724559177324466127,-1.6816680431365967,0.20464304089546204,0.18071727454662323,0.02531014196574688,0.018697356805205345,-0.3640061914920807,0.9308648109436035,0.0,0.0,0.0,0.0,0.0,0.0
198,1724559177335386730,-1.6802319288253784,0.20286568999290466,0.18037083745002747,0.027593212202191353,0.022639498114585876,-0.366264671087265,0.9298259019851685,0.0,0.0,0.0,0.0,0.0,0.0
200,1724559177345354008,-1.6789555549621582,0.2007901519536972,0.17974691092967987,0.027437172830104828,0.022713499143719673,-0.3673279583454132,0.9294092655181885,0.0,0.0,0.0,0.0,0.0,0.0
202,1724559177360525647,-1.6775972843170166,0.19899383187294006,0.17943578958511353,0.028756992891430855,0.024828461930155754,-0.37007755041122437,0.9282236695289612,0.0,0.0,0.0,0.0,0.0,0.0
204,1724559177365085728,-1.6762953996658325,0.19687114655971527,0.1787419468164444,0.03031139448285103,0.024653185158967972,-0.3712846636772156,0.9276967644691467,0.0,0.0,0.0,0.0,0.0,0.0
206,1724559177375328519,-1.6749471426010132,0.195181205868721,0.17824213206768036,0.031035801395773888,0.026358934119343758,-0.3739183247089386,0.9265673756599426,0.0,0.0,0.0,0.0,0.0,0.0
208,1724559177396488661,-1.6736420392990112,0.19343875348567963,0.17764902114868164,0.03135973587632179,0.029131047427654266,-0.37596243619918823,0.9256458282470703,0.0,0.0,0.0,0.0,0.0,0.0
210,1724559177396806122,-1.6723058223724365,0.19159327447414398,0.17724765837192535,0.032921917736530304,0.03231256455183029,-0.3776860237121582,0.9247840046882629,0.0,0.0,0.0,0.0,0.0,0.0
212,1724559177403777702,-1.6711900234222412,0.18983490765094757,0.17653736472129822,0.03328459709882736,0.03163842856884003,-0.3790011405944824,0.9242561459541321,0.0,0.0,0.0,0.0,0.0,0.0
214,1724559177466357146,-1.669908881187439,0.1883590817451477,0.17638829350471497,0.03471321240067482,0.035745926201343536,-0.3820408284664154,0.9228012561798096,0.0,0.0,0.0,0.0,0.0,0.0
216,1724559177466789285,-1.6688936948776245,0.1865701675415039,0.17528671026229858,0.03536038473248482,0.03166239336133003,-0.3826461136341095,0.9226749539375305,0.0,0.0,0.0,0.0,0.0,0.0
218,1724559177467208214,-1.6678825616836548,0.185024231672287,0.17488297820091248,0.03519769012928009,0.033228278160095215,-0.3844849467277527,0.9218614101409912,0.0,0.0,0.0,0.0,0.0,0.0
220,1724559177467597335,-1.6669607162475586,0.18363963067531586,0.17450228333473206,0.03649892285466194,0.0348210334777832,-0.38607338070869446,0.9210878014564514,0.0,0.0,0.0,0.0,0.0,0.0
222,1724559177468017085,-1.6660634279251099,0.18211770057678223,0.17398174107074738,0.03776618838310242,0.034878380596637726,-0.3871471881866455,0.9205837845802307,0.0,0.0,0.0,0.0,0.0,0.0
224,1724559177468289983,-1.6653292179107666,0.1807888001203537,0.17357270419597626,0.038400910794734955,0.03559444099664688,-0.3884839713573456,0.9199665784835815,0.0,0.0,0.0,0.0,0.0,0.0
226,1724559177474401174,-1.6644853353500366,0.1795850545167923,0.1728568822145462,0.040167804807424545,0.03632231801748276,-0.3894835412502289,0.919439971446991,0.0,0.0,0.0,0.0,0.0,0.0
228,1724559177485008914,-1.663797378540039,0.17859496176242828,0.17240853607654572,0.03963026404380798,0.038005098700523376,-0.39096856117248535,0.9187647700309753,0.0,0.0,0.0,0.0,0.0,0.0
230,1724559177493562795,-1.6631662845611572,0.1774757206439972,0.1719558984041214,0.037713706493377686,0.036910783499479294,-0.3920198678970337,0.9184419512748718,0.0,0.0,0.0,0.0,0.0,0.0
232,1724559177506035466,-1.66250741481781,0.17651070654392242,0.17130699753761292,0.038024645298719406,0.03693430498242378,-0.39243146777153015,0.9182524681091309,0.0,0.0,0.0,0.0,0.0,0.0
234,1724559177513703013,-1.6619162559509277,0.17575548589229584,0.1709335297346115,0.040391407907009125,0.03923499956727028,-0.3934932351112366,0.9176013469696045,0.0,0.0,0.0,0.0,0.0,0.0
236,1724559177524032562,-1.6613399982452393,0.17507478594779968,0.17109565436840057,0.041457343846559525,0.042702507227659225,-0.3953775465488434,0.9165884256362915,0.0,0.0,0.0,0.0,0.0,0.0
238,1724559177535788300,-1.6609619855880737,0.17446540296077728,0.17073586583137512,0.04089314118027687,0.0440899021923542,-0.39623963832855225,0.9161757826805115,0.0,0.0,0.0,0.0,0.0,0.0
240,1724559177544202358,-1.660547137260437,0.17367593944072723,0.17034170031547546,0.04202810302376747,0.044938113540410995,-0.39608776569366455,0.916148841381073,0.0,0.0,0.0,0.0,0.0,0.0
242,1724559177553674493,-1.6602951288223267,0.17300629615783691,0.16989947855472565,0.04258495941758156,0.043932583183050156,-0.39639270305633545,0.9160400032997131,0.0,0.0,0.0,0.0,0.0,0.0
244,1724559177563972122,-1.6599034070968628,0.1724575012922287,0.1693664789199829,0.04430757090449333,0.04365259036421776,-0.3968265652656555,0.9157838821411133,0.0,0.0,0.0,0.0,0.0,0.0
246,1724559177583367665,-1.6596202850341797,0.17197149991989136,0.168899267911911,0.04349813982844353,0.04395720362663269,-0.39723068475723267,0.9156328439712524,0.0,0.0,0.0,0.0,0.0,0.0
248,1724559177585103628,-1.659429907798767,0.17165324091911316,0.16862210631370544,0.04048671945929527,0.043933115899562836,-0.3972710967063904,0.9157546162605286,0.0,0.0,0.0,0.0,0.0,0.0
250,1724559177593697575,-1.6591861248016357,0.17128005623817444,0.1685485988855362,0.04047585651278496,0.04518519714474678,-0.3977876901626587,0.915469765663147,0.0,0.0,0.0,0.0,0.0,0.0
252,1724559177606936755,-1.6589549779891968,0.17094087600708008,0.16855084896087646,0.04120536893606186,0.04697851836681366,-0.39862361550331116,0.914983332157135,0.0,0.0,0.0,0.0,0.0,0.0
254,1724559177614931445,-1.6587252616882324,0.17050009965896606,0.16829295456409454,0.042360223829746246,0.0475541353225708,-0.398593008518219,0.9149141311645508,0.0,0.0,0.0,0.0,0.0,0.0
256,1724559177623966116,-1.6584736108779907,0.17006298899650574,0.16801176965236664,0.04358721524477005,0.047840848565101624,-0.39876195788383484,0.9147679805755615,0.0,0.0,0.0,0.0,0.0,0.0
258,1724559177635510221,-1.6582695245742798,0.16971150040626526,0.16775836050510406,0.04389602690935135,0.04792564734816551,-0.39875614643096924,0.9147512316703796,0.0,0.0,0.0,0.0,0.0,0.0
260,1724559177644509383,-1.6579903364181519,0.1691681146621704,0.16729798913002014,0.04631148278713226,0.04846649244427681,-0.3981606066226959,0.914863109588623,0.0,0.0,0.0,0.0,0.0,0.0
262,1724559177653685769,-1.6577426195144653,0.1690085530281067,0.1671212613582611,0.04516710340976715,0.04927847161889076,-0.39895379543304443,0.9145312905311584,0.0,0.0,0.0,0.0,0.0,0.0
264,1724559177665176380,-1.6575323343276978,0.16872826218605042,0.16687944531440735,0.04477601498365402,0.0495726503431797,-0.3994513750076294,0.9143174290657043,0.0,0.0,0.0,0.0,0.0,0.0
266,1724559177674187734,-1.6573024988174438,0.1682388335466385,0.16656872630119324,0.04605118930339813,0.04911348968744278,-0.3997590243816376,0.9141443371772766,0.0,0.0,0.0,0.0,0.0,0.0
268,1724559177686617901,-1.6571149826049805,0.1678125560283661,0.16616135835647583,0.047379422932863235,0.04968688264489174,-0.3997928202152252,0.9140307903289795,0.0,0.0,0.0,0.0,0.0,0.0
270,1724559177693993686,-1.6568772792816162,0.1674758791923523,0.16595283150672913,0.04759639874100685,0.05079879239201546,-0.39981845021247864,0.9139470458030701,0.0,0.0,0.0,0.0,0.0,0.0
272,1724559177703787446,-1.6566840410232544,0.16712921857833862,0.16578108072280884,0.04768408089876175,0.052213042974472046,-0.40014252066612244,0.913720965385437,0.0,0.0,0.0,0.0,0.0,0.0
274,1724559177717694822,-1.6564494371414185,0.16677039861679077,0.1655222475528717,0.04801003262400627,0.05326981469988823,-0.40038397908210754,0.9135370850563049,0.0,0.0,0.0,0.0,0.0,0.0
276,1724559177726717981,-1.6562554836273193,0.16632027924060822,0.16510283946990967,0.0472794808447361,0.05335596576333046,-0.39994582533836365,0.9137620329856873,0.0,0.0,0.0,0.0,0.0,0.0
278,1724559177733705494,-1.6559721231460571,0.1660502552986145,0.16509856283664703,0.04702121391892433,0.05583112686872482,-0.4008648097515106,0.9132246971130371,0.0,0.0,0.0,0.0,0.0,0.0
280,1724559177744423939,-1.6555882692337036,0.16568751633167267,0.16503992676734924,0.04792060703039169,0.05773212015628815,-0.40193426609039307,0.9125894904136658,0.0,0.0,0.0,0.0,0.0,0.0
282,1724559177753734285,-1.6552244424819946,0.1652306169271469,0.16483591496944427,0.04896121472120285,0.05826108902692795,-0.4029119312763214,0.9120694398880005,0.0,0.0,0.0,0.0,0.0,0.0
284,1724559177765046688,-1.6549569368362427,0.1645604819059372,0.16415032744407654,0.04996031895279884,0.05583303049206734,-0.4023541510105133,0.9124132394790649,0.0,0.0,0.0,0.0,0.0,0.0
286,1724559177814555690,-1.6546666622161865,0.16412508487701416,0.16382542252540588,0.05032514035701752,0.056736964732408524,-0.4026152193546295,0.9122222661972046,0.0,0.0,0.0,0.0,0.0,0.0
288,1724559177815621059,-1.654428482055664,0.16362056136131287,0.16340471804141998,0.0511431023478508,0.05738149955868721,-0.40276721119880676,0.9120693206787109,0.0,0.0,0.0,0.0,0.0,0.0
290,1724559177816172084,-1.6541353464126587,0.16311027109622955,0.16303956508636475,0.05156613141298294,0.058531977236270905,-0.4032222628593445,0.9117712378501892,0.0,0.0,0.0,0.0,0.0,0.0
292,1724559177816504645,-1.6537352800369263,0.16267803311347961,0.16283375024795532,0.0528297945857048,0.06016990542411804,-0.40415993332862854,0.9111769199371338,0.0,0.0,0.0,0.0,0.0,0.0
294,1724559177816771730,-1.6534686088562012,0.16209037601947784,0.16231805086135864,0.05324489250779152,0.059016238898038864,-0.4041936993598938,0.911213219165802,0.0,0.0,0.0,0.0,0.0,0.0
296,1724559177824188327,-1.6530563831329346,0.16162322461605072,0.16230809688568115,0.05406150594353676,0.06114295497536659,-0.40524566173553467,0.9105574488639832,0.0,0.0,0.0,0.0,0.0,0.0
298,1724559177833729196,-1.652687907218933,0.16113540530204773,0.16196298599243164,0.05279998853802681,0.06326331943273544,-0.40586328506469727,0.9102115035057068,0.0,0.0,0.0,0.0,0.0,0.0
300,1724559177843511186,-1.6523395776748657,0.16061216592788696,0.1615525186061859,0.052466101944446564,0.06399108469486237,-0.4061658978462219,0.9100449681282043,0.0,0.0,0.0,0.0,0.0,0.0
302,1724559177853719366,-1.6519891023635864,0.16004349291324615,0.1611754596233368,0.052867334336042404,0.06403300166130066,-0.40663793683052063,0.9098079204559326,0.0,0.0,0.0,0.0,0.0,0.0
304,1724559177864557434,-1.6515930891036987,0.1594235748052597,0.1606382578611374,0.05366932228207588,0.06360223889350891,-0.40702712535858154,0.9096170663833618,0.0,0.0,0.0,0.0,0.0,0.0
306,1724559177874067834,-1.6512353420257568,0.15891742706298828,0.16039881110191345,0.05221766605973244,0.06411918997764587,-0.4079507887363434,0.9092514514923096,0.0,0.0,0.0,0.0,0.0,0.0
308,1724559177883563056,-1.6508604288101196,0.15830978751182556,0.16005609929561615,0.053063299506902695,0.06449292600154877,-0.4085524082183838,0.9089059233665466,0.0,0.0,0.0,0.0,0.0,0.0
310,1724559177893869174,-1.650460124015808,0.1577087789773941,0.1597062051296234,0.05589042231440544,0.06615667045116425,-0.4088526666164398,0.9084817171096802,0.0,0.0,0.0,0.0,0.0,0.0
312,1724559177903752094,-1.6500446796417236,0.1572418361902237,0.15949200093746185,0.057595908641815186,0.06838163733482361,-0.4094955027103424,0.907920777797699,0.0,0.0,0.0,0.0,0.0,0.0
314,1724559177914719611,-1.6497772932052612,0.15675309300422668,0.15914294123649597,0.05633075535297394,0.06676635891199112,-0.4097728431224823,0.9079952836036682,0.0,0.0,0.0,0.0,0.0,0.0
316,1724559177924756772,-1.6494172811508179,0.1562134027481079,0.15896084904670715,0.055680859833955765,0.06547321379184723,-0.41034719347953796,0.9078700542449951,0.0,0.0,0.0,0.0,0.0,0.0
318,1724559177933708862,-1.6490970849990845,0.15583793818950653,0.1590745747089386,0.05479327216744423,0.0662091001868248,-0.4111867845058441,0.9074908494949341,0.0,0.0,0.0,0.0,0.0,0.0
320,1724559177945242862,-1.6487981081008911,0.15540356934070587,0.1589411199092865,0.05441814288496971,0.06544670462608337,-0.41148465871810913,0.9074336290359497,0.0,0.0,0.0,0.0,0.0,0.0
322,1724559177955232864,-1.6484901905059814,0.15518806874752045,0.15916068851947784,0.05430521443486214,0.06703663617372513,-0.41299644112586975,0.9066372513771057,0.0,0.0,0.0,0.0,0.0,0.0
324,1724559177964485750,-1.6482415199279785,0.15499497950077057,0.15913288295269012,0.05423714220523834,0.06740480661392212,-0.41352716088294983,0.9063720107078552,0.0,0.0,0.0,0.0,0.0,0.0
326,1724559177976917314,-1.647988200187683,0.15475405752658844,0.15899625420570374,0.05481315776705742,0.0675499215722084,-0.41385504603385925,0.9061768651008606,0.0,0.0,0.0,0.0,0.0,0.0
328,1724559177988838509,-1.6477339267730713,0.154486283659935,0.15885552763938904,0.05435758829116821,0.06697706878185272,-0.4139021039009094,0.906225323677063,0.0,0.0,0.0,0.0,0.0,0.0
330,1724559177995037521,-1.6474708318710327,0.15427815914154053,0.15887022018432617,0.05427306517958641,0.06747142225503922,-0.41444990038871765,0.9059433937072754,0.0,0.0,0.0,0.0,0.0,0.0
332,1724559178007386837,-1.6471818685531616,0.15415948629379272,0.15896642208099365,0.05463053286075592,0.06860252469778061,-0.41543474793434143,0.9053857326507568,0.0,0.0,0.0,0.0,0.0,0.0
334,1724559178015065384,-1.6470199823379517,0.15392883121967316,0.1588803231716156,0.053823404014110565,0.06768857687711716,-0.4154416024684906,0.9054995775222778,0.0,0.0,0.0,0.0,0.0,0.0
336,1724559178024364463,-1.6468628644943237,0.15373727679252625,0.15884776413440704,0.05410182848572731,0.06817983090877533,-0.4154556095600128,0.9054397940635681,0.0,0.0,0.0,0.0,0.0,0.0
338,1724559178039051047,-1.6466960906982422,0.15362827479839325,0.15904191136360168,0.054337166249752045,0.06956929713487625,-0.41591915488243103,0.9051072001457214,0.0,0.0,0.0,0.0,0.0,0.0
340,1724559178043502315,-1.6466268301010132,0.15340444445610046,0.15893499553203583,0.05413135513663292,0.06852243840694427,-0.41569146513938904,0.9053038358688354,0.0,0.0,0.0,0.0,0.0,0.0
342,1724559178055049217,-1.6465071439743042,0.15334191918373108,0.1591176986694336,0.053700149059295654,0.07004337757825851,-0.41615161299705505,0.905001699924469,0.0,0.0,0.0,0.0,0.0,0.0
344,1724559178065766020,-1.6464701890945435,0.15322662889957428,0.15911927819252014,0.05275893211364746,0.07060317695140839,-0.4159947335720062,0.9050857424736023,0.0,0.0,0.0,0.0,0.0,0.0
346,1724559178074360245,-1.6464316844940186,0.1530991941690445,0.15914708375930786,0.053143810480833054,0.07020407170057297,-0.41622844338417053,0.9049867391586304,0.0,0.0,0.0,0.0,0.0,0.0
348,1724559178088100245,-1.6463804244995117,0.1530981808900833,0.15904082357883453,0.05331750959157944,0.07050208002328873,-0.4167391061782837,0.9047183394432068,0.0,0.0,0.0,0.0,0.0,0.0
350,1724559178093563494,-1.646235704421997,0.15313300490379333,0.15901270508766174,0.053514737635850906,0.06998597830533981,-0.41741886734962463,0.9044333100318909,0.0,0.0,0.0,0.0,0.0,0.0
352,1724559178103587180,-1.646134614944458,0.153214693069458,0.1589190512895584,0.05406930297613144,0.0702812522649765,-0.4179772436618805,0.9041194915771484,0.0,0.0,0.0,0.0,0.0,0.0
354,1724559178114473387,-1.6461000442504883,0.15320070087909698,0.1586971879005432,0.05432157963514328,0.07017268240451813,-0.4184982180595398,0.9038717746734619,0.0,0.0,0.0,0.0,0.0,0.0
356,1724559178126924167,-1.645979642868042,0.15312376618385315,0.1585233211517334,0.05358556658029556,0.07056236267089844,-0.4185335040092468,0.9038690328598022,0.0,0.0,0.0,0.0,0.0,0.0
358,1724559178134775813,-1.6458598375320435,0.15281936526298523,0.15812493860721588,0.05277419090270996,0.06814635545015335,-0.4184451699256897,0.9041430354118347,0.0,0.0,0.0,0.0,0.0,0.0
360,1724559178143529771,-1.645632028579712,0.1525428295135498,0.15799903869628906,0.0523359477519989,0.06768623739480972,-0.4192023277282715,0.9038522839546204,0.0,0.0,0.0,0.0,0.0,0.0
362,1724559178153614934,-1.645521879196167,0.1521768569946289,0.15771529078483582,0.05153293162584305,0.06539700925350189,-0.4190900921821594,0.9041189551353455,0.0,0.0,0.0,0.0,0.0,0.0
364,1724559178164734008,-1.645421028137207,0.15188713371753693,0.15763051807880402,0.051631879061460495,0.06485487520694733,-0.4189624488353729,0.9042115211486816,0.0,0.0,0.0,0.0,0.0,0.0
366,1724559178173984705,-1.6453073024749756,0.1517021507024765,0.1576898694038391,0.05149020254611969,0.0653952956199646,-0.418896347284317,0.9042113423347473,0.0,0.0,0.0,0.0,0.0,0.0
368,1724559178185512543,-1.6451716423034668,0.15157702565193176,0.1579054892063141,0.05141894146800041,0.06567861884832382,-0.41961976885795593,0.9038593173027039,0.0,0.0,0.0,0.0,0.0,0.0
370,1724559178193945213,-1.6450103521347046,0.15152226388454437,0.15797656774520874,0.051801420748233795,0.06587781757116318,-0.420197993516922,0.9035543203353882,0.0,0.0,0.0,0.0,0.0,0.0
372,1724559178206136904,-1.6447428464889526,0.15153947472572327,0.1580723375082016,0.05301401764154434,0.06635142117738724,-0.4213186800479889,0.9029272198677063,0.0,0.0,0.0,0.0,0.0,0.0
374,1724559178214576605,-1.6445441246032715,0.15153412520885468,0.15794751048088074,0.05271526053547859,0.06543153524398804,-0.4216976463794708,0.902834951877594,0.0,0.0,0.0,0.0,0.0,0.0
376,1724559178224311980,-1.6443945169448853,0.15153269469738007,0.15777824819087982,0.052782777696847916,0.06512732803821564,-0.4220329225063324,0.9026963114738464,0.0,0.0,0.0,0.0,0.0,0.0
378,1724559178268478042,-1.6443111896514893,0.15148693323135376,0.1577168107032776,0.05154973268508911,0.06427205353975296,-0.422199010848999,0.9027512669563293,0.0,0.0,0.0,0.0,0.0,0.0
380,1724559178268993447,-1.6441450119018555,0.15158522129058838,0.1579315960407257,0.05139514431357384,0.06524582952260971,-0.4233657419681549,0.9021435379981995,0.0,0.0,0.0,0.0,0.0,0.0
382,1724559178269273121,-1.6440073251724243,0.1516324281692505,0.1580009162425995,0.05160858854651451,0.0657920092344284,-0.42417651414871216,0.9017106890678406,0.0,0.0,0.0,0.0,0.0,0.0
384,1724559178269526652,-1.643924355506897,0.1515854299068451,0.1579951047897339,0.0513138510286808,0.0650852769613266,-0.42455413937568665,0.9016011357307434,0.0,0.0,0.0,0.0,0.0,0.0
386,1724559178274149040,-1.6438519954681396,0.15150314569473267,0.15806613862514496,0.051801715046167374,0.06429941207170486,-0.42502906918525696,0.9014058113098145,0.0,0.0,0.0,0.0,0.0,0.0
388,1724559178285291461,-1.643839716911316,0.15149052441120148,0.1582106053829193,0.05134672671556473,0.0637817457318306,-0.4252120554447174,0.901382327079773,0.0,0.0,0.0,0.0,0.0,0.0
390,1724559178293807914,-1.6438117027282715,0.15149246156215668,0.15834642946720123,0.05157626420259476,0.06308872252702713,-0.42545488476753235,0.9013034701347351,0.0,0.0,0.0,0.0,0.0,0.0
392,1724559178303668009,-1.643846869468689,0.1515633761882782,0.1584482192993164,0.051439687609672546,0.06226558983325958,-0.42537596821784973,0.9014057517051697,0.0,0.0,0.0,0.0,0.0,0.0
394,1724559178314616367,-1.643913745880127,0.15173135697841644,0.1586127132177353,0.050616681575775146,0.061547454446554184,-0.4252215623855591,0.9015744924545288,0.0,0.0,0.0,0.0,0.0,0.0
396,1724559178325070360,-1.6440237760543823,0.1519317477941513,0.1588144153356552,0.05009404942393303,0.06026750057935715,-0.42515066266059875,0.9017235636711121,0.0,0.0,0.0,0.0,0.0,0.0
398,1724559178335387742,-1.644161343574524,0.15219274163246155,0.15908612310886383,0.04955070838332176,0.05921747535467148,-0.42520269751548767,0.9017986059188843,0.0,0.0,0.0,0.0,0.0,0.0
400,1724559178345126799,-1.6442980766296387,0.15248547494411469,0.1595313996076584,0.04801773279905319,0.057851944118738174,-0.42539530992507935,0.9018793702125549,0.0,0.0,0.0,0.0,0.0,0.0
402,1724559178354887035,-1.6444895267486572,0.1527857780456543,0.15997403860092163,0.04684232547879219,0.05598653107881546,-0.4254947602748871,0.9020119309425354,0.0,0.0,0.0,0.0,0.0,0.0
404,1724559178364387112,-1.644624948501587,0.15311497449874878,0.1604495346546173,0.046501073986291885,0.05524327605962753,-0.42559295892715454,0.9020290970802307,0.0,0.0,0.0,0.0,0.0,0.0
406,1724559178374353314,-1.6447992324829102,0.153424471616745,0.16081637144088745,0.045079562813043594,0.05438266322016716,-0.4254895746707916,0.9022023677825928,0.0,0.0,0.0,0.0,0.0,0.0
408,1724559178415047857,-1.644968867301941,0.15372756123542786,0.16123156249523163,0.04342261329293251,0.05384521558880806,-0.4254726767539978,0.9023239016532898,0.0,0.0,0.0,0.0,0.0,0.0
410,1724559178415706456,-1.6450657844543457,0.15397129952907562,0.16162732243537903,0.04222339019179344,0.05285537987947464,-0.4256915748119354,0.9023360013961792,0.0,0.0,0.0,0.0,0.0,0.0
412,1724559178416130902,-1.6451565027236938,0.15420565009117126,0.16191592812538147,0.04155700281262398,0.05117892473936081,-0.4254280626773834,0.9025877714157104,0.0,0.0,0.0,0.0,0.0,0.0
414,1724559178418406303,-1.645218849182129,0.15443108975887299,0.16225463151931763,0.041231341660022736,0.04969027638435364,-0.42558351159095764,0.902612566947937,0.0,0.0,0.0,0.0,0.0,0.0
416,1724559178423789675,-1.6452555656433105,0.1547323316335678,0.16283302009105682,0.04101839289069176,0.050809312611818314,-0.425970196723938,0.9023775458335876,0.0,0.0,0.0,0.0,0.0,0.0
418,1724559178434330814,-1.6453872919082642,0.15481698513031006,0.1632048785686493,0.04169503226876259,0.04848692566156387,-0.42565813660621643,0.9026215076446533,0.0,0.0,0.0,0.0,0.0,0.0
420,1724559178449559275,-1.6456905603408813,0.155022531747818,0.16335035860538483,0.04145529493689537,0.044136643409729004,-0.42577871680259705,0.9027988910675049,0.0,0.0,0.0,0.0,0.0,0.0
422,1724559178453508154,-1.646017074584961,0.15536440908908844,0.1632266789674759,0.042481131851673126,0.03973831981420517,-0.42576494812965393,0.9029620289802551,0.0,0.0,0.0,0.0,0.0,0.0
424,1724559178464390914,-1.6461435556411743,0.15586157143115997,0.1627345085144043,0.044716112315654755,0.03613073378801346,-0.42535388469696045,0.9031994342803955,0.0,0.0,0.0,0.0,0.0,0.0
426,1724559178591678035,-1.6460392475128174,0.15642081201076508,0.16194115579128265,0.04710756614804268,0.03238407522439957,-0.4249294102191925,0.9034197926521301,0.0,0.0,0.0,0.0,0.0,0.0
428,1724559178592107243,-1.6456681489944458,0.1570853590965271,0.16118335723876953,0.04918285086750984,0.031167972832918167,-0.4246017634868622,0.9035060405731201,0.0,0.0,0.0,0.0,0.0,0.0
430,1724559178593371737,-1.645273208618164,0.15801897644996643,0.16052278876304626,0.04827755317091942,0.030357182025909424,-0.4253771901130676,0.903217613697052,0.0,0.0,0.0,0.0,0.0,0.0
432,1724559178594970537,-1.6448992490768433,0.1588904857635498,0.15973465144634247,0.04702453315258026,0.02808370068669319,-0.42548930644989014,0.9033044576644897,0.0,0.0,0.0,0.0,0.0,0.0
434,1724559178595478473,-1.6444969177246094,0.15935127437114716,0.15841667354106903,0.0493617057800293,0.023457031697034836,-0.425111323595047,0.9034897089004517,0.0,0.0,0.0,0.0,0.0,0.0
436,1724559178595908096,-1.644250512123108,0.1599239706993103,0.15735392272472382,0.05072163790464401,0.020412961021065712,-0.4239196479320526,0.9040480256080627,0.0,0.0,0.0,0.0,0.0,0.0
438,1724559178596277299,-1.6439671516418457,0.16112935543060303,0.15695536136627197,0.05126785486936569,0.022062702104449272,-0.4252305328845978,0.9033626317977905,0.0,0.0,0.0,0.0,0.0,0.0
440,1724559178596780464,-1.643503189086914,0.1623067408800125,0.1544463038444519,0.055750779807567596,0.01579107530415058,-0.4226487874984741,0.9044393301010132,0.0,0.0,0.0,0.0,0.0,0.0
442,1724559178597571184,-1.643068552017212,0.16323913633823395,0.15376640856266022,0.05569010600447655,0.017836151644587517,-0.42397910356521606,0.9037822484970093,0.0,0.0,0.0,0.0,0.0,0.0
444,1724559178597885560,-1.6428813934326172,0.16399118304252625,0.15306052565574646,0.05606624484062195,0.018561474978923798,-0.4238074719905853,0.9038248658180237,0.0,0.0,0.0,0.0,0.0,0.0
446,1724559178598158135,-1.642783284187317,0.16465681791305542,0.1521441787481308,0.05711544677615166,0.016243409365415573,-0.4229021370410919,0.9042277336120605,0.0,0.0,0.0,0.0,0.0,0.0
448,1724559178598463988,-1.6426868438720703,0.16539083421230316,0.15180005133152008,0.058819953352212906,0.014762872830033302,-0.42330843210220337,0.9039536714553833,0.0,0.0,0.0,0.0,0.0,0.0
450,1724559178608018595,-1.642633080482483,0.1660277098417282,0.1514044851064682,0.061475012451410294,0.013274538330733776,-0.4232029914855957,0.9038495421409607,0.0,0.0,0.0,0.0,0.0,0.0
452,1724559178613802565,-1.6426172256469727,0.1665443629026413,0.15080183744430542,0.06377246975898743,0.011402079835534096,-0.42236098647117615,0.9041095972061157,0.0,0.0,0.0,0.0,0.0,0.0
454,1724559178623995834,-1.6426043510437012,0.16712436079978943,0.15030603110790253,0.06582241505384445,0.01054559275507927,-0.4223811626434326,0.9039637446403503,0.0,0.0,0.0,0.0,0.0,0.0
456,1724559178634892034,-1.6425480842590332,0.16740676760673523,0.14970818161964417,0.06893759220838547,0.007564467843621969,-0.42177459597587585,0.9040445685386658,0.0,0.0,0.0,0.0,0.0,0.0
458,1724559178645185061,-1.6426047086715698,0.16754652559757233,0.1488095223903656,0.07082302868366241,0.005802296567708254,-0.4196895658969879,0.9048817753791809,0.0,0.0,0.0,0.0,0.0,0.0
460,1724559178654299559,-1.6427572965621948,0.16799098253250122,0.14834874868392944,0.07010067999362946,0.005427153781056404,-0.41939204931259155,0.9050782918930054,0.0,0.0,0.0,0.0,0.0,0.0
462,1724559178663950463,-1.6429232358932495,0.168411523103714,0.1480170637369156,0.06954978406429291,0.005060218740254641,-0.419330894947052,0.9051513671875,0.0,0.0,0.0,0.0,0.0,0.0
464,1724559178690665007,-1.642988920211792,0.16868725419044495,0.1475733369588852,0.07109390944242477,0.004112417344003916,-0.41904130578041077,0.9051702618598938,0.0,0.0,0.0,0.0,0.0,0.0
466,1724559178690926146,-1.6431632041931152,0.1687491536140442,0.14725902676582336,0.07261085510253906,0.003102731192484498,-0.41798135638237,0.905543863773346,0.0,0.0,0.0,0.0,0.0,0.0
468,1724559178717673313,-1.643294334411621,0.168963223695755,0.14705030620098114,0.07459769397974014,0.0037056428845971823,-0.41781744360923767,0.9054557681083679,0.0,0.0,0.0,0.0,0.0,0.0
470,1724559178717944757,-1.643474817276001,0.16908711194992065,0.14672963321208954,0.07573074102401733,0.003252510679885745,-0.4175412952899933,0.9054908156394958,0.0,0.0,0.0,0.0,0.0,0.0
472,1724559178718240785,-1.643671989440918,0.1691872477531433,0.1464419811964035,0.07704082876443863,0.0028218284714967012,-0.417552649974823,0.9053764343261719,0.0,0.0,0.0,0.0,0.0,0.0
474,1724559178724412770,-1.6439011096954346,0.16931268572807312,0.14631102979183197,0.0782696083188057,0.002460847608745098,-0.4181601107120514,0.9049917459487915,0.0,0.0,0.0,0.0,0.0,0.0
476,1724559178734983136,-1.6441631317138672,0.1691686064004898,0.14571917057037354,0.0804014578461647,0.0006227699923329055,-0.41721946001052856,0.9052420258522034,0.0,0.0,0.0,0.0,0.0,0.0
478,1724559178744506198,-1.644294023513794,0.16928307712078094,0.14557525515556335,0.08100514113903046,0.0006509434897452593,-0.4170859754085541,0.9052497148513794,0.0,0.0,0.0,0.0,0.0,0.0
480,1724559178753638748,-1.6443685293197632,0.16932521760463715,0.14578787982463837,0.08114690333604813,0.00026617906405590475,-0.4167492091655731,0.9053922891616821,0.0,0.0,0.0,0.0,0.0,0.0
482,1724559178765382617,-1.6444895267486572,0.169431671500206,0.14591877162456512,0.08022923022508621,-0.0017310741823166609,-0.41614288091659546,0.9057512879371643,0.0,0.0,0.0,0.0,0.0,0.0
484,1724559178774035112,-1.6445211172103882,0.1695738434791565,0.14662307500839233,0.08031009882688522,-0.0025276506785303354,-0.4173155128955841,0.9052025079727173,0.0,0.0,0.0,0.0,0.0,0.0
486,1724559178786418275,-1.6444388628005981,0.1696135401725769,0.14697782695293427,0.08098196238279343,-0.0034422834869474173,-0.41733449697494507,0.9051309823989868,0.0,0.0,0.0,0.0,0.0,0.0
488,1724559178794408324,-1.6442394256591797,0.16965316236019135,0.14719727635383606,0.08159927278757095,-0.004278052598237991,-0.4169374406337738,0.9052549004554749,0.0,0.0,0.0,0.0,0.0,0.0
490,1724559178803758047,-1.6439101696014404,0.16959728300571442,0.1471276879310608,0.0827074721455574,-0.004799775313585997,-0.41616177558898926,0.9055086374282837,0.0,0.0,0.0,0.0,0.0,0.0
492,1724559178813730659,-1.6434755325317383,0.16974060237407684,0.1472892165184021,0.08381011337041855,-0.0033427425660192966,-0.41587162017822266,0.9055471420288086,0.0,0.0,0.0,0.0,0.0,0.0
494,1724559178824396481,-1.6430113315582275,0.17004086077213287,0.1475541889667511,0.08320058882236481,-0.002504116389900446,-0.4163168966770172,0.9054014682769775,0.0,0.0,0.0,0.0,0.0,0.0
496,1724559178834153982,-1.642488718032837,0.17028290033340454,0.1475246548652649,0.08277717232704163,-0.0034300722181797028,-0.416164368391037,0.9055072069168091,0.0,0.0,0.0,0.0,0.0,0.0
498,1724559178844373461,-1.6419838666915894,0.17045260965824127,0.14754042029380798,0.08302674442529678,-0.0053751240484416485,-0.41561731696128845,0.9057261943817139,0.0,0.0,0.0,0.0,0.0,0.0
500,1724559178853677123,-1.6414549350738525,0.17074015736579895,0.1471739560365677,0.08293215185403824,-0.005547431763261557,-0.41345757246017456,0.9067217707633972,0.0,0.0,0.0,0.0,0.0,0.0
502,1724559178864298708,-1.6408605575561523,0.1709248423576355,0.1467803418636322,0.08093345165252686,-0.004690216388553381,-0.4124009907245636,0.9073882102966309,0.0,0.0,0.0,0.0,0.0,0.0
504,1724559178876221334,-1.6403084993362427,0.1712760180234909,0.1469080001115799,0.0805857852101326,-0.005660959053784609,-0.41123202443122864,0.9079439043998718,0.0,0.0,0.0,0.0,0.0,0.0
506,1724559178883770796,-1.6398112773895264,0.17176145315170288,0.1469612419605255,0.07760287076234818,-0.006615582387894392,-0.41077920794487,0.9084022641181946,0.0,0.0,0.0,0.0,0.0,0.0
508,1724559178893970415,-1.6390689611434937,0.17221884429454803,0.1468600630760193,0.07622112333774567,-0.0073816184885799885,-0.41148120164871216,0.9081954956054688,0.0,0.0,0.0,0.0,0.0,0.0
510,1724559178906199100,-1.6385412216186523,0.17269819974899292,0.14702366292476654,0.07560236006975174,-0.008576450869441032,-0.4108664095401764,0.9085150957107544,0.0,0.0,0.0,0.0,0.0,0.0
512,1724559178914995056,-1.6377589702606201,0.17336493730545044,0.14771853387355804,0.07861866801977158,-0.005998916923999786,-0.4123784601688385,0.9075941443443298,0.0,0.0,0.0,0.0,0.0,0.0
514,1724559178924243574,-1.6371694803237915,0.1735881119966507,0.14768899977207184,0.08087123185396194,-0.008910872042179108,-0.4098708927631378,0.9085077047348022,0.0,0.0,0.0,0.0,0.0,0.0
516,1724559178934303832,-1.6363677978515625,0.17411328852176666,0.14780862629413605,0.08177623152732849,-0.008601888082921505,-0.40968722105026245,0.908512532711029,0.0,0.0,0.0,0.0,0.0,0.0
518,1724559178943685679,-1.6356033086776733,0.17459797859191895,0.14784739911556244,0.0816691666841507,-0.00891655869781971,-0.4095746874809265,0.9085699319839478,0.0,0.0,0.0,0.0,0.0,0.0
520,1724559178959074432,-1.63477623462677,0.17501848936080933,0.14799080789089203,0.08241721987724304,-0.009433252736926079,-0.40897607803344727,0.9087667465209961,0.0,0.0,0.0,0.0,0.0,0.0
522,1724559178964972011,-1.63408362865448,0.17552004754543304,0.1482495814561844,0.08295587450265884,-0.009875630028545856,-0.4083656668663025,0.9089874625205994,0.0,0.0,0.0,0.0,0.0,0.0
524,1724559178974205638,-1.6334229707717896,0.17607508599758148,0.14852918684482574,0.08261283487081528,-0.011020108126103878,-0.4083399474620819,0.9090170860290527,0.0,0.0,0.0,0.0,0.0,0.0
526,1724559178984328313,-1.6327584981918335,0.17681032419204712,0.14907753467559814,0.08363974839448929,-0.011577016673982143,-0.4086754620075226,0.9087654948234558,0.0,0.0,0.0,0.0,0.0,0.0
528,1724559178994068227,-1.6320894956588745,0.17727573215961456,0.14935040473937988,0.08358351141214371,-0.01233643013983965,-0.4079870879650116,0.9090700149536133,0.0,0.0,0.0,0.0,0.0,0.0
530,1724559179003652311,-1.631240725517273,0.17764008045196533,0.1491926908493042,0.08369424194097519,-0.013331454247236252,-0.40651488304138184,0.9097049832344055,0.0,0.0,0.0,0.0,0.0,0.0
532,1724559179014022692,-1.6306750774383545,0.17841926217079163,0.14987780153751373,0.08366610109806061,-0.013727869838476181,-0.4062078297138214,0.909838855266571,0.0,0.0,0.0,0.0,0.0,0.0
534,1724559179024679250,-1.6299042701721191,0.17883984744548798,0.149991974234581,0.08359493315219879,-0.01540620531886816,-0.4059523940086365,0.9099326133728027,0.0,0.0,0.0,0.0,0.0,0.0
536,1724559179034832874,-1.628930687904358,0.17925672233104706,0.1498679369688034,0.0839405208826065,-0.014651975594460964,-0.4054390490055084,0.9101420044898987,0.0,0.0,0.0,0.0,0.0,0.0
538,1724559179043739737,-1.628090739250183,0.17967261373996735,0.1497482806444168,0.08323677629232407,-0.015216255560517311,-0.40471553802490234,0.9105193018913269,0.0,0.0,0.0,0.0,0.0,0.0
540,1724559179055130570,-1.6275171041488647,0.18028821051120758,0.15031370520591736,0.08315121382474899,-0.015226534567773342,-0.40513890981674194,0.9103386998176575,0.0,0.0,0.0,0.0,0.0,0.0
542,1724559179064571584,-1.6268390417099,0.18065616488456726,0.1503312885761261,0.08395213633775711,-0.014944175258278847,-0.4046693444252014,0.9104787111282349,0.0,0.0,0.0,0.0,0.0,0.0
544,1724559179074772437,-1.6261038780212402,0.18081092834472656,0.1499936431646347,0.08403867483139038,-0.015956846997141838,-0.4032016694545746,0.9111045002937317,0.0,0.0,0.0,0.0,0.0,0.0
546,1724559179085307666,-1.6255462169647217,0.18112993240356445,0.14998619258403778,0.08362412452697754,-0.01702057011425495,-0.40209832787513733,0.9116108417510986,0.0,0.0,0.0,0.0,0.0,0.0
548,1724559179094574125,-1.6251577138900757,0.18152199685573578,0.1503281444311142,0.08270441740751266,-0.017984693869948387,-0.4019699990749359,0.9117327928543091,0.0,0.0,0.0,0.0,0.0,0.0
550,1724559179104209351,-1.624602198600769,0.18190431594848633,0.15056903660297394,0.08278853446245193,-0.01761145517230034,-0.4027646780014038,0.9113816022872925,0.0,0.0,0.0,0.0,0.0,0.0
552,1724559179114036333,-1.6241106986999512,0.18228183686733246,0.15094225108623505,0.08289290964603424,-0.01665376126766205,-0.4034610390663147,0.9110820889472961,0.0,0.0,0.0,0.0,0.0,0.0
554,1724559179124125123,-1.6237285137176514,0.18253198266029358,0.15107429027557373,0.08301465213298798,-0.01694336347281933,-0.4028751850128174,0.9113249182701111,0.0,0.0,0.0,0.0,0.0,0.0
556,1724559179134792141,-1.6232205629348755,0.18261833488941193,0.15078668296337128,0.08356624096632004,-0.016559069976210594,-0.4018801748752594,0.9117208123207092,0.0,0.0,0.0,0.0,0.0,0.0
558,1724559179143645577,-1.622870683670044,0.18282179534435272,0.15078023076057434,0.08352669328451157,-0.017162837088108063,-0.4009929299354553,0.9121038317680359,0.0,0.0,0.0,0.0,0.0,0.0
560,1724559179153686194,-1.6225671768188477,0.1830514669418335,0.15089404582977295,0.08300652354955673,-0.017263134941458702,-0.40110570192337036,0.9120998382568359,0.0,0.0,0.0,0.0,0.0,0.0
562,1724559179166295911,-1.6222610473632812,0.1832737922668457,0.15086053311824799,0.0830228254199028,-0.017147939652204514,-0.400850772857666,0.912212610244751,0.0,0.0,0.0,0.0,0.0,0.0
564,1724559179174928403,-1.6220991611480713,0.18367169797420502,0.15127545595169067,0.08330957591533661,-0.016879500821232796,-0.4012950360774994,0.9119961261749268,0.0,0.0,0.0,0.0,0.0,0.0
566,1724559179185798394,-1.6219230890274048,0.18392892181873322,0.15154573321342468,0.08364009857177734,-0.016963904723525047,-0.40163612365722656,0.9118141531944275,0.0,0.0,0.0,0.0,0.0,0.0
568,1724559179195759322,-1.6216965913772583,0.1841762363910675,0.15177123248577118,0.08390689641237259,-0.016269182786345482,-0.40213170647621155,0.9115837812423706,0.0,0.0,0.0,0.0,0.0,0.0
570,1724559179204334235,-1.621290683746338,0.18411962687969208,0.1510702222585678,0.08303523063659668,-0.01602328009903431,-0.40110158920288086,0.9121217727661133,0.0,0.0,0.0,0.0,0.0,0.0
572,1724559179214145527,-1.6210041046142578,0.18420802056789398,0.15096253156661987,0.08266520500183105,-0.01628870517015457,-0.400440514087677,0.9124409556388855,0.0,0.0,0.0,0.0,0.0,0.0
574,1724559179224811971,-1.6207975149154663,0.1842939406633377,0.15100248157978058,0.0820961445569992,-0.016741836443543434,-0.40013545751571655,0.9126179218292236,0.0,0.0,0.0,0.0,0.0,0.0
576,1724559179233697965,-1.6206178665161133,0.18436899781227112,0.15103670954704285,0.08163146674633026,-0.01722337305545807,-0.3997246026992798,0.9128307700157166,0.0,0.0,0.0,0.0,0.0,0.0
578,1724559179243653281,-1.6204867362976074,0.18445873260498047,0.15114052593708038,0.0813472643494606,-0.017148129642009735,-0.39942753314971924,0.9129875302314758,0.0,0.0,0.0,0.0,0.0,0.0
580,1724559179254324916,-1.620524525642395,0.1846625655889511,0.15147541463375092,0.08057980239391327,-0.01717875897884369,-0.3994154930114746,0.9130603075027466,0.0,0.0,0.0,0.0,0.0,0.0
582,1724559179263677715,-1.6203246116638184,0.1848207265138626,0.15165825188159943,0.08068133890628815,-0.016891343519091606,-0.3996827006340027,0.912939727306366,0.0,0.0,0.0,0.0,0.0,0.0
584,1724559179276371533,-1.6200995445251465,0.1848621964454651,0.1516714096069336,0.08035249263048172,-0.016867484897375107,-0.39965468645095825,0.9129814505577087,0.0,0.0,0.0,0.0,0.0,0.0
586,1724559179286496846,-1.6198228597640991,0.18483752012252808,0.15168969333171844,0.08011928200721741,-0.0171064306050539,-0.3993203043937683,0.9131437540054321,0.0,0.0,0.0,0.0,0.0,0.0
588,1724559179293622415,-1.6195629835128784,0.18482789397239685,0.15181367099285126,0.07972714304924011,-0.016812888905405998,-0.39937394857406616,0.9131600856781006,0.0,0.0,0.0,0.0,0.0,0.0
590,1724559179303951653,-1.6192430257797241,0.18479594588279724,0.15198101103305817,0.07878483831882477,-0.01600346341729164,-0.39970800280570984,0.9131102561950684,0.0,0.0,0.0,0.0,0.0,0.0
592,1724559179317154093,-1.6188840866088867,0.18478600680828094,0.15221579372882843,0.07755859941244125,-0.015136958099901676,-0.4001955986022949,0.9130164384841919,0.0,0.0,0.0,0.0,0.0,0.0
594,1724559179326260444,-1.6185834407806396,0.1846950203180313,0.15239940583705902,0.07600723206996918,-0.01484848465770483,-0.39982059597969055,0.9133159518241882,0.0,0.0,0.0,0.0,0.0,0.0
596,1724559179333844842,-1.6181895732879639,0.1846555471420288,0.15269626677036285,0.07505641877651215,-0.013281520456075668,-0.4001777172088623,0.9132623076438904,0.0,0.0,0.0,0.0,0.0,0.0
598,1724559179346246717,-1.6177880764007568,0.184624582529068,0.15294384956359863,0.07376769930124283,-0.012206276878714561,-0.40019193291664124,0.9133761525154114,0.0,0.0,0.0,0.0,0.0,0.0
600,1724559179356171365,-1.61735999584198,0.18464094400405884,0.15332835912704468,0.07249155640602112,-0.011128746904432774,-0.4006560742855072,0.9132885336875916,0.0,0.0,0.0,0.0,0.0,0.0
602,1724559179363938802,-1.6167266368865967,0.1844317615032196,0.15328866243362427,0.07153734564781189,-0.010885247029364109,-0.4003637731075287,0.9134947657585144,0.0,0.0,0.0,0.0,0.0,0.0
604,1724559179376026249,-1.6161959171295166,0.18443243205547333,0.15355966985225677,0.07041224092245102,-0.010859335772693157,-0.4002869725227356,0.9136161804199219,0.0,0.0,0.0,0.0,0.0,0.0
606,1724559179397693032,-1.6157435178756714,0.18455538153648376,0.15409722924232483,0.06851169466972351,-0.009728307835757732,-0.4009712338447571,0.9134734272956848,0.0,0.0,0.0,0.0,0.0,0.0
608,1724559179404294375,-1.6147433519363403,0.18498457968235016,0.1558547168970108,0.06621639430522919,-0.006578916683793068,-0.4036974608898163,0.9124695658683777,0.0,0.0,0.0,0.0,0.0,0.0
610,1724559179427327218,-1.614000916481018,0.18501286208629608,0.1561783403158188,0.06602862477302551,-0.004566479474306107,-0.4037589430809021,0.9124681353569031,0.0,0.0,0.0,0.0,0.0,0.0
612,1724559179433567634,-1.6127099990844727,0.1846751719713211,0.1563269942998886,0.06271079182624817,-0.004355271812528372,-0.4020933210849762,0.9134381413459778,0.0,0.0,0.0,0.0,0.0,0.0
614,1724559179443639600,-1.6119054555892944,0.18452581763267517,0.15655820071697235,0.06069154664874077,-0.0029213109519332647,-0.4020652174949646,0.9135926961898804,0.0,0.0,0.0,0.0,0.0,0.0
616,1724559179454398309,-1.6110860109329224,0.18434083461761475,0.15689291059970856,0.059607576578855515,-0.0017457065405324101,-0.4010554254055023,0.9141108393669128,0.0,0.0,0.0,0.0,0.0,0.0
618,1724559179474350961,-1.610234022140503,0.184263214468956,0.15705330669879913,0.05800524353981018,-0.0027638582978397608,-0.4002515971660614,0.9145634770393372,0.0,0.0,0.0,0.0,0.0,0.0
620,1724559179490005086,-1.6084935665130615,0.1847008615732193,0.15824273228645325,0.05450914800167084,-0.0015738853253424168,-0.40153077244758606,0.9142206907272339,0.0,0.0,0.0,0.0,0.0,0.0
622,1724559179493493497,-1.607607364654541,0.18468615412712097,0.15825897455215454,0.05262590944766998,-0.0025104647502303123,-0.4000970721244812,0.9149572253227234,0.0,0.0,0.0,0.0,0.0,0.0
624,1724559179513565495,-1.606634497642517,0.1847279965877533,0.1585036665201187,0.0526164285838604,-0.0023885166738182306,-0.3996824622154236,0.9151391983032227,0.0,0.0,0.0,0.0,0.0,0.0
626,1724559179526646130,-1.6051054000854492,0.18528877198696136,0.15959195792675018,0.04829691722989082,0.0002080113918054849,-0.40031465888023376,0.9151041507720947,0.0,0.0,0.0,0.0,0.0,0.0
628,1724559179538185278,-1.6042439937591553,0.18540634214878082,0.1598685085773468,0.04814116284251213,3.432333323871717e-05,-0.3986927270889282,0.9158202409744263,0.0,0.0,0.0,0.0,0.0,0.0
630,1724559179543679369,-1.6032443046569824,0.18571005761623383,0.16042287647724152,0.04818086326122284,0.002057623118162155,-0.39980223774909973,0.915332019329071,0.0,0.0,0.0,0.0,0.0,0.0
632,1724559179553957165,-1.602543830871582,0.1860080063343048,0.1609184890985489,0.046503808349370956,0.0017127927858382463,-0.39951595664024353,0.915544331073761,0.0,0.0,0.0,0.0,0.0,0.0
634,1724559179563842195,-1.601675033569336,0.18631446361541748,0.16159141063690186,0.048768702894449234,0.002767419209703803,-0.3988324999809265,0.9157218933105469,0.0,0.0,0.0,0.0,0.0,0.0
636,1724559179575484686,-1.6007111072540283,0.18660221993923187,0.1617019772529602,0.04830537363886833,0.0037001045420765877,-0.3983137905597687,0.9159688949584961,0.0,0.0,0.0,0.0,0.0,0.0
638,1724559179584338952,-1.5997436046600342,0.18696117401123047,0.1617167890071869,0.04739687219262123,0.004088789690285921,-0.3971244692802429,0.9165310263633728,0.0,0.0,0.0,0.0,0.0,0.0
640,1724559179593572827,-1.598906397819519,0.18754243850708008,0.16213779151439667,0.04324459657073021,0.004186531994491816,-0.3978981077671051,0.9164002537727356,0.0,0.0,0.0,0.0,0.0,0.0
642,1724559179604445596,-1.5978269577026367,0.18790052831172943,0.16192740201950073,0.041929274797439575,0.00351268844678998,-0.3961547315120697,0.9172192215919495,0.0,0.0,0.0,0.0,0.0,0.0
644,1724559179615703549,-1.59650719165802,0.18856915831565857,0.16191311180591583,0.04054754972457886,0.004259397275745869,-0.3964206278324127,0.9171632528305054,0.0,0.0,0.0,0.0,0.0,0.0
646,1724559179623573776,-1.5952517986297607,0.18928122520446777,0.16222532093524933,0.039259377866983414,0.005080738104879856,-0.39644408226013184,0.9172050356864929,0.0,0.0,0.0,0.0,0.0,0.0
648,1724559179641539765,-1.5941942930221558,0.18998098373413086,0.1626022309064865,0.038218360394239426,0.0043907249346375465,-0.39530128240585327,0.9177456498146057,0.0,0.0,0.0,0.0,0.0,0.0
650,1724559179643749963,-1.5930274724960327,0.19090797007083893,0.1632024496793747,0.03831843286752701,0.006685677450150251,-0.39536038041114807,0.9177020788192749,0.0,0.0,0.0,0.0,0.0,0.0
652,1724559179654540954,-1.5916965007781982,0.19153493642807007,0.1633438915014267,0.03737848997116089,0.0076489984057843685,-0.39436644315719604,0.9181609153747559,0.0,0.0,0.0,0.0,0.0,0.0
654,1724559179663847654,-1.590294361114502,0.19238322973251343,0.1636587530374527,0.035641081631183624,0.008411787450313568,-0.3941064178943634,0.9183349013328552,0.0,0.0,0.0,0.0,0.0,0.0
656,1724559179674216088,-1.5888409614562988,0.1935606449842453,0.1641026735305786,0.03438569977879524,0.009565026499330997,-0.3929937779903412,0.9188482165336609,0.0,0.0,0.0,0.0,0.0,0.0
658,1724559179685897826,-1.5872060060501099,0.1944478154182434,0.16402006149291992,0.03267820179462433,0.010492921806871891,-0.39187726378440857,0.9193770885467529,0.0,0.0,0.0,0.0,0.0,0.0
660,1724559179693704784,-1.5856001377105713,0.19550403952598572,0.16468210518360138,0.030661566182971,0.011955568566918373,-0.39282485842704773,0.9190242886543274,0.0,0.0,0.0,0.0,0.0,0.0
662,1724559179705362727,-1.5838887691497803,0.19623053073883057,0.16491247713565826,0.029596105217933655,0.012451124377548695,-0.39135119318962097,0.9196810722351074,0.0,0.0,0.0,0.0,0.0,0.0
664,1724559179713947860,-1.582202434539795,0.19725941121578217,0.16517402231693268,0.027843961492180824,0.01273933332413435,-0.3902595043182373,0.9201956391334534,0.0,0.0,0.0,0.0,0.0,0.0
666,1724559179736424074,-1.5802819728851318,0.19801276922225952,0.16475683450698853,0.02498055063188076,0.012781484052538872,-0.3881736695766449,0.921159029006958,0.0,0.0,0.0,0.0,0.0,0.0
668,1724559179743590002,-1.576452374458313,0.19989117980003357,0.16481095552444458,0.019643379375338554,0.013885855674743652,-0.3848094344139099,0.922682523727417,0.0,0.0,0.0,0.0,0.0,0.0
670,1724559179753838314,-1.574258804321289,0.2009427398443222,0.16527009010314941,0.01828760653734207,0.015937283635139465,-0.385369211435318,0.9224436283111572,0.0,0.0,0.0,0.0,0.0,0.0
672,1724559179766067768,-1.5722413063049316,0.2022218257188797,0.16555210947990417,0.016222890466451645,0.017030013725161552,-0.3835739195346832,0.9232105612754822,0.0,0.0,0.0,0.0,0.0,0.0
674,1724559179795988937,-1.5699713230133057,0.20329321920871735,0.1660483479499817,0.016946638002991676,0.01813477650284767,-0.3828435242176056,0.9234797954559326,0.0,0.0,0.0,0.0,0.0,0.0
676,1724559179796296651,-1.5677953958511353,0.20419816672801971,0.16629458963871002,0.01632843166589737,0.018646391108632088,-0.3812437951564789,0.9241422414779663,0.0,0.0,0.0,0.0,0.0,0.0
678,1724559179803635987,-1.5632915496826172,0.2058631032705307,0.1673424392938614,0.01428455300629139,0.019674737006425858,-0.3784167766571045,0.9253159165382385,0.0,0.0,0.0,0.0,0.0,0.0
680,1724559179814840608,-1.5608901977539062,0.20680458843708038,0.16797663271427155,0.013186405412852764,0.02145034819841385,-0.37749427556991577,0.9256696105003357,0.0,0.0,0.0,0.0,0.0,0.0
682,1724559179826656523,-1.5585460662841797,0.2073240727186203,0.16792511940002441,0.011906106024980545,0.02020241878926754,-0.3747636377811432,0.9268238544464111,0.0,0.0,0.0,0.0,0.0,0.0
684,1724559179835225930,-1.5562890768051147,0.20790250599384308,0.16820678114891052,0.00781328696757555,0.020835578441619873,-0.37320584058761597,0.9274816513061523,0.0,0.0,0.0,0.0,0.0,0.0
686,1724559179843761672,-1.55375337600708,0.20838673412799835,0.16881005465984344,0.007987340912222862,0.02283363975584507,-0.3726915121078491,0.9276400208473206,0.0,0.0,0.0,0.0,0.0,0.0
688,1724559179859125994,-1.5514192581176758,0.20909318327903748,0.16934902966022491,0.006233665626496077,0.0237840935587883,-0.3717183470726013,0.9280199408531189,0.0,0.0,0.0,0.0,0.0,0.0
690,1724559179864350436,-1.5489641427993774,0.20958225429058075,0.16983816027641296,0.004646456800401211,0.0246303528547287,-0.37089094519615173,0.9283381104469299,0.0,0.0,0.0,0.0,0.0,0.0
692,1724559179874602113,-1.5464261770248413,0.20983640849590302,0.169937863945961,0.0034463845659047365,0.025192536413669586,-0.3690980076789856,0.9290425777435303,0.0,0.0,0.0,0.0,0.0,0.0
694,1724559179885339197,-1.5440142154693604,0.21025489270687103,0.17033852636814117,0.002273640362545848,0.02518266811966896,-0.36782848834991455,0.9295498728752136,0.0,0.0,0.0,0.0,0.0,0.0
696,1724559179893476609,-1.541433572769165,0.21041707694530487,0.17067301273345947,0.0018433674704283476,0.026503272354602814,-0.36727118492126465,0.9297344088554382,0.0,0.0,0.0,0.0,0.0,0.0
698,1724559179904299021,-1.538923740386963,0.21075159311294556,0.1711234599351883,0.0013479070039466023,0.028685813769698143,-0.3671460449695587,0.9297199249267578,0.0,0.0,0.0,0.0,0.0,0.0
700,1724559179916662760,-1.53654146194458,0.21105818450450897,0.17155057191848755,0.00011843981337733567,0.02940531075000763,-0.36522385478019714,0.930455207824707,0.0,0.0,0.0,0.0,0.0,0.0
702,1724559179929491922,-1.534123182296753,0.21110357344150543,0.1716020107269287,-0.002491716295480728,0.028666291385889053,-0.3635449707508087,0.9311321377754211,0.0,0.0,0.0,0.0,0.0,0.0
704,1724559179935390890,-1.531711459159851,0.21109022200107574,0.17180967330932617,-0.003618027316406369,0.029260238632559776,-0.362398624420166,0.9315568804740906,0.0,0.0,0.0,0.0,0.0,0.0
706,1724559179943810460,-1.529221773147583,0.2113916426897049,0.1723467856645584,-0.004850053694099188,0.03083561360836029,-0.36308664083480835,0.9312323927879333,0.0,0.0,0.0,0.0,0.0,0.0
708,1724559179953859882,-1.5268651247024536,0.2114693820476532,0.1726890504360199,-0.0063792634755373,0.030848708003759384,-0.3626343905925751,0.9313989281654358,0.0,0.0,0.0,0.0,0.0,0.0
710,1724559179964845506,-1.5245212316513062,0.2114913910627365,0.17286626994609833,-0.007072662468999624,0.032576143741607666,-0.3620454967021942,0.9315642714500427,0.0,0.0,0.0,0.0,0.0,0.0
712,1724559179974445998,-1.5223335027694702,0.21134011447429657,0.17282451689243317,-0.008938592858612537,0.03254691883921623,-0.3609059154987335,0.9319912791252136,0.0,0.0,0.0,0.0,0.0,0.0
714,1724559179989230476,-1.5201555490493774,0.211303249001503,0.1729423701763153,-0.009486431255936623,0.0334322452545166,-0.35982412099838257,0.9323726892471313,0.0,0.0,0.0,0.0,0.0,0.0
716,1724559179993569303,-1.5181926488876343,0.21119478344917297,0.17311176657676697,-0.01131892204284668,0.03488336130976677,-0.35863935947418213,0.9327555894851685,0.0,0.0,0.0,0.0,0.0,0.0
718,1724559180003683523,-1.5161561965942383,0.21109089255332947,0.17321808636188507,-0.01352941058576107,0.03504323586821556,-0.35791435837745667,0.9329985976219177,0.0,0.0,0.0,0.0,0.0,0.0
720,1724559180030891256,-1.5141544342041016,0.21094295382499695,0.17343273758888245,-0.014073729515075684,0.035468436777591705,-0.35849615931510925,0.9327510595321655,0.0,0.0,0.0,0.0,0.0,0.0
722,1724559180031948140,-1.5123919248580933,0.21079209446907043,0.17341072857379913,-0.014711772091686726,0.03659112751483917,-0.3582279086112976,0.932800829410553,0.0,0.0,0.0,0.0,0.0,0.0
724,1724559180042639177,-1.5105642080307007,0.21054533123970032,0.1736137866973877,-0.015208812430500984,0.03741499036550522,-0.3581326901912689,0.9327967762947083,0.0,0.0,0.0,0.0,0.0,0.0
726,1724559180043643838,-1.508989691734314,0.21033991873264313,0.1738176792860031,-0.016351429745554924,0.03791859373450279,-0.35799360275268555,0.9328104853630066,0.0,0.0,0.0,0.0,0.0,0.0
728,1724559180060416094,-1.5075205564498901,0.2099682241678238,0.17375409603118896,-0.01815097965300083,0.037351105362176895,-0.35693901777267456,0.933204174041748,0.0,0.0,0.0,0.0,0.0,0.0
730,1724559180064037385,-1.5060231685638428,0.20967280864715576,0.17417220771312714,-0.018137916922569275,0.03901812806725502,-0.35829007625579834,0.9326183199882507,0.0,0.0,0.0,0.0,0.0,0.0
732,1724559180082484372,-1.5046894550323486,0.20923545956611633,0.17439407110214233,-0.01826603151857853,0.03985542431473732,-0.35852232575416565,0.9324911236763,0.0,0.0,0.0,0.0,0.0,0.0
734,1724559180089785332,-1.5034910440444946,0.20875410735607147,0.17451369762420654,-0.01851547881960869,0.039389580488204956,-0.3575728237628937,0.9328704476356506,0.0,0.0,0.0,0.0,0.0,0.0
736,1724559180093417617,-1.5023529529571533,0.20821097493171692,0.17449752986431122,-0.018993420526385307,0.03826180845499039,-0.3557155430316925,0.9336175918579102,0.0,0.0,0.0,0.0,0.0,0.0
738,1724559180110729954,-1.5012644529342651,0.20775654911994934,0.17460153996944427,-0.019542988389730453,0.03929384425282478,-0.3560081720352173,0.933451771736145,0.0,0.0,0.0,0.0,0.0,0.0
740,1724559180114701068,-1.500343680381775,0.20738740265369415,0.1746450960636139,-0.020081937313079834,0.03958556056022644,-0.3558363914489746,0.9334936141967773,0.0,0.0,0.0,0.0,0.0,0.0
742,1724559180124224787,-1.4993250370025635,0.20700041949748993,0.1747126430273056,-0.020250217989087105,0.039891116321086884,-0.35573309659957886,0.933516263961792,0.0,0.0,0.0,0.0,0.0,0.0
744,1724559180135510645,-1.4983680248260498,0.2065972238779068,0.17456823587417603,-0.020595408976078033,0.03929126262664795,-0.3547113239765167,0.9339228272438049,0.0,0.0,0.0,0.0,0.0,0.0
746,1724559180144084240,-1.4974716901779175,0.20629945397377014,0.17443615198135376,-0.02010277472436428,0.0385795421898365,-0.3533254861831665,0.9344884157180786,0.0,0.0,0.0,0.0,0.0,0.0
748,1724559180154033522,-1.4966741800308228,0.20606064796447754,0.17458052933216095,-0.01959277130663395,0.03957671299576759,-0.3525184988975525,0.9347622990608215,0.0,0.0,0.0,0.0,0.0,0.0
750,1724559180164358223,-1.4957892894744873,0.20592676103115082,0.17487089335918427,-0.019105397164821625,0.041016533970832825,-0.35300877690315247,0.9345252513885498,0.0,0.0,0.0,0.0,0.0,0.0
752,1724559180174638557,-1.4949705600738525,0.20573869347572327,0.1749812811613083,-0.020342601463198662,0.04095325618982315,-0.3531368374824524,0.934453547000885,0.0,0.0,0.0,0.0,0.0,0.0
754,1724559180183850913,-1.4941160678863525,0.20545132458209991,0.1747525930404663,-0.021525008603930473,0.03926106542348862,-0.3519839644432068,0.9349344968795776,0.0,0.0,0.0,0.0,0.0,0.0
756,1724559180193757920,-1.4931936264038086,0.2052968591451645,0.17476719617843628,-0.021458683535456657,0.03910307213664055,-0.35207390785217285,0.9349088668823242,0.0,0.0,0.0,0.0,0.0,0.0
758,1724559180221720427,-1.4922919273376465,0.2050616443157196,0.17479123175144196,-0.02167077735066414,0.038508787751197815,-0.3515270948410034,0.9351342916488647,0.0,0.0,0.0,0.0,0.0,0.0
760,1724559180222290696,-1.491360068321228,0.20485429465770721,0.17483727633953094,-0.021701980382204056,0.038825131952762604,-0.3512875437736511,0.9352105855941772,0.0,0.0,0.0,0.0,0.0,0.0
762,1724559180228000756,-1.4904603958129883,0.2047022432088852,0.174867182970047,-0.020495567470788956,0.03968784585595131,-0.3510918617248535,0.9352749586105347,0.0,0.0,0.0,0.0,0.0,0.0
764,1724559180234081005,-1.489612102508545,0.20452497899532318,0.17485405504703522,-0.02048460766673088,0.039503276348114014,-0.35043957829475403,0.9355276823043823,0.0,0.0,0.0,0.0,0.0,0.0
766,1724559180243976479,-1.4888347387313843,0.20432192087173462,0.1749502420425415,-0.020472558215260506,0.04012574627995491,-0.35063526034355164,0.9354281425476074,0.0,0.0,0.0,0.0,0.0,0.0
768,1724559180265160493,-1.4879956245422363,0.2040836066007614,0.17495547235012054,-0.02115051820874214,0.040262456983327866,-0.35107967257499695,0.9352405071258545,0.0,0.0,0.0,0.0,0.0,0.0
770,1724559180265491684,-1.4870625734329224,0.20390374958515167,0.17506638169288635,-0.021736780181527138,0.04038218781352043,-0.35138869285583496,0.9351057410240173,0.0,0.0,0.0,0.0,0.0,0.0
772,1724559180274516809,-1.4861462116241455,0.20361554622650146,0.1751621514558792,-0.021683096885681152,0.04034976288676262,-0.35140883922576904,0.9351009130477905,0.0,0.0,0.0,0.0,0.0,0.0
774,1724559180289040950,-1.485308051109314,0.2033148854970932,0.1751149594783783,-0.021416805684566498,0.03972819074988365,-0.3504348695278168,0.9354990720748901,0.0,0.0,0.0,0.0,0.0,0.0
776,1724559180293663422,-1.4843531847000122,0.2030339241027832,0.17507214844226837,-0.02006509341299534,0.039364274591207504,-0.349567174911499,0.9358689785003662,0.0,0.0,0.0,0.0,0.0,0.0
778,1724559180303985210,-1.4835309982299805,0.20264694094657898,0.17489871382713318,-0.02083529718220234,0.03842541202902794,-0.34908416867256165,0.9360714554786682,0.0,0.0,0.0,0.0,0.0,0.0
780,1724559180318254528,-1.4826322793960571,0.2024921029806137,0.17509323358535767,-0.021827831864356995,0.03938037157058716,-0.3506588339805603,0.9354202747344971,0.0,0.0,0.0,0.0,0.0,0.0
782,1724559180324182633,-1.4816954135894775,0.20228950679302216,0.1753688007593155,-0.021923188120126724,0.0399494469165802,-0.35163724422454834,0.9350265264511108,0.0,0.0,0.0,0.0,0.0,0.0
784,1724559180336212627,-1.4807500839233398,0.20202872157096863,0.17540258169174194,-0.02175922319293022,0.03978419303894043,-0.351275235414505,0.9351735711097717,0.0,0.0,0.0,0.0,0.0,0.0
786,1724559180344333883,-1.4796725511550903,0.20166470110416412,0.1753763109445572,-0.021070098504424095,0.03891986981034279,-0.3503010869026184,0.9355909824371338,0.0,0.0,0.0,0.0,0.0,0.0
788,1724559180358669420,-1.4787057638168335,0.20136438310146332,0.17549973726272583,-0.020658917725086212,0.03938717395067215,-0.3500598669052124,0.9356708526611328,0.0,0.0,0.0,0.0,0.0,0.0
790,1724559180365244862,-1.4777480363845825,0.20114865899085999,0.1754031926393509,-0.020176097750663757,0.039259523153305054,-0.3498903512954712,0.9357501268386841,0.0,0.0,0.0,0.0,0.0,0.0
792,1724559180376385148,-1.4766876697540283,0.20090095698833466,0.17515279352664948,-0.02050171047449112,0.039364900439977646,-0.349884957075119,0.9357406497001648,0.0,0.0,0.0,0.0,0.0,0.0
794,1724559180383558980,-1.4756243228912354,0.2008402943611145,0.1752023696899414,-0.02213471010327339,0.039339520037174225,-0.3513018786907196,0.935173511505127,0.0,0.0,0.0,0.0,0.0,0.0
796,1724559180393825322,-1.4744741916656494,0.2006409764289856,0.17532400786876678,-0.021745020523667336,0.039901841431856155,-0.35277917981147766,0.9346026182174683,0.0,0.0,0.0,0.0,0.0,0.0
798,1724559180403741543,-1.4733257293701172,0.20043663680553436,0.1750994771718979,-0.02174082212150097,0.039743416011333466,-0.35249873995780945,0.934715211391449,0.0,0.0,0.0,0.0,0.0,0.0
800,1724559180414868932,-1.472205638885498,0.20020684599876404,0.17493413388729095,-0.021714502945542336,0.03889899700880051,-0.3515658676624298,0.9351025819778442,0.0,0.0,0.0,0.0,0.0,0.0
802,1724559180429906407,-1.4711283445358276,0.20003435015678406,0.17489545047283173,-0.022142319008708,0.03870699554681778,-0.3515511155128479,0.9351060390472412,0.0,0.0,0.0,0.0,0.0,0.0
804,1724559180433542628,-1.470076084136963,0.19994424283504486,0.174801766872406,-0.023894453421235085,0.038640301674604416,-0.35204485058784485,0.9348799586296082,0.0,0.0,0.0,0.0,0.0,0.0
806,1724559180450805714,-1.468807339668274,0.1998138576745987,0.1751413196325302,-0.023062556982040405,0.040583088994026184,-0.3545994758605957,0.93385249376297,0.0,0.0,0.0,0.0,0.0,0.0
808,1724559180453555873,-1.4676134586334229,0.19934801757335663,0.174823597073555,-0.02425261400640011,0.03885936737060547,-0.3539138436317444,0.9341556429862976,0.0,0.0,0.0,0.0,0.0,0.0
810,1724559180467489936,-1.4664032459259033,0.19914662837982178,0.174704447388649,-0.02350005879998207,0.03855855390429497,-0.3537121117115021,0.9342638254165649,0.0,0.0,0.0,0.0,0.0,0.0
812,1724559180474214631,-1.4651899337768555,0.19912932813167572,0.17473456263542175,-0.02217632159590721,0.040201496332883835,-0.35453566908836365,0.9339146614074707,0.0,0.0,0.0,0.0,0.0,0.0
814,1724559180485349185,-1.4642446041107178,0.19894440472126007,0.17450304329395294,-0.024402758106589317,0.03945992514491081,-0.35452204942703247,0.933896005153656,0.0,0.0,0.0,0.0,0.0,0.0
816,1724559180493742483,-1.4630323648452759,0.19879558682441711,0.17476080358028412,-0.023913618177175522,0.03973476216197014,-0.3562396466732025,0.9332430958747864,0.0,0.0,0.0,0.0,0.0,0.0
818,1724559180505621938,-1.4619827270507812,0.19865885376930237,0.17444975674152374,-0.02364523522555828,0.03972451016306877,-0.3557434678077698,0.9334396123886108,0.0,0.0,0.0,0.0,0.0,0.0
820,1724559180521211251,-1.4610295295715332,0.1984512060880661,0.17418566346168518,-0.02386181429028511,0.03922395780682564,-0.3550581634044647,0.9337161779403687,0.0,0.0,0.0,0.0,0.0,0.0
822,1724559180523877876,-1.4601423740386963,0.19818556308746338,0.17398473620414734,-0.025466255843639374,0.038552626967430115,-0.35518530011177063,0.9336534142494202,0.0,0.0,0.0,0.0,0.0,0.0
824,1724559180535113985,-1.4592522382736206,0.1979927271604538,0.17368239164352417,-0.02603948302567005,0.037936627864837646,-0.35481297969818115,0.9338043332099915,0.0,0.0,0.0,0.0,0.0,0.0
826,1724559180543753740,-1.4584094285964966,0.1979648321866989,0.17357511818408966,-0.025610247626900673,0.038141872733831406,-0.3551918566226959,0.9336637854576111,0.0,0.0,0.0,0.0,0.0,0.0
828,1724559180580640764,-1.4575135707855225,0.19796888530254364,0.1736336648464203,-0.024775389581918716,0.039426952600479126,-0.35657066106796265,0.9331071972846985,0.0,0.0,0.0,0.0,0.0,0.0
830,1724559180581007788,-1.456596851348877,0.19768886268138885,0.17357270419597626,-0.02362804114818573,0.0388997420668602,-0.3565698266029358,0.9331594705581665,0.0,0.0,0.0,0.0,0.0,0.0
832,1724559180582352168,-1.4558271169662476,0.19750382006168365,0.17352445423603058,-0.024040328338742256,0.03864026442170143,-0.3573060631752014,0.9328780174255371,0.0,0.0,0.0,0.0,0.0,0.0
834,1724559180586249133,-1.4550362825393677,0.19740521907806396,0.17347286641597748,-0.024331143125891685,0.038338955491781235,-0.35803845524787903,0.932602047920227,0.0,0.0,0.0,0.0,0.0,0.0
836,1724559180596118865,-1.4542933702468872,0.19753849506378174,0.17354507744312286,-0.024959499016404152,0.03938307613134384,-0.35967886447906494,0.9319104552268982,0.0,0.0,0.0,0.0,0.0,0.0
838,1724559180604304061,-1.4536515474319458,0.1974358856678009,0.173259899020195,-0.02543826401233673,0.039336901158094406,-0.35952073335647583,0.9319604635238647,0.0,0.0,0.0,0.0,0.0,0.0
840,1724559180614878537,-1.4530266523361206,0.1974102407693863,0.17320868372917175,-0.025683483108878136,0.03952101245522499,-0.3599527180194855,0.9317792057991028,0.0,0.0,0.0,0.0,0.0,0.0
842,1724559180624350583,-1.452319860458374,0.19732271134853363,0.1731056123971939,-0.024717245250940323,0.03889533504843712,-0.3601212799549103,0.9317665100097656,0.0,0.0,0.0,0.0,0.0,0.0
844,1724559180643570187,-1.4517004489898682,0.19734331965446472,0.17301978170871735,-0.024397436529397964,0.0386093445122242,-0.36018896102905273,0.9317606687545776,0.0,0.0,0.0,0.0,0.0,0.0
846,1724559180644336755,-1.4511821269989014,0.19743922352790833,0.17295899987220764,-0.0244477279484272,0.03865950182080269,-0.3605581223964691,0.9316145777702332,0.0,0.0,0.0,0.0,0.0,0.0
848,1724559180654279156,-1.4506399631500244,0.1976642906665802,0.17307980358600616,-0.024093924090266228,0.03990733250975609,-0.3618994355201721,0.9310508966445923,0.0,0.0,0.0,0.0,0.0,0.0
850,1724559180665303047,-1.4501910209655762,0.197778582572937,0.17302590608596802,-0.02477678842842579,0.040107786655426025,-0.36247342824935913,0.9308010339736938,0.0,0.0,0.0,0.0,0.0,0.0
852,1724559180675010346,-1.4499229192733765,0.19773617386817932,0.17287388443946838,-0.026600738987326622,0.038869090378284454,-0.36303046345710754,0.9305861592292786,0.0,0.0,0.0,0.0,0.0,0.0
854,1724559180684921231,-1.4495340585708618,0.19793589413166046,0.17319393157958984,-0.02629866823554039,0.03951633349061012,-0.3649669587612152,0.9298096299171448,0.0,0.0,0.0,0.0,0.0,0.0
856,1724559180694156296,-1.4492961168289185,0.19802911579608917,0.1728719025850296,-0.026325950399041176,0.03894184157252312,-0.3646245002746582,0.92996746301651,0.0,0.0,0.0,0.0,0.0,0.0
858,1724559180705061400,-1.4490476846694946,0.19817794859409332,0.17273443937301636,-0.026379883289337158,0.038591597229242325,-0.3647492527961731,0.9299315810203552,0.0,0.0,0.0,0.0,0.0,0.0
860,1724559180716502215,-1.4488259553909302,0.19834746420383453,0.1727144867181778,-0.026455653831362724,0.03846621885895729,-0.3651692271232605,0.9297698140144348,0.0,0.0,0.0,0.0,0.0,0.0
862,1724559180724273618,-1.448570728302002,0.19847601652145386,0.1726798564195633,-0.02579215168952942,0.03873105347156525,-0.3655308187007904,0.9296353459358215,0.0,0.0,0.0,0.0,0.0,0.0
864,1724559180736427748,-1.448301076889038,0.19876301288604736,0.1728442758321762,-0.024815358221530914,0.03973661735653877,-0.3668256103992462,0.9291093349456787,0.0,0.0,0.0,0.0,0.0,0.0
866,1724559180744065434,-1.4481301307678223,0.1989171802997589,0.17284949123859406,-0.024594314396381378,0.03944723308086395,-0.36742106080055237,0.9288923144340515,0.0,0.0,0.0,0.0,0.0,0.0
868,1724559180753748834,-1.4479492902755737,0.19902969896793365,0.17296135425567627,-0.023852819576859474,0.03993025794625282,-0.3677845299243927,0.9287471771240234,0.0,0.0,0.0,0.0,0.0,0.0
870,1724559180769861156,-1.4477890729904175,0.19913986325263977,0.17300739884376526,-0.023636644706130028,0.04038088396191597,-0.3682349622249603,0.9285546541213989,0.0,0.0,0.0,0.0,0.0,0.0
872,1724559180774094895,-1.4476318359375,0.19922582805156708,0.17296436429023743,-0.023832237347960472,0.0401102751493454,-0.3681310713291168,0.9286026358604431,0.0,0.0,0.0,0.0,0.0,0.0
874,1724559180784530840,-1.4474488496780396,0.19925108551979065,0.1728558987379074,-0.0236820038408041,0.03966904804110527,-0.3676565885543823,0.9288133978843689,0.0,0.0,0.0,0.0,0.0,0.0
876,1724559180793966843,-1.4473004341125488,0.19929182529449463,0.1728234738111496,-0.023962922394275665,0.03942146152257919,-0.36787205934524536,0.9287313222885132,0.0,0.0,0.0,0.0,0.0,0.0
878,1724559180815875637,-1.4471968412399292,0.19929607212543488,0.17260999977588654,-0.02506389282643795,0.03783338516950607,-0.367724746465683,0.9288267493247986,0.0,0.0,0.0,0.0,0.0,0.0
880,1724559180824187712,-1.446780800819397,0.19948263466358185,0.17259494960308075,-0.025184279307723045,0.038201525807380676,-0.368839293718338,0.9283663630485535,0.0,0.0,0.0,0.0,0.0,0.0
882,1724559180841475069,-1.4466121196746826,0.19954541325569153,0.17251525819301605,-0.025455089285969734,0.038229089230298996,-0.368827760219574,0.9283623695373535,0.0,0.0,0.0,0.0,0.0,0.0
884,1724559180844745013,-1.4464645385742188,0.19962407648563385,0.17249131202697754,-0.02610323578119278,0.03871037811040878,-0.3691154718399048,0.9282101392745972,0.0,0.0,0.0,0.0,0.0,0.0
886,1724559180854809289,-1.4462611675262451,0.19972844421863556,0.17244702577590942,-0.026333384215831757,0.03939511999487877,-0.3690817952156067,0.928188145160675,0.0,0.0,0.0,0.0,0.0,0.0
888,1724559180866114845,-1.4461779594421387,0.19972215592861176,0.17227542400360107,-0.02698884718120098,0.038731060922145844,-0.3683389723300934,0.9284923672676086,0.0,0.0,0.0,0.0,0.0,0.0
890,1724559180874181828,-1.4460362195968628,0.19982050359249115,0.1722693294286728,-0.027006937190890312,0.03887332230806351,-0.36858901381492615,0.9283866286277771,0.0,0.0,0.0,0.0,0.0,0.0
892,1724559180883867095,-1.445908784866333,0.1998952031135559,0.17221543192863464,-0.02713853120803833,0.03886817768216133,-0.36886295676231384,0.9282740950584412,0.0,0.0,0.0,0.0,0.0,0.0
894,1724559180896083956,-1.445766568183899,0.19996406137943268,0.1721971035003662,-0.027026426047086716,0.03875438868999481,-0.3693002462387085,0.928108274936676,0.0,0.0,0.0,0.0,0.0,0.0
896,1724559180905049509,-1.4456312656402588,0.2000759392976761,0.17212648689746857,-0.026718012988567352,0.03870345652103424,-0.3695218861103058,0.9280311465263367,0.0,0.0,0.0,0.0,0.0,0.0
898,1724559180915381059,-1.4455128908157349,0.20018714666366577,0.17207662761211395,-0.026762090623378754,0.038731884211301804,-0.36974194645881653,0.9279410243034363,0.0,0.0,0.0,0.0,0.0,0.0
900,1724559180924856158,-1.4453716278076172,0.20031417906284332,0.1720476597547531,-0.02651878260076046,0.0385919064283371,-0.36999809741973877,0.927851676940918,0.0,0.0,0.0,0.0,0.0,0.0
902,1724559180934177703,-1.4452284574508667,0.20043541491031647,0.17200566828250885,-0.026233535259962082,0.03839818388223648,-0.37026330828666687,0.9277620911598206,0.0,0.0,0.0,0.0,0.0,0.0
904,1724559180943559388,-1.445119857788086,0.20053111016750336,0.17193901538848877,-0.026370543986558914,0.038222115486860275,-0.3704792857170105,0.9276792407035828,0.0,0.0,0.0,0.0,0.0,0.0
906,1724559180956321931,-1.4448833465576172,0.2007485032081604,0.1720806509256363,-0.026668731123209,0.03880440071225166,-0.3713439404964447,0.9273008108139038,0.0,0.0,0.0,0.0,0.0,0.0
908,1724559180964690364,-1.4447312355041504,0.20086535811424255,0.17199456691741943,-0.026570796966552734,0.03864653781056404,-0.37106916308403015,0.9274201393127441,0.0,0.0,0.0,0.0,0.0,0.0
910,1724559180974909477,-1.444596290588379,0.20099128782749176,0.17197343707084656,-0.026637215167284012,0.038473185151815414,-0.37135049700737,0.9273129105567932,0.0,0.0,0.0,0.0,0.0,0.0
912,1724559180984900910,-1.4444239139556885,0.20110288262367249,0.17198754847049713,-0.026400065049529076,0.03846776485443115,-0.3718011975288391,0.9271392822265625,0.0,0.0,0.0,0.0,0.0,0.0
914,1724559180994917375,-1.4443477392196655,0.20116448402404785,0.17187687754631042,-0.027590272948145866,0.0374140627682209,-0.3719334602355957,0.9270946979522705,0.0,0.0,0.0,0.0,0.0,0.0
916,1724559181003903019,-1.4441330432891846,0.20129013061523438,0.17194630205631256,-0.027391042560338974,0.037553660571575165,-0.372780442237854,0.9267546534538269,0.0,0.0,0.0,0.0,0.0,0.0
918,1724559181014383705,-1.4439077377319336,0.20142516493797302,0.17191481590270996,-0.027079513296484947,0.03737214207649231,-0.3729914724826813,0.9266862869262695,0.0,0.0,0.0,0.0,0.0,0.0
920,1724559181025224841,-1.4436721801757812,0.2015453577041626,0.17188887298107147,-0.02737649716436863,0.03713397681713104,-0.3733900785446167,0.9265266060829163,0.0,0.0,0.0,0.0,0.0,0.0
922,1724559181038431139,-1.4434620141983032,0.20164373517036438,0.17181941866874695,-0.027169164270162582,0.03699665516614914,-0.37388813495635986,0.9263373613357544,0.0,0.0,0.0,0.0,0.0,0.0
924,1724559181043514634,-1.4431700706481934,0.2016502320766449,0.1714998483657837,-0.025298669934272766,0.0378958024084568,-0.3740166127681732,0.9263020753860474,0.0,0.0,0.0,0.0,0.0,0.0
926,1724559181061293016,-1.4429512023925781,0.20180940628051758,0.17141351103782654,-0.024791941046714783,0.03804256021976471,-0.3742254078388214,0.9262253642082214,0.0,0.0,0.0,0.0,0.0,0.0
928,1724559181064245079,-1.4426935911178589,0.20196041464805603,0.1713973432779312,-0.02465524524450302,0.038309551775455475,-0.3746367394924164,0.9260517358779907,0.0,0.0,0.0,0.0,0.0,0.0
930,1724559181076315972,-1.442423701286316,0.202092707157135,0.17143401503562927,-0.024680625647306442,0.03855336830019951,-0.3751869201660156,0.9258182048797607,0.0,0.0,0.0,0.0,0.0,0.0
932,1724559181084672997,-1.442141056060791,0.20220457017421722,0.17130868136882782,-0.024645686149597168,0.03839939832687378,-0.3752727508544922,0.9257906675338745,0.0,0.0,0.0,0.0,0.0,0.0
934,1724559181093518749,-1.4418678283691406,0.20233246684074402,0.17115487158298492,-0.02480407804250717,0.03848563879728317,-0.3755062520503998,0.9256882071495056,0.0,0.0,0.0,0.0,0.0,0.0
936,1724559181105033181,-1.4416232109069824,0.20250508189201355,0.17090247571468353,-0.024967489764094353,0.03827470913529396,-0.37532418966293335,0.9257663488388062,0.0,0.0,0.0,0.0,0.0,0.0
938,1724559181114539052,-1.441466212272644,0.20271481573581696,0.17062707245349884,-0.02514778822660446,0.03835964575409889,-0.37576931715011597,0.9255774021148682,0.0,0.0,0.0,0.0,0.0,0.0
940,1724559181124749550,-1.4413106441497803,0.20298677682876587,0.17033514380455017,-0.025480426847934723,0.03837550804018974,-0.376319944858551,0.925343930721283,0.0,0.0,0.0,0.0,0.0,0.0
942,1724559181135118125,-1.4411557912826538,0.20319144427776337,0.16993021965026855,-0.025733737275004387,0.03843073174357414,-0.3766564130783081,0.9251977801322937,0.0,0.0,0.0,0.0,0.0,0.0
944,1724559181143902416,-1.4409072399139404,0.20361638069152832,0.1697079986333847,-0.023845219984650612,0.03973045200109482,-0.3775331676006317,0.9248359799385071,0.0,0.0,0.0,0.0,0.0,0.0
946,1724559181155034837,-1.4407323598861694,0.20390594005584717,0.16939592361450195,-0.022143948823213577,0.04013848677277565,-0.3780430257320404,0.9246523976325989,0.0,0.0,0.0,0.0,0.0,0.0
948,1724559181164746242,-1.4405938386917114,0.2042897343635559,0.169003427028656,-0.020455295220017433,0.040358636528253555,-0.3777952790260315,0.9247830510139465,0.0,0.0,0.0,0.0,0.0,0.0
950,1724559181174552182,-1.44054114818573,0.20467615127563477,0.16863389313220978,-0.02044760435819626,0.040638457983732224,-0.377960741519928,0.9247032403945923,0.0,0.0,0.0,0.0,0.0,0.0
952,1724559181184863087,-1.4403928518295288,0.20509059727191925,0.16851021349430084,-0.019557125866413116,0.04175518825650215,-0.37920013070106506,0.9241653084754944,0.0,0.0,0.0,0.0,0.0,0.0
954,1724559181193955049,-1.440412998199463,0.20536509156227112,0.16784456372261047,-0.020471014082431793,0.04081442579627037,-0.3784748315811157,0.9244847297668457,0.0,0.0,0.0,0.0,0.0,0.0
956,1724559181205077903,-1.4402852058410645,0.20574988424777985,0.16745495796203613,-0.019676687195897102,0.041128404438495636,-0.3792615532875061,0.9241655468940735,0.0,0.0,0.0,0.0,0.0,0.0
958,1724559181214071496,-1.440088152885437,0.2062365710735321,0.16725914180278778,-0.018349602818489075,0.04181831702589989,-0.3804270327091217,0.9236828088760376,0.0,0.0,0.0,0.0,0.0,0.0
960,1724559181225148256,-1.4399454593658447,0.20672377943992615,0.16698746383190155,-0.018209969624876976,0.04229414090514183,-0.3815535604953766,0.9231991171836853,0.0,0.0,0.0,0.0,0.0,0.0
962,1724559181233869663,-1.4396384954452515,0.20720432698726654,0.16682890057563782,-0.016111334785819054,0.04415386542677879,-0.38305285573005676,0.922529935836792,0.0,0.0,0.0,0.0,0.0,0.0
964,1724559181243745832,-1.4394208192825317,0.20758487284183502,0.16651344299316406,-0.015186025761067867,0.044525742530822754,-0.3836686611175537,0.9222717881202698,0.0,0.0,0.0,0.0,0.0,0.0
966,1724559181253734284,-1.4393343925476074,0.20774981379508972,0.16590477526187897,-0.01570180617272854,0.04328954219818115,-0.38306552171707153,0.922572672367096,0.0,0.0,0.0,0.0,0.0,0.0
968,1724559181265513091,-1.4391305446624756,0.20792599022388458,0.1653773933649063,-0.014893192797899246,0.043095145374536514,-0.3828100562095642,0.9227012395858765,0.0,0.0,0.0,0.0,0.0,0.0
970,1724559181301863809,-1.4389506578445435,0.20816907286643982,0.16509777307510376,-0.01386293862015009,0.0440157949924469,-0.3837871551513672,0.9222678542137146,0.0,0.0,0.0,0.0,0.0,0.0
972,1724559181303175670,-1.43883216381073,0.20838263630867004,0.16459688544273376,-0.012605552561581135,0.04524415731430054,-0.38397637009620667,0.9221476316452026,0.0,0.0,0.0,0.0,0.0,0.0
974,1724559181310526618,-1.4388247728347778,0.20853546261787415,0.1638544797897339,-0.012578689493238926,0.04510149359703064,-0.3833305835723877,0.9224236011505127,0.0,0.0,0.0,0.0,0.0,0.0
976,1724559181310851789,-1.438727617263794,0.20877093076705933,0.16321446001529694,-0.010971064679324627,0.04564427584409714,-0.3829595148563385,0.92257159948349,0.0,0.0,0.0,0.0,0.0,0.0
978,1724559181315732636,-1.4386534690856934,0.20900455117225647,0.16269293427467346,-0.010138978250324726,0.04607387259602547,-0.38319841027259827,0.9224605560302734,0.0,0.0,0.0,0.0,0.0,0.0
980,1724559181324521014,-1.438642978668213,0.20923005044460297,0.1620127558708191,-0.009523643180727959,0.04670371487736702,-0.3829726576805115,0.9225291013717651,0.0,0.0,0.0,0.0,0.0,0.0
982,1724559181336453819,-1.4387187957763672,0.20937328040599823,0.16126538813114166,-0.009485645219683647,0.04612718150019646,-0.38216838240623474,0.9228919744491577,0.0,0.0,0.0,0.0,0.0,0.0
984,1724559181343802933,-1.438557744026184,0.2095637172460556,0.16090156137943268,-0.007788680028170347,0.046757932752370834,-0.38284459710121155,0.9225958585739136,0.0,0.0,0.0,0.0,0.0,0.0
986,1724559181355206537,-1.438493251800537,0.20980846881866455,0.16049127280712128,-0.00722217233851552,0.04710135608911514,-0.3833044171333313,0.9223920702934265,0.0,0.0,0.0,0.0,0.0,0.0
988,1724559181366708002,-1.4384397268295288,0.20997098088264465,0.16021409630775452,-0.0065539064817130566,0.04731232300400734,-0.3842606544494629,0.9219882488250732,0.0,0.0,0.0,0.0,0.0,0.0
990,1724559181375492244,-1.4383257627487183,0.21003186702728271,0.16001124680042267,-0.005248280242085457,0.04732086881995201,-0.38482365012168884,0.9217613935470581,0.0,0.0,0.0,0.0,0.0,0.0
992,1724559181386140209,-1.4382376670837402,0.210109144449234,0.1598874032497406,-0.003985101357102394,0.04747353494167328,-0.3851768672466278,0.9216122627258301,0.0,0.0,0.0,0.0,0.0,0.0
994,1724559181394271420,-1.438191533088684,0.21012350916862488,0.15977931022644043,-0.002936379984021187,0.04787105694413185,-0.38559070229530334,0.92142254114151,0.0,0.0,0.0,0.0,0.0,0.0
996,1724559181404184219,-1.438213586807251,0.21004854142665863,0.15952864289283752,-0.0025231458712369204,0.048090338706970215,-0.38574060797691345,0.9213495850563049,0.0,0.0,0.0,0.0,0.0,0.0
998,1724559181414868075,-1.4382494688034058,0.20994184911251068,0.1591794341802597,-0.0024596662260591984,0.048144422471523285,-0.38572022318840027,0.9213555455207825,0.0,0.0,0.0,0.0,0.0,0.0
1000,1724559181424623793,-1.438272476196289,0.20982736349105835,0.15883396565914154,-0.002031446434557438,0.048470888286828995,-0.3856792151927948,0.9213566780090332,0.0,0.0,0.0,0.0,0.0,0.0
1002,1724559181434997822,-1.4383386373519897,0.20962999761104584,0.15838201344013214,-0.002176630310714245,0.048346780240535736,-0.38549500703811646,0.9214398860931396,0.0,0.0,0.0,0.0,0.0,0.0
1004,1724559181444399880,-1.4384160041809082,0.20942355692386627,0.1579185426235199,-0.0022137314081192017,0.047950584441423416,-0.38495516777038574,0.9216861724853516,0.0,0.0,0.0,0.0,0.0,0.0
1006,1724559181455700217,-1.4384630918502808,0.2092543989419937,0.15761993825435638,-0.0011982982978224754,0.04788272827863693,-0.38482576608657837,0.9217456579208374,0.0,0.0,0.0,0.0,0.0,0.0
1008,1724559181466444276,-1.438483715057373,0.20908185839653015,0.1574786752462387,-0.0006490499363280833,0.04796209558844566,-0.3850497305393219,0.9216485023498535,0.0,0.0,0.0,0.0,0.0,0.0
1010,1724559181474703383,-1.438503384590149,0.20898626744747162,0.15745927393436432,-0.0006440599681809545,0.04872215539216995,-0.3859594166278839,0.9212279915809631,0.0,0.0,0.0,0.0,0.0,0.0
1012,1724559181488100496,-1.4384915828704834,0.20892302691936493,0.15736515820026398,-0.0006747528095729649,0.04884282499551773,-0.3860763907432556,0.921172559261322,0.0,0.0,0.0,0.0,0.0,0.0
1014,1724559181497768460,-1.438452124595642,0.20890924334526062,0.1573239266872406,-0.000481573079014197,0.04901621863245964,-0.38607630133628845,0.9211635589599609,0.0,0.0,0.0,0.0,0.0,0.0
1016,1724559181506497356,-1.4383879899978638,0.20892459154129028,0.15730597078800201,-0.000898506201338023,0.04848195239901543,-0.38582664728164673,0.9212960600852966,0.0,0.0,0.0,0.0,0.0,0.0
1018,1724559181514876167,-1.4383206367492676,0.20896777510643005,0.15732711553573608,-0.0008349990239366889,0.0483623743057251,-0.3856540620326996,0.9213746786117554,0.0,0.0,0.0,0.0,0.0,0.0
1020,1724559181529089933,-1.4383004903793335,0.20900507271289825,0.15739412605762482,-0.0011532928328961134,0.04829271137714386,-0.3857525587081909,0.9213367700576782,0.0,0.0,0.0,0.0,0.0,0.0
1022,1724559181536600397,-1.4382975101470947,0.20902417600154877,0.1574442982673645,-0.0011220290325582027,0.0482923723757267,-0.385719895362854,0.9213504791259766,0.0,0.0,0.0,0.0,0.0,0.0
1024,1724559181544749336,-1.4383304119110107,0.20899495482444763,0.1574544906616211,-0.0007108242716640234,0.048111848533153534,-0.38566267490386963,0.921384334564209,0.0,0.0,0.0,0.0,0.0,0.0
1026,1724559181557231251,-1.4383952617645264,0.20894676446914673,0.15748752653598785,-0.00043204528628848493,0.04813529551029205,-0.38592207431793213,0.9212746024131775,0.0,0.0,0.0,0.0,0.0,0.0
1028,1724559181563878009,-1.438432216644287,0.20888157188892365,0.15744882822036743,-0.0003481715393718332,0.048057716339826584,-0.3859518766403198,0.9212661981582642,0.0,0.0,0.0,0.0,0.0,0.0
1030,1724559181573707570,-1.4384846687316895,0.20884695649147034,0.15749672055244446,-0.0002240873291157186,0.04773944243788719,-0.38590866327285767,0.9213009476661682,0.0,0.0,0.0,0.0,0.0,0.0
1032,1724559181585882329,-1.438541054725647,0.20882637798786163,0.1575234830379486,-4.487753540161066e-05,0.04814876616001129,-0.3863343894481659,0.9211012125015259,0.0,0.0,0.0,0.0,0.0,0.0
1034,1724559181594713248,-1.438571572303772,0.20878471434116364,0.15754468739032745,0.00034383428283035755,0.04805324599146843,-0.386401891708374,0.9210777878761292,0.0,0.0,0.0,0.0,0.0,0.0
1036,1724559181603935500,-1.438618540763855,0.20872017741203308,0.1575627475976944,0.000734305358491838,0.04768100753426552,-0.3863286077976227,0.9211277365684509,0.0,0.0,0.0,0.0,0.0,0.0
1038,1724559181615142604,-1.438622236251831,0.208648219704628,0.15759728848934174,0.0012789814500138164,0.047272540628910065,-0.386288583278656,0.9211649298667908,0.0,0.0,0.0,0.0,0.0,0.0
1040,1724559181624472007,-1.4386402368545532,0.20857909321784973,0.1577528864145279,0.0014848279533907771,0.04703906178474426,-0.38652026653289795,0.9210793972015381,0.0,0.0,0.0,0.0,0.0,0.0
1042,1724559181633938921,-1.4386472702026367,0.20852014422416687,0.15782880783081055,0.001409591524861753,0.047098081558942795,-0.3868471682071686,0.9209392070770264,0.0,0.0,0.0,0.0,0.0,0.0
1044,1724559181645946343,-1.4386770725250244,0.2084166407585144,0.15784403681755066,0.0013953247107565403,0.04696117341518402,-0.38685303926467896,0.9209437966346741,0.0,0.0,0.0,0.0,0.0,0.0
1046,1724559181655594578,-1.4386751651763916,0.208358496427536,0.15801574289798737,0.0016419412568211555,0.04689553752541542,-0.3873123824596405,0.9207536578178406,0.0,0.0,0.0,0.0,0.0,0.0
1048,1724559181663659871,-1.4386988878250122,0.20820876955986023,0.1580650359392166,0.0018238740740343928,0.04672960937023163,-0.387607216835022,0.9206376075744629,0.0,0.0,0.0,0.0,0.0,0.0
1050,1724559181675119925,-1.438736081123352,0.2080518901348114,0.15807434916496277,0.0024573570117354393,0.04648233577609062,-0.38765600323677063,0.9206281304359436,0.0,0.0,0.0,0.0,0.0,0.0
1052,1724559181689282314,-1.4387084245681763,0.20795686542987823,0.158163383603096,0.0033641604240983725,0.047010261565446854,-0.3882858157157898,0.9203330278396606,0.0,0.0,0.0,0.0,0.0,0.0
1054,1724559181694120367,-1.4387274980545044,0.2077733874320984,0.1582050770521164,0.004109291359782219,0.046427927911281586,-0.38831955194473267,0.9203453063964844,0.0,0.0,0.0,0.0,0.0,0.0
1056,1724559181706320097,-1.4387943744659424,0.20757615566253662,0.15823714435100555,0.004407969303429127,0.045578088611364365,-0.3881832957267761,0.9204438924789429,0.0,0.0,0.0,0.0,0.0,0.0
1058,1724559181713498615,-1.4388507604599,0.20737683773040771,0.15832410752773285,0.005026753060519695,0.04505239054560661,-0.38822588324546814,0.9204486012458801,0.0,0.0,0.0,0.0,0.0,0.0
1060,1724559181734017769,-1.4389301538467407,0.2071980983018875,0.1584925651550293,0.004976662341505289,0.044405169785022736,-0.3883870840072632,0.9204123616218567,0.0,0.0,0.0,0.0,0.0,0.0
1062,1724559181743525114,-1.4390474557876587,0.2065453976392746,0.15841488540172577,0.0049272943288087845,0.042310234159231186,-0.3873082995414734,0.9209657311439514,0.0,0.0,0.0,0.0,0.0,0.0
1064,1724559181758770855,-1.438987374305725,0.20626750588417053,0.1584913432598114,0.005307147745043039,0.04166557639837265,-0.3871552646160126,0.9210573434829712,0.0,0.0,0.0,0.0,0.0,0.0
1066,1724559181763412341,-1.438830852508545,0.2061072438955307,0.15902575850486755,0.0069115678779780865,0.04360968619585037,-0.38860562443733215,0.920345664024353,0.0,0.0,0.0,0.0,0.0,0.0
1068,1724559181774369150,-1.438735008239746,0.2058252990245819,0.1592734307050705,0.008392428047955036,0.043800532817840576,-0.3892584443092346,0.9200483560562134,0.0,0.0,0.0,0.0,0.0,0.0
1070,1724559181783819926,-1.4386969804763794,0.20557445287704468,0.15951265394687653,0.008367241360247135,0.04234299436211586,-0.3897845447063446,0.9198940992355347,0.0,0.0,0.0,0.0,0.0,0.0
1072,1724559181793716564,-1.4386773109436035,0.20523864030838013,0.15950365364551544,0.008160286583006382,0.03987691178917885,-0.38962793350219727,0.9200724959373474,0.0,0.0,0.0,0.0,0.0,0.0
1074,1724559181804515009,-1.4385666847229004,0.2049466222524643,0.1594725251197815,0.008442613296210766,0.038033340126276016,-0.38953307271003723,0.9201880693435669,0.0,0.0,0.0,0.0,0.0,0.0
1076,1724559181813776762,-1.4383395910263062,0.2048671841621399,0.15997788310050964,0.010124371387064457,0.038377705961465836,-0.39118319749832153,0.9194566011428833,0.0,0.0,0.0,0.0,0.0,0.0
1078,1724559181827829182,-1.4382327795028687,0.20463044941425323,0.160189688205719,0.011016606353223324,0.03790856525301933,-0.3917275071144104,0.919234037399292,0.0,0.0,0.0,0.0,0.0,0.0
1080,1724559181834214747,-1.4381216764450073,0.2042517066001892,0.16028524935245514,0.011887576431035995,0.03658295050263405,-0.39159253239631653,0.9193344712257385,0.0,0.0,0.0,0.0,0.0,0.0
1082,1724559181851037839,-1.4379898309707642,0.20398347079753876,0.16040103137493134,0.013055313378572464,0.03574710339307785,-0.39151522517204285,0.9193843007087708,0.0,0.0,0.0,0.0,0.0,0.0
1084,1724559181854298184,-1.4378222227096558,0.20375485718250275,0.160470649600029,0.01394720934331417,0.034824173897504807,-0.3919961154460907,0.9192017912864685,0.0,0.0,0.0,0.0,0.0,0.0
1086,1724559181864772170,-1.4376858472824097,0.20352305471897125,0.1606551706790924,0.01477025169879198,0.034002140164375305,-0.3927167057991028,0.9189121127128601,0.0,0.0,0.0,0.0,0.0,0.0
1088,1724559181881335562,-1.4375784397125244,0.20322780311107635,0.1607891321182251,0.015631431713700294,0.03261734917759895,-0.392659068107605,0.9189726114273071,0.0,0.0,0.0,0.0,0.0,0.0
1090,1724559181883707867,-1.437422513961792,0.20300771296024323,0.16099411249160767,0.016700884327292442,0.031862545758485794,-0.39330610632896423,0.918703556060791,0.0,0.0,0.0,0.0,0.0,0.0
1092,1724559181896788185,-1.4372130632400513,0.2028740495443344,0.1612924337387085,0.017785781994462013,0.0321209691464901,-0.39481765031814575,0.918025553226471,0.0,0.0,0.0,0.0,0.0,0.0
1094,1724559181917981074,-1.4370551109313965,0.20264138281345367,0.16147927939891815,0.01826605200767517,0.03147599846124649,-0.3956927955150604,0.9176616072654724,0.0,0.0,0.0,0.0,0.0,0.0
1096,1724559181918327730,-1.4368388652801514,0.20249289274215698,0.16166187822818756,0.018437877297401428,0.03105541132390499,-0.3962078094482422,0.9174502491950989,0.0,0.0,0.0,0.0,0.0,0.0
1098,1724559181924430774,-1.4365949630737305,0.20234696567058563,0.16183911263942719,0.01814434863626957,0.03071192279458046,-0.39642179012298584,0.9173752069473267,0.0,0.0,0.0,0.0,0.0,0.0
1100,1724559181934961746,-1.4364761114120483,0.20211005210876465,0.16195808351039886,0.01762649044394493,0.029815778136253357,-0.3959781527519226,0.9176064729690552,0.0,0.0,0.0,0.0,0.0,0.0
1102,1724559181950139032,-1.4363065958023071,0.20184285938739777,0.16205933690071106,0.017862794920802116,0.02964123710989952,-0.39593663811683655,0.9176255464553833,0.0,0.0,0.0,0.0,0.0,0.0
1104,1724559181955031150,-1.4361178874969482,0.20154833793640137,0.16211670637130737,0.018213534727692604,0.029121845960617065,-0.3960740566253662,0.9175758957862854,0.0,0.0,0.0,0.0,0.0,0.0
1106,1724559181965093459,-1.4359322786331177,0.20121453702449799,0.16216395795345306,0.018706459552049637,0.028700482100248337,-0.39669281244277954,0.9173119068145752,0.0,0.0,0.0,0.0,0.0,0.0
1108,1724559181974386102,-1.4357248544692993,0.20091384649276733,0.16207586228847504,0.01952556148171425,0.028311660513281822,-0.3967857360839844,0.9172667264938354,0.0,0.0,0.0,0.0,0.0,0.0
1110,1724559181984733717,-1.4354913234710693,0.20064224302768707,0.16215690970420837,0.01969989947974682,0.028560133650898933,-0.39763587713241577,0.9168870449066162,0.0,0.0,0.0,0.0,0.0,0.0
1112,1724559181996201165,-1.4352751970291138,0.20036105811595917,0.16216649115085602,0.019705524668097496,0.028528857976198196,-0.3980594575405121,0.9167041182518005,0.0,0.0,0.0,0.0,0.0,0.0
1114,1724559182009208535,-1.435041904449463,0.20011813938617706,0.16222472488880157,0.01986929215490818,0.028269007802009583,-0.3984341025352478,0.9165458679199219,0.0,0.0,0.0,0.0,0.0,0.0
1116,1724559182013854288,-1.4348005056381226,0.19987298548221588,0.16233302652835846,0.019962511956691742,0.028081903234124184,-0.39885827898979187,0.9163651466369629,0.0,0.0,0.0,0.0,0.0,0.0
1118,1724559182024259426,-1.4345799684524536,0.19961756467819214,0.162374809384346,0.020112276077270508,0.027528733015060425,-0.3988867402076721,0.9163662195205688,0.0,0.0,0.0,0.0,0.0,0.0
1120,1724559182054782401,-1.4343163967132568,0.1993669867515564,0.16243967413902283,0.020695190876722336,0.027443157508969307,-0.39940327405929565,0.9161307215690613,0.0,0.0,0.0,0.0,0.0,0.0
1122,1724559182055156165,-1.4340533018112183,0.19909384846687317,0.16264069080352783,0.021279113367199898,0.027759119868278503,-0.4003209173679352,0.9157073497772217,0.0,0.0,0.0,0.0,0.0,0.0
1124,1724559182055582375,-1.4338057041168213,0.19879548251628876,0.16284778714179993,0.021387118846178055,0.028406552970409393,-0.4017322361469269,0.915066659450531,0.0,0.0,0.0,0.0,0.0,0.0
1126,1724559182064122035,-1.4335510730743408,0.19846448302268982,0.16298095881938934,0.021570539101958275,0.027912002056837082,-0.4021434485912323,0.9148968458175659,0.0,0.0,0.0,0.0,0.0,0.0
1128,1724559182074825294,-1.4332990646362305,0.198067307472229,0.1630024015903473,0.021387683227658272,0.027391426265239716,-0.4024297297000885,0.9147909879684448,0.0,0.0,0.0,0.0,0.0,0.0
1130,1724559182085139799,-1.4330579042434692,0.19771061837673187,0.1630164384841919,0.02048267424106598,0.026965657249093056,-0.40259355306625366,0.9147523045539856,0.0,0.0,0.0,0.0,0.0,0.0
1132,1724559182093796003,-1.4328103065490723,0.19741366803646088,0.16311414539813995,0.020225901156663895,0.027140583842992783,-0.4029727280139923,0.9145858287811279,0.0,0.0,0.0,0.0,0.0,0.0
1134,1724559182142626418,-1.4325860738754272,0.19704997539520264,0.163108229637146,0.019814591854810715,0.026938166469335556,-0.4031694233417511,0.9145141839981079,0.0,0.0,0.0,0.0,0.0,0.0
1136,1724559182142941368,-1.432387351989746,0.19674791395664215,0.1632525771856308,0.019247837364673615,0.027054568752646446,-0.40409284830093384,0.9141152501106262,0.0,0.0,0.0,0.0,0.0,0.0
1138,1724559182143251195,-1.4320104122161865,0.19635213911533356,0.1635025441646576,0.01976323314011097,0.02754749357700348,-0.40517371892929077,0.9136108756065369,0.0,0.0,0.0,0.0,0.0,0.0
1140,1724559182143602641,-1.431760311126709,0.19608435034751892,0.16366508603096008,0.019351232796907425,0.0274124126881361,-0.4055825173854828,0.9134423732757568,0.0,0.0,0.0,0.0,0.0,0.0
1142,1724559182143923523,-1.4315015077590942,0.19571247696876526,0.16375401616096497,0.01901726797223091,0.02720492146909237,-0.40590640902519226,0.913311779499054,0.0,0.0,0.0,0.0,0.0,0.0
1144,1724559182224871357,-1.431132435798645,0.1952487677335739,0.16367563605308533,0.01991335302591324,0.02653365023434162,-0.40508392453193665,0.913677453994751,0.0,0.0,0.0,0.0,0.0,0.0
1146,1724559182225628402,-1.4308518171310425,0.19489404559135437,0.16367793083190918,0.02025008201599121,0.02606290951371193,-0.4048050045967102,0.9138071537017822,0.0,0.0,0.0,0.0,0.0,0.0
1148,1724559182225993410,-1.430557370185852,0.194559246301651,0.16381493210792542,0.02057807147502899,0.025828413665294647,-0.4051967263221741,0.913632869720459,0.0,0.0,0.0,0.0,0.0,0.0
1150,1724559182226254778,-1.430254340171814,0.19413335621356964,0.1638704389333725,0.02108660154044628,0.025246230885386467,-0.4056307077407837,0.9134450554847717,0.0,0.0,0.0,0.0,0.0,0.0
1152,1724559182226529438,-1.4299228191375732,0.19372040033340454,0.16397477686405182,0.02099745348095894,0.024266336113214493,-0.4060445725917816,0.9132897257804871,0.0,0.0,0.0,0.0,0.0,0.0
1154,1724559182226808953,-1.4296181201934814,0.19337038695812225,0.164126455783844,0.021116307005286217,0.02397018112242222,-0.4068751633167267,0.9129250645637512,0.0,0.0,0.0,0.0,0.0,0.0
1156,1724559182227085501,-1.4288932085037231,0.19272741675376892,0.1644926518201828,0.022086724638938904,0.024045182392001152,-0.4088304340839386,0.9120262265205383,0.0,0.0,0.0,0.0,0.0,0.0
1158,1724559182234080973,-1.4285787343978882,0.19239604473114014,0.16461995244026184,0.02286680042743683,0.02356800064444542,-0.4090314209461212,0.911929190158844,0.0,0.0,0.0,0.0,0.0,0.0
1160,1724559182245784810,-1.428324580192566,0.19199815392494202,0.16470639407634735,0.02283264696598053,0.022429004311561584,-0.4087158441543579,0.9121003746986389,0.0,0.0,0.0,0.0,0.0,0.0
1162,1724559182253980063,-1.428025722503662,0.19171763956546783,0.16519400477409363,0.023088717833161354,0.02294560894370079,-0.4103482961654663,0.9113478064537048,0.0,0.0,0.0,0.0,0.0,0.0
1164,1724559182264805534,-1.4277263879776,0.1914156824350357,0.16545715928077698,0.023432273417711258,0.023211054503917694,-0.411174476146698,0.910959780216217,0.0,0.0,0.0,0.0,0.0,0.0
1166,1724559182277505782,-1.4274779558181763,0.19116908311843872,0.16578593850135803,0.023510994389653206,0.023121854290366173,-0.4121403396129608,0.9105234742164612,0.0,0.0,0.0,0.0,0.0,0.0
1168,1724559182283711598,-1.427196741104126,0.19077040255069733,0.1659904420375824,0.023554552346467972,0.022921007126569748,-0.4130490720272064,0.9101155400276184,0.0,0.0,0.0,0.0,0.0,0.0
1170,1724559182296581377,-1.426889181137085,0.19039224088191986,0.16610033810138702,0.02375967800617218,0.022277122363448143,-0.41303572058677673,0.9101322293281555,0.0,0.0,0.0,0.0,0.0,0.0
1172,1724559182304963225,-1.4264577627182007,0.19000600278377533,0.16627609729766846,0.024502618238329887,0.022034436464309692,-0.4137410819530487,0.9097980260848999,0.0,0.0,0.0,0.0,0.0,0.0
1174,1724559182315613460,-1.4260485172271729,0.18970635533332825,0.16648171842098236,0.02521556243300438,0.021637815982103348,-0.41439640522003174,0.9094897508621216,0.0,0.0,0.0,0.0,0.0,0.0
1176,1724559182325539642,-1.4256542921066284,0.1894407570362091,0.16666050255298615,0.025377150624990463,0.02122994139790535,-0.4150531589984894,0.9091953039169312,0.0,0.0,0.0,0.0,0.0,0.0
1178,1724559182358705280,-1.4252042770385742,0.1891331821680069,0.16679903864860535,0.026111308485269547,0.021358907222747803,-0.4158094525337219,0.9088258743286133,0.0,0.0,0.0,0.0,0.0,0.0
1180,1724559182359059309,-1.4248108863830566,0.18883603811264038,0.166903555393219,0.02637866511940956,0.020953325554728508,-0.4159931242465973,0.9087435603141785,0.0,0.0,0.0,0.0,0.0,0.0
1182,1724559182359384247,-1.4244041442871094,0.18854732811450958,0.1671016663312912,0.027465490624308586,0.02040856145322323,-0.4164212942123413,0.9085276126861572,0.0,0.0,0.0,0.0,0.0,0.0
1184,1724559182363775577,-1.423991084098816,0.18816699087619781,0.16732129454612732,0.02779848873615265,0.02090097963809967,-0.4174591600894928,0.9080299139022827,0.0,0.0,0.0,0.0,0.0,0.0
1186,1724559182374427207,-1.4236335754394531,0.18785975873470306,0.16741278767585754,0.028496142476797104,0.021274495869874954,-0.41804495453834534,0.907729983329773,0.0,0.0,0.0,0.0,0.0,0.0
1188,1724559182383766209,-1.4233378171920776,0.18750858306884766,0.16741368174552917,0.028828037902712822,0.02071990817785263,-0.41842105984687805,0.9075590968132019,0.0,0.0,0.0,0.0,0.0,0.0
1190,1724559182394999109,-1.4229916334152222,0.18720439076423645,0.16748633980751038,0.02893252484500408,0.02064189314842224,-0.41897332668304443,0.907302737236023,0.0,0.0,0.0,0.0,0.0,0.0
1192,1724559182405622062,-1.4226421117782593,0.18692219257354736,0.16748303174972534,0.028243472799658775,0.02058066800236702,-0.419544517993927,0.9070618748664856,0.0,0.0,0.0,0.0,0.0,0.0
1194,1724559182414192634,-1.4222403764724731,0.1866534799337387,0.1675616353750229,0.028330815955996513,0.020374998450279236,-0.4199064373970032,0.9068962335586548,0.0,0.0,0.0,0.0,0.0,0.0
1196,1724559182425926409,-1.421913504600525,0.18637540936470032,0.16761648654937744,0.027572691440582275,0.020184891298413277,-0.42014363408088684,0.9068139791488647,0.0,0.0,0.0,0.0,0.0,0.0
1198,1724559182433581324,-1.4215487241744995,0.1860889047384262,0.167671799659729,0.027616199105978012,0.02003544010221958,-0.42042893171310425,0.9066837430000305,0.0,0.0,0.0,0.0,0.0,0.0
1200,1724559182446188969,-1.4211639165878296,0.18580248951911926,0.16767209768295288,0.027906347066164017,0.01969658024609089,-0.4202956259250641,0.906744122505188,0.0,0.0,0.0,0.0,0.0,0.0
1202,1724559182456423133,-1.4207602739334106,0.18553748726844788,0.16777507960796356,0.027261052280664444,0.01923436112701893,-0.4202291965484619,0.9068045020103455,0.0,0.0,0.0,0.0,0.0,0.0
1204,1724559182463635467,-1.420392632484436,0.1852882206439972,0.1678629368543625,0.027208590880036354,0.018832499161362648,-0.4205489754676819,0.9066662192344666,0.0,0.0,0.0,0.0,0.0,0.0
1206,1724559182474183919,-1.4200336933135986,0.18511301279067993,0.16797982156276703,0.027001651003956795,0.01844710297882557,-0.42075198888778687,0.9065861105918884,0.0,0.0,0.0,0.0,0.0,0.0
1208,1724559182483809617,-1.4197417497634888,0.1849317103624344,0.1681368499994278,0.026087604463100433,0.018599282950162888,-0.4213755428791046,0.9063202142715454,0.0,0.0,0.0,0.0,0.0,0.0
1210,1724559182495018096,-1.419437289237976,0.18481220304965973,0.1682986319065094,0.025320211425423622,0.018743664026260376,-0.4219076931476593,0.9060913324356079,0.0,0.0,0.0,0.0,0.0,0.0
1212,1724559182506610760,-1.4190659523010254,0.18476450443267822,0.16853538155555725,0.02530754916369915,0.018949497491121292,-0.4225977957248688,0.9057657122612,0.0,0.0,0.0,0.0,0.0,0.0
1214,1724559182518752071,-1.4186687469482422,0.18472035229206085,0.16873766481876373,0.024843033403158188,0.019138479605317116,-0.4231429994106293,0.9055200219154358,0.0,0.0,0.0,0.0,0.0,0.0
1216,1724559182523666179,-1.4181745052337646,0.18468888103961945,0.16903568804264069,0.025242073461413383,0.020119572058320045,-0.424134224653244,0.9050238728523254,0.0,0.0,0.0,0.0,0.0,0.0
1218,1724559182535309433,-1.4177119731903076,0.1846672147512436,0.16927631199359894,0.0261400006711483,0.0203782320022583,-0.42489486932754517,0.9046356678009033,0.0,0.0,0.0,0.0,0.0,0.0
1220,1724559182543719549,-1.4173048734664917,0.18463674187660217,0.1694093942642212,0.02595796436071396,0.020116781815886497,-0.42533987760543823,0.9044376611709595,0.0,0.0,0.0,0.0,0.0,0.0
1222,1724559182562658064,-1.4169336557388306,0.18456120789051056,0.16942739486694336,0.024633333086967468,0.019398575648665428,-0.42558741569519043,0.9043739438056946,0.0,0.0,0.0,0.0,0.0,0.0
1224,1724559182564010746,-1.4165385961532593,0.18453451991081238,0.16958284378051758,0.024910999462008476,0.01927676796913147,-0.42586931586265564,0.9042362570762634,0.0,0.0,0.0,0.0,0.0,0.0
1226,1724559182579467679,-1.4161696434020996,0.18454508483409882,0.16985443234443665,0.024561772122979164,0.01933656819164753,-0.4265397787094116,0.9039284586906433,0.0,0.0,0.0,0.0,0.0,0.0
1228,1724559182583635273,-1.415791630744934,0.1845237910747528,0.17005304992198944,0.024089612066745758,0.019487973302602768,-0.42736732959747314,0.9035468697547913,0.0,0.0,0.0,0.0,0.0,0.0
1230,1724559182594791776,-1.4154101610183716,0.18447645008563995,0.1703258454799652,0.0232116486877203,0.01939285732805729,-0.4281564950942993,0.9031983017921448,0.0,0.0,0.0,0.0,0.0,0.0
1232,1724559182604115392,-1.4150121212005615,0.1844341903924942,0.17038403451442719,0.022603265941143036,0.018690166994929314,-0.42805683612823486,0.903275728225708,0.0,0.0,0.0,0.0,0.0,0.0
1234,1724559182613919143,-1.41460120677948,0.18430741131305695,0.17041194438934326,0.021991726011037827,0.017946697771549225,-0.4280603528022766,0.9033042192459106,0.0,0.0,0.0,0.0,0.0,0.0
1236,1724559182629922618,-1.4141329526901245,0.1841820478439331,0.17050887644290924,0.02214016392827034,0.016568711027503014,-0.42803850769996643,0.903337299823761,0.0,0.0,0.0,0.0,0.0,0.0
1238,1724559182633989913,-1.4135745763778687,0.18403470516204834,0.1706419438123703,0.021817045286297798,0.01593657024204731,-0.4287491738796234,0.9030195474624634,0.0,0.0,0.0,0.0,0.0,0.0
1240,1724559182643641201,-1.413023591041565,0.18390443921089172,0.17069795727729797,0.021297810599207878,0.01508013904094696,-0.42942798137664795,0.902724027633667,0.0,0.0,0.0,0.0,0.0,0.0
1242,1724559182657318437,-1.4124863147735596,0.18386763334274292,0.17084847390651703,0.021081972867250443,0.014368711970746517,-0.43014857172966003,0.9023975133895874,0.0,0.0,0.0,0.0,0.0,0.0
1244,1724559182665044427,-1.4119495153427124,0.18384486436843872,0.1709332913160324,0.020563999190926552,0.01358769554644823,-0.43049994111061096,0.9022539854049683,0.0,0.0,0.0,0.0,0.0,0.0
1246,1724559182675607052,-1.411422848701477,0.183797225356102,0.1710183322429657,0.01983899250626564,0.01309287641197443,-0.4312728941440582,0.9019083380699158,0.0,0.0,0.0,0.0,0.0,0.0
1248,1724559182691429807,-1.4108703136444092,0.18385910987854004,0.17161647975444794,0.01979864574968815,0.013412600383162498,-0.4336499273777008,0.900763988494873,0.0,0.0,0.0,0.0,0.0,0.0
1250,1724559182693480738,-1.4102623462677002,0.18378637731075287,0.17188701033592224,0.019315026700496674,0.013309355825185776,-0.43524205684661865,0.900007963180542,0.0,0.0,0.0,0.0,0.0,0.0
1252,1724559182708408559,-1.4096490144729614,0.18357563018798828,0.17190545797348022,0.018098676577210426,0.012737523764371872,-0.4360619783401489,0.8996444940567017,0.0,0.0,0.0,0.0,0.0,0.0
1254,1724559182715159886,-1.4090574979782104,0.18345831334590912,0.1718539446592331,0.01728815957903862,0.011582725681364536,-0.4358683228492737,0.8997698426246643,0.0,0.0,0.0,0.0,0.0,0.0
1256,1724559182724998840,-1.408398985862732,0.18333950638771057,0.17193183302879333,0.017167745158076286,0.010695839300751686,-0.43612101674079895,0.8996607065200806,0.0,0.0,0.0,0.0,0.0,0.0
1258,1724559182744190652,-1.4077157974243164,0.18329113721847534,0.17219552397727966,0.01701672002673149,0.010998807847499847,-0.4374525845050812,0.8990132808685303,0.0,0.0,0.0,0.0,0.0,0.0
1260,1724559182744612594,-1.406980037689209,0.1830895096063614,0.17217591404914856,0.016117971390485764,0.010250072926282883,-0.43779686093330383,0.8988710641860962,0.0,0.0,0.0,0.0,0.0,0.0
1262,1724559182757995652,-1.4062787294387817,0.18303795158863068,0.17239485681056976,0.016580883413553238,0.009196896106004715,-0.4378816485404968,0.8988327383995056,0.0,0.0,0.0,0.0,0.0,0.0
1264,1724559182766671224,-1.4056305885314941,0.18288058042526245,0.172420471906662,0.016825485974550247,0.008043925277888775,-0.4379540979862213,0.8988039493560791,0.0,0.0,0.0,0.0,0.0,0.0
1266,1724559182777708332,-1.4050434827804565,0.18271885812282562,0.17242079973220825,0.016666872426867485,0.007418967317789793,-0.4385485351085663,0.8985223174095154,0.0,0.0,0.0,0.0,0.0,0.0
1268,1724559182785822564,-1.4044479131698608,0.18256284296512604,0.17238426208496094,0.016079001128673553,0.006774258334189653,-0.43902403116226196,0.8983059525489807,0.0,0.0,0.0,0.0,0.0,0.0
1270,1724559182794162827,-1.4037810564041138,0.18248169124126434,0.17263628542423248,0.016566937789320946,0.0066843535751104355,-0.43982914090156555,0.8979038000106812,0.0,0.0,0.0,0.0,0.0,0.0
1272,1724559182804927014,-1.4031648635864258,0.18238061666488647,0.17278970777988434,0.016511835157871246,0.006580146960914135,-0.44058969616889954,0.89753258228302,0.0,0.0,0.0,0.0,0.0,0.0
1274,1724559182813958029,-1.4024951457977295,0.1822555661201477,0.1728236973285675,0.017042426392436028,0.006856107618659735,-0.44095033407211304,0.8973435759544373,0.0,0.0,0.0,0.0,0.0,0.0
1276,1724559182830920249,-1.4017877578735352,0.18224012851715088,0.17298580706119537,0.016935942694544792,0.00675602350383997,-0.4413369297981262,0.8971562385559082,0.0,0.0,0.0,0.0,0.0,0.0
1278,1724559182834437260,-1.4011383056640625,0.18221361935138702,0.17294223606586456,0.017368733882904053,0.006730191875249147,-0.4416538178920746,0.8969921469688416,0.0,0.0,0.0,0.0,0.0,0.0
