seq,stamp,px,py,pz,ox,oy,oz,ow,lx,ly,lz,ax,ay,az,timestamp,lyap_z,wx,wy,wz,aa_x,aa_y,aa_z,roll,pitch,yaw,vx,vy,vz,jx,jy,jz,forward_velocity,forward_velocity_1,deviation
16216,1724815857651202796,-1.7021145820617676,0.4363079667091369,0.145528644323349,-0.0438396148383617,0.0956068709492683,0.2375935018062591,-0.9656535387039183,0.0,0.0,0.0,0.15095495962871577,0.3129514067709047,0.6280873302172848,0.0,0.145528644323349,0.0,0.0,0.0,-1.8860173355511238,-13.357044634755441,17.3889206827972,0.13226575711769847,-0.16455586440172762,-0.4934273119413369,0.022519375887894582,-0.00994995738990909,-0.005083409546926387,-12.512750298680595,-8.901813613966118,-19.604823817535124,0.0,0.0,0.20017201497214018
16218,1724815857661647132,-1.701879382133484,0.436204046010971,0.1454755514860153,-0.0434764809906482,0.0963274389505386,0.2367192506790161,-0.9658130407333374,0.0,0.0,0.0,0.02026759122519528,0.2199778743772683,0.4233279630461453,0.010444336,0.1454755514860153,-0.019698198754320682,-0.1395054621323831,0.18161573028848335,-1.6181828738557145,-2.7220578070158252,7.50349525536515,0.1317781565207704,-0.16624992713715558,-0.491715401531834,0.024096000207123325,-0.006681387745921086,0.0014765455672058891,-5.295429027317587,-21.790445708268507,-54.50223994811429,0.02336943096132289,0.016161859405381215,0.20017201497214018
16220,1724815857670887963,-1.7016438245773315,0.4361690282821655,0.1455428302288055,-0.0431708954274654,0.096672847867012,0.2359900325536728,-0.9659707546234132,0.0,0.0,0.0,0.030342291134018096,-0.08676148981282572,-0.36563952169569114,0.019685167,0.1455428302288055,-0.032461736956246684,-0.07770781834839091,0.17013096067849973,-2.224252256115591,1.7711631279830966,-4.544891395734799,0.13123178391310059,-0.1671679870985717,-0.4902304665928827,0.02321478883706618,-0.00540876157729997,0.003714333842860462,6.946053281435514,-17.04332404009429,-54.82526163851087,0.025145979466303217,0.018971070257672386,0.20017201497214018
16222,1724815857681408028,-1.7014268636703491,0.436092734336853,0.1455391943454742,-0.0426472388207912,0.0972090661525726,0.2356297075748443,-0.9660281538963318,0.0,0.0,0.0,0.1735467394831316,-0.072632632998954,-0.5764884762481622,0.030205232,0.1455391943454742,-0.06595760254239781,-0.11795448382541365,0.0827716267907157,1.779362470646117,-10.562508191683829,6.066048338874253,0.1304190546079412,-0.16851186248440816,-0.4895190163878082,0.02503945840949484,-0.009009947954073283,-0.007411497058392058,-8.879951404197662,28.480152339564125,62.09130030384351,0.021247414620916717,0.0147740820066793,0.20017201497214018
16224,1724815857690787862,-1.7011550664901731,0.4359935224056244,0.1454105824232101,-0.042191457003355,0.098490834236145,0.2345102578401565,-0.9661906361579896,0.0,0.0,0.0,-0.09785439042245114,0.42145926109292103,0.692818500336446,0.039585066,0.1454105824232101,-0.0077579593561676345,-0.2733702116160878,0.2598501429334484,1.246301156259832,-2.3575281055338673,3.873385354782466,0.12998869055003995,-0.17137075470040955,-0.4874046790816007,0.026668135449668284,-0.00743581733455656,-0.008795387860830672,-13.139434786517537,28.84458639154035,113.22430933890502,0.02777023693700201,0.023403093300891784,0.20017201497214018
16226,1724815857700949219,-1.7009094953536987,0.4359525442123413,0.1453753262758255,-0.041712649166584,0.0991519168019294,0.2339072525501251,-0.96628999710083,0.0,0.0,0.0,-0.05749648270776331,0.4522235765439793,1.6000691798532845,0.049746423,0.1453753262758255,-0.049676572594609635,-0.14088459250615012,0.13403120174581962,2.4290383505329247,7.643047913086317,-6.067648309923915,0.12928125407725805,-0.1729663892414977,-0.48622176076233226,0.022685236680231924,-0.00036116739643077267,0.007495239725371583,10.753781437036917,-18.037257540452774,7.733111234461841,0.022306681598199294,0.01999041265068368,0.20017201497214018
16228,1724815857711843763,-1.7006796598434448,0.435991495847702,0.1455850601196289,-0.0417631864547729,0.0998870134353637,0.2331599593162536,-0.9663927555084229,0.0,0.0,0.0,0.13888001827155727,0.009665236099801727,0.7317471499080307,0.060640967,0.1455850601196289,0.05334548028621191,-0.12063565248606396,0.14168374051593302,5.4651629306665885,3.4054790541537674,-5.7113109971356035,0.12962360364126035,-0.1744689424432567,-0.4848400045601656,0.025965645795423598,0.0017154430012169541,0.02489076276558322,118.11575614355826,-83.87371279966165,37.94000963199352,0.020082349601753355,0.01587147713187314,0.20017201497214018
16230,1724815857720910198,-1.7004075050354004,0.4359930157661438,0.1458532810211181,-0.0419806949794292,0.1003138870000839,0.2329599112272262,-0.9663873910903932,0.0,0.0,0.0,1.9649603270047762,-1.0771079909970787,1.9633500818090281,0.069707402,0.1458532810211181,0.0727815788276899,-0.07808900229421589,0.041510379736072085,0.5422240598089709,3.4608925547924767,-7.169227956770493,0.13023376365445244,-0.17521973588389045,-0.4845542263479536,0.026000786273932874,0.0004378279470493851,0.024998817582512878,83.89926284269849,-63.85647785769779,-34.13583061512214,0.031235865506698986,0.019915115138158038,0.20017201497214018
16232,1724815857738783206,-1.7000843286514282,0.4360103607177734,0.146138533949852,-0.0420365743339061,0.1009018793702125,0.2325264662504196,-0.96642804145813,0.0,0.0,0.0,-0.6758877008026047,-0.24492847658615702,-4.635715652672097,0.08758041,0.146138533949852,0.026045282771826616,-0.059635920862779905,0.05006706419721471,188.2883509855395,-148.59573596927964,221.84841692819,0.13056625553952167,-0.17639288507411707,-0.4837937629396215,0.13021687750551791,-0.05179884100334675,0.12884603615245283,-823.9695819339537,404.285210998803,-937.7628153502349,0.018114566332257324,0.01276157580004762,0.20017201497214018
16234,1724815857741485395,-1.6996866464614868,0.4358488321304321,0.1465328186750412,-0.0425717532634735,0.1018183156847953,0.2315061241388321,-0.966553509235382,0.0,0.0,0.0,-3.178668946954061,0.9936710847279062,-7.402000219268171,0.090282599,0.1465328186750412,0.6128274695957704,-0.5222986739820837,0.739981615541337,156.09701444126642,-131.789509496268,189.94269071293039,0.1319002769634413,-0.17805377813673529,-0.48196752041312063,0.1257322145566846,-0.051366726888089076,0.11205185615546842,-751.2333368781009,377.7174105566333,-790.4292498647587,0.1814570144525934,0.070514644128803,0.20017201497214018
16236,1724815857750863895,-1.6992052793502808,0.4356408417224884,0.1464815139770507,-0.0422737747430801,0.1041459962725639,0.2297740429639816,-0.9667319059371948,0.0,0.0,0.0,-4.528779081448912,1.9108855819183304,-7.221430427113598,0.099661099,0.1464815139770507,0.08948617668593675,-0.47489681904555775,0.3934279856146495,-24.856303561117986,19.519851563057458,-31.421147613610636,0.13217905348864778,-0.18295463085337885,-0.47884554946746616,0.04647669387811959,-0.014908741325065478,0.00399624323207437,142.3160055316403,-52.090752335911375,288.7153099595604,0.05384606560006326,0.03634413419725167,0.20017201497214018
16238,1724815857761062598,-1.6987850666046145,0.4355694055557251,0.1466272622346878,-0.0429505854845047,0.1049536541104316,0.2290414422750473,-0.9667885899543762,0.0,0.0,0.0,0.09762082155927931,-0.2827531999034376,-1.2884064973118083,0.109859802,0.1466272622346878,0.17919426146633607,-0.11538758421058898,0.1343128812864606,-12.23030238109814,-2.0247899391484303,-8.341747036584573,0.13378342885605585,-0.18430267459779523,-0.4776233248927699,0.04378636977820349,-0.017340997054763108,-0.021961019648656155,230.78321859229783,-91.69006654135896,431.84217458261315,0.04175603752498551,0.029751677516356448,0.20017201497214018
16240,1724815857771882445,-1.6982816457748413,0.4352631270885467,0.1459735184907913,-0.0410965345799922,0.1077237576246261,0.2280268371105194,-0.966804265975952,0.0,0.0,0.0,0.03668403435707912,0.14165981440414654,1.663375142268821,0.120679649,0.1459735184907913,-0.19449323642806127,-0.5651717297182296,0.23994168126182802,5.053594637531241,-0.6210580887571737,6.850064161324314,0.13134411449440306,-0.19070723071425894,-0.47582668817672785,0.04899119163286514,-0.020908469862220613,-0.02147540855114194,2.578698630370919,23.553092416380245,182.68618048804674,0.041887858688888814,0.04209659931579638,0.20017201497214018
16242,1724815857781635763,-1.6977821588516235,0.4351242482662201,0.1461064666509628,-0.0416704043745994,0.1090012788772583,0.2266365885734558,-0.9669633507728576,0.0,0.0,0.0,0.13402221424117355,0.23359081249079872,2.6527947022661316,0.130432967,0.1461064666509628,0.20287534123415848,-0.21120682696091103,0.2811466016270079,19.41446822799231,18.705610024976476,0.059945343536159434,0.13284737936904648,-0.19311040476905506,-0.47333398267199905,0.04544220663218823,-0.015382522086257566,0.008977682101911633,15.004604371865565,-13.091826606077369,-11.726831853756245,0.05372046737349604,0.035491609598184856,0.20017201497214018
16244,1724815857794679811,-1.697290062904358,0.4349036514759063,0.1461423933506012,-0.0416466444730758,0.1109101250767707,0.2253309041261673,-0.9670525193214417,0.0,0.0,0.0,0.4173973849576136,-0.3299976139814724,0.5255506361210665,0.143477015,0.1461423933506012,0.08406056492052211,-0.2740010302754567,0.20927401011341373,3.1186079347719318,1.5567460661790626,-15.238271042822346,0.13350309083478812,-0.19701533480727731,-0.47105987600792737,0.055876237683975205,-0.018144411809906558,0.03538976978967767,-75.10590214172377,1.2764877477639907,-206.7947151388201,0.041032304869736316,0.025109979151650343,0.20017201497214018
16246,1724815857801003761,-1.6968810558319092,0.4347851276397705,0.1464662551879882,-0.0418751761317253,0.1117696836590766,0.2250594347715377,-0.9670069217681884,0.0,0.0,0.0,-0.35444528658345464,-0.18554256162713179,-0.9162308782758293,0.149800965,0.1464662551879882,0.1412708556860063,-0.24462384740400125,0.08308156808604761,2.8702486870759216,-0.09619426518169405,-5.6527076078962235,0.1343335188918368,-0.19861863146246628,-0.47073949734209836,0.05734308279473055,-0.020593885048075578,0.03411659115344712,-93.72627001202846,26.03973312300469,-145.2919102343116,0.07494623101337969,0.036490219768594095,0.20017201497214018
16248,1724815857811127837,-1.696419358253479,0.4345466196537018,0.146534577012062,-0.0417057052254676,0.1134824454784393,0.2238263189792633,-0.967100977897644,0.0,0.0,0.0,-0.8442618938943633,0.1299050120006492,-1.0468689889279945,0.159925041,0.146534577012062,0.07022468274730759,-0.3224479935174016,0.25765583708427975,-1.1253688923247989,1.0578503950528315,4.204808493702629,0.134608280505409,-0.2022033730021576,-0.46854833014540354,0.044250498942034255,-0.019201769101087507,0.013253618152152313,-16.62934289356321,18.300805389601436,30.52323176550017,0.05163731842253583,0.028276640051267465,0.20017201497214018
16250,1724815857821303240,-1.6959829330444336,0.4343957901000976,0.1467359662055969,-0.0419417694211006,0.1147468537092208,0.2229823172092437,-0.9671365022659302,0.0,0.0,0.0,-0.6887445490193809,0.18463104853771162,-0.29215592661888523,0.170100444,0.1467359662055969,0.11903284232459489,-0.22225006228881103,0.1670951254644495,-1.0745589669698665,3.2911858156919216,-2.3310255998305056,0.13553474600257076,-0.20467320378657716,-0.4671389934329829,0.04025120963196116,-0.01795766318136316,0.012970036665800322,642.2634321537146,-218.71554918409902,85.89454443937359,0.04805422463747684,0.026482051765220737,0.20017201497214018
16252,1724815857831364611,-1.6956042051315308,0.4341839253902435,0.1467985957860946,-0.0417780876159668,0.1160842105746269,0.221990093588829,-0.9672122597694396,0.0,0.0,0.0,12.01088774174824,-4.245370767757634,0.68870060745313,0.180161815,0.1467985957860946,0.04981059125176982,-0.2543582260925946,0.20899365520327937,-5.509782644677057,0.04559991015938436,0.8144779376188458,0.13567268984604922,-0.2074931801500564,-0.46536396087340764,0.030379593975442987,-0.015479575821513158,0.007401261219012412,-1416.7442222102995,547.1240480059025,-35.92055676603777,0.04344640593710214,0.02256586154958252,0.20017201497214018
16254,1724815857856603938,-1.6952972412109375,0.434146374464035,0.1470598876476287,-0.0415867678821086,0.1166755780577659,0.2218060195446014,-0.967191517353058,0.0,0.0,0.0,-193.36198924296832,72.08111548951933,-8.664472415580747,0.205401142,0.1470598876476287,-0.002498830542958381,-0.048271221402149206,0.017460803461562414,-9182.983085970294,-30052.61605250837,22941.86973057598,0.13555217563046973,-0.20875988377814772,-0.46508597111363864,1.15610097166973,-0.40701444162641565,0.10343082437509565,-20245.98975895811,7228.379693392868,-1645.323541589005,0.013432619712218381,0.007482868974834624,0.20017201497214018
16256,1724815857856916259,-1.6949317455291748,0.4340176880359649,0.1470925509929657,-0.04068448767066,0.1180644184350967,0.2208223491907119,-0.9672865271568298,0.0,0.0,0.0,-199.73203550067123,74.35493883692581,-9.183268113349033,0.205713463,0.1470925509929657,-2.9060194761650577,-9.550512579500344,7.271383071802221,-8595.653435770688,-28145.186464369333,21488.814299006546,0.13424968772622314,-0.21202108288946261,-0.4631951510112157,1.094790284202677,-0.3841634641367513,0.10067653686793587,-18708.81648565855,6658.094755899638,-1574.1095655752931,1.2254876326894948,0.8256752792021732,0.20017201497214018
16258,1724815857861078474,-1.694561004638672,0.4339645802974701,0.1472949236631393,-0.040872685611248,0.1187104880809784,0.2200689762830734,-0.967371106147766,0.0,0.0,0.0,-184.02569682457602,67.54863672502016,-10.90993300481912,0.209875678,0.1472949236631393,0.19711304226475873,-0.2607937324544383,0.36109135500709955,553.7556878452148,1672.6063038863858,-1248.0383133397454,0.13477992990055487,-0.21329827206939583,-0.4618202995062007,0.07346068282364371,-0.008679932237521726,0.04223564974897487,6611.171352067138,-2630.968684802543,-137.39045103361627,0.09378375288097647,0.06058420912288519,0.20017201497214018
16260,1724815857873354763,-1.69422447681427,0.4340057373046875,0.1475822031497955,-0.0412270948290824,0.1186464354395866,0.2202338874340057,-0.9673264026641846,0.0,0.0,0.0,-0.11933848706631256,-0.8029575092920492,-2.5504641456979433,0.222151967,0.1475822031497955,0.05066672934778368,0.020838547272428808,-0.034873442139598504,1.6131889833658288,0.4118462898808435,-5.767348349269611,0.1354862850416509,-0.21298711106370477,-0.4622190798281334,0.035897026797101717,-5.374710836036911e-05,0.021666449560790113,6636.769597962936,-2476.339012032305,292.41594694145425,0.027467148860388372,0.01958104939041765,0.20017201497214018
16262,1724815857882947248,-1.6938165426254272,0.4339796900749206,0.1477770358324051,-0.0417910329997539,0.1195133104920387,0.2196642011404037,-0.9673250317573548,0.0,0.0,0.0,1.0032671204718846,-1.38564759650575,-2.657646156058213,0.231744452,0.1477770358324051,0.1676469259513697,-0.1440771547326711,0.10833483901838474,1.399751847954306,-41.44136038836815,32.23270258010704,0.1369116925036951,-0.21449747464828148,-0.461357558910453,0.05679263380615396,-0.019041397360552992,-0.009356881165912156,1011.1386406733438,-268.4384811782806,168.22781075129262,0.042711995325742665,0.03101160761234651,0.20017201497214018
16264,1724815857890815664,-1.6932775974273682,0.4337244927883148,0.1475119292736053,-0.0414413325488567,0.1220696717500686,0.2179124504327774,-0.9674171805381776,0.0,0.0,0.0,14.730098849648726,-4.838335472923611,-0.17606468946659293,0.239612868,0.1475119292736053,0.10898599852541,-0.6266644843913014,0.4736355915782694,-5.860574480297714,-40.04895208534317,30.823328339540474,0.13710318898408733,-0.2198911862187138,-0.45826665350672163,0.05710264104621032,-0.026111850747457588,-0.02654760404549039,40.67888657017488,43.434450041191155,152.0787194018713,0.06660202389307138,0.055168123863392614,0.20017201497214018
16266,1724815857913377550,-1.6927262544631958,0.4335443079471588,0.1473751962184906,-0.0417166166007518,0.1240138784050941,0.2161308974027633,-0.9675576090812684,0.0,0.0,0.0,-94.58210538427056,27.339487544080953,-7.309814855947536,0.262174754,0.1473751962184906,0.079925535063991,-0.15334702963618838,0.15965622890682551,128.7128201474695,-11635.946012440316,17067.52191042131,0.13820869130565688,-0.22381250687726867,-0.4550955261809339,1.3398404628560456,-0.39015163316844337,0.09943143038969993,-13525.103811685723,4032.750184003584,-879.6870957431929,0.023479943009933398,0.019708376516039815,0.20017201497214018
16268,1724815857913753795,-1.6922138929367063,0.433395117521286,0.1474132686853408,-0.041396826505661,0.1249095723032951,0.2149463444948196,-0.9677199721336364,0.0,0.0,0.0,-99.72531977987788,28.873143927747265,-7.644328309316835,0.262550999,0.1474132686853408,0.12916875592658353,-4.604452713028401,6.688400274099267,118.12409964794574,-11282.660512986642,16548.515743333057,0.13774170430240426,-0.22587454969797238,-0.4527830106478421,1.3033042601122151,-0.37959251415838935,0.09660025110672588,-13020.337644456587,3887.8179929139073,-837.2105880905239,1.3851727427522948,1.0063250552250849,0.20017201497214018
16270,1724815857921882630,-1.691888689994812,0.4332831799983978,0.1473923325538635,-0.0367368310689926,0.1244329735636711,0.2154286354780197,-0.96786230802536,0.0,0.0,0.0,-91.49422366521897,27.38897885335146,-5.339596238640982,0.270679834,0.1473923325538635,-1.1510010538142543,-0.1335052479831928,0.031054960369167363,-50.11279855185801,335.50432299014466,-486.3792085597271,0.1283609126767019,-0.2269837187128376,-0.4526740437704796,0.032895464809726604,-0.00286544699589264,0.013473721594647436,4543.379667656893,-981.5834141150095,990.2634913562338,0.04034260559724486,0.03009851040136147,0.20017201497214018
16272,1724815857933216937,-1.6916282176971436,0.4334230422973633,0.1477986872196197,-0.0371152833104133,0.1228274703025817,0.2166218310594558,-0.9677866101264954,0.0,0.0,0.0,15.801901532015137,3.6361223589095233,17.053502762895665,0.282014141,0.1477986872196197,-0.02210522271038689,0.27918460345698415,-0.22537409023251959,71.94603613984553,24.08615231192181,-14.320729041569413,0.12859796271794982,-0.22351813145010582,-0.4548571463714867,0.019800555775823625,0.007999774894915213,0.030178932192048036,7843.775808184137,-11408.541717952228,-29579.768971558915,0.022791266099158578,0.01609215500040926,0.20017201497214018
16274,1724815857961624645,-1.6912921667099,0.4333412945270538,0.1482520997524261,-0.0381765477359294,0.1217870712280273,0.2170477211475372,-0.9677814245224,0.0,0.0,0.0,123.08889489489684,-983.5276296345722,-3069.9754332869034,0.310421849,0.1482520997524261,0.0527734100389004,0.0859156515354243,-0.040993181906916934,88763.79287016294,23118.90212741492,16404.533401275483,0.13028689573167795,-0.22094757929868838,-0.45571808356742577,1.6760443644116094,0.3019311638670388,1.6238936656594092,-379879.4489756195,6656.47319007013,-128289.54194830917,0.015097671193433734,0.005154991114294048,0.20017201497214018
16276,1724815857961937518,-1.6907620429992676,0.4334368109703064,0.1487657129764557,-0.0425881221890449,0.1216514855623245,0.2156858593225479,-0.9679187536239624,0.0,0.0,0.0,2.912839575975795,-981.3023177142236,-3110.181378156175,0.310734722,0.1487657129764557,28.130427751472183,7.398884291487085,5.148048062593157,13438.340043496646,-12879.230852072558,10990.447790539003,0.1386620079906605,-0.21886946445608518,-0.4537644425640913,1.7147788018642132,-0.009212847169919769,0.6526091602340216,-388794.0654785193,79337.95651132218,98562.4875448225,1.7123811174179064,1.1941300089176936,0.20017201497214018
16278,1724815857962265246,-1.6901930570602417,0.4333258271217346,0.1486400812864303,-0.0431300215423107,0.1233928054571151,0.2145404666662216,-0.967928946018219,0.0,0.0,0.0,-126.11559435899737,-930.5068962992783,-2999.929858773894,0.31106245,0.1486400812864303,6.340607258021275,-9.267173462421185,6.829334513589404,-64064.515179274444,-48940.63239993052,4912.210095734236,0.14033782465902964,-0.2221883113951235,-0.4519258426366559,1.67423343856332,-0.3262914665527037,-0.3686673256881531,-379117.7844719135,153373.14609037596,337019.22376871854,1.5832385457677196,1.4850837560693333,0.20017201497214018
16280,1724815857970833788,-1.6897189617156982,0.4332977831363678,0.1487685143947601,-0.043870348483324,0.1241214349865913,0.2140310406684875,-0.9679152369499208,0.0,0.0,0.0,-106.4799455537793,20.871476310992016,23.944957109868373,0.319630992,0.1487685143947601,0.21855647564048353,-0.12281005828858671,0.10041890633116785,-414.69949894731434,580.2516067254618,-431.56465518313206,0.14205108962757518,-0.22335120467216668,-0.45120416701741595,0.05614631908042611,-0.010709479170330383,-0.01887215909437412,5486.96291276204,61573.600276760255,197444.49618545987,0.05326741218573314,0.04335229218910041,0.20017201497214018
16282,1724815857981818205,-1.6890907287597656,0.4330754280090332,0.1480844020843505,-0.0423119589686393,0.1272888481616974,0.2124408036470413,-0.967923641204834,0.0,0.0,0.0,-1.213506974215307,0.7825958473894485,3.6604376787835453,0.330615409,0.1480844020843505,-0.11533619213333933,-0.6060446909497664,0.3411011212444028,-0.850971335817678,29.132744298750186,-11.158653730662616,0.14014385156521822,-0.230469051025033,-0.4483578614069342,0.046280420542132106,-0.006171735404787881,0.0064794823914082755,4929.472107952576,-911.1237715000993,-782.3277086693996,0.04449340727168067,0.05853677853344325,0.20017201497214018
16284,1724815857991670527,-1.6887311935424805,0.4331389665603637,0.1487558633089065,-0.0433476120233535,0.1258596181869506,0.2125773280858993,-0.9680346846580504,0.0,0.0,0.0,6.228227103337549,-0.08420581517023218,5.358125369432467,0.340467731,0.1487558633089065,0.1373746831879515,0.32718346503893414,-0.061073049786597194,20.057715855338703,73.88203249914449,-32.195053409252985,0.14153066693906233,-0.22719296419146276,-0.4485049162704031,0.03153797610763043,0.004803785309884123,0.05449497238753698,4883.3929409305865,-6733.938765718612,-12238.41111063485,0.044664526946662036,0.016759078770313598,0.20017201497214018
16286,1724815858031014047,-1.688268780708313,0.4330694675445556,0.1487541198730468,-0.0440243668854236,0.1268483847379684,0.2119714319705963,-0.9680079817771912,0.0,0.0,0.0,846.924360704721,-1309.1773486148415,-2426.010942833893,0.379811251,0.1487541198730468,0.04792285443007084,-0.04017913194974733,0.027376126393189516,-3002.0969611003,-12193.04990384086,-3723.6659440604008,0.1432207430021271,-0.22891060547265035,-0.44764070142168744,1.4901966027819071,-0.18676155961247787,0.3414395090173912,-2401941.0668342067,1432630.1077201143,1700311.8473798977,0.011053392574988071,0.009625312039416684,0.20017201497214018
16288,1724815858031288690,-1.687856674194336,0.4330178201198578,0.1488485485315323,-0.0438385047018528,0.1272731274366378,0.2121389210224151,-0.9679239988327026,0.0,0.0,0.0,182.60213009053314,-912.9051107795995,-1955.6539059746951,0.380085894,0.1488485485315323,-0.78233327538151,-3.4122733587586294,-1.002445923306089,11258.786848372512,-23806.885031234553,17080.8991989938,0.1431007222752807,-0.2297989083359597,-0.44805785338702475,1.7243510805456026,-0.5488185535248249,-0.32951250698158674,-2822315.500803594,2058885.906145136,2856831.9928322593,1.4744922595300036,1.1506139989350506,0.20017201497214018
16290,1724815858031562599,-1.6873232126235962,0.4327689409255981,0.1485743522644043,-0.0441173054277896,0.1292434781789779,0.2108671069145202,-0.9679281711578368,0.0,0.0,0.0,-700.670966728437,-180.67448014656182,-860.5675091375631,0.380359803,0.1485743522644043,6.203015195387609,-13.082591888772424,9.366599123054154,17442.429214839554,-22815.154177583707,25963.518470570725,0.14432167944234534,-0.23371285891551205,-0.44597628116334087,1.5913455762159856,-0.6881317823795996,-0.7320528160252309,-2584432.7316496964,2285411.8223956563,3531349.73938057,1.8587577853612671,1.6178635223890796,0.20017201497214018
16292,1724815858032388542,-1.6868960857391355,0.4327497184276581,0.1486396640539169,-0.0441963039338588,0.1296397894620895,0.2103766351938247,-0.9679782390594482,0.0,0.0,0.0,-1240.6640517177832,740.9873059071954,893.9302971617681,0.381185746,0.1486396640539169,0.53566723959084,-0.8204765427906127,1.1927535275574912,-6295.941234990684,13614.722828895423,-9083.409576900503,0.14455485373366983,-0.2345252425003223,-0.4450742809371182,0.47694525307035285,-0.020618068522492816,0.07402152725804645,-588011.5947876717,1015916.4661095522,1938620.9976578064,0.4821016647493386,0.42345186557017633,0.20017201497214018
16294,1724815858041455072,-1.6865720748901367,0.4328270554542541,0.1488077938556671,-0.0433320589363575,0.1291164755821228,0.2116110771894455,-0.9678181409835817,0.0,0.0,0.0,-25.316672189297265,1.9294347198730044,-2.8291283959485396,0.390252276,0.1488077938556671,-0.24256698454868206,0.055021411493110225,-0.25140420500807364,-30.30840605481567,48.26817768375399,-78.71829576453742,0.1428765616227583,-0.2337050646053865,-0.4473199378976359,0.035048503893889915,0.009840012085565064,0.01642720051985247,70584.2193503162,-42253.98219115154,-50990.47552880736,0.032050079218638956,0.02976871701053014,0.20017201497214018
16296,1724815858051162387,-1.6862390041351318,0.4329361915588379,0.1489452570676803,-0.0436554104089736,0.1290188133716583,0.2124182134866714,-0.9676398038864136,0.0,0.0,0.0,0.26612864077532095,-0.1886561470708163,0.22380153275764603,0.399959591,0.1489452570676803,0.040339091735939574,0.0216214014594661,-0.17819163447653902,19.034433759271653,1.0940072250797095,9.655329853524538,0.14366816797622675,-0.23325034968741812,-0.44904892199040897,0.03273253759695649,0.013707481877421657,0.025582805402921238,1391.2525342969193,-160.37993368508216,9.654312409561925,0.02859743935979087,0.030769362234695438,0.20017201497214018
16298,1724815858061395715,-1.6859210729599,0.4331030547618866,0.149330273270607,-0.0444057695567607,0.1287384778261184,0.2125968486070633,-0.967603862285614,0.0,0.0,0.0,1.0814443328417704,-1.2061730499019563,-2.966007572641125,0.410192919,0.149330273270607,0.1260686175451214,0.0817365083528894,-0.056587204795506316,-0.8968962560157543,-11.202979502372788,15.226059931042911,0.1450656333610285,-0.23233934925417427,-0.4495142720109295,0.04090063199537042,0.005443747486435058,0.020112653174487072,24.667878817713216,-22.33767430062946,-150.34242717564595,0.028998049227775616,0.02366829202571019,0.20017201497214018
16300,1724815858071108873,-1.6854331493377686,0.4330557882785797,0.1493641883134842,-0.0442885495722293,0.1296647489070892,0.2120427042245865,-0.9676071405410768,0.0,0.0,0.0,0.8139353705316925,-0.7123798004933826,-2.9386099111060147,0.419906077,0.1493641883134842,0.03185244877926145,-0.18452388593046784,0.12212540845661181,-18.840076724467032,-33.85570383861002,15.665976544734495,0.1451576784259338,-0.23428435014944063,-0.4485742138017811,0.054016355959390694,-0.00994724957447346,-0.03111336284435584,-54.04691781071626,91.40802480011922,220.6492008148243,0.04689025475623366,0.04114423886859637,0.20017201497214018
16302,1724815858081714239,-1.6848164796829224,0.4328914582729339,0.1486335098743438,-0.0420118831098079,0.1325880736112594,0.2110578715801239,-0.9675278067588806,0.0,0.0,0.0,-0.06617933735856019,0.7268226071792953,1.9238072019818098,0.430511443,0.1486335098743438,-0.27379298260244034,-0.6181871246571133,0.25662143967084383,-5.501601215975158,4.989132826591074,-6.184194838860468,0.14182847399759044,-0.24116226614686329,-0.4467673202943492,0.05643753336222801,-0.007402963613706959,-0.03523708671372816,-45.51790323351824,69.98834597567729,262.82615733595725,0.040968315821830574,0.0636649246560694,0.20017201497214018
16304,1724815858091814826,-1.6842628717422483,0.4328945279121399,0.1486013978719711,-0.041355337947607,0.1330965459346771,0.2110930532217025,-0.967478573322296,0.0,0.0,0.0,-0.165483866886333,0.801561596810295,2.6962857258523876,0.44061203,0.1486013978719711,-0.10504436844808268,-0.12643541408669814,0.012668890879347543,12.160926016874349,31.966135106648977,-14.367066234336756,0.14078056864321933,-0.24244461754221966,-0.44682205671678393,0.05293626602541224,0.004622432685852829,0.00644171644651248,-3.2615928851484286,-15.499355690396218,-54.52476999347589,0.04709222993700329,0.048978023866876406,0.20017201497214018
16306,1724815858101984341,-1.6837437152862549,0.4329857528209686,0.1487654149532318,-0.0412699654698371,0.1329245120286941,0.2112697213888168,-0.9674673080444336,0.0,0.0,0.0,-0.13138335805160484,0.40948157485028513,0.8004633344682883,0.450781545,0.1487654149532318,-0.027918587840593596,0.027456971075186565,-0.033246900482847265,16.584738995472442,7.656083033736733,-2.250854319595153,0.1405697077933669,-0.24212074597042468,-0.4471265657777648,0.0531082171704611,0.008790962406184377,0.019219080993751803,-16.79073701988398,-24.49530841238956,-133.0877718661967,0.04479050084935018,0.04382818955587823,0.20017201497214018
16308,1724815858111217231,-1.6832361221313477,0.4330654144287109,0.1489687711000442,-0.0422222316265106,0.1329550594091415,0.2112962901592254,-0.967416286468506,0.0,0.0,0.0,-0.45526760397375643,0.3011702240947907,0.01875518679619026,0.460014435,0.1489687711000442,0.20065529417766256,0.035471646117024094,-0.03504916787209678,1.960531937351246,5.016858222751984,-9.204147265020165,0.14249001330111621,-0.24175090104017527,-0.44740902265991966,0.05065210831020295,0.012568115759972187,0.02278745034808427,-40.350898298744156,31.86394184883235,106.88916907155237,0.04977268272665688,0.045495578355137456,0.20017201497214018
16310,1724815858121283406,-1.6827737092971802,0.4332351684570312,0.1492065191268921,-0.0423686169087886,0.1322347968816757,0.2123912572860717,-0.967268705368042,0.0,0.0,0.0,-0.9192997327475756,1.1003585203771737,3.1969697508262067,0.47008061,0.1492065191268921,-0.029787582634442415,0.13150392419159454,-0.22656989886483025,-11.899461436025474,5.091673496604657,-7.253668228806468,0.14269860524963246,-0.24011642613211204,-0.44953990141689976,0.043992346624420975,0.01441528084014898,0.01894053657273087,-26.952647431069416,47.29560781693287,230.7512742981286,0.03868521247534915,0.04045932482866892,0.20017201497214018
16312,1724815858134083137,-1.6822422742843628,0.4333798289299011,0.1493728160858154,-0.0426260307431221,0.1314264386892318,0.2131513208150863,-0.9672004580497742,0.0,0.0,0.0,-0.9526815484154292,1.1833178013781707,4.76740943510808,0.482880341,0.1493728160858154,-0.003174311779636193,0.12427519288331451,-0.1278103241574553,21.799929528341444,117.65042490272558,-41.44468477439871,0.1429976833954675,-0.23830908134974532,-0.4509736178994398,0.028031305782150184,0.04342196782805985,0.11811343988762601,1073.3677064172048,-164.48871354311726,-444.8527339077051,0.03459252702804849,0.037306413645399154,0.20017201497214018
16314,1724815858141378572,-1.682093858718872,0.4338301718235016,0.1506716161966323,-0.0449148900806903,0.1263095140457153,0.2150431871414184,-0.9673597812652588,0.0,0.0,0.0,11.352085529248324,-0.7276202790640446,-0.8379333614449718,0.490175776,0.1506716161966323,0.23786764830429113,1.4741442506448104,-0.634584460595489,25.260790737839073,136.54408439617643,-50.381710827035086,0.1454523732745637,-0.2270007212000336,-0.45409341647091367,0.022304830980502288,0.04755200550127325,0.14049979234083598,-3006.2952155194525,1510.7640029630466,3283.2894411440716,0.031496718075866834,-0.004149665154905805,0.20017201497214018
16316,1724815858170408091,-1.6812198162078855,0.433572918176651,0.150415152311325,-0.0452293679118156,0.1288895905017852,0.2135105580091476,-0.967344343662262,0.0,0.0,0.0,-618.0111930926237,247.8979234946107,562.487188956306,0.519205295,0.150415152311325,0.07256889714659735,-0.16268598375488424,0.10716308039417013,-16234.096508319,-7807.884379130943,-3252.502071540129,0.14700063359626533,-0.2321263246867291,-0.4516395155591716,1.753826911951819,-0.1230126097560742,-0.33507128946394005,-125744.36811917578,3110.8415319854394,9980.388141504023,0.028094810239774885,0.02517962069181576,0.20017201497214018
16318,1724815858170880413,-1.6803781986236572,0.4335139393806457,0.1502543836832046,-0.0433127842843532,0.1293777823448181,0.2141190767288208,-0.9672324061393738,0.0,0.0,0.0,-678.2027447680152,249.3253311439433,567.128716995619,0.519677617,0.1502543836832046,-7.7198651917352805,-3.910090812160971,-1.4542566176309895,-1779.7443168867549,-3038.233211017653,502.35485849537076,0.14357910395616635,-0.23385425622497563,-0.4526128607921303,1.4567189147099953,-0.003974750592334431,-0.06494767858166028,-98749.73169423587,-7672.862679330079,-14500.598391831969,1.533079092937645,1.6000134800224979,0.20017201497214018
16320,1724815858171599490,-1.6796866655349731,0.4336434304714203,0.1505092084407806,-0.0455866158008575,0.1302284598350525,0.212729126214981,-0.9673205018043518,0.0,0.0,0.0,-717.8056009963427,232.09969684194968,530.069129163475,0.520396694,0.1505092084407806,7.113237815096816,-0.7351977110554644,3.0759712074337138,19550.287011973665,4193.888105557151,5967.055586340674,0.148190163181506,-0.23469886447312985,-0.4504420947022917,0.9152149710106707,0.1723518114454592,0.3376320406392693,-49604.25631020955,-23634.376903901422,-50960.67798987918,0.8481950971249491,0.8178526873941043,0.20017201497214018
16322,1724815858184997840,-1.679028034210205,0.4340234398841858,0.1508524417877197,-0.046044036746025,0.1289325058460235,0.2133633643388748,-0.9673326015472412,0.0,0.0,0.0,-16.770714906060046,-4.4689394067440995,-8.663204418828245,0.533795044,0.1508524417877197,0.01248482957088618,0.1975724745452178,-0.10890668691518299,-189.04118944953072,-18.567686721176543,-53.870393278974554,0.14860729670430517,-0.23186499753563067,-0.4515229843207245,0.09752536359746955,0.008563211076868527,0.003414819910570799,18052.447125471786,-4925.012969780229,-11333.851574313987,0.03688996193962473,0.04752504372886936,0.20017201497214018
16324,1724815858190888529,-1.678328275680542,0.4340226054191589,0.1508150547742843,-0.0453155189752578,0.1292016059160232,0.2133230715990066,-0.9673401117324828,0.0,0.0,0.0,0.8151155632877733,-0.5074127850094174,-0.6443896212001434,0.539685733,0.1508150547742843,-0.21812512917158086,-0.14019573124408174,0.04987496522729815,-10.710326738071885,-40.25541575895012,19.91499768747987,0.14728248125731383,-0.2327251908111713,-0.4513495798228573,0.11335859917260649,0.00232419798570227,-0.005450300040251932,1875.6924397105242,475.3396711558693,950.8789088913903,0.10260946496778076,0.10566547616637043,0.20017201497214018
16326,1724815858201438221,-1.6772350072860718,0.434093713760376,0.1507744938135147,-0.0460085198283195,0.1306990832090377,0.212592214345932,-0.9672670960426332,0.0,0.0,0.0,-0.36247169653071554,0.7820939324819909,1.633358159998547,0.550235425,0.1507744938135147,0.20617675911268546,-0.24210211066093315,0.126967449511489,22.580958897203605,-0.09525905956821124,-0.27591540356522004,0.14923163783074667,-0.2354491215101065,-0.45037549271494665,0.08657539333467668,0.007395068290344753,0.004010392290712872,-23.682156640735542,36.75289696370919,97.53743529547526,0.08697260103447668,0.094460974189495,0.20017201497214018
16328,1724815858216048878,-1.676315188407898,0.4342150092124939,0.1509920358657837,-0.0472262054681777,0.1313200145959854,0.2126533240079879,-0.967110812664032,0.0,0.0,0.0,1.0709831285825544,-0.41057160768433754,0.663264089172908,0.564846082,0.1509920358657837,0.1791891797040821,-0.04995992614737762,-0.030514200369919635,14.033970793647363,15.48321705989217,-21.36281939503922,0.15198190345663623,-0.23610389065951587,-0.4509414128640876,0.1253164166140266,0.02492133480819092,0.04277948309337276,-53.10235267937611,-238.25216357002836,-480.11732614426546,0.05505532316905018,0.05432092273980136,0.20017201497214018
16330,1724815858221691726,-1.6754721403121948,0.4343918561935425,0.1512942165136337,-0.0481156595051288,0.1313565969467163,0.2130141407251358,-0.96698260307312,0.0,0.0,0.0,0.4417895143120032,-2.096327202063906,-2.947607796902962,0.57048893,0.1512942165136337,0.2929911884591204,0.042492613940749095,-0.17412817631223437,13.304262331195758,6.339518068859926,-10.57566220564171,0.15385987584029795,-0.235717244746453,-0.45190263810993103,0.1279151831578389,0.019095515410903374,0.04218480403385705,-84.04586799713086,-191.23695830348905,-477.4163639009481,0.12988659655097454,0.1285002500099891,0.20017201497214018
16332,1724815858233711747,-1.6744847297668457,0.4343078732490539,0.1515102535486221,-0.0494862832129001,0.1325390636920929,0.212372288107872,-0.9668932557106018,0.0,0.0,0.0,0.1345718252304131,-1.642413694096442,-4.525829442909277,0.582508951,0.1515102535486221,0.27718121312676486,-0.1384882345255532,0.07961429756695443,3.233953278505023,-148.93320495559252,73.93462117723625,0.1570257744516594,-0.23750996165659025,-0.45119521476075014,0.1327453679120083,-0.033342792859706094,-0.06601845951632335,132.4532631570992,336.80790384583554,505.05389375958924,0.07904089159012032,0.06408898461870437,0.20017201497214018
16334,1724815858241337437,-1.6732276678085327,0.4339261054992676,0.1506004780530929,-0.0486680120229721,0.1400517225265503,0.2092499732971191,-0.9665564894676208,0.0,0.0,0.0,1.9090593357553578,2.372714996368688,2.404141538889704,0.590134641,0.1506004780530929,0.3238509938929347,-1.9218825344099577,0.8989748534928824,4.786783340788416,-127.41625840165952,57.18720106671095,0.15837680587481343,-0.25306059263789077,-0.44658874972694407,0.13247854165322082,-0.03270755171725526,-0.07887634542056832,89.99600909875477,340.48322302548223,632.947086212421,0.13500657902994218,0.15910466792264524,0.20017201497214018
16336,1724815858258036392,-1.672199010848999,0.4340145885944366,0.150761678814888,-0.0512399896979332,0.141944333910942,0.2087680995464325,-0.9662516713142396,0.0,0.0,0.0,-1.806429076606939,1.25522217079207,2.8875761549243784,0.606833596,0.150761678814888,0.3550297292881924,-0.1569401229914236,0.01603390635006999,-44.26385247367521,235.04639695339534,-233.2438729859831,0.1643462235531373,-0.25569032351958404,-0.4467507816144781,0.23544756079132867,0.09063319492405242,0.11084265738698917,-1054.9979426507243,-675.5252803089443,-811.409994878581,0.053974887085497913,0.052954395027316414,0.20017201497214018
16338,1724815858261553944,-1.6712419986724854,0.4343966245651245,0.1512265503406524,-0.052035853266716,0.1406188607215881,0.2102515250444412,-0.966081202030182,0.0,0.0,0.0,-6.134283896819608,-1.5719222330305507,-0.5892695224076889,0.610351148,0.1512265503406524,0.16514836731392257,0.7656937284992344,-0.9380594640289841,-60.14061344279935,187.56272601330394,-188.232962157394,0.1656575256221669,-0.2524915070312856,-0.44965647054700175,0.22318599764390967,0.09050577397510651,0.11472133547125418,-890.7076724512362,-678.4249982917535,-862.4970696331903,0.224558960203008,0.24098711414732935,0.20017201497214018
16340,1724815858272209207,-1.6704416275024414,0.4347766935825348,0.1518861502408981,-0.0491566024720668,0.1379762589931488,0.2120192199945449,-0.9662267565727234,0.0,0.0,0.0,-4.662189260023203,-4.756461308755051,-5.714791096643794,0.621006411,0.1518861502408981,-0.6744735286093615,0.35214244503178643,-0.2646141849301239,-16.516644220023995,-21.118788282261235,40.303699489309935,0.15902739903335658,-0.2483329774615501,-0.4519025782242535,0.07234026360402623,0.024189417409097302,0.05383264589467274,399.151147897542,-13.60725355381511,-196.85061731736772,0.06561882862991891,0.06183664892122663,0.20017201497214018
16342,1724815858284571494,-1.6695871353149414,0.4349110722541809,0.1524358838796615,-0.0497767031192779,0.1359068155288696,0.2124676704406738,-0.966389775276184,0.0,0.0,0.0,4.015620680480181,-0.8332151760613588,-4.072363831113888,0.633368698,0.1524358838796615,0.01464245045952018,0.3448347886570749,-0.09480894577320427,55.73412509132943,-128.78603449373554,60.22976683786735,0.15932938501294103,-0.24393813516841703,-0.45239906267896474,0.15088585572470947,-0.013565423971712676,-0.016820508370882337,-228.9344119861105,338.79587461709326,490.9258733440561,0.06645631789408087,0.05202211861424163,0.20017201497214018
16344,1724815858291028996,-1.6683369874954224,0.4347410500049591,0.1521205306053161,-0.0501164942979812,0.1391035318374633,0.2110426574945449,-0.9662295579910278,0.0,0.0,0.0,-0.6027256081258745,1.4268788305098075,0.3055930685955499,0.6398262,0.1521205306053161,0.3745143703581062,-0.9192165916683669,0.45095425724707716,45.26883767574334,-95.99826808316531,40.97359882662398,0.16126164258858,-0.2502626668417835,-0.45041136875704196,0.16893032272253095,-0.011454851311892611,-0.03757628400850077,-550.6492817391407,218.32258822058103,553.5473005797943,0.1678695588115335,0.1726485934613392,0.20017201497214018
16346,1724815858301021673,-1.6670303344726562,0.4348565936088562,0.1519191414117813,-0.0528427176177501,0.1414728909730911,0.2097598165273666,-0.9660196304321288,0.0,0.0,0.0,-3.5608482829183457,1.5724287220223658,3.9131259126074704,0.649818877,0.1519191414117813,0.6651194558606979,-0.336027190485207,0.1870833755621523,-16.483500985634972,63.47298591991212,-33.65692643744952,0.16757455646812056,-0.25388119267294845,-0.4490744781958318,0.11037797647310299,0.019813593184327516,0.019904819145714292,5.106302013924964,-74.54437972747793,0.31988125468429374,0.1040993103378265,0.12448856772002205,0.20017201497214018
16348,1724815858311045562,-1.6661288738250732,0.4351381659507751,0.1525214612483978,-0.0535725206136703,0.1397549510002136,0.2107172906398773,-0.9660211801528932,0.0,0.0,0.0,-0.4816875458902672,-0.07081495844129981,0.28944463031987644,0.659842766,0.1525214612483978,0.041722474122719795,0.35161418677962314,-0.22319514426333723,-36.971030735022204,10.553965695053902,-7.3079357449928715,0.16840892512570788,-0.2500322149609299,-0.4507437091636714,0.09779808478027974,0.019922444329065314,0.04063606976085232,207.4240216763315,-90.47082246430054,-260.80685268517857,0.08144350441478067,0.07186605863122811,0.20017201497214018
16350,1724815858321526866,-1.6650176048278809,0.4352574646472931,0.1527341902256012,-0.052978865802288,0.1405780762434005,0.210469052195549,-0.9659885764122008,0.0,0.0,0.0,0.599077246105117,-0.21395440945650823,-1.3405458201506777,0.67032407,0.1527341902256012,-0.069380142814204,-0.17393017648832262,0.0686930779185362,-12.787116231641512,-16.512732868736617,6.614531501352807,0.1675778698697868,-0.2519499393282968,-0.45032554333168107,0.10122446284226783,0.01828509606563955,0.024175565064244786,56.015303485303974,-0.6103024384834796,-55.87013640979782,0.09270219638436993,0.0909340132857872,0.20017201497214018
16352,1724815858331744368,-1.664031147956848,0.4355130493640899,0.1530198454856872,-0.051929909735918,0.140357106924057,0.2110015004873275,-0.9659615159034728,0.0,0.0,0.0,0.7022988807866986,-0.09024417061076984,-0.9189114383856989,0.680541572,0.1530198454856872,-0.22181619381627368,-0.007698862543151328,-0.07522011643431145,25.944574254398482,-8.503906554386804,8.741728263889744,0.16550990544618066,-0.2519001080204026,-0.4511216446332385,0.11005647579372635,0.015523923128032635,0.012768592998755324,-23.827622216584057,32.975648839179314,2.3408763032268354,0.08055187196760469,0.08578371427009424,0.20017201497214018
16354,1724815858341561138,-1.6628233194351196,0.435575932264328,0.1530019342899322,-0.0534209087491035,0.1423874795436859,0.2097242623567581,-0.965861201286316,0.0,0.0,0.0,0.1483686287895578,0.4302917596234136,-1.2630628406683697,0.690358342,0.1530019342899322,0.41829198690633995,-0.32483429745485237,0.2258912259294902,14.839193423462133,-8.059007982509533,8.165052360169037,0.16918704740711615,-0.25541375516351517,-0.4494115363019762,0.11542188047526736,0.016335688950327665,0.005610655520450258,-44.922414119938,41.84927357580521,96.30177387570879,0.10407135876390457,0.11026529407972362,0.20017201497214018
16356,1724815858352755223,-1.661628484725952,0.4358855485916137,0.1531596481800079,-0.052956823259592,0.1428983360528946,0.2096403092145919,-0.9658295512199402,0.0,0.0,0.0,-0.2076456091209895,0.7560997443798547,1.4917012810206203,0.701552427,0.1531596481800079,-0.05850563261125869,-0.1055500630304826,0.029983634754755416,-60.33620616294644,-1.070203807271218,-16.13903233906878,0.1684974976587434,-0.25663489836141534,-0.44927477012393563,0.11200002573421841,0.02558940069879867,-0.015343331162892326,-30.40260809499189,6.178295203601998,242.3869672109823,0.0849537839658265,0.09957692572420596,0.20017201497214018
16358,1724815858362446952,-1.660498857498169,0.4361161887645721,0.1527639776468277,-0.0490346737205982,0.1434167623519897,0.2107995301485061,-0.9657074213027954,0.0,0.0,0.0,-0.4905421927933835,0.6235969336369265,3.8097691145026182,0.711244156,0.1527639776468277,-0.7921451393355446,-0.28927612441382766,-0.11500328479976121,67.41300934863115,33.6760655296012,7.513394190678023,0.16123161898268965,-0.2592175186398116,-0.45088766453284024,0.11081022282941433,0.03232523605953119,0.027337659223027444,5.951641477350961,-41.85953239720053,-156.01555282221312,0.08091412741229058,0.12290927677330037,0.20017201497214018
16360,1724815858371911218,-1.6595032215118408,0.4365009367465973,0.1536526829004287,-0.0547771602869033,0.1422602236270904,0.2091343104839325,-0.9659318923950196,0.0,0.0,0.0,-0.10943500575073095,-0.03308837070404946,-1.3192568888640113,0.720708422,0.1536526829004287,1.1685169499961723,0.5158853142831084,0.16380648192706362,19.56742147649749,6.491103181003233,0.6909302577729335,0.17167661623585245,-0.25465939881851457,-0.4484704981831291,0.10276855006817698,0.037567126249776095,0.05790368150837644,52.69718208010492,-49.74251017527748,-394.58142408675945,0.09833632246769987,0.07957204957883222,0.20017201497214018
16362,1724815858381767943,-1.658515214920044,0.4368395507335663,0.1538538932800293,-0.0519438199698925,0.1427239626646042,0.2101839035749435,-0.965792179107666,0.0,0.0,0.0,0.5375777420912993,-0.321739636486033,-3.6958757197202177,0.730565147,0.1538538932800293,-0.5643846776821915,-0.22682145887857516,-0.12470274821755267,-64.5524836752904,-42.547891795139435,0.29189780403049426,0.16652866141666328,-0.2566563635905485,-0.45011174115585495,0.10928891500739724,0.031215676445665252,-0.0017962196223537674,-16.65597314202341,-19.250441843761603,53.72864910304793,0.07802216020000882,0.0946611225071549,0.20017201497214018
16364,1724815858391716374,-1.6573370695114136,0.4371185898780823,0.1536130160093307,-0.0510543882846832,0.1442162543535232,0.209489032626152,-0.9657688736915588,0.0,0.0,0.0,-0.45447376181786847,-0.41249740908302135,-0.20082290816823867,0.740513578,0.1536130160093307,-0.08945434014381332,-0.32073798482150945,0.1750348471963851,19.114567052687754,1.6179584132792595,7.717812968236435,0.16532412451719136,-0.2600909771600924,-0.44888046322705655,0.11339252390737897,0.031254473458282916,-0.0148586832480051,-2.566764261130597,9.342893361081838,236.9504909551295,0.08511560804739844,0.12130379491642333,0.20017201497214018
16366,1724815858401984880,-1.6562260389328003,0.4374735057353973,0.1535595804452896,-0.0498662218451499,0.1449359208345413,0.2096003144979477,-0.9656990766525269,0.0,0.0,0.0,0.5488783548544616,-0.12084396363685967,1.0201479797145223,0.750782084,0.1535595804452896,-0.1965655254503813,-0.18691845147657646,0.016750394505696365,3.7454334108093055,8.402234559324498,-6.016180595722972,0.16334424440218517,-0.2620126330219256,-0.4490298449309672,0.09953693410188436,0.022605397612990075,-0.005132819086322904,41.46682719125687,90.99824919737178,146.20403846846892,0.07830581814980314,0.10920335822213115,0.20017201497214018
16368,1724815858415407768,-1.6550419330596924,0.4375671148300171,0.1534919291734695,-0.0502134785056114,0.1461206674575805,0.2088984698057174,-0.9656546115875244,0.0,0.0,0.0,0.11859733014120621,2.1989331496117845,3.4616345042567396,0.764204972,0.1534919291734695,0.10245314014473167,-0.15537190755214944,0.10090224305178006,20.53211763848689,44.820193434102904,-28.967330498277658,0.16445114794477347,-0.264291210628569,-0.4479983665671815,0.1402109097591051,0.03364203281206812,0.009841271626223502,-164.44366965970835,-10.805591772389931,-167.50717492642582,0.07251673238104371,0.08098850556731309,0.20017201497214018
16370,1724815858422069239,-1.6539360284805298,0.4378793835639953,0.1536066830158233,-0.0512631386518478,0.1453359276056289,0.2094079852104187,-0.965607523918152,0.0,0.0,0.0,-1.4145052003298373,1.5198894562298,1.1907065838482378,0.770866443,0.1536066830158233,0.23345952003802337,0.28359953313568437,-0.20855273592378204,23.855204641818,46.16604198411449,-21.716239943967494,0.16629181768783813,-0.2621990922010098,-0.44909547695613705,0.13137538779172075,0.052841469667548324,0.040656806173283044,-112.73681340565447,-154.12499753883156,-391.89500756147254,0.12925081126441085,0.15749581899127463,0.20017201497214018
16372,1724815858432758236,-1.653125882148743,0.4385465085506439,0.1544431298971176,-0.0546579249203205,0.1436937302350998,0.2089356184005737,-0.9657694697380066,0.0,0.0,0.0,-0.6058188560414361,-1.0226752323734098,-3.872818626766343,0.78155544,0.1544431298971176,0.5602942797556308,0.43865014475359954,-0.016378507612251337,-11.659512209397377,-89.48406634276427,30.007125508580835,0.17211679179616152,-0.2575478628802723,-0.44845708227767117,0.1147439519859148,0.04572246104345723,-0.0055352872067082615,55.51599093039948,-59.849596203830835,49.70931283006167,0.05980923277359182,0.06674607746429657,0.20017201497214018
16374,1724815858441013996,-1.6519302129745483,0.43881756067276,0.1538631618022918,-0.0544202588498592,0.1477697044610977,0.2078074663877487,-0.9654111266136168,0.0,0.0,0.0,-0.2759131425162966,-0.3816617464255807,-0.12486306423444438,0.7898112,0.1538631618022918,0.194719861825735,-0.9631911747784312,0.3080514807486046,-30.754907821910137,-75.76411576717368,13.479868487927819,0.17341947248460762,-0.2658185548893676,-0.44727858595515313,0.11580083052758283,0.0350052688835607,-0.0346476086818166,121.2188404041471,-15.789670743221222,51.96550848401304,0.0938389014664594,0.16027289024977268,0.20017201497214018
16376,1724815858454201478,-1.6510145664215088,0.4393249750137329,0.1541562229394912,-0.0549737997353076,0.1477319747209549,0.2080980092287063,-0.9653229117393494,0.0,0.0,0.0,3.0343821018010892,-2.5581000622986165,-7.9081206237696,0.802998682,0.1541562229394912,0.07407346674541078,0.01859456374972779,-0.05803607333263126,1.034230887069512,31.87745684281401,-5.122402454935102,0.17458982878518142,-0.265444518178661,-0.44801574622688345,0.10365333753850337,0.04927811145692118,0.035357984252069485,-75.87089517594515,-36.30240478515731,-192.24592833292473,0.050134973288564595,0.06837564155115224,0.20017201497214018
16378,1724815858462135552,-1.6500288248062134,0.4397675096988678,0.1544994562864303,-0.0555259063839912,0.1475804895162582,0.207970455288887,-0.9653420448303224,0.0,0.0,0.0,0.872035387648582,-2.231614634150696,-7.533805841491965,0.810932756,0.1544994562864303,0.13088594960782987,0.06830365519940357,0.009382512933357198,-45.21112115975487,-161.30162646460093,72.40641247645779,0.17558276814270332,-0.2649238825299767,-0.44784203150232443,0.14660975120219177,0.011604748025717981,-0.09047419521384192,-378.3989438094319,228.8368830208911,774.670243012198,0.09609966723322336,0.11623835609865683,0.20017201497214018
16380,1724815858470906912,-1.648525953292847,0.4394409656524658,0.1524090468883514,-0.0487166903913021,0.1597472429275512,0.2038203775882721,-0.9646578431129456,0.0,0.0,0.0,-3.473559798518009,1.5955988133308008,6.315600481018657,0.819704116,0.1524090468883514,-0.7735256162432087,-2.971428003331637,1.264211750829875,-26.411398920501554,-39.726033920880376,4.220455098733019,0.16694133505866257,-0.292496882021065,-0.4410969516620876,0.1102135992791844,0.016434763407200847,-0.0758195015848413,-184.29400554407252,220.03463267993664,798.6221215302858,0.09485808580754486,0.21248225935749862,0.20017201497214018
16382,1724815858483119929,-1.648219347000122,0.4405542314052582,0.1542464345693588,-0.0531505234539508,0.1493092775344848,0.2092344015836715,-0.9649366736412048,0.0,0.0,0.0,-0.4334488098039424,0.6047513772615014,2.7998955963990593,0.831917133,0.1542464345693588,0.20817177022580727,1.76099972495476,-1.0452200471249722,38.86809197331429,47.83144629418185,-5.583800600177055,0.17206693566731746,-0.26914380093116874,-0.45041629435908664,0.07928420413308856,0.05369116165267229,0.08029925320767894,86.03557373104223,-87.46052777666831,-480.96909387304686,0.023537266160127506,0.010451648553453862,0.20017201497214018
16384,1724815858491602281,-1.6472276449203491,0.4407889544963836,0.1545143127441406,-0.0545050837099552,0.1488887071609497,0.20905801653862,-0.9649643301963806,0.0,0.0,0.0,-0.6632850276293905,-0.17441192447165532,-2.4174814397321964,0.840399485,0.1545143127441406,0.2932990850898528,0.16569666516820927,-0.011462586622069896,8.785290331602639,-94.33671209976427,65.0125114064031,0.1745144855755657,-0.26774259094983704,-0.45026428398729346,0.0879736018261923,0.04441200268283296,0.045235812411426934,51.918203267522884,-85.66850029478499,-450.06781509374196,0.09825163529698276,0.1024320070511887,0.20017201497214018
16386,1724815858501502845,-1.646691083908081,0.4414221048355102,0.1551199704408645,-0.0565966591238975,0.1477558463811874,0.208821564912796,-0.9650692343711852,0.0,0.0,0.0,0.7638121198353156,-0.9510648870662162,-4.966472396667854,0.850300049,0.1551199704408645,0.36582748352201455,0.3149189710101567,-0.02485922771587642,5.4583439612188975,-2.9390914132280814,4.572150967948548,0.17805336756619577,-0.2646298665786001,-0.44994867744456113,0.06190389134250296,0.05331116168506966,0.041133745303840286,97.61526303722181,-61.14399506336497,-119.88607503749591,0.03625705192196923,0.052916114028445295,0.20017201497214018
16388,1724815858513976963,-1.6457977294921875,0.4419198930263519,0.1553181111812591,-0.058909885585308,0.1483554989099502,0.2076955139636993,-0.9650818705558776,0.0,0.0,0.0,1.2502164057493381,-1.4418634848633203,-4.299758414831107,0.862774167,0.1553181111812591,0.4045672030223252,-0.004819073423224993,0.12529966948457155,-64.78053973239054,-191.04178949004157,65.65219597595393,0.18268598147718873,-0.2649694317747034,-0.44836673065889787,0.1248206754555099,0.012372957251550076,-0.09236306304551967,-305.1700694495683,173.9607941580765,705.4499878749391,0.049750025520924765,0.07264844713305846,0.20017201497214018
16390,1724815858520752501,-1.6447561979293823,0.4419023990631103,0.1542939245700836,-0.0562510453164577,0.1545431017875671,0.2057048380374908,-0.964695692062378,0.0,0.0,0.0,-2.0840825988237297,0.5218351663292217,2.8795781080201377,0.869549705,0.1542939245700836,-0.2841940313029528,-1.9079794896271696,0.7674437832159301,-62.11237805824744,-119.2152629497622,34.80113596052416,0.17998466409516323,-0.27862288672296925,-0.44547740833215893,0.11933026611825426,0.009375179030325143,-0.09793472298153016,-332.29852599950596,242.09795215924578,841.2896756435878,0.09286348931805605,0.18095770599566768,0.20017201497214018
16392,1724815858532081564,-1.644055724143982,0.4422351121902466,0.154192641377449,-0.054694902151823,0.1553441286087036,0.2058358788490295,-0.9646285772323608,0.0,0.0,0.0,-2.82146732950908,2.360554673054758,8.275258617131733,0.880878768,0.154192641377449,-0.23883805550045678,-0.19606151327009624,0.025656038083509747,18.20501053774822,83.11529331362973,-33.8981396822903,0.17731007251054243,-0.28086038620617343,-0.4455904836276623,0.0715910863861069,0.03355318084408765,0.004812516929293409,109.65909303392228,-44.220397165072185,-145.02422907405898,0.038966940127023904,0.0676503840095808,0.20017201497214018
16394,1724815858541276367,-1.643324613571167,0.4425748586654663,0.1543395221233368,-0.0549415200948715,0.1550946682691574,0.2060193121433258,-0.964615523815155,0.0,0.0,0.0,-0.5091046781422328,0.41276693753033733,2.305319711111741,0.890073571,0.1543395221233368,0.03453374638062604,0.060760139321212554,-0.050373394105560916,43.88546668002866,74.01748299691707,-25.21872197494968,0.17773053230978209,-0.2802286857199096,-0.44596223854767375,0.056039198589104444,0.05694753225520799,0.07497589217928358,222.778963347546,-255.2407591573825,-725.3039924536149,0.05804079119636318,0.07785340707468046,0.20017201497214018
16396,1724815858551200243,-1.6430199146270752,0.4433541893959045,0.155715525150299,-0.0596041120588779,0.1494251191616058,0.2074916809797287,-0.96491801738739,0.0,0.0,0.0,1.394253826918098,-2.5851115754857994,-5.706854936984578,0.899997447,0.155715525150299,0.6216514534172959,1.28891977885118,-0.4821880319443093,-15.589910208604286,-20.567307688493518,7.948315269385441,0.18457387313701132,-0.2667847144500548,-0.4484574236050378,0.06364995132075535,0.03821342771389524,0.04081404706136649,37.10846336463595,-80.63255285712813,-273.8112775237453,0.03039821189559,0.01332242176359417,0.20017201497214018
16398,1724815858561688882,-1.6419870853424072,0.4433080554008484,0.1550589799880981,-0.0570210553705692,0.151740089058876,0.2070768028497696,-0.9648019671440125,0.0,0.0,0.0,0.0686772170049399,-0.9758895323952773,-2.6640474860213352,0.910486086,0.1550589799880981,-0.37053246991579575,-0.526728266041972,0.17165224223324735,-40.51690803831464,-81.7289465999363,31.54135195662198,0.18047528349146624,-0.2725444081492669,-0.44766094435584836,0.08522818612210159,0.0033688379494947185,-0.044145923381143426,-88.02097858040159,146.85768803952405,321.7750511680516,0.07047549248528166,0.10361634905087912,0.20017201497214018
16400,1724815858573718921,-1.6411445140838623,0.4434557557106018,0.1547824740409851,-0.0559468865394592,0.1530895680189132,0.206531748175621,-0.9647685289382936,0.0,0.0,0.0,-0.46091279814449404,0.700195237530274,1.6438999822313427,0.922516125,0.1547824740409851,-0.11177039179426286,-0.2491113663205277,0.12616563149710555,30.902255915521906,17.646112187477243,-2.7245411203793237,0.17886132002309846,-0.27576423655538534,-0.4466660066316378,0.05861549042198533,0.024002141956291467,-0.0011868305430251525,68.80736414102837,-17.57019648858246,21.818942172784418,0.049419562409273275,0.07278404006308781,0.20017201497214018
16402,1724815858582758849,-1.6406922340393066,0.4437523782253265,0.1549198180437088,-0.0567625537514686,0.1538844853639602,0.2059293687343597,-0.9647231101989746,0.0,0.0,0.0,0.9275550266834149,-0.5244300831309595,-0.4432170158419477,0.931556053,0.1549198180437088,0.23138785412069673,-0.126483738213637,0.10871310593507472,12.972223640828249,-5.78737079037151,4.8597236929409116,0.18073673830818326,-0.2770649171726164,-0.4458734201454415,0.06634531288219137,0.023437258075972522,0.0005831771630333549,-15.458388856335079,-62.564567212273346,-95.02953979714036,0.033963704788720135,0.05101646387945395,0.20017201497214018
16404,1724815858591006541,-1.6400222778320312,0.4438751339912414,0.1548146903514862,-0.056962139904499,0.1553311794996261,0.2051132917404174,-0.9646533131599426,0.0,0.0,0.0,-0.47203182320131765,-0.4918497531339233,-0.20475019197382704,0.939803745,0.1548146903514862,0.15034645591116572,-0.31984140114881116,0.19989105237278426,-2.5525701469360893,-6.389477540612798,3.660543616673861,0.1816489664190766,-0.27995675747500415,-0.44468116444121997,0.07454089994300261,0.015635856367225642,-0.007880861676102136,-133.56645924561153,0.547005914325382,25.979897885375053,0.060799649378347975,0.08021902725394484,0.20017201497214018
16406,1724815858601140361,-1.639350175857544,0.4440429508686065,0.1547954082489013,-0.0577200911939144,0.1564382016658783,0.2042851895093917,-0.964605152606964,0.0,0.0,0.0,-1.3757316832809794,-0.5286810585279413,0.02200257610242634,0.949937565,0.1547954082489013,0.21504202907613157,-0.1722424666762172,0.1449163444710619,-7.73688715224572,9.671507511791834,-8.656623085166085,0.18350288957471075,-0.2819398920871485,-0.4435079859248269,0.05150739779716673,0.01630490935032114,0.00027272529052346783,12.299969837634679,-13.514314621907747,46.628954293766625,0.050185913778416705,0.06438737730093183,0.20017201497214018
16408,1724815858611154452,-1.6389809846878052,0.4442037045955658,0.1548196673393249,-0.0575623698532581,0.157041534781456,0.2041958570480346,-0.9645354151725768,0.0,0.0,0.0,-0.24836896181447132,-0.7617831349473716,0.7289525355098799,0.959951656,0.1548196673393249,-0.00217424374164752,-0.12381586845946108,0.026247477253496892,5.955415372153466,-25.51908832233157,23.616887346489786,0.1834717533801572,-0.283206918839886,-0.44347442295938333,0.04660920735886975,0.005125602557527031,-0.007251265546061703,66.89056293374114,25.720629677082236,34.87470959163074,0.02603770249143125,0.03721656456264427,0.20017201497214018
16410,1724815858621295021,-1.6384083032608032,0.4441434741020202,0.1546467989683151,-0.0580142997205257,0.1609730273485183,0.2010428160429,-0.964522659778595,0.0,0.0,0.0,-0.03920493149119819,0.0021821054016658015,0.7157976362066659,0.970092225,0.1546467989683151,0.34210890646162107,-0.6942979674995756,0.629934944595092,10.77862302447435,6.172800513758957,-1.9319734974963032,0.1854673831886017,-0.29129984178035945,-0.43827327278476863,0.0465628923142134,0.0010416874185992242,0.015341329417887906,-7.186608431150626,54.85565552467354,-35.3243450708589,0.046500852829574287,0.052481028276636595,0.20017201497214018
16412,1724815858631499181,-1.6380349397659302,0.4442257881164551,0.1551359146833419,-0.0590952932834625,0.161138504743576,0.2009667605161667,-0.964445173740387,0.0,0.0,0.0,-0.3981269754955008,0.3516272196565155,0.005947105328333979,0.980296385,0.1551359146833419,0.2141575621414756,0.009732979251302067,-0.020899610269932322,-28.363832783389434,15.427751268078278,-21.933755200308582,0.18770994753616965,-0.2911626429789526,-0.4384727476390952,0.04580717455661443,0.0052216559488087455,0.007118522888148959,-8.045872483932762,-26.62493982627104,-10.699525123072892,0.04221299622863508,0.01867009269687007,0.20017201497214018
16414,1724815858641053378,-1.63751482963562,0.444250226020813,0.154838815331459,-0.0577611662447452,0.1624721586704254,0.2005470842123031,-0.9643896818161012,0.0,0.0,0.0,-0.23231972056133432,-0.44727610618020336,0.43030909594173783,0.989850582,0.154838815331459,-0.19839803401530318,-0.32205579887491964,0.14389375886609967,1.4245014918859287,5.862760226893229,-6.97395657808167,0.18557931238074113,-0.2944413422671698,-0.4376582016346776,0.0391044044133082,0.008062266309067923,0.014437193275013804,45.80273851696623,-66.9359684858989,-77.5470764866496,0.03712327996067356,0.05859148906594652,0.20017201497214018
16416,1724815858651267480,-1.6372828483581543,0.4443926811218261,0.1554834842681884,-0.0595990717411041,0.1618340760469436,0.2011864781379699,-0.9642519354820251,0.0,0.0,0.0,0.5461583290141638,-0.9488054814010274,-1.6935541784141028,1.000064684,0.1554834842681884,0.30322081466860995,0.18105063049143727,-0.19183564058931377,24.189994084398215,-7.918068028761859,15.300635444143026,0.18915390310851,-0.29225943949927924,-0.4393093929419436,0.04185529422967704,-0.0046368892722661315,0.015166630735254039,-22.45030958311881,84.40702289876552,1.4861996153895625,0.03218799186752777,0.0036140350546119146,0.20017201497214018
16418,1724815858661345044,-1.636670708656311,0.4441611766815185,0.1551595777273178,-0.0602189898490905,0.164538949728012,0.1989373713731765,-0.9642223119735718,0.0,0.0,0.0,-0.661110585959235,1.2292686711775198,0.4036610510693873,1.010142248,0.1551595777273178,0.29921693258118714,-0.46721806163004714,0.4413030347532067,-5.545830619261556,-11.180567163199207,16.66237703643297,0.19111270424145513,-0.29772351953465265,-0.4356751469121518,0.05011177492642105,-0.011270458502533387,-0.0194490932080722,-84.00853352241676,122.90949797727902,188.1249132342844,0.05248572267235374,0.055256754980919316,0.20017201497214018
16420,1724815858671077506,-1.6362829208374023,0.4441614747047424,0.1550895869731903,-0.0609327666461467,0.1651379615068435,0.1980063766241073,-0.9642666578292848,0.0,0.0,0.0,-1.1423317732849951,1.5492750539998563,2.0467610579778484,1.01987471,0.1550895869731903,0.19685045320948086,-0.07649111985501969,0.16956362265800115,-11.98143869497622,53.553611565280576,-49.52878640204504,0.19257415264322283,-0.2987689413340179,-0.43412879473804666,0.02976296179086546,0.018434487730552007,0.020559119942796578,39.40016663740964,-106.14846326169393,-106.60956956074745,0.03241817597802309,0.037022158647935,0.20017201497214018
16422,1724815858681395859,-1.636086106300354,0.444553017616272,0.1556053012609481,-0.0623453110456466,0.1619150340557098,0.2006347477436065,-0.9641795754432678,0.0,0.0,0.0,0.23613559271023843,-1.0669095507671043,-2.066413798006845,1.030193063,0.1556053012609481,0.057212929693041856,0.6227582538226217,-0.5778713117541625,-6.38501716686998,-5.07171443413808,-1.8045744431876611,0.19456712033246323,-0.2913160417710908,-0.4389524092682806,0.02835196528444328,0.01797971858109193,0.019098729826493965,175.49202355875607,-114.83957959981466,-194.37814363599665,0.01544609760371683,0.013597872808602727,0.20017201497214018
16424,1724815858690992385,-1.635731220245361,0.4445473551750183,0.1555129587650299,-0.0625211149454116,0.1623347401618957,0.2004480957984924,-0.9641364216804504,0.0,0.0,0.0,2.2941997067465634,-0.9309822645809743,-2.1088072093325305,1.039789589,0.1555129587650299,0.05973543946905334,-0.07601710318762127,0.035223009284623796,-1.966695875765927,-49.72433735149357,41.686593479396045,0.1950831952327058,-0.2920971689538981,-0.4387535992505176,0.03394609011908756,-0.001387914952308833,-0.0179115978358797,37.76962789773712,24.900331365918106,65.64339811332556,0.02952902104263243,0.03509706368525541,0.20017201497214018
16426,1724815858709362904,-1.6352143287658691,0.4444938004016876,0.1548924148082733,-0.0616787374019622,0.1638167202472686,0.2004515379667282,-0.963939368724823,0.0,0.0,0.0,-3.225504641064383,-0.09599901750333473,1.5608935112088413,1.058160108,0.1548924148082733,-0.0547992789227154,-0.17744601549763353,0.020313479157100175,129.22341307739393,78.79296736831515,45.97821970746778,0.19415648247542672,-0.29536762646597553,-0.4390297980829244,0.13627096824563978,0.01974279461958872,0.004813565826765398,-923.5938567042388,-167.73459551151436,-140.11319575527534,0.015718329659282854,0.03480144711909098,0.20017201497214018
16428,1724815858711740488,-1.6348570585250854,0.4445477128028869,0.1549157351255417,-0.0619962625205516,0.1638562828302383,0.2002265602350235,-0.963958978652954,0.0,0.0,0.0,-5.613173333597153,-0.5604031773819974,1.1231780441051311,1.060537692,0.1549157351255417,0.29412289239700684,0.0358357422132649,0.1440285429009793,110.72248301236662,71.67669680604654,34.68562871794412,0.19474852756094446,-0.29535016749568765,-0.43866134932126477,0.12589552283871797,0.019131057585255462,0.008624374603482199,-799.9408905589539,-169.61338835165594,-188.38675417603633,0.12378976066386611,0.1350990251384672,0.20017201497214018
16430,1724815858720941045,-1.6345664262771606,0.4445975422859192,0.1549529284238815,-0.0622947327792644,0.1636028587818145,0.2008738368749618,-0.963848114013672,0.0,0.0,0.0,-5.699261199107208,-1.2054797279085578,-0.7626746313187807,1.069738249,0.1549529284238815,0.029951166945302997,0.05342230039684499,-0.1545045033858582,-14.703802723749195,-2.7746413739986977,-9.243117022139597,0.19541886454986693,-0.2945924170938466,-0.4400192852649573,0.029771332722965838,0.0031832806988099094,0.0018817738998473388,214.15394121682687,4.97362525081742,-41.739862160980664,0.026314516925791977,0.027959039570502067,0.20017201497214018
16432,1724815858732347119,-1.6342525482177734,0.4446022808551788,0.1549438387155532,-0.0625117495656013,0.1639407128095626,0.2004585415124893,-0.9638631343841552,0.0,0.0,0.0,-0.0960991421880859,-0.08700692888541309,1.0693808381658299,1.081144323,0.1549438387155532,0.060326642392707575,-0.04448838114473053,0.0681813586439272,-2.5629627941736106,-9.962216440760203,18.561017236550757,0.19590519671220524,-0.2952413755685919,-0.43932514062750794,0.031908707892924326,-0.003102285904859059,-0.00723912050900033,203.9564149295491,65.2985259751969,97.71787805587891,0.02342677523392733,0.02425155817421936,0.20017201497214018
16434,1724815858741697182,-1.6339205503463743,0.4445463120937347,0.1548267751932144,-0.0621765591204166,0.1646734029054641,0.1994485110044479,-0.9639694690704346,0.0,0.0,0.0,-0.3910531916374702,0.2724374274520834,1.5009178098629832,1.090494386,0.1548267751932144,-0.0036931881501560946,-0.14819865956008066,0.23435135522035902,19.77878499124062,16.953391580618824,-10.361406618547266,0.19529704652171004,-0.2970265103727826,-0.437359500022842,0.028837333069148485,-0.00035890617167311234,0.017085161800758364,3.2230351079338178,11.53053742634114,-87.38105630232238,0.029516811520458163,0.03286309808777101,0.20017201497214018
16436,1724815858751322622,-1.6337090730667114,0.4445986151695251,0.155284583568573,-0.0646618232131004,0.1637033522129058,0.1996718943119049,-0.963925004005432,0.0,0.0,0.0,-0.015509436428480017,0.11675040904382145,-0.6633462944399735,1.100119826,0.155284583568573,0.45051923590949483,0.29288428473470585,-0.1441543428231136,11.004788164211636,-0.5384967681756443,-10.695390207073697,0.19987923629314452,-0.29398987418334,-0.4382032635538828,0.02445331090702041,0.0020556318234845605,0.020626468136391907,36.59381662097794,-21.030428370430375,-133.27906043556334,0.030616759307576576,0.0047792183170764025,0.20017201497214018
16438,1724815858762032175,-1.6334176063537598,0.4445803761482239,0.1551845222711563,-0.0650140270590782,0.1652479171752929,0.1992177218198776,-0.963731586933136,0.0,0.0,0.0,0.34753478875750243,-0.1663377820970029,-0.999587142694335,1.110829379,0.1551845222711563,0.13721591658129567,-0.26533600051611533,0.08242840840680553,-20.139953774793998,-1.52721045949691,3.5642880969981325,0.20125771410702872,-0.2969503365806267,-0.4378906651474065,0.029529585174529416,0.0017080811782435035,0.0012341001701585697,1.5515699032325259,12.137360829741892,55.54453122571703,0.021525666797538975,0.02616954764513923,0.20017201497214018
16440,1724815858771688513,-1.6331123113632202,0.4446265697479248,0.1552885323762893,-0.065300129354,0.1645111590623855,0.1993187069892883,-0.9638174176216124,0.0,0.0,0.0,0.08087702262737317,0.2866873264218412,0.29373776178031263,1.120485717,0.1552885323762893,0.02209590391525903,0.16044417722405305,-0.036328683518705676,-1.438370046416587,-1.1195145327588172,7.4741664859395325,0.2014814079479526,-0.29536218067898357,-0.43792604918056177,0.03178444770779265,-0.0010638325476826083,-0.0013556631268842878,-30.341867009915504,64.96153229157993,130.38604658535712,0.02858721153022836,0.025431728503384772,0.20017201497214018
16442,1724815858781699998,-1.632792353630066,0.4445552229881286,0.1551490873098373,-0.0653420537710189,0.1662508845329284,0.1981510370969772,-0.9637568593025208,0.0,0.0,0.0,-0.2511963266168271,1.1243683500437356,1.5622551418046164,1.130497202,0.1551490873098373,0.11650949047177407,-0.3200593945956419,0.24373156194372958,-1.0437970762075535,12.523410226555269,-12.141489653797661,0.20211242748506597,-0.29899052633579665,-0.436097561997365,0.031009851359627305,0.0077616176445651774,0.007417758444622891,-12.15619993655708,-0.06195356852794731,10.734424419908876,0.02645673579320467,0.029939774040268697,0.20017201497214018
16444,1724815858791349243,-1.6325019598007202,0.4447685778141022,0.155419185757637,-0.0659292042255401,0.1644907146692276,0.1991748958826065,-0.9638078212738036,0.0,0.0,0.0,-0.17307085723870008,0.34503537411153623,0.5872836147008736,1.140146447,0.155419185757637,0.00902524610220115,0.36361221798251764,-0.24650221990286436,-8.954765451080345,28.970856872635313,-24.477910476880865,0.20269680418581168,-0.2950753975930669,-0.43779663609452785,0.026969399404848104,0.020869323126273542,0.028871468639838582,35.7914885464707,-99.29296331579727,-186.1682978075287,0.025250219544293087,0.024477610115372514,0.20017201497214018
16446,1724815858801009953,-1.632271647453308,0.4449581801891327,0.1557066142559051,-0.0660775378346443,0.1632536649703979,0.2002065032720565,-0.9637942910194396,0.0,0.0,0.0,0.4405711291096923,-0.7933993741676115,-2.0345994347220024,1.149807157,0.1557066142559051,-0.05635651006998855,0.2384056349307867,-0.22833173980841326,-3.9277408526395696,-18.650042524061053,13.755916075621881,0.20266569634884296,-0.29237536476816783,-0.43956967583664935,0.02767349726126156,0.014400984529927996,0.018720641181494635,49.29963816212683,-58.867921234193176,-132.7759096524439,0.02123616960403771,0.017658968935178956,0.20017201497214018
16448,1724815858810998961,-1.631955623626709,0.445048063993454,0.1557796746492386,-0.065726064145565,0.1632298976182937,0.2001099735498428,-0.9638423323631288,0.0,0.0,0.0,0.7861578845257364,-0.7723227721216075,-1.929161311728376,1.159796165,0.1557796746492386,-0.06625729726320742,-0.00665513696913881,0.03172724746856224,-6.42574691508158,-23.04636986670888,21.610107442251806,0.20191437628027212,-0.29250412506052936,-0.43925934355689644,0.03587202276682433,0.005196549141125217,-0.011764815707706155,-7.435886258790754,30.585027278086514,114.70856205438886,0.025862393181492853,0.02820170591533824,0.20017201497214018
16450,1724815858821805019,-1.6315184831619265,0.4450597763061523,0.1554295122623443,-0.0642424523830413,0.1643310636281967,0.1992579251527786,-0.9639317989349364,0.0,0.0,0.0,0.21444686714162087,-0.10894763517843628,0.5279299519438557,1.170602223,0.1554295122623443,-0.1992241821051577,-0.238316418235731,0.21352625935091213,10.895899187991276,-3.114091925455567,8.818415043923213,0.1992323019191602,-0.2954874826787188,-0.43743296049763003,0.04396285553562507,-0.0014058525424864854,-0.019486694533510374,-66.56730994624971,68.57543648709704,149.3071233060237,0.025180561324751712,0.046545131811772035,0.20017201497214018
16452,1724815858831316054,-1.6310709714889526,0.4450255632400512,0.155352309346199,-0.0644059181213378,0.1650198101997375,0.1981595903635025,-0.9640296101570128,0.0,0.0,0.0,-0.5330344240036624,0.6034333321665527,1.2944231496784346,1.180113258,0.155352309346199,0.0986254234889261,-0.11454058055926761,0.2303837091573081,12.01849892703095,8.024470921921935,-8.259145431798226,0.1995806459939551,-0.29698932697133873,-0.43541297927758443,0.04152986055258623,0.0017606514634778136,-0.0040641553155662535,-27.18728326285584,28.350085369909472,6.714856624871928,0.03986944375749696,0.042285991202086516,0.20017201497214018
16454,1724815858840882418,-1.6307268142700195,0.445093959569931,0.1553524285554886,-0.0644100308418273,0.1654587090015411,0.1979110389947891,-0.964005172252655,0.0,0.0,0.0,-0.2985110110632174,0.42673209984772903,0.6478333103268457,1.189679622,0.1553524285554886,0.027915859455839562,-0.08578411296708399,0.054849945894977534,-7.339029022060724,7.756033627345216,-10.766257943379351,0.19973994619390464,-0.29789774090417503,-0.43504531375261546,0.03376317855119737,0.010136106386166688,0.005171228801715166,58.134196182491536,-72.87759170282978,-98.82991883626434,0.028310855589830305,0.03375916782443866,0.20017201497214018
16456,1724815858851230144,-1.6304022073745728,0.4452322721481323,0.1554636806249618,-0.0641979575157165,0.1651819497346878,0.1977945268154144,-0.9640907049179076,0.0,0.0,0.0,0.6793376169697696,-0.9363521533319554,-0.7244979748608953,1.200027348,0.1554636806249618,-0.04743935124424832,0.0476399142843348,0.028317237629583464,0.005560502385874688,3.320456397398088,3.6598442380376857,0.199130982284162,-0.29747260787079877,-0.4346427447774628,0.036420292932660914,0.009528674559156514,0.008320316523509064,29.830680819232924,-32.96692653528051,-37.941547519171415,0.024973504547466992,0.028320384370092565,0.20017201497214018
16458,1724815858861887481,-1.6299586296081543,0.4452916979789734,0.1555256694555282,-0.0642228499054908,0.1653759777545929,0.1970764994621276,-0.9642028212547302,0.0,0.0,0.0,0.28744126910028767,-0.20367040004698994,-0.08962626189078668,1.210684685,0.1555256694555282,0.03261297270439296,-0.022054580312603718,0.13563687140098588,0.09270776379673329,-32.85644841498154,41.04121454496029,0.1990580137954455,-0.29798890692892893,-0.4332091887627645,0.04829827790732111,-0.01008362024202114,-0.010693498377113642,-20.61298070605759,120.1462217805277,108.20148285278727,0.035582200564929035,0.03611055334202993,0.20017201497214018
16460,1724815858871533288,-1.6294344663619995,0.4450577199459076,0.1552783846855163,-0.0628966018557548,0.168237566947937,0.1935463547706604,-0.9645103216171264,0.0,0.0,0.0,0.22968917682658452,1.403948874507957,1.378619489623795,1.220330492,0.1552783846855163,-0.031260743610069516,-0.5687353211191103,0.8018998404550178,-8.378776251746094,3.197383184744284,-5.111046577937261,0.1967338661100454,-0.3048886092057004,-0.4263966474367923,0.04385010856735505,0.00223972804214867,0.003235272303950154,18.97990952161631,31.52189474492682,12.950938444460569,0.049067736905475084,0.04759464149715841,0.20017201497214018
16462,1724815858883951744,-1.6290576457977295,0.4455091655254364,0.1557801663875579,-0.0628997460007667,0.1653004586696624,0.1962290555238723,-0.9644758105278016,0.0,0.0,0.0,0.8645679790999612,-0.36527966863914463,-0.6871317889843702,1.232748948,0.1557801663875579,-0.16340106335844642,0.4282240827741086,-0.4476297464215622,6.171423277637588,-13.009524306115795,6.042475093074384,0.1960785335777183,-0.2985880992098316,-0.4310196802319858,0.05774770281789188,0.02169490612446623,0.019309914604008327,130.91050858822064,-96.03904240946395,-88.29483184444615,0.023718789854169232,0.025471525261736395,0.20017201497214018
16464,1724815858890974572,-1.628543257713318,0.4456033110618591,0.1558319926261901,-0.0626854002475738,0.1653817445039749,0.1962050646543502,-0.964480757713318,0.0,0.0,0.0,2.100804214310652,-0.8553532294734458,-0.9972325832214237,1.239771776,0.1558319926261901,-0.05329081860635654,-0.033642371421684504,0.018412441403195163,13.284131063986498,-52.80093131117746,53.971801415323064,0.1956794030623605,-0.29884504011740726,-0.4309351220636962,0.06280850467354959,0.011456980381186366,0.006614556736343369,2278.574101538335,-1398.5225346234897,-1241.2948811175813,0.060420207589674736,0.06585907133605813,0.20017201497214018
16466,1724815858919970569,-1.6279715299606323,0.4457022249698639,0.1559321880340576,-0.0630417838692665,0.1657749861478805,0.1947073638439178,-0.9646934270858764,0.0,0.0,0.0,319.8852438147786,-200.48264324743093,-180.31039460236553,1.268767773,0.1559321880340576,0.04519535960009781,-0.012435793847903387,0.10014772626997878,-96.37936654400832,49.40919562479455,485.09677941466816,0.19613259046970896,-0.299763938145124,-0.4280276460798108,0.288957867312547,0.058780450995527644,0.07473063910668998,-34731.5428999546,9260.555687782122,6841.080299532259,0.016806309886539642,0.017158887329201823,0.20017201497214018
16468,1724815858921570670,-1.6274853944778442,0.445801168680191,0.156058058142662,-0.06283999979496,0.1657482087612152,0.1940101385116577,-0.9648517370224,0.0,0.0,0.0,260.2767763971192,-184.23921015833395,-168.21386522478184,1.270367874,0.156058058142662,-0.11783149382149191,0.07092212301029885,0.9189363215699714,-4087.8457408229037,-6350.346377480182,15210.955785557242,0.19549133684882786,-0.2999387587795133,-0.4264949546399494,0.8283635009274803,-0.2798585934625635,-0.2299128948749285,-69320.92015517084,31103.118792002613,26542.209062095266,0.2630549603722237,0.2590350096691814,0.20017201497214018
16470,1724815858922063241,-1.6269978284835815,0.4456115067005157,0.1558980196714401,-0.0615628249943256,0.1667386144399643,0.1916549056768417,-0.9652340412139891,0.0,0.0,0.0,221.26877606018948,-165.74178496193997,-152.26161410135015,1.270860445,0.1558980196714401,-2.7357840948454757,-4.027888095960443,10.64028499061953,-5057.047541681812,-7911.204985189585,18758.549723767846,0.19266389501034803,-0.30289633570122015,-0.4215101437852834,0.944918351523313,-0.36645525441349847,-0.30940753065140414,-76713.07858969728,36655.674101520664,31655.966626608337,0.9155345527503451,0.8397766147731369,0.20017201497214018
16472,1724815858932047412,-1.6266543865203855,0.4457148313522339,0.1559450030326843,-0.0563692152500152,0.1659207195043563,0.1919010132551193,-0.9656432271003724,0.0,0.0,0.0,-42.84740853695934,18.677549191111694,16.120013961185975,1.280844616,0.1559450030326843,-1.0488660048882124,-0.03061741264449668,0.13150705051595574,163.4514886871315,196.31484258760585,-504.9992577032112,0.18180602938014642,-0.3034410581779509,-0.4202180417049572,0.04630218089845073,0.015374554668536433,0.01716209146080594,-10330.31132247986,7862.570790239144,7248.424633764268,0.027348236953337334,0.032003281902111526,0.20017201497214018
16474,1724815858941306947,-1.6261234283447266,0.4459003508090973,0.1562108844518661,-0.0581448636949062,0.1661760956048965,0.1908668428659439,-0.9656989574432372,0.0,0.0,0.0,-0.043605632226078495,0.3800256498532786,0.6560094837891954,1.290104151,0.1562108844518661,0.41732087979456567,0.03492372473746421,0.15748368013247233,64.37815985318922,3.093648595192861,-2.6195021373463843,0.1852028635932672,-0.3033891809393878,-0.41865381196373613,0.05451267889318956,0.020297387113227927,0.02397039994553296,2367.3944062352516,-1020.936865277001,-858.6839766972982,0.0508024355109352,0.047142347289029614,0.20017201497214018
16476,1724815858951391827,-1.6256047487258911,0.4461079239845276,0.156400516629219,-0.0582743436098098,0.1661213636398315,0.1904833316802978,-0.9657763838768004,0.0,0.0,0.0,-0.940228214682741,0.5750239549312542,0.9083001286172785,1.300189031,0.156400516629219,0.03447151448148006,0.02235696452814507,0.0714804026837177,-14.509587528701827,12.299127886132133,-19.421156151980526,0.1853157649817712,-0.3033004141322024,-0.4178679373875187,0.04385455691858908,0.022464489109736974,0.02971553632981916,-4.225138884410621,-9.197442632500344,-47.82493110835553,0.04250518138001535,0.045583932706042496,0.20017201497214018
16478,1724815858961900817,-1.6252268552780151,0.4463646113872528,0.1568322926759719,-0.0594987794756889,0.1646606624126434,0.1915481835603714,-0.9657411575317384,0.0,0.0,0.0,-0.05727786940857449,0.16590341786125062,-0.39197584798462093,1.310698021,0.1568322926759719,0.13882402633126148,0.2999412844524312,-0.2519072128960075,-4.445227007842003,20.719144662648098,-21.026733472444867,0.18740202624271163,-0.29971234923951345,-0.4199805865842077,0.035250735046375326,0.03245125494705192,0.04296908010441669,94.03542463321511,-76.84302729946448,-141.16053553321126,0.033985617107097764,0.025924983886708,0.20017201497214018
16480,1724815858970933940,-1.6249139308929443,0.4467200636863708,0.1572350561618805,-0.0600975938141346,0.1626187413930893,0.1930353492498397,-0.9657540321350098,0.0,0.0,0.0,0.8699317770174173,-0.8226016263761423,-1.8024371516852469,1.319731144,0.1572350561618805,-0.012945759874688994,0.4428821272849383,-0.3661732451994346,-11.599389849577731,-5.724688598266178,4.083873656531673,0.18805235163780082,-0.2951647615495231,-0.4225985557839552,0.04064550042602377,0.02785936071667905,0.02659248096571165,11.543169415717584,-14.327239907885044,6.701164312524423,0.02775764137828405,0.02909104055826398,0.20017201497214018
16482,1724815858982062819,-1.624379277229309,0.4468725621700287,0.1572842746973037,-0.0598901286721229,0.1620623022317886,0.1935618668794632,-0.965755045413971,0.0,0.0,0.0,-0.2506979559897613,0.3219093235909969,0.504877580317489,1.330860023,0.1572842746973037,-0.07070887465688137,0.08372048847450211,-0.0912929073201621,4.424447105412362,-17.194379785788506,16.192013774398486,0.18751552615425857,-0.29405974305379473,-0.423459835551357,0.05406597524942924,0.014395922061922306,0.006677514436541188,-112.62018168097049,81.92525686363444,114.47302091522066,0.037811302775310654,0.04528869091266041,0.20017201497214018
16484,1724815858991326321,-1.6238319873809814,0.447011262178421,0.1573635190725326,-0.0601304732263088,0.1619181036949157,0.1935480833053589,-0.9657670259475708,0.0,0.0,0.0,-1.3859027961007784,0.9195430718706886,0.8493225731471998,1.340123525,0.1573635190725326,0.04441493290504436,0.0407079521357446,-0.006899405866811159,4.983009270713014,15.900296976366405,-9.734613996173398,0.18792465589850135,-0.2936773222040299,-0.4234518833759903,0.040512000002834725,0.029188428048417592,0.02904580427013581,55.78589227253335,28.808350573799625,-29.93244413923474,0.04814323362064135,0.053987364812303866,0.20017201497214018
16486,1724815859001345600,-1.6236273050308228,0.4474577605724334,0.1578765958547592,-0.0608565397560596,0.1597930192947387,0.1949023157358169,-0.9658031463623048,0.0,0.0,0.0,1.1055635886055026,0.8212403781619959,-0.17789025693317084,1.350142804,0.1578765958547592,0.013665337760954441,0.4226418165196345,-0.3086504799491681,-4.035636805109593,8.01431460046519,-5.92637882041062,0.18873470800651135,-0.28893865881525416,-0.4257956155082685,0.027463455598294217,0.031061706101182196,0.02059218899993187,144.5821087020086,-17.021379577964993,-8.222271666319479,0.014780862314597153,0.016723204380277537,0.20017201497214018
16488,1724815859016790120,-1.6230356693267822,0.4476160407066345,0.1574657261371612,-0.0598486624658107,0.1610376834869384,0.1937597543001175,-0.96588933467865,0.0,0.0,0.0,0.8605664367252714,0.3867012245222643,1.9401928327927553,1.365587324,0.1574657261371612,-0.07167524867802497,-0.1703171848792869,0.17573682356445064,-7.674317378401273,62.04692670064678,-83.69714902742106,0.18697748606382378,-0.292029757751136,-0.42352536846983735,0.10186441710703775,0.05884577483638509,0.03369680319782731,-387.5289159147212,-254.85856296613719,-168.3479538737478,0.021751598807632146,0.04597527441832089,0.20017201497214018
16490,1724815859021161497,-1.6225117444992063,0.4479334056377411,0.15768763422966,-0.0598332844674587,0.1604730486869812,0.1944701373577118,-0.96584153175354,0.0,0.0,0.0,-1.2933170703890822,-1.007897758773728,0.826309711496281,1.369958701,0.15768763422966,-0.1078810844086315,0.22518375602275942,-0.3324947275051758,-3.767304320560452,59.96688415199838,-76.90976230829148,0.18687941053951634,-0.29079245062763637,-0.42482541357734493,0.10073075040858015,0.05878885620264285,0.04352883382400208,-415.7415596374074,-206.40190718047532,-174.64255790304009,0.09050290460387701,0.11357657959339851,0.20017201497214018
16492,1724815859031894934,-1.6219345331192017,0.4482004046440124,0.1579641699790954,-0.0598529838025569,0.1600677371025085,0.1951009035110473,-0.9657803773880004,0.0,0.0,0.0,-3.7267908830116787,-0.2550198248981519,1.0646655985350066,1.380692138,0.1579641699790954,-0.029320797169417122,0.06479625413990577,-0.12084203434080479,-0.3221926362000076,-12.594568973158928,15.044429264457703,0.18690687080673013,-0.289868085815241,-0.4260206907793809,0.059598739640790654,0.02175088669027403,0.014898444738451033,-49.76676325019332,120.59120825765358,120.23796402239161,0.044440326936167514,0.04725748548857362,0.20017201497214018
16494,1724815859041068109,-1.6213421821594238,0.4483754336833954,0.1580156534910202,-0.0594300143420696,0.1601230651140213,0.1952637284994125,-0.965764343738556,0.0,0.0,0.0,-2.796054352982308,1.2466824552786757,2.936165914005856,1.389865313,0.1580156534910202,-0.09218278857827812,-0.03232653102397423,-0.019484212875938697,-13.858256421471193,38.296788301356216,-36.3755499781508,0.18613005335839197,-0.2901262920672789,-0.42626129862808954,0.026238125818665026,0.04446485456460536,0.05392317155599802,311.37298412433927,-91.32018302434429,-239.38274893980048,0.05038484941841511,0.06130594816231142,0.20017201497214018
16496,1724815859051202504,-1.6215054988861084,0.4491102695465088,0.1591030359268188,-0.0595457404851913,0.1551152914762497,0.1997376233339309,-0.9656595587730408,0.0,0.0,0.0,2.709747076405815,-2.534149694622144,-4.454306945429105,1.399999708,0.1591030359268188,-0.3110632161514357,0.9031154232745124,-0.919113828844504,-4.291277851513616,15.325119870962055,-8.557902697662437,0.1851628362469892,-0.27941156124271366,-0.4340397755867405,0.007314603650399931,0.04333392476979725,0.06892203132030605,364.10894000641485,-198.68113904873255,-476.53417202822186,-0.013772900512521277,-0.022118097785121648,0.20017201497214018
16498,1724815859061673835,-1.6211754083633425,0.4492483735084533,0.1594095528125763,-0.0590481646358966,0.153728187084198,0.2005147188901901,-0.9657509326934814,0.0,0.0,0.0,4.583930115125047,-2.727817822004551,-6.710039957251532,1.410471039,0.1594095528125763,-0.1687514492929728,0.23072267691883183,-0.14087482814521052,15.869160304923934,-94.13657070974597,88.14637123009655,0.18368331359263868,-0.2767660751835078,-0.43508715090797,0.08521001841079112,-0.009412770228149014,-0.041926493466664994,-219.56608120267154,187.7346641005658,387.19996491093195,0.030149555698854545,0.022982175331282852,0.20017201497214018
16500,1724815859071533105,-1.619836926460266,0.4489457607269287,0.1583352535963058,-0.0574761033058166,0.1586257368326187,0.196710005402565,-0.9658361673355104,0.0,0.0,0.0,-1.2805497843502902,1.0375364887193448,2.701579938571043,1.420330309,0.1583352535963058,0.008858642258784513,-0.9751777479922087,0.8565254550706433,7.961048757703676,-30.96502067678756,17.12286324457242,0.1818691849742659,-0.28775546868502416,-0.42826044066079416,0.1039013770443944,-0.014868654331959164,-0.07210298491235712,-383.57524956249637,230.77402716337514,627.7467179829827,0.09971902959386493,0.14316902234834608,0.20017201497214018
16502,1724815859082380207,-1.6190900802612305,0.4489733278751373,0.1579930335283279,-0.0570767968893051,0.1597688049077987,0.1965940594673156,-0.9656950831413268,0.0,0.0,0.0,-2.9202676232838947,1.7371224834051158,5.610223103914509,1.431177411,0.1579930335283279,-0.02476434213311341,-0.22094002984210992,0.03932321802359947,16.49970821745773,75.27384165666349,-64.04710123730058,0.18160463374247401,-0.2901896806428245,-0.42827470251616545,0.05210466950644843,0.01537141403197495,0.025968118132661644,104.28256299155223,-72.1154918106881,-271.26121436718574,0.04997622761217039,0.07137698624057251,0.20017201497214018
16504,1724815859090887261,-1.6187585592269895,0.449189692735672,0.1585976928472519,-0.0587636344134807,0.1579896062612533,0.1980817914009094,-0.9655826687812804,0.0,0.0,0.0,-0.32881912209310316,0.21218946429535168,-0.2962635419155492,1.439684465,0.1585976928472519,0.24636352776740308,0.4577166995957733,-0.43019601939133695,12.679069254293946,34.691282916611875,-18.11854061006847,0.18455632571989578,-0.2856946781251729,-0.43128845927746096,0.039637349596276295,0.023138953892534175,0.05080353618419409,187.16293319631387,-95.51005553403922,-432.87885965500715,0.043796586230139004,0.01988272859619396,0.20017201497214018
16506,1724815859102269911,-1.6182972192764282,0.4494181275367737,0.1588671952486038,-0.0595559105277061,0.1571644395589828,0.1983322352170944,-0.965617299079895,0.0,0.0,0.0,0.012635120061744942,0.40049185189090286,-1.2419878795996935,1.451067115,0.1588671952486038,0.09838746936403053,0.16594666039017933,-0.07179800179824668,-14.786378068514537,-54.5729447573562,28.081757655940553,0.18580949854119838,-0.28368753749568487,-0.4317629743373564,0.05320688802237328,0.01487962590854508,-0.0015440138731577235,-33.87587919540556,17.551351818444854,109.49179318711509,0.03390380900268542,0.03490476011877192,0.20017201497214018
16508,1724815859110953142,-1.6177512407302856,0.4495129585266113,0.1586867272853851,-0.0588481426239013,0.1592612564563751,0.197862759232521,-0.965413510799408,0.0,0.0,0.0,-0.7046151188110648,0.5595740617309537,0.9843785785515126,1.459750346,0.1586867272853851,-0.041838072244185835,-0.49962141066173427,0.1494904678914973,-4.032429252931047,-4.801634508264751,-5.826814161410778,0.1853064792220091,-0.2881909277360011,-0.4312675476106007,0.045503680515693645,0.025816449376947048,0.00990758406756953,17.439900853756946,-90.11958049526783,23.70867423701067,0.04448036235989455,0.06560707939978946,0.20017201497214018
16510,1724815859121172583,-1.6174951791763306,0.449955940246582,0.1591571122407913,-0.0597094260156154,0.1576818972826004,0.1991304606199264,-0.9653592109680176,0.0,0.0,0.0,0.67685534268995,-1.6656549085921364,-1.5719918769532322,1.469969787,0.1591571122407913,0.06268405238566846,0.3154577362322771,-0.2866519588629488,-1.6297167430263246,20.15893322817624,-9.863935461746186,0.18661920758615663,-0.2844810664968396,-0.43364728509804956,0.04049816640771553,0.023116264276893617,0.015944940030412802,87.76175736198599,-120.85311144497925,-214.85688955226135,0.01725992492370387,0.02256495329873849,0.20017201497214018
16512,1724815859132116454,-1.616870999336243,0.4499718248844147,0.1589790433645248,-0.0590439327061176,0.1584338545799255,0.1993176341056823,-0.965238392353058,0.0,0.0,0.0,1.0815759269629428,-1.8527200436262456,-3.509760961653683,1.480913658,0.1589790433645248,-0.09411703653710263,-0.16240246660818114,-0.010035412275925143,18.47201709258936,-23.26814474384051,51.51152663940634,0.18571736722008053,-0.286207340241123,-0.43410259644247096,0.06157841749265458,-0.011536775343007122,-0.02660557640903427,-80.75217743304434,108.59918493147549,40.39613056491804,0.04446043305424964,0.055530544789243005,0.20017201497214018
16514,1724815859141052336,-1.6162875890731812,0.4497739672660827,0.1586658954620361,-0.059730164706707,0.1598338186740875,0.1963879615068435,-0.9655658006668092,0.0,0.0,0.0,-0.4990384907484735,0.03480091904830962,-1.5621248207533176,1.48984954,0.1586658954620361,0.31026435939016644,-0.22150449163270566,0.6416888058021726,2.4960217316164224,-11.711581567448125,32.09061476589796,0.1869308915555731,-0.28921463691494703,-0.42860859931362744,0.06508049347610267,-0.018507189083656783,-0.055208135716770634,-91.06021508201657,140.43361678019542,182.14420622490556,0.05574216083722838,0.06058075993309679,0.20017201497214018
16516,1724815859151272228,-1.6156249046325684,0.4496273100376129,0.1578659862279892,-0.058116428554058,0.1617960184812545,0.1942142844200134,-0.9657770395278932,0.0,0.0,0.0,-0.4265212203650106,0.6425276909097267,-0.1192226059683843,1.500069432,0.1578659862279892,-0.16399512689790563,-0.40077804678740375,0.49226452790995695,-21.721320739760845,0.7617791328774,-22.02098673910847,0.18399696987459996,-0.29416798756439005,-0.4242344504247511,0.04956658980825779,-0.008627248779593089,-0.05201861694686993,15.73798207228866,13.063528715327521,73.62334430225833,0.03951537763034201,0.07767028685859431,0.20017201497214018
16518,1724815859166134301,-1.6152184009552002,0.44962278008461,0.1576602458953857,-0.0584541969001293,0.1618215441703796,0.1941192597150802,-0.965771496295929,0.0,0.0,0.0,-0.005837612379295365,-0.16619212474339917,-0.48524278186806313,1.514931505,0.1576602458953857,0.04667762545947617,0.006132783329834826,0.005050438348413097,9.970374630814526,-22.248872000325516,-21.496414164968296,0.18466328895923628,-0.2940921512834175,-0.4241399066042018,0.06681781862096159,-0.006085033801696227,-0.06311240051526212,-209.32426147366158,24.18589258020022,244.2141354218943,0.01996519233673719,0.028390501274932048,0.20017201497214018
16520,1724815859171010743,-1.614829421043396,0.4495838582515716,0.1572736501693725,-0.0586089640855789,0.1622798293828964,0.1943026334047317,-0.9656484127044678,0.0,0.0,0.0,-1.406809323307062,0.07751237362275756,1.1358070723159541,1.519807947,0.1572736501693725,0.08856976514110813,-0.18176861020738053,-0.08171775617592689,12.886563348879886,-22.578962595468976,-11.707480790426457,0.18526347233528956,-0.2948901745965853,-0.42471963536240365,0.06492277428549897,-0.007435062027928652,-0.06506072191404755,-213.3877557243723,50.66055472167956,251.95582803283452,0.0496488401572747,0.09335181535256727,0.20017201497214018
16522,1724815859182353892,-1.6144846677780151,0.4495139420032501,0.1569107919931411,-0.0605462305247783,0.1627379804849624,0.1942829191684723,-0.9654557704925536,0.0,0.0,0.0,-1.8772546625661057,0.6702279344358855,1.870573153029817,1.531151096,0.1569107919931411,0.3480917002859218,-0.016944752830503014,-0.05393940851239985,61.597259751850416,15.649489619596839,-2.840556259726113,0.18940543731498233,-0.2949650898634247,-0.42538534200294104,0.022099552659895494,0.0027940969571389473,-0.011666363361712229,83.64004659616626,-39.661216196497136,-165.9606018470597,0.01962310293357523,0.03510262839549184,0.20017201497214018
16524,1724815859191046092,-1.6143478155136108,0.4495978951454162,0.1569447517395019,-0.0655221194028854,0.1631387919187545,0.1939176470041275,-0.9651365876197816,0.0,0.0,0.0,-0.31688042537606276,-0.28673781328482506,-1.1088791190696505,1.539843296,0.1569447517395019,1.1414004326266811,0.12653578647730993,-0.11386211708822953,19.031569823789475,-7.305791168667683,-7.399614219189206,0.19955666875852512,-0.29369465244325504,-0.4261778805419371,0.018424228324775527,0.007077453641951337,-0.01430107897637356,122.71158765741092,-102.47147928181546,-219.69613747078134,0.011031364242592462,0.015801349312394155,0.20017201497214018
16526,1724815859201474405,-1.6141221523284912,0.4496394097805023,0.1565678119659423,-0.0676341280341148,0.1647575795650482,0.1946236491203308,-0.964573621749878,0.0,0.0,0.0,0.2521251879348252,-1.2599660986752599,-1.8601008004047968,1.550271609,0.1565678119659423,0.4361201431823081,-0.2475751864503244,-0.19735534008089572,-48.913160179214984,-15.361568159681356,8.69392157586486,0.20487418844016206,-0.295810485549731,-0.4288267809815131,0.016445256697693367,-0.005665449361059061,-0.035945910154806526,28.937107659950172,-13.043975387130315,28.623591012370404,0.006704872657662099,0.03267151546323319,0.20017201497214018
16528,1724815859215984202,-1.6139883995056152,0.4493624567985534,0.1560502797365188,-0.0679663866758346,0.1654292196035385,0.1926651149988174,-0.9648284912109376,0.0,0.0,0.0,0.1546321973901721,0.17155052709478857,0.5874241562505507,1.564781406,0.1560502797365188,0.10429510821998227,-0.05633785946043637,0.26594963860988735,25.99816903219713,8.980022334071505,11.179634365924358,0.20528374555006154,-0.29739666308053225,-0.4250503574445902,0.02902481866232165,-0.02471474754715075,-0.058585283209108496,-96.58123685273505,105.64782912657196,159.03892077944334,0.005102863631287517,0.013682250364132667,0.20017201497214018
16530,1724815859220706125,-1.6138209104537964,0.4492371082305908,0.155738428235054,-0.0685333088040351,0.1656590402126312,0.191896840929985,-0.9649019837379456,0.0,0.0,0.0,-0.4395040747288074,0.6811514385829855,1.3235773653758827,1.569503329,0.155738428235054,0.3021485076338211,-0.020388613143448503,0.2868520930879629,22.582704125432237,5.975683271803318,0.741099304853559,0.2063098263216815,-0.2977676452498643,-0.4236840023704118,0.028660361969272685,-0.021623675417869137,-0.052511227689243434,-94.52277812747909,75.97997117509044,109.39964555878746,0.021968483303900225,0.044533929178083374,0.20017201497214018
16532,1724815859233138856,-1.613687515258789,0.4491294026374817,0.1555285453796386,-0.0680562183260917,0.1656728535890579,0.1908953487873077,-0.9651319980621338,0.0,0.0,0.0,-0.5899956483365105,0.5801526074489007,1.161480690365574,1.58193606,0.1555285453796386,-0.04947460390862657,0.0002990191918012159,0.17541790366261012,-39.584642809960144,-12.22299970957588,14.251241976757925,0.2050387670436249,-0.2982094052795715,-0.421449815603868,0.011335526990123412,-0.012286640313806885,-0.03483697182848111,30.1361600289151,-2.024544928599525,16.485000834742124,0.007785965680800906,0.012198792422381788,0.20017201497214018
16534,1724815859241993021,-1.6135833263397217,0.4489977657794952,0.1551068723201751,-0.065548688173294,0.1662441343069076,0.1893849372863769,-0.9655049443244934,0.0,0.0,0.0,-0.05681123103933372,0.6006855059525367,1.4936021686513614,1.590790225,0.1551068723201751,-0.47123356826611207,-0.19549154039835298,0.44798104796004123,-10.868257030592888,-0.5174886607206082,-0.45774482339051636,0.1997742350661127,-0.30070243855226114,-0.41774758956629704,0.011178122563634929,-0.008227201794738903,-0.026193188946222357,41.22795397423958,-2.5959444286807916,-2.073308180297701,0.0019278337530686733,0.02163041214484553,0.20017201497214018
16536,1724815859253548269,-1.613463044166565,0.4490028321743011,0.1551273912191391,-0.0654754638671875,0.1654941439628601,0.1895371824502945,-0.9656088352203368,0.0,0.0,0.0,0.13320444493872696,0.49656957272446645,0.8727121320557415,1.602345473,0.1551273912191391,-0.04237989202429079,0.12419354150079023,-0.028438309508209168,20.60322528888733,11.531140475858756,-14.423163154967792,0.19929614937886167,-0.2992306648045419,-0.41778695226744067,0.009933012201159386,0.0008584070220116757,-0.0011322395161981191,21.74358419076837,-12.990927763420538,-95.47894924415446,0.009444694130453478,0.008630612722894263,0.20017201497214018
16538,1724815859264288041,-1.613361120223999,0.4490162432193756,0.1550862044095993,-0.0655621886253357,0.1650870442390442,0.1890572309494018,-0.965766668319702,0.0,0.0,0.0,0.4196241958163005,0.3173156837857733,-0.5694186384588034,1.613085245,0.1550862044095993,0.014092780640272425,0.08698176409399658,0.08423887729146605,-1.6173963276246428,2.2225102858044608,-7.1987306204800054,0.19911731104477995,-0.29849398158008394,-0.416665528250298,0.013768795640430653,0.003299650788477493,-0.004696796743704823,15.616435774755308,-11.804268627956581,-48.50752990851973,0.006683789825252855,0.010041514804448152,0.20017201497214018
16540,1724815859273894763,-1.613192081451416,0.4490655660629272,0.155033677816391,-0.0655327066779136,0.164259597659111,0.1896908432245254,-0.9657855033874512,0.0,0.0,0.0,0.4746693390938256,0.24590514477802067,-0.29836086553800584,1.622691967,0.155033677816391,-0.06052917681107137,0.15720554202313053,-0.13693387430006457,-14.354181259689888,-0.7995235622528449,-5.133340669243868,0.1988397950957137,-0.2967535133884307,-0.4177020967903528,0.018336803363382614,0.007121463066322775,-0.012208069130762667,-2.626026743926918,-21.00453302674502,46.85650192405338,0.011789518051226376,0.01902144265193034,0.20017201497214018
16542,1724815859283034975,-1.613018035888672,0.4491479396820068,0.1548634767532348,-0.0645236447453498,0.1636848002672195,0.189978688955307,-0.9658944606781006,0.0,0.0,0.0,0.37800115744133767,-0.06410020727668614,0.29202691242587897,1.631832179,0.1548634767532348,-0.24900798330192073,0.07937565354068782,-0.028281391173005987,5.495496742644634,1.0859911818273087,2.5948030895616236,0.1965976924499913,-0.2959913666999854,-0.417818110465155,0.022668147699050678,0.008047922679626396,-0.010730324556650572,-19.988462932967494,-33.22869991760597,25.460068661116534,0.0077174728345878974,0.02610858943963102,0.20017201497214018
16544,1724815859293088061,-1.6127500534057615,0.4492181837558746,0.1548428535461425,-0.0652588307857513,0.1627875715494156,0.1903461813926696,-0.9659243822097778,0.0,0.0,0.0,0.07298213980291157,-0.39054445309681163,0.11528833325717686,1.641885265,0.1548428535461425,0.09501047061582057,0.19645384055067877,-0.10494403478799239,6.021399316674151,2.21358905182312,8.960987245767502,0.19774960479255996,-0.2938480095050858,-0.41849503875173566,0.025408104125929754,0.005573992949216233,-0.006353235448749217,-15.186939638505828,-13.633898013115761,-29.17498839035502,0.020000302110287783,0.02642932482269934,0.20017201497214018
16546,1724815859302263890,-1.6125273704528809,0.449257493019104,0.1547485291957855,-0.0649116337299346,0.1621367484331131,0.189854085445404,-0.9661540985107422,0.0,0.0,0.0,0.060545120420675724,-0.35787497304036986,-0.24952139411927554,1.651061094,0.1547485291957855,-0.08590650710333608,0.13776779138083184,0.1161966955770347,-2.8027076380093785,-4.720113511166669,11.447973747896913,0.19657075896058446,-0.2928172406171774,-0.41714419688921905,0.024406380396953864,0.0007805714366284633,-0.0079763237515742,10.586195250696665,22.040796014919565,-23.268010295998174,0.01661396747922745,0.026198389368309198,0.20017201497214018
16548,1724815859312452198,-1.6122771501541138,0.4492258131504059,0.1546933203935623,-0.065320961177349,0.1617060452699661,0.1893131136894226,-0.9663048386573792,0.0,0.0,0.0,0.30349002939350456,0.07574320915499055,-0.30004349648712525,1.661249402,0.1546933203935623,0.07687817214334756,0.10863314933336071,0.08970204759395159,-2.8983632782614497,-1.8412207525741033,-0.6484446225489391,0.19701911513709383,-0.2919105123405616,-0.415982212485128,0.026943134158941007,-0.0010044175777359499,-0.011340197341885627,12.661496076374782,28.488948663172216,-6.383106837928651,0.021158628684225952,0.02227027527206233,0.20017201497214018
16550,1724815859322148395,-1.6119939088821411,0.4492354989051819,0.154528722167015,-0.0647458508610725,0.1611536890268325,0.1889044642448425,-0.9665157794952391,0.0,0.0,0.0,0.32305436780551045,0.22212860005851065,-0.37507836543318973,1.670945599,0.154528722167015,-0.12540956713831714,0.10017790869847869,0.10142784362923972,-5.418593216582799,2.8371253178026885,-5.7103952876287885,0.19545683527943286,-0.29114957195106644,-0.4147773997047267,0.030388781611094373,0.002045668920725774,-0.013971475220804663,-7.258056602744008,5.424511134784359,27.040669405143632,0.02035097718268572,0.03165678633572668,0.20017201497214018
16552,1724815859332840295,-1.6116551160812378,0.4492697119712829,0.1544147580862045,-0.0649507641792297,0.1602377742528915,0.1890580803155899,-0.9666242599487304,0.0,0.0,0.0,0.13609176558340597,0.16608740435800984,0.3240800523029368,1.681637499,0.1544147580862045,-0.0012622433796486787,0.17424239739070016,-0.04120953860781103,-15.007720117889553,1.7979187692449612,0.4176672464982474,0.19546435607336027,-0.28923648298625687,-0.41485085524078474,0.03346195961735532,0.0033308314604276745,-0.019204456442931672,-0.043238385798822776,20.823113616007515,59.3214537217319,0.023518206009033978,0.03246113956757764,0.20017201497214018
16554,1724815859342433582,-1.611318826675415,0.4493027925491333,0.1541569679975509,-0.0632860735058784,0.159240111708641,0.1889229267835617,-0.9669257998466492,0.0,0.0,0.0,0.28581981100967346,0.5902018772573663,0.8409202780044488,1.691230786,0.1541569679975509,-0.3743607589841225,0.1473401145549748,0.08122317632957429,14.351589633552528,11.976710078428162,-3.0526416292109864,0.19156521414599875,-0.2879991631047634,-0.41376955288682393,0.03346487008882093,0.005319137209760072,-0.009093092158967586,15.678688059673796,45.51321364122593,-14.242122434821912,0.021812649227699127,0.04088256185518549,0.20017201497214018
16556,1724815859352868665,-1.610987663269043,0.4493795335292816,0.1542638838291168,-0.0657435357570648,0.1573504507541656,0.1891177743673324,-0.9670332074165344,0.0,0.0,0.0,0.45023529124265904,1.0799341000051674,-0.08087979280267965,1.701665869,0.1542638838291168,0.37974943185494625,0.44009335540834504,-0.13014313135583905,-24.719803394719463,13.775724628168252,-21.246164184681334,0.19565985763654997,-0.28323132186798117,-0.4142376817934013,0.03968824775277824,0.01582461721014994,-0.002736679986753643,-1.607227443420765,-16.6648466151481,-84.67883434232333,0.0279152482680634,0.027058901669003377,0.20017201497214018
16558,1724815859360982012,-1.6106154918670654,0.4495613574981689,0.1541597843170166,-0.0645974949002265,0.1551239937543869,0.1904812753200531,-0.9672024846076964,0.0,0.0,0.0,0.327664714899095,0.543550240783464,-0.7448345168622171,1.709779216,0.1541597843170166,-0.4326201082551491,0.46178614724192274,-0.30877083993858195,-47.81316044082957,2.435218576566296,-10.351138778899738,0.19265097121043623,-0.27907171673284936,-0.41604379149987086,0.04241919334275224,0.025048179966198347,-0.007745647399238109,10.19215682360013,-28.702625234062715,10.747233467925128,0.028094075280139057,0.052309411761409984,0.20017201497214018
16560,1724815859371019166,-1.6102325916290283,0.4498455226421356,0.1541451811790466,-0.0639913901686668,0.1524393260478973,0.1918283849954605,-0.9674034118652344,0.0,0.0,0.0,0.7441112399596765,0.7199657488519804,0.5126409023319282,1.71981637,0.1541451811790466,-0.2629337681195736,0.48326734890667833,-0.26781622892635437,5.103512535166367,-11.467809967810089,11.902995864795706,0.1904985143567981,-0.2737980126739974,-0.4178268724472314,0.045597074705170826,0.023136945545136456,-0.01680436276071795,30.615956450582615,-8.521984540235884,63.93401808571262,0.022114246618250753,0.04398801623336786,0.20017201497214018
16562,1724815859381886653,-1.609649419784546,0.4500360786914825,0.1537819504737854,-0.0624160133302211,0.1510182470083236,0.1922897547483444,-0.967637538909912,0.0,0.0,0.0,0.9488743376235642,0.32026807626856035,0.4855905543240645,1.730683857,0.1537819504737854,-0.3463434066866902,0.19852265639092156,-0.04641475990994891,5.439432586099711,32.76278428706898,-34.082853467277026,0.18676003142376396,-0.2715842236075277,-0.417921231053753,0.058713870438580784,0.041673179638070934,0.0054182408276464145,-40.27260185984733,-138.87776109472105,-150.3099362149237,0.03142414444192107,0.06401139854953618,0.20017201497214018
16564,1724815859391178205,-1.609063744544983,0.4506150484085083,0.1541408598423004,-0.0629795342683792,0.1462470293045044,0.1957162022590637,-0.9676469564437866,0.0,0.0,0.0,0.10506567349542273,-1.7812079265601797,-2.0853327545418208,1.739975409,0.1541408598423004,-0.1916184012852908,0.9713610138486213,-0.7957014443299593,10.098706793573832,6.206027386421867,3.7812182833558534,0.18650548566662908,-0.2613435938195298,-0.42371599983498387,0.06547998775067754,0.03364320969332013,-0.0024570218876753813,120.46645733663587,-106.96431781034096,-261.3479305571533,0.04073890315377015,0.06607653144245479,0.20017201497214018
16566,1724815859401505086,-1.608359456062317,0.4506334364414215,0.1536439359188079,-0.0621605925261974,0.1453920900821685,0.1947284489870071,-0.9680279493331908,0.0,0.0,0.0,3.7741024177851337,-1.5176167016212012,-4.6080979155279636,1.75030229,0.1536439359188079,-0.1625487337551468,0.15201617760370773,0.2123171656072878,2.6559198342424013,-46.89588649826366,52.78426847233211,0.18417459427567115,-0.26020467469656416,-0.4211861493450844,0.05941290711580649,0.004724121783814539,-0.03819849094442107,118.9091033497394,80.95500126351105,18.060135223374296,0.047060499996956516,0.07549311437013828,0.20017201497214018
16568,1724815859417276540,-1.6076340675354004,0.4507788419723511,0.1532804518938064,-0.0615479424595832,0.1437034904956817,0.1950424015522003,-0.9682560563087464,0.0,0.0,0.0,-0.04412254520999426,1.094283565515883,1.995868491502609,1.766073744,0.1532804518938064,-0.12449153394227966,0.19388962744575772,-0.034922058230045114,-123.58418808104497,-9.338988766443151,-30.78742046998681,0.18220709574475807,-0.25709761055684544,-0.4211701558254882,0.22399195964101182,0.011686179977317579,-0.13850419483891585,-1082.6186340014622,70.97813422814818,917.9551589844605,0.03108922791722167,0.050880881575016176,0.20017201497214018
16570,1724815859421007392,-1.6066412925720217,0.4508246183395386,0.1526618152856826,-0.060387123376131,0.1431629657745361,0.1955065876245498,-0.968315601348877,0.0,0.0,0.0,-4.825023149208667,1.2755747393322154,5.861220371264614,1.769804596,0.1526618152856826,-0.6967659832562537,0.1484618127262294,-0.1631217740548431,-103.02813399284838,-2.5815522983944685,-26.098845714232283,0.1797385715545225,-0.2564432295751209,-0.4216860192090571,0.21457866917510415,0.016344968888704514,-0.12368339003058892,-964.844763768553,5.034961318550955,713.0767086413341,0.18793319587673962,0.2891708897580138,0.20017201497214018
16572,1724815859432406954,-1.605989694595337,0.451152890920639,0.1527194231748581,-0.0603867247700691,0.1404709666967392,0.1963991522789001,-0.9685291647911072,0.0,0.0,0.0,-4.796090926739187,-0.18418744745276694,2.740413657686335,1.781204158,0.1527194231748581,-0.11708664158393679,0.4532282450156978,-0.17282001448854095,29.361907298856554,29.84355827096231,-2.731068988026342,0.17866768152238216,-0.25100816091858724,-0.4227372127993866,0.07939658932468774,0.03182135031906341,0.008918377002840927,307.0278982753017,-126.28153903571888,-501.12293033697756,0.04030576606286553,0.059466462940352266,0.20017201497214018
16574,1724815859441261187,-1.6051337718963623,0.4514554440975189,0.1528249680995941,-0.0611383579671382,0.1372417509555816,0.1971036940813064,-0.9688018560409546,0.0,0.0,0.0,0.016453465583556426,-1.2901223774836383,-3.2602355594376045,1.790058391,0.1528249680995941,-0.004895096168453517,0.7388488599763643,-0.2099328890755893,-13.41632177690461,-25.281882968003156,18.768934426951933,0.1787927676414051,-0.24423998273878303,-0.4234243630061742,0.0855009398517268,0.019587077754398052,-0.027968115339018773,275.6167064589933,-16.311374454269746,-211.49531112573936,0.07477466951647656,0.09453498414556948,0.20017201497214018
16576,1724815859451004788,-1.6044204235076904,0.4514899253845215,0.1521247625350952,-0.0589118674397468,0.1374951750040054,0.1963836252689361,-0.9690499901771544,0.0,0.0,0.0,-0.17069835842071113,-0.28468393538548087,-0.32200990009915675,1.799801992,0.1521247625350952,-0.4153339916742701,-0.1244486526344154,0.21913326406314446,-7.183985651470308,-27.11125972477108,21.577730691122397,0.17427353945871485,-0.24580864673215772,-0.4214771238258618,0.07844542644841113,0.00799902174854239,-0.05002296336307843,-22.030099003356064,85.79963882360774,228.75702325334046,0.0459053023667744,0.0868992465519999,0.20017201497214018
16578,1724815859461714112,-1.6035187244415283,0.4516280889511108,0.1518461257219314,-0.0586795397102832,0.1358650177717209,0.1953809559345245,-0.9694966673851012,0.0,0.0,0.0,-0.43984802870746087,0.4294788959458352,1.2709426061872968,1.810511316,0.1518461257219314,-0.08099965298385452,0.30899496027231,0.18586889949928986,5.902101020532946,12.267517282530825,-11.197046912818681,0.17277480807079623,-0.2428929239823445,-0.4188676985202035,0.08313152981205008,0.015598260306362022,-0.030618401143122753,-44.52601425126532,-6.672360470401792,73.10148614224715,0.06330992960851343,0.08679351716174848,0.20017201497214018
16580,1724815859471725755,-1.602696418762207,0.4518094956874847,0.1514965295791626,-0.0575886480510234,0.1347966343164444,0.1955169737339019,-0.9696837067604064,0.0,0.0,0.0,-1.0671406245455448,-0.32391439514093506,1.2948347850052446,1.820522959,0.1514965295791626,-0.258861218704543,0.16782168328669578,-0.0019583410983111753,-2.860309840351685,-0.7263648550087467,-17.203136463701068,0.17011715147287884,-0.24123400768914452,-0.4185922836813542,0.07051578853105411,0.01727636577355085,-0.02295751708132787,1.042331137122991,-55.25375942808091,-37.57919588572978,0.05737654678686304,0.0893747241209584,0.20017201497214018
16582,1724815859482510112,-1.602070927619934,0.451986014842987,0.1513879001140594,-0.0574346669018268,0.1329719722270965,0.1963890492916107,-0.9697685837745668,0.0,0.0,0.0,-0.3159311091848429,-0.6874802238188445,0.42529811612096347,1.831307316,0.1513879001140594,-0.11655886834335184,0.31535652121938235,-0.16938724202873084,18.649043951484245,15.345409612243872,-4.066592345587063,0.16915948554805577,-0.23757352650322894,-0.41985467201979154,0.061248997371265546,0.008073198178824015,-0.0028409134699050043,25.249923284728577,13.163658089938979,-122.93706870262298,0.04261957173127702,0.06028456737900113,0.20017201497214018
16584,1724815859491781805,-1.6014771461486816,0.4519947469234466,0.1514192074537277,-0.0583833679556846,0.1309146285057068,0.196722000837326,-0.9699243307113647,0.0,0.0,0.0,-0.43580199450845347,-0.1917728244984984,-1.051779307129296,1.840579009,0.1514192074537277,0.09982258963697843,0.47090619184444793,-0.11575285282462018,7.549661536875346,-8.14835100636404,17.971998313232888,0.17016187919731784,-0.2330888914365665,-0.42018435158402967,0.0626509315952859,0.003021522896073492,-0.01037662718659682,217.62459824597158,99.78812314553574,-161.5227155243125,0.05729653308487459,0.056300299773557126,0.20017201497214018
16586,1724815859500940922,-1.6009159088134766,0.4520412385463714,0.1511997282505035,-0.0585577897727489,0.1302221715450287,0.1959537714719772,-0.9701625108718872,0.0,0.0,0.0,3.6434721177455396,1.1413292002749453,-2.551201288419029,1.849738126,0.1511997282505035,0.026120672418423186,0.1707536977458491,0.15912391857063585,-7.080620984223952,-27.928085555147995,24.50060379956343,0.16999843065886114,-0.23179419016494834,-0.418436214603538,0.05334817722980123,0.004459656432144854,-0.02217257034635789,1614.8787494919034,-730.1708842709378,-2522.662903205038,0.04698012874319435,0.06294963955998363,0.20017201497214018
16588,1724815859545648001,-1.6002609729766846,0.4521061182022095,0.1505991518497467,-0.0565885379910469,0.130397081375122,0.1950864344835281,-0.9704306125640868,0.0,0.0,0.0,331.0509256707064,-222.60406253794093,-630.1084543823017,1.894445205,0.1505991518497467,-0.07958350169256294,-0.021019988890666412,0.05192358662494209,-8109.30723129539,16357.768924505368,-756.5293755114791,0.16593586027693097,-0.23310877513047984,-0.41624569919892007,1.232968259894733,0.27028403624331077,-0.41191174133433606,-153792.39005433267,322901.67541654955,281514.05999772274,0.009362122307479327,0.017260702086348414,0.20017201497214018
16590,1724815859546062083,-1.599745750427246,0.4522190690040588,0.1504270583391189,-0.0561739653348922,0.128884419798851,0.195153072476387,-0.9706433415412904,0.0,0.0,0.0,266.75034202518646,-87.63868015606363,-512.4050297191752,1.894859287,0.1504270583391189,-3.468594006719343,6.815190662235142,-0.2642339114087784,-5233.903772173582,6483.094621433231,7503.437186039223,0.1644155536022765,-0.2303071392623645,-0.41587981904219645,1.371218964593936,0.17723114901684767,-0.6752115145359028,-626854.6105210723,469084.81089786615,906983.0245276473,0.9059794701281875,1.3206280952217833,0.20017201497214018
16592,1724815859546403650,-1.5992416143417358,0.4522526860237121,0.1501232832670211,-0.055545300245285,0.1277526468038559,0.194423571228981,-0.9709755778312684,0.0,0.0,0.0,-80.22780874876298,112.916747747941,-27.154328986002383,1.895200854,0.1501232832670211,-4.425019076360242,6.204703950828414,4.62791440362858,-1244.513753930214,1148.0252447412513,2875.3561050778253,0.16245943858461398,-0.22847330706497504,-0.41392415316720266,1.4434202675638517,0.18591972489412,-0.8154475189169546,-925623.8504040728,395473.9475928971,1249854.0887051467,1.0762025960888324,1.5918018928298145,0.20017201497214018
16594,1724815859546750098,-1.5987529754638672,0.452347844839096,0.1498667448759079,-0.0550420433282852,0.1263387650251388,0.1941758841276168,-0.9712387323379515,0.0,0.0,0.0,-369.2057478200409,182.56869133555887,345.8340065298984,1.895547302,0.1498667448759079,-4.309543907319449,7.633908749282191,1.6015071849265439,376.5616599290487,3698.9759005883648,-8111.480415517735,0.16074139819064479,-0.22595227113284397,-0.4129253125013203,1.3131539887442223,0.2557796402759145,-0.6901244866792582,-769237.1813859447,182295.70141157185,992461.2419256294,0.9857276993977612,1.5563723971608499,0.20017201497214018
16596,1724815859551066422,-1.5983158349990845,0.4524360299110412,0.1495959609746933,-0.054532416164875,0.1247946694493293,0.1938814669847488,-0.9715259075164796,0.0,0.0,0.0,-200.5286037509771,-38.89721728763322,104.58115251325638,1.899863626,0.1495959609746933,-0.35836335462910246,0.6733576085403615,0.14878740227548298,646.2979983321268,-1135.9534629510629,-245.8189865806782,0.15894409889481917,-0.22318511789796952,-0.4118004627266837,0.08519552548401066,0.01789070228669054,-0.0525908985237491,33259.91496750694,-34831.64819312344,-42252.545940193755,0.0686474117008555,0.11446491384530125,0.20017201497214018
16598,1724815859561176389,-1.5978353023529053,0.4525567591190338,0.1493044793605804,-0.0541508048772811,0.122210718691349,0.1947947591543197,-0.9716930389404296,0.0,0.0,0.0,-2.066439770862917,-0.8589515735974483,0.42109591793526935,1.909973593,0.1493044793605804,-0.19679856340759674,0.47625097708100167,-0.18757120410100128,21.337424844172133,-5.284023952320936,-17.206153592958714,0.1572045205668417,-0.2181317504120599,-0.4129429251078439,0.04612181212684163,0.008652668368071659,-0.01641076189282309,10070.292007746342,1952.4363166006979,-5331.315549600039,0.03158579505229173,0.054321984617612847,0.20017201497214018
16600,1724815859571594847,-1.597369909286499,0.4526115953922272,0.1492668539285659,-0.0552767142653465,0.1193351298570633,0.1955628991127014,-0.9718327522277832,0.0,0.0,0.0,0.21025809560895592,0.04944013891484916,-1.748301589354112,1.920392051,0.1492668539285659,0.08301577011255785,0.5737874002969391,-0.19436551545348388,-16.706756493793456,-41.070654291179636,34.73085600275369,0.15830107849137523,-0.2119098658658811,-0.4140286366483553,0.04390129993691971,0.0002921079936513138,-0.04592434553231506,121.42953657953225,56.47247315351106,16.876575340325747,0.03715129594157104,0.0428279288279885,0.20017201497214018
