seq,stamp,px,py,pz,ox,oy,oz,ow,lx,ly,lz,ax,ay,az
914,1724913618366750516,-0.04626038298010826,0.20043380558490753,0.11910099536180496,-0.020901314914226532,-0.06424976885318756,-0.1982000470161438,0.9778302311897278,0.0,0.0,0.0,0.0,0.0,0.0
916,1724913618375740718,-0.04624898359179497,0.20040547847747803,0.11908175051212311,-0.020764591172337532,-0.06434642523527145,-0.19814281165599823,0.9778383374214172,0.0,0.0,0.0,0.0,0.0,0.0
918,1724913618386366653,-0.0462520532310009,0.20041102170944214,0.11907920241355896,-0.020721355453133583,-0.06433352828025818,-0.19822810590267181,0.9778228402137756,0.0,0.0,0.0,0.0,0.0,0.0
920,1724913618395872463,-0.04625684395432472,0.20042383670806885,0.11908893287181854,-0.02096235565841198,-0.06425955146551132,-0.19827687740325928,0.977812647819519,0.0,0.0,0.0,0.0,0.0,0.0
922,1724913618406067463,-0.04624653607606888,0.20042966306209564,0.11909724026918411,-0.020810574293136597,-0.06429216265678406,-0.19827483594417572,0.9778141379356384,0.0,0.0,0.0,0.0,0.0,0.0
924,1724913618416788233,-0.04624873399734497,0.20041869580745697,0.11907932907342911,-0.02072066068649292,-0.06432011723518372,-0.1982085108757019,0.9778277277946472,0.0,0.0,0.0,0.0,0.0,0.0
926,1724913618430104766,-0.04626519978046417,0.20039770007133484,0.11907321959733963,-0.02097400650382042,-0.06444939225912094,-0.19802622497081757,0.9778507351875305,0.0,0.0,0.0,0.0,0.0,0.0
928,1724913618436807949,-0.04624681919813156,0.20043480396270752,0.11908558011054993,-0.02053958922624588,-0.0642237439751625,-0.19831763207912445,0.9778157472610474,0.0,0.0,0.0,0.0,0.0,0.0
930,1724913618446519164,-0.04624582454562187,0.20043136179447174,0.11907178163528442,-0.020430831238627434,-0.0643552839756012,-0.19835570454597473,0.9778016209602356,0.0,0.0,0.0,0.0,0.0,0.0
932,1724913618455591993,-0.04625033214688301,0.20042526721954346,0.11911419779062271,-0.0208068136125803,-0.06428980082273483,-0.1982976198196411,0.9778098464012146,0.0,0.0,0.0,0.0,0.0,0.0
934,1724913618465697908,-0.046244703233242035,0.20041462779045105,0.11911583691835403,-0.020826315507292747,-0.06434600055217743,-0.19828331470489502,0.9778085947036743,0.0,0.0,0.0,0.0,0.0,0.0
936,1724913618475222948,-0.046234264969825745,0.20040875673294067,0.11908243596553802,-0.02053135074675083,-0.06434351205825806,-0.19819900393486023,0.9778320789337158,0.0,0.0,0.0,0.0,0.0,0.0
938,1724913618488369346,-0.04624095931649208,0.20041581988334656,0.11908964812755585,-0.020852716639637947,-0.06438707560300827,-0.19811947643756866,0.9778385758399963,0.0,0.0,0.0,0.0,0.0,0.0
940,1724913618496579775,-0.04625441133975983,0.20040695369243622,0.1190575361251831,-0.020867232233285904,-0.0643845871090889,-0.19804856181144714,0.9778527021408081,0.0,0.0,0.0,0.0,0.0,0.0
942,1724913618505510077,-0.04625736176967621,0.20041310787200928,0.11907140165567398,-0.021009372547268867,-0.06432531774044037,-0.1981193721294403,0.9778392314910889,0.0,0.0,0.0,0.0,0.0,0.0
944,1724913618515827342,-0.04624870419502258,0.20042279362678528,0.11905961483716965,-0.02073325775563717,-0.06430766731500626,-0.19807308912277222,0.9778557419776917,0.0,0.0,0.0,0.0,0.0,0.0
946,1724913618526399217,-0.04624223709106445,0.20043408870697021,0.1190708577632904,-0.020495399832725525,-0.06426823139190674,-0.19826039671897888,0.9778253436088562,0.0,0.0,0.0,0.0,0.0,0.0
948,1724913618535283167,-0.046244651079177856,0.20040152966976166,0.11904750019311905,-0.020502803847193718,-0.06439581513404846,-0.19799795746803284,0.977869987487793,0.0,0.0,0.0,0.0,0.0,0.0
950,1724913618545346005,-0.04623642563819885,0.20043085515499115,0.11908749490976334,-0.020424235612154007,-0.06430057436227798,-0.19814245402812958,0.9778485894203186,0.0,0.0,0.0,0.0,0.0,0.0
952,1724913618555668049,-0.04625292494893074,0.2004270702600479,0.1190720647573471,-0.020337771624326706,-0.0644446611404419,-0.1982465237379074,0.9778198599815369,0.0,0.0,0.0,0.0,0.0,0.0
954,1724913618565623043,-0.04624650627374649,0.20043805241584778,0.11909867823123932,-0.0208973977714777,-0.06414858996868134,-0.19823719561100006,0.9778293371200562,0.0,0.0,0.0,0.0,0.0,0.0
956,1724913618576964693,-0.04624897614121437,0.20042085647583008,0.11905879527330399,-0.020779309794306755,-0.06423798203468323,-0.19800035655498505,0.9778739809989929,0.0,0.0,0.0,0.0,0.0,0.0
958,1724913618586670117,-0.04625062271952629,0.20042012631893158,0.11908769607543945,-0.020877163857221603,-0.06422179192304611,-0.19818757474422455,0.9778351187705994,0.0,0.0,0.0,0.0,0.0,0.0
960,1724913618595685946,-0.04625600948929787,0.20041851699352264,0.11908076703548431,-0.02083616331219673,-0.06418058276176453,-0.1981889307498932,0.9778383374214172,0.0,0.0,0.0,0.0,0.0,0.0
962,1724913618607680477,-0.04625893756747246,0.2004246711730957,0.11906061321496964,-0.0207462627440691,-0.06437457352876663,-0.1981542408466339,0.9778345823287964,0.0,0.0,0.0,0.0,0.0,0.0
964,1724913618616449075,-0.04626436159014702,0.20042936503887177,0.11906073242425919,-0.020560475066304207,-0.06445331871509552,-0.19824591279029846,0.9778147339820862,0.0,0.0,0.0,0.0,0.0,0.0
966,1724913618625356437,-0.04624400660395622,0.2004222422838211,0.11908178776502609,-0.0206843800842762,-0.0643342062830925,-0.19831101596355438,0.9778067469596863,0.0,0.0,0.0,0.0,0.0,0.0
968,1724913618635832394,-0.046236272901296616,0.20044851303100586,0.1191038265824318,-0.02043852023780346,-0.06425008177757263,-0.1984381079673767,0.9777917265892029,0.0,0.0,0.0,0.0,0.0,0.0
970,1724913618652079891,-0.046241335570812225,0.2004159539937973,0.11909490823745728,-0.020677771419286728,-0.06434191018342972,-0.1983335018157959,0.9778018593788147,0.0,0.0,0.0,0.0,0.0,0.0
972,1724913618664429382,-0.04624481499195099,0.2004232406616211,0.11908037960529327,-0.02068456821143627,-0.06420864909887314,-0.19817839562892914,0.977841854095459,0.0,0.0,0.0,0.0,0.0,0.0
974,1724913618666114515,-0.04625789821147919,0.2004266083240509,0.11905841529369354,-0.020628349855542183,-0.0642634853720665,-0.19807599484920502,0.9778602123260498,0.0,0.0,0.0,0.0,0.0,0.0
976,1724913618675311766,-0.046271417289972305,0.20042109489440918,0.11906925588846207,-0.02088971622288227,-0.06432155519723892,-0.19817692041397095,0.9778304696083069,0.0,0.0,0.0,0.0,0.0,0.0
978,1724913618689010537,-0.04625256359577179,0.2004326730966568,0.11907918006181717,-0.020520996302366257,-0.0641910582780838,-0.19841231405735016,0.977799117565155,0.0,0.0,0.0,0.0,0.0,0.0
980,1724913618696070756,-0.04625851660966873,0.20043805241584778,0.11910517513751984,-0.02078929729759693,-0.06420952826738358,-0.1982990950345993,0.9778150916099548,0.0,0.0,0.0,0.0,0.0,0.0
982,1724913618705421687,-0.04625118523836136,0.20042133331298828,0.11909257620573044,-0.020780926570296288,-0.06422032415866852,-0.19823862612247467,0.9778268337249756,0.0,0.0,0.0,0.0,0.0,0.0
984,1724913618715276431,-0.046231478452682495,0.20042267441749573,0.11909414827823639,-0.020625334233045578,-0.06432825326919556,-0.198248028755188,0.9778212308883667,0.0,0.0,0.0,0.0,0.0,0.0
986,1724913618725720719,-0.0462522953748703,0.20042094588279724,0.119069904088974,-0.020681433379650116,-0.06438213586807251,-0.19817812740802765,0.9778305888175964,0.0,0.0,0.0,0.0,0.0,0.0
988,1724913618735470725,-0.046243928372859955,0.2004127949476242,0.11905026435852051,-0.020527208223938942,-0.06446689367294312,-0.19807304441928864,0.9778496026992798,0.0,0.0,0.0,0.0,0.0,0.0
990,1724913618745221484,-0.04624096676707268,0.20042935013771057,0.11909510940313339,-0.020632008090615273,-0.06431452929973602,-0.1982719451189041,0.9778171181678772,0.0,0.0,0.0,0.0,0.0,0.0
992,1724913618756632799,-0.04625314474105835,0.20042270421981812,0.11907927691936493,-0.020756294950842857,-0.06430114805698395,-0.19824674725532532,0.9778203964233398,0.0,0.0,0.0,0.0,0.0,0.0
994,1724913618765862281,-0.04626135528087616,0.20042741298675537,0.11907865107059479,-0.0208755936473608,-0.06436165422201157,-0.1981579214334488,0.9778319597244263,0.0,0.0,0.0,0.0,0.0,0.0
996,1724913618775549032,-0.046241603791713715,0.20043256878852844,0.11908464133739471,-0.020708438009023666,-0.06420820206403732,-0.19828027486801147,0.9778207540512085,0.0,0.0,0.0,0.0,0.0,0.0
998,1724913618788275085,-0.046257831156253815,0.20041607320308685,0.11906526237726212,-0.02074751816689968,-0.06427587568759918,-0.19826824963092804,0.9778178930282593,0.0,0.0,0.0,0.0,0.0,0.0
1000,1724913618795357741,-0.0462568923830986,0.20039516687393188,0.11906224489212036,-0.020665571093559265,-0.06447187811136246,-0.19816024601459503,0.9778286218643188,0.0,0.0,0.0,0.0,0.0,0.0
1002,1724913618808002342,-0.0462508387863636,0.20041008293628693,0.11906175315380096,-0.02076282724738121,-0.06437015533447266,-0.1981668323278427,0.9778319597244263,0.0,0.0,0.0,0.0,0.0,0.0
1004,1724913618815738679,-0.04624703526496887,0.2004210203886032,0.11906425654888153,-0.02078346163034439,-0.0642278641462326,-0.19825288653373718,0.9778234958648682,0.0,0.0,0.0,0.0,0.0,0.0
1006,1724913618825320197,-0.046254269778728485,0.20040149986743927,0.11907126009464264,-0.020675452426075935,-0.06439082324504852,-0.19816845655441284,0.9778320789337158,0.0,0.0,0.0,0.0,0.0,0.0
1008,1724913618836587258,-0.046261608600616455,0.20040442049503326,0.1190444827079773,-0.020792603492736816,-0.064393050968647,-0.19804833829402924,0.9778538346290588,0.0,0.0,0.0,0.0,0.0,0.0
1010,1724913618845255221,-0.04624512419104576,0.20040830969810486,0.11907188594341278,-0.02070566453039646,-0.06426987051963806,-0.19813399016857147,0.9778463840484619,0.0,0.0,0.0,0.0,0.0,0.0
1012,1724913618856526807,-0.046241119503974915,0.20041412115097046,0.11905770748853683,-0.02060513012111187,-0.06440999358892441,-0.19810111820697784,0.9778459668159485,0.0,0.0,0.0,0.0,0.0,0.0
1014,1724913618870671118,-0.04624630883336067,0.2004249542951584,0.11907589435577393,-0.02077155001461506,-0.06436121463775635,-0.19813989102840424,0.977837860584259,0.0,0.0,0.0,0.0,0.0,0.0
1016,1724913618875495582,-0.046268999576568604,0.20041459798812866,0.11906397342681885,-0.02074662782251835,-0.06435909122228622,-0.19816285371780396,0.9778338670730591,0.0,0.0,0.0,0.0,0.0,0.0
1018,1724913618886426980,-0.04626566916704178,0.20041124522686005,0.11906218528747559,-0.020881734788417816,-0.06437419354915619,-0.19820550084114075,0.9778213500976562,0.0,0.0,0.0,0.0,0.0,0.0
1020,1724913618896340242,-0.046252354979515076,0.2004091590642929,0.11907239258289337,-0.020662281662225723,-0.06428351253271103,-0.198160782456398,0.9778410792350769,0.0,0.0,0.0,0.0,0.0,0.0
1022,1724913618909526353,-0.04624845087528229,0.20041422545909882,0.1190798282623291,-0.020674824714660645,-0.0643467828631401,-0.19810330867767334,0.97784823179245,0.0,0.0,0.0,0.0,0.0,0.0
1024,1724913618917528722,-0.046254947781562805,0.20043152570724487,0.11908958107233047,-0.021002154797315598,-0.06430549174547195,-0.19828279316425323,0.9778076410293579,0.0,0.0,0.0,0.0,0.0,0.0
1026,1724913618927597493,-0.046257976442575455,0.2004360854625702,0.11909062415361404,-0.020831415429711342,-0.06424805521965027,-0.1983388066291809,0.977803647518158,0.0,0.0,0.0,0.0,0.0,0.0
1028,1724913618940466356,-0.046239860355854034,0.2004408836364746,0.11909650266170502,-0.0203622505068779,-0.06433144956827164,-0.19846989214420319,0.9777814745903015,0.0,0.0,0.0,0.0,0.0,0.0
1030,1724913618949279204,-0.04625822603702545,0.20044659078121185,0.11906757950782776,-0.020590296015143394,-0.06423964351415634,-0.19835101068019867,0.9778068661689758,0.0,0.0,0.0,0.0,0.0,0.0
1032,1724913618955536621,-0.04624534025788307,0.2004249393939972,0.11906163394451141,-0.02062676101922989,-0.06424061954021454,-0.1982174813747406,0.977833092212677,0.0,0.0,0.0,0.0,0.0,0.0
1034,1724913618966209621,-0.046247173100709915,0.20041383802890778,0.11908920854330063,-0.02087087370455265,-0.06427247077226639,-0.19814501702785492,0.9778404831886292,0.0,0.0,0.0,0.0,0.0,0.0
1036,1724913618977082997,-0.046269580721855164,0.20040707290172577,0.11906736344099045,-0.021062597632408142,-0.06433340907096863,-0.19805489480495453,0.977850615978241,0.0,0.0,0.0,0.0,0.0,0.0
1038,1724913618985633754,-0.04628581553697586,0.2004278153181076,0.11909524351358414,-0.02126159332692623,-0.06414712220430374,-0.19824905693531036,0.9778192639350891,0.0,0.0,0.0,0.0,0.0,0.0
1040,1724913618996328403,-0.04626312106847763,0.2004309594631195,0.1190752163529396,-0.021160315722227097,-0.0642785057425499,-0.1981646865606308,0.9778298735618591,0.0,0.0,0.0,0.0,0.0,0.0
1042,1724913619005994364,-0.046251747757196426,0.2004309594631195,0.11907165497541428,-0.020853640511631966,-0.06428620219230652,-0.1982419639825821,0.9778203368186951,0.0,0.0,0.0,0.0,0.0,0.0
1044,1724913619015998671,-0.04625151306390762,0.20042338967323303,0.11906980723142624,-0.02083260379731655,-0.06427329778671265,-0.19806987047195435,0.977856457233429,0.0,0.0,0.0,0.0,0.0,0.0
1046,1724913619026316496,-0.04625418782234192,0.20042169094085693,0.11906809359788895,-0.020891156047582626,-0.06429969519376755,-0.19803501665592194,0.9778605699539185,0.0,0.0,0.0,0.0,0.0,0.0
1048,1724913619035675469,-0.04625857621431351,0.20042569935321808,0.11904620379209518,-0.020809177309274673,-0.06432417780160904,-0.1980990320444107,0.9778477549552917,0.0,0.0,0.0,0.0,0.0,0.0
1050,1724913619045357453,-0.04626103490591049,0.20043638348579407,0.1190728098154068,-0.02082367241382599,-0.06425095349550247,-0.1982303112745285,0.9778256416320801,0.0,0.0,0.0,0.0,0.0,0.0
1052,1724913619055739884,-0.046266768127679825,0.20042087137699127,0.11909621953964233,-0.021035214886069298,-0.06432678550481796,-0.19827479124069214,0.9778071045875549,0.0,0.0,0.0,0.0,0.0,0.0
1054,1724913619066528245,-0.04627139866352081,0.20042043924331665,0.11906342208385468,-0.021050531417131424,-0.06436660885810852,-0.19815818965435028,0.9778278470039368,0.0,0.0,0.0,0.0,0.0,0.0
1056,1724913619075517699,-0.046272486448287964,0.20043006539344788,0.11905580013990402,-0.020982593297958374,-0.0642765536904335,-0.19816811382770538,0.9778332114219666,0.0,0.0,0.0,0.0,0.0,0.0
1058,1724913619086821891,-0.04627164453268051,0.200436070561409,0.11907239258289337,-0.02099262736737728,-0.06436870247125626,-0.19822022318840027,0.9778163433074951,0.0,0.0,0.0,0.0,0.0,0.0
1060,1724913619095520107,-0.046253859996795654,0.2004217952489853,0.11905985325574875,-0.02081279084086418,-0.06437668949365616,-0.19821330904960632,0.9778211116790771,0.0,0.0,0.0,0.0,0.0,0.0
1062,1724913619105609570,-0.04628482460975647,0.2004012167453766,0.11904657632112503,-0.021059099584817886,-0.06448889523744583,-0.1981435865163803,0.977822482585907,0.0,0.0,0.0,0.0,0.0,0.0
1064,1724913619115748431,-0.04626552760601044,0.20041035115718842,0.11907500773668289,-0.02088501863181591,-0.06444292515516281,-0.1982538104057312,0.9778069853782654,0.0,0.0,0.0,0.0,0.0,0.0
1066,1724913619128091645,-0.04626567289233208,0.20040000975131989,0.11906876415014267,-0.020953575149178505,-0.06437967717647552,-0.19816714525222778,0.977827250957489,0.0,0.0,0.0,0.0,0.0,0.0
1068,1724913619135542141,-0.04624362289905548,0.20059175789356232,0.1192391961812973,-0.020430760458111763,-0.06315970420837402,-0.19927002489566803,0.9776937365531921,0.0,0.0,0.0,0.0,0.0,0.0
1070,1724913619145377801,-0.04623212292790413,0.20059862732887268,0.11922907084226608,-0.020409826189279556,-0.06300350278615952,-0.19931833446025848,0.9776943922042847,0.0,0.0,0.0,0.0,0.0,0.0
1072,1724913619155321013,-0.046241603791713715,0.20060740411281586,0.11922736465930939,-0.02050386741757393,-0.06304969638586044,-0.19934894144535065,0.9776831269264221,0.0,0.0,0.0,0.0,0.0,0.0
1074,1724913619166374715,-0.04627525061368942,0.200694277882576,0.11926265060901642,-0.02078317292034626,-0.06278056651353836,-0.19979900121688843,0.9776026606559753,0.0,0.0,0.0,0.0,0.0,0.0
1076,1724913619175687319,-0.04619702324271202,0.20062965154647827,0.11916062235832214,-0.019264014437794685,-0.06330615282058716,-0.1992514282464981,0.9777117371559143,0.0,0.0,0.0,0.0,0.0,0.0
1078,1724913619185461925,-0.04619699716567993,0.20062750577926636,0.11914662271738052,-0.01899365708231926,-0.06329566985368729,-0.19929569959640503,0.977708637714386,0.0,0.0,0.0,0.0,0.0,0.0
1080,1724913619195676679,-0.04617718607187271,0.20061762630939484,0.11915019899606705,-0.018810827285051346,-0.06349080801010132,-0.19925092160701752,0.977708637714386,0.0,0.0,0.0,0.0,0.0,0.0
1082,1724913619205231214,-0.04618453234434128,0.2006128579378128,0.1191580668091774,-0.018986795097589493,-0.06342160701751709,-0.19921404123306274,0.9777172803878784,0.0,0.0,0.0,0.0,0.0,0.0
1084,1724913619215596886,-0.04607684910297394,0.20056305825710297,0.11894354224205017,-0.01683054491877556,-0.06446203589439392,-0.19826483726501465,0.9778816103935242,0.0,0.0,0.0,0.0,0.0,0.0
1086,1724913619226030610,-0.046140559017658234,0.2004527449607849,0.11877027153968811,-0.018455762416124344,-0.06551066040992737,-0.19652390480041504,0.978134036064148,0.0,0.0,0.0,0.0,0.0,0.0
1088,1724913619235912273,-0.04601298272609711,0.20029890537261963,0.1188419908285141,-0.018523646518588066,-0.06589041650295258,-0.19538123905658722,0.9783360958099365,0.0,0.0,0.0,0.0,0.0,0.0
1090,1724913619246125423,-0.046016938984394073,0.20016495883464813,0.11883353441953659,-0.01760244369506836,-0.06577722728252411,-0.19560247659683228,0.9783164858818054,0.0,0.0,0.0,0.0,0.0,0.0
1092,1724913619255857178,-0.04624364897608757,0.20016072690486908,0.11869493871927261,-0.020337184891104698,-0.06531290709972382,-0.19523297250270844,0.9783684611320496,0.0,0.0,0.0,0.0,0.0,0.0
1094,1724913619265624806,-0.04621710628271103,0.20020408928394318,0.118756003677845,-0.019524021074175835,-0.06490737199783325,-0.19609038531780243,0.9782404899597168,0.0,0.0,0.0,0.0,0.0,0.0
1096,1724913619275262239,-0.04625951871275902,0.20022885501384735,0.11872033774852753,-0.020504269748926163,-0.06485554575920105,-0.1958020180463791,0.9782816767692566,0.0,0.0,0.0,0.0,0.0,0.0
1098,1724913619290771348,-0.04620591178536415,0.2002352774143219,0.11884887516498566,-0.020784810185432434,-0.06458789110183716,-0.19636407494544983,0.9781807065010071,0.0,0.0,0.0,0.0,0.0,0.0
1100,1724913619295265384,-0.046235911548137665,0.20024779438972473,0.11891206353902817,-0.02190975844860077,-0.06400643289089203,-0.19692954421043396,0.978080689907074,0.0,0.0,0.0,0.0,0.0,0.0
1102,1724913619305553360,-0.04616222903132439,0.20025822520256042,0.11899964511394501,-0.020011911168694496,-0.06420473009347916,-0.19747403264045715,0.977998673915863,0.0,0.0,0.0,0.0,0.0,0.0
1104,1724913619315641171,-0.046189017593860626,0.20025616884231567,0.11901890486478806,-0.020880315452814102,-0.06436138600111008,-0.1973918378353119,0.977986752986908,0.0,0.0,0.0,0.0,0.0,0.0
1106,1724913619325486047,-0.04620414227247238,0.20024412870407104,0.11902943253517151,-0.02049064077436924,-0.06423788517713547,-0.19756285846233368,0.9779686331748962,0.0,0.0,0.0,0.0,0.0,0.0
1108,1724913619336821119,-0.04623045027256012,0.2002253532409668,0.11897175759077072,-0.020558148622512817,-0.06470581144094467,-0.19738063216209412,0.9779731631278992,0.0,0.0,0.0,0.0,0.0,0.0
1110,1724913619345265962,-0.04620705544948578,0.20029763877391815,0.11895300447940826,-0.019983286038041115,-0.06492716073989868,-0.19779622554779053,0.977886438369751,0.0,0.0,0.0,0.0,0.0,0.0
1112,1724913619355414640,-0.04622374847531319,0.20031552016735077,0.11891679465770721,-0.020302927121520042,-0.06505235284566879,-0.19780318439006805,0.9778701066970825,0.0,0.0,0.0,0.0,0.0,0.0
1114,1724913619365585736,-0.04619043320417404,0.2005084604024887,0.11905728280544281,-0.01970735751092434,-0.06403018534183502,-0.19898326694965363,0.9777103662490845,0.0,0.0,0.0,0.0,0.0,0.0
1116,1724913619375238344,-0.04618833214044571,0.20044365525245667,0.11901173740625381,-0.020046215504407883,-0.06451183557510376,-0.19844605028629303,0.9777809977531433,0.0,0.0,0.0,0.0,0.0,0.0
1118,1724913619385700234,-0.0461626872420311,0.20051074028015137,0.11912092566490173,-0.019250137731432915,-0.06322518736124039,-0.19908179342746735,0.9777517914772034,0.0,0.0,0.0,0.0,0.0,0.0
1120,1724913619395299803,-0.04619350656867027,0.20053738355636597,0.11915522813796997,-0.01949441246688366,-0.06308263540267944,-0.19918930530548096,0.9777342677116394,0.0,0.0,0.0,0.0,0.0,0.0
1122,1724913619405695619,-0.04618752747774124,0.20054365694522858,0.11918491125106812,-0.01958724670112133,-0.06308868527412415,-0.19937588274478912,0.9776939153671265,0.0,0.0,0.0,0.0,0.0,0.0
1124,1724913619416208417,-0.04618828371167183,0.20057982206344604,0.1191997230052948,-0.019534362480044365,-0.06296396255493164,-0.199533149600029,0.9776710271835327,0.0,0.0,0.0,0.0,0.0,0.0
1126,1724913619424966768,-0.04618038982152939,0.20057496428489685,0.11915849149227142,-0.01952938735485077,-0.06313667446374893,-0.1993561089038849,0.9776960015296936,0.0,0.0,0.0,0.0,0.0,0.0
1128,1724913619435737054,-0.04615673050284386,0.20055241882801056,0.1191391721367836,-0.019310230389237404,-0.06310568749904633,-0.19919832050800323,0.9777345061302185,0.0,0.0,0.0,0.0,0.0,0.0
1130,1724913619445829800,-0.046168792992830276,0.20052683353424072,0.11910819262266159,-0.01981181837618351,-0.06350049376487732,-0.1988040655851364,0.9777791500091553,0.0,0.0,0.0,0.0,0.0,0.0
1132,1724913619456998202,-0.04616771265864372,0.2005643993616104,0.11915964633226395,-0.019419625401496887,-0.0630234032869339,-0.19930747151374817,0.9777154326438904,0.0,0.0,0.0,0.0,0.0,0.0
1134,1724913619465413456,-0.04617651179432869,0.200592041015625,0.11920984089374542,-0.019461721181869507,-0.0628235787153244,-0.19962401688098907,0.9776629209518433,0.0,0.0,0.0,0.0,0.0,0.0
1136,1724913619477284513,-0.04613219201564789,0.200556680560112,0.11911167204380035,-0.01873091794550419,-0.06334985792636871,-0.19917964935302734,0.9777337908744812,0.0,0.0,0.0,0.0,0.0,0.0
1138,1724913619489788509,-0.046109654009342194,0.20061250030994415,0.11913792788982391,-0.01849980279803276,-0.06314852088689804,-0.19944947957992554,0.9776962995529175,0.0,0.0,0.0,0.0,0.0,0.0
1140,1724913619495080254,-0.04601089283823967,0.20051363110542297,0.11897885799407959,-0.017109263688325882,-0.06406676769256592,-0.19830521941184998,0.9778945446014404,0.0,0.0,0.0,0.0,0.0,0.0
1142,1724913619508618105,-0.045994702726602554,0.20049481093883514,0.11898383498191833,-0.0169298704713583,-0.06377411633729935,-0.19846554100513458,0.9778843522071838,0.0,0.0,0.0,0.0,0.0,0.0
1144,1724913619515659621,-0.04594670981168747,0.20071905851364136,0.11919879168272018,-0.016853731125593185,-0.06255554407835007,-0.19980505108833313,0.9776915907859802,0.0,0.0,0.0,0.0,0.0,0.0
1146,1724913619525678534,-0.04593832045793533,0.20070774853229523,0.11911526322364807,-0.01671777479350567,-0.06279917061328888,-0.19966226816177368,0.9777073860168457,0.0,0.0,0.0,0.0,0.0,0.0
1148,1724913619535466429,-0.045911435037851334,0.2007027417421341,0.11907629668712616,-0.016107795760035515,-0.06300416588783264,-0.19948479533195496,0.9777407646179199,0.0,0.0,0.0,0.0,0.0,0.0
1150,1724913619545575959,-0.04600035771727562,0.20064480602741241,0.11876926571130753,-0.016178123652935028,-0.06415048241615295,-0.19799694418907166,0.9779674410820007,0.0,0.0,0.0,0.0,0.0,0.0
1152,1724913619555961581,-0.0460992269217968,0.20061267912387848,0.1186751276254654,-0.01770778000354767,-0.06394609808921814,-0.19745129346847534,0.9780645370483398,0.0,0.0,0.0,0.0,0.0,0.0
1154,1724913619566040224,-0.04610295966267586,0.20067711174488068,0.11872879415750504,-0.01806996762752533,-0.06360214948654175,-0.19776658713817596,0.97801673412323,0.0,0.0,0.0,0.0,0.0,0.0
1156,1724913619574975698,-0.046082694083452225,0.20069502294063568,0.11875009536743164,-0.018270717933773994,-0.06373404711484909,-0.19767174124717712,0.9780235886573792,0.0,0.0,0.0,0.0,0.0,0.0
1158,1724913619586043231,-0.04606835916638374,0.20065604150295258,0.11869491636753082,-0.01776856929063797,-0.06380981206893921,-0.19757099449634552,0.9780482053756714,0.0,0.0,0.0,0.0,0.0,0.0
1160,1724913619595262976,-0.04604335129261017,0.20067626237869263,0.11870115995407104,-0.017680548131465912,-0.06355908513069153,-0.19765980541706085,0.9780482053756714,0.0,0.0,0.0,0.0,0.0,0.0
1162,1724913619607192027,-0.04599776491522789,0.2006554901599884,0.11869502812623978,-0.016987934708595276,-0.06363825500011444,-0.1976722627878189,0.9780527949333191,0.0,0.0,0.0,0.0,0.0,0.0
1164,1724913619616465238,-0.045908305794000626,0.20073464512825012,0.11871639639139175,-0.01684781163930893,-0.0635722354054451,-0.19786933064460754,0.9780197143554688,0.0,0.0,0.0,0.0,0.0,0.0
1166,1724913619625288731,-0.04586907476186752,0.20075657963752747,0.11880426853895187,-0.01678306795656681,-0.06361701339483261,-0.19799785315990448,0.9779918789863586,0.0,0.0,0.0,0.0,0.0,0.0
1168,1724913619636008594,-0.04586165398359299,0.20065832138061523,0.11877647042274475,-0.016966240480542183,-0.0638815313577652,-0.1972726583480835,0.9781180024147034,0.0,0.0,0.0,0.0,0.0,0.0
1170,1724913619646397978,-0.04587186127901077,0.20063355565071106,0.11876270920038223,-0.017097080126404762,-0.06390880793333054,-0.19720163941383362,0.9781282544136047,0.0,0.0,0.0,0.0,0.0,0.0
1172,1724913619655822595,-0.04587887227535248,0.20064765214920044,0.11876491457223892,-0.01684296876192093,-0.06370426714420319,-0.1973540484905243,0.9781152606010437,0.0,0.0,0.0,0.0,0.0,0.0
1174,1724913619666062004,-0.04591789469122887,0.20062977075576782,0.11871737241744995,-0.017373841255903244,-0.06388341635465622,-0.1971423327922821,0.9781370759010315,0.0,0.0,0.0,0.0,0.0,0.0
1176,1724913619675648107,-0.04593494534492493,0.20063602924346924,0.11875069886445999,-0.017787400633096695,-0.0638752281665802,-0.19719535112380981,0.9781194925308228,0.0,0.0,0.0,0.0,0.0,0.0
1178,1724913619688868750,-0.045924652367830276,0.2006731927394867,0.11879032105207443,-0.017449907958507538,-0.06360499560832977,-0.1974710375070572,0.9780875444412231,0.0,0.0,0.0,0.0,0.0,0.0
1180,1724913619695389426,-0.04593248292803764,0.20077110826969147,0.11883635073900223,-0.01796366274356842,-0.06366929411888123,-0.19787636399269104,0.9779921174049377,0.0,0.0,0.0,0.0,0.0,0.0
1182,1724913619705555727,-0.045948710292577744,0.20087970793247223,0.11886429786682129,-0.017771676182746887,-0.06350673735141754,-0.1986451894044876,0.9778503179550171,0.0,0.0,0.0,0.0,0.0,0.0
1184,1724913619715099622,-0.04591282084584236,0.2009788453578949,0.1190340667963028,-0.017287051305174828,-0.06242668628692627,-0.19929547607898712,0.9777962565422058,0.0,0.0,0.0,0.0,0.0,0.0
1186,1724913619726457789,-0.045932602137327194,0.20094698667526245,0.11903619766235352,-0.017607638612389565,-0.06262844800949097,-0.1991039663553238,0.977816641330719,0.0,0.0,0.0,0.0,0.0,0.0
1188,1724913619735366042,-0.0459403395652771,0.20094066858291626,0.11900793015956879,-0.01748502440750599,-0.06271559000015259,-0.19908267259597778,0.9778175950050354,0.0,0.0,0.0,0.0,0.0,0.0
1190,1724913619744915891,-0.045923128724098206,0.2009439915418625,0.11906217783689499,-0.01780063286423683,-0.06267140060663223,-0.19907954335212708,0.9778152704238892,0.0,0.0,0.0,0.0,0.0,0.0
1192,1724913619758095555,-0.04595349356532097,0.20094679296016693,0.11900665611028671,-0.017642127349972725,-0.0623861663043499,-0.19913968443870544,0.9778242111206055,0.0,0.0,0.0,0.0,0.0,0.0
1194,1724913619765831140,-0.04596748575568199,0.20097389817237854,0.11903030425310135,-0.017830058932304382,-0.06231797859072685,-0.19924390316009521,0.9778038859367371,0.0,0.0,0.0,0.0,0.0,0.0
1196,1724913619777779141,-0.04594672843813896,0.20095597207546234,0.11901692301034927,-0.017837481573224068,-0.06254880130290985,-0.1990220546722412,0.9778342247009277,0.0,0.0,0.0,0.0,0.0,0.0
1198,1724913619786714802,-0.045939721167087555,0.20094411075115204,0.11901400983333588,-0.017862515524029732,-0.06261478364467621,-0.19903375208377838,0.9778271317481995,0.0,0.0,0.0,0.0,0.0,0.0
1200,1724913619795204087,-0.0459379218518734,0.20095700025558472,0.11903420090675354,-0.017626440152525902,-0.062338680028915405,-0.19922490417957306,0.9778101444244385,0.0,0.0,0.0,0.0,0.0,0.0
1202,1724913619805874478,-0.045957259833812714,0.20094577968120575,0.11903852969408035,-0.0178159661591053,-0.06239878013730049,-0.1992233544588089,0.9778032302856445,0.0,0.0,0.0,0.0,0.0,0.0
1204,1724913619815501759,-0.04595392197370529,0.20094960927963257,0.11905527114868164,-0.017782900482416153,-0.06225347891449928,-0.19926148653030396,0.9778052568435669,0.0,0.0,0.0,0.0,0.0,0.0
1206,1724913619825211702,-0.04592331126332283,0.201205775141716,0.11922835558652878,-0.017289932817220688,-0.06115094572305679,-0.2007036805152893,0.9775886535644531,0.0,0.0,0.0,0.0,0.0,0.0
1208,1724913619839111098,-0.045883070677518845,0.20123594999313354,0.1192551851272583,-0.017498470842838287,-0.06124608963727951,-0.20071952044963837,0.9775757789611816,0.0,0.0,0.0,0.0,0.0,0.0
1210,1724913619845293883,-0.04588111490011215,0.20123110711574554,0.11924132704734802,-0.01718524470925331,-0.06113087385892868,-0.2008027285337448,0.977571427822113,0.0,0.0,0.0,0.0,0.0,0.0
1212,1724913619854956253,-0.04589485749602318,0.20112699270248413,0.11906182020902634,-0.01705021969974041,-0.06248664855957031,-0.2001468539237976,0.9776226282119751,0.0,0.0,0.0,0.0,0.0,0.0
1214,1724913619866278270,-0.045866549015045166,0.2010205239057541,0.11899784952402115,-0.017635807394981384,-0.06300801783800125,-0.199564591050148,0.9776977896690369,0.0,0.0,0.0,0.0,0.0,0.0
1216,1724913619875158037,-0.04586375504732132,0.2009609490633011,0.11895134299993515,-0.01766875945031643,-0.06303217262029648,-0.19853678345680237,0.9779049158096313,0.0,0.0,0.0,0.0,0.0,0.0
1218,1724913619886538482,-0.045805782079696655,0.20100700855255127,0.11907336115837097,-0.01783449575304985,-0.06252603232860565,-0.1987874060869217,0.9778834581375122,0.0,0.0,0.0,0.0,0.0,0.0
1220,1724913619900244949,-0.04575858265161514,0.2010038197040558,0.11905284225940704,-0.017618222162127495,-0.06267139315605164,-0.19866251945495605,0.977903425693512,0.0,0.0,0.0,0.0,0.0,0.0
1222,1724913619905308702,-0.04564778134226799,0.20098958909511566,0.11891522258520126,-0.0170112457126379,-0.06308099627494812,-0.19832170009613037,0.977957010269165,0.0,0.0,0.0,0.0,0.0,0.0
1224,1724913619918144060,-0.045468948781490326,0.2010485678911209,0.11893419921398163,-0.013860318809747696,-0.06339884549379349,-0.19863669574260712,0.977922260761261,0.0,0.0,0.0,0.0,0.0,0.0
1226,1724913619925119948,-0.04553377628326416,0.20090563595294952,0.1189173012971878,-0.016182590276002884,-0.06343422085046768,-0.19790522754192352,0.9780325889587402,0.0,0.0,0.0,0.0,0.0,0.0
1228,1724913619936494656,-0.04552141949534416,0.20082293450832367,0.11903084069490433,-0.01748530939221382,-0.06415663659572601,-0.19878679513931274,0.977784276008606,0.0,0.0,0.0,0.0,0.0,0.0
1230,1724913619947602311,-0.04557257145643234,0.20070138573646545,0.11907018721103668,-0.01882883347570896,-0.06502442061901093,-0.19894661009311676,0.9776694178581238,0.0,0.0,0.0,0.0,0.0,0.0
1232,1724913619955888664,-0.045548200607299805,0.20068669319152832,0.11909844726324081,-0.01870153099298477,-0.06496521830558777,-0.19904664158821106,0.9776555299758911,0.0,0.0,0.0,0.0,0.0,0.0
1234,1724913619965580926,-0.045608632266521454,0.2007460743188858,0.11898458003997803,-0.018154684454202652,-0.0641002357006073,-0.19888418912887573,0.9777560234069824,0.0,0.0,0.0,0.0,0.0,0.0
1236,1724913619974937257,-0.04565739631652832,0.20084704458713531,0.11889608949422836,-0.01739347353577614,-0.0632489025592804,-0.19869279861450195,0.9778642058372498,0.0,0.0,0.0,0.0,0.0,0.0
1238,1724913619986327605,-0.04564284160733223,0.20119933784008026,0.11888536065816879,-0.015764154493808746,-0.06139485538005829,-0.19951952993869781,0.9778416156768799,0.0,0.0,0.0,0.0,0.0,0.0
1240,1724913619995118735,-0.04572051391005516,0.20125001668930054,0.11877504736185074,-0.015444654040038586,-0.06075546145439148,-0.19908519089221954,0.9779751300811768,0.0,0.0,0.0,0.0,0.0,0.0
1242,1724913620005870003,-0.04576617479324341,0.20125725865364075,0.11871387809515,-0.01591356284916401,-0.06036034971475601,-0.198704794049263,0.9780694246292114,0.0,0.0,0.0,0.0,0.0,0.0
1244,1724913620015560168,-0.045854922384023666,0.20119331777095795,0.11869019269943237,-0.01727222092449665,-0.06076756492257118,-0.1985117644071579,0.9780604243278503,0.0,0.0,0.0,0.0,0.0,0.0
1246,1724913620025147730,-0.04582607373595238,0.20120854675769806,0.1186927929520607,-0.016908256337046623,-0.06069008633494377,-0.19843797385692596,0.978086531162262,0.0,0.0,0.0,0.0,0.0,0.0
1248,1724913620080131816,-0.045804016292095184,0.20119400322437286,0.11869153380393982,-0.017123093828558922,-0.06094156578183174,-0.198362797498703,0.9780824184417725,0.0,0.0,0.0,0.0,0.0,0.0
1250,1724913620080709524,-0.0457928404211998,0.20118600130081177,0.11870215833187103,-0.01716368831694126,-0.06119601055979729,-0.19836144149303436,0.9780660271644592,0.0,0.0,0.0,0.0,0.0,0.0
1252,1724913620081239277,-0.04564769193530083,0.20117902755737305,0.11892123520374298,-0.016600536182522774,-0.062279414385557175,-0.19928085803985596,0.9778204560279846,0.0,0.0,0.0,0.0,0.0,0.0
1254,1724913620081676385,-0.04564077407121658,0.20122529566287994,0.11898013949394226,-0.016524938866496086,-0.06230568885803223,-0.19974173605442047,0.9777260422706604,0.0,0.0,0.0,0.0,0.0,0.0
1256,1724913620082051307,-0.045635245740413666,0.2012615203857422,0.11899925768375397,-0.016615942120552063,-0.062405478209257126,-0.19979265332221985,0.9777078032493591,0.0,0.0,0.0,0.0,0.0,0.0
1258,1724913620085736380,-0.04562883451581001,0.2012431025505066,0.11895191669464111,-0.016704518347978592,-0.06263470649719238,-0.19969886541366577,0.9777107834815979,0.0,0.0,0.0,0.0,0.0,0.0
1260,1724913620095257984,-0.045683763921260834,0.20129355788230896,0.11889725178480148,-0.016755474731326103,-0.06285220384597778,-0.20001807808876038,0.9776306748390198,0.0,0.0,0.0,0.0,0.0,0.0
1262,1724913620105436343,-0.045522574335336685,0.20085379481315613,0.11892616748809814,-0.015780065208673477,-0.06185615062713623,-0.19718240201473236,0.9782862663269043,0.0,0.0,0.0,0.0,0.0,0.0
1264,1724913620115309453,-0.04552488774061203,0.20080280303955078,0.11891064792871475,-0.016324598342180252,-0.06199324131011963,-0.19683842360973358,0.9783379435539246,0.0,0.0,0.0,0.0,0.0,0.0
1266,1724913620124803689,-0.04554828256368637,0.2008034586906433,0.11890873312950134,-0.01608249358832836,-0.06200053170323372,-0.1967533677816391,0.9783585667610168,0.0,0.0,0.0,0.0,0.0,0.0
1268,1724913620135342451,-0.045618291944265366,0.20075853168964386,0.11887554824352264,-0.016644909977912903,-0.06207871064543724,-0.19641973078250885,0.9784111976623535,0.0,0.0,0.0,0.0,0.0,0.0
1270,1724913620145139019,-0.04562564939260483,0.2007778286933899,0.11888545751571655,-0.016458792611956596,-0.06207531690597534,-0.1965007781982422,0.978398323059082,0.0,0.0,0.0,0.0,0.0,0.0
1272,1724913620156465393,-0.04558878019452095,0.20081329345703125,0.11888238042593002,-0.016110023483633995,-0.06218045949935913,-0.19670122861862183,0.9783571362495422,0.0,0.0,0.0,0.0,0.0,0.0
1274,1724913620165430635,-0.04559388384222984,0.20078697800636292,0.11886207014322281,-0.016683904454112053,-0.06217578798532486,-0.1963927447795868,0.9784098267555237,0.0,0.0,0.0,0.0,0.0,0.0
1276,1724913620174780231,-0.04559227451682091,0.2007821500301361,0.11883991956710815,-0.016695629805326462,-0.06246545910835266,-0.19632817804813385,0.9784041047096252,0.0,0.0,0.0,0.0,0.0,0.0
1278,1724913620185248811,-0.045616380870342255,0.20077566802501678,0.11881333589553833,-0.016815248876810074,-0.062443431466817856,-0.19624851644039154,0.9784194231033325,0.0,0.0,0.0,0.0,0.0,0.0
1280,1724913620195381903,-0.04565110802650452,0.20073547959327698,0.11878518015146255,-0.017151445150375366,-0.06250106543302536,-0.19591805338859558,0.9784762263298035,0.0,0.0,0.0,0.0,0.0,0.0
1282,1724913620205012095,-0.04564962163567543,0.2006475031375885,0.11867412179708481,-0.016879422590136528,-0.06267723441123962,-0.19575683772563934,0.9785019159317017,0.0,0.0,0.0,0.0,0.0,0.0
1284,1724913620215668707,-0.0457015186548233,0.20057816803455353,0.11859778314828873,-0.01694660820066929,-0.06293018162250519,-0.1954074651002884,0.9785543084144592,0.0,0.0,0.0,0.0,0.0,0.0
1286,1724913620225203790,-0.045726194977760315,0.20057149231433868,0.11859381943941116,-0.017052173614501953,-0.0629306435585022,-0.19530245661735535,0.9785735011100769,0.0,0.0,0.0,0.0,0.0,0.0
1288,1724913620235982797,-0.045816220343112946,0.20053206384181976,0.11850766092538834,-0.017569752410054207,-0.06300508975982666,-0.194762721657753,0.9786670207977295,0.0,0.0,0.0,0.0,0.0,0.0
1290,1724913620245610729,-0.045887526124715805,0.20051917433738708,0.11842098087072372,-0.01787308230996132,-0.06314563751220703,-0.19458140432834625,0.9786885976791382,0.0,0.0,0.0,0.0,0.0,0.0
1292,1724913620257964792,-0.046065837144851685,0.2004336565732956,0.11832525581121445,-0.018971875309944153,-0.06302940100431442,-0.19376970827579498,0.9788363575935364,0.0,0.0,0.0,0.0,0.0,0.0
1294,1724913620265516771,-0.046200912445783615,0.20038385689258575,0.11828725039958954,-0.020827997475862503,-0.06292792409658432,-0.19316501915454865,0.9789246916770935,0.0,0.0,0.0,0.0,0.0,0.0
1296,1724913620275403713,-0.04623914510011673,0.20041954517364502,0.118331678211689,-0.019716160371899605,-0.06307254731655121,-0.19307361543178558,0.9789565205574036,0.0,0.0,0.0,0.0,0.0,0.0
1298,1724913620285497827,-0.04620015248656273,0.2005101591348648,0.11851582676172256,-0.018208375200629234,-0.0628821849822998,-0.19362515211105347,0.978888988494873,0.0,0.0,0.0,0.0,0.0,0.0
1300,1724913620295640493,-0.046129848808050156,0.2005838006734848,0.11879929900169373,-0.017191460356116295,-0.06293913722038269,-0.19438831508159637,0.9787524342536926,0.0,0.0,0.0,0.0,0.0,0.0
1302,1724913620308879498,-0.04618097469210625,0.2005745768547058,0.11905976384878159,-0.016665227711200714,-0.06348080188035965,-0.19484582543373108,0.9786356091499329,0.0,0.0,0.0,0.0,0.0,0.0
1304,1724913620315282818,-0.04631051421165466,0.20051626861095428,0.11954811960458755,-0.015815511345863342,-0.06441089510917664,-0.1956392526626587,0.9784306287765503,0.0,0.0,0.0,0.0,0.0,0.0
1306,1724913620327250677,-0.04651303589344025,0.20051001012325287,0.12061116844415665,-0.015963541343808174,-0.06622355431318283,-0.19724567234516144,0.977984607219696,0.0,0.0,0.0,0.0,0.0,0.0
1308,1724913620338673266,-0.04687689617276192,0.200423002243042,0.12189298868179321,-0.015920761972665787,-0.06826753914356232,-0.1983467936515808,0.9776219725608826,0.0,0.0,0.0,0.0,0.0,0.0
1310,1724913620345770329,-0.047345422208309174,0.20037108659744263,0.12331769615411758,-0.014370560646057129,-0.06990307569503784,-0.19930696487426758,0.9773350954055786,0.0,0.0,0.0,0.0,0.0,0.0
1312,1724913620355702277,-0.0480082705616951,0.20010365545749664,0.12503258883953094,-0.013594014570116997,-0.07262607663869858,-0.19963818788528442,0.9770800471305847,0.0,0.0,0.0,0.0,0.0,0.0
1314,1724913620366442922,-0.04875082150101662,0.19988171756267548,0.12724044919013977,-0.01238678302615881,-0.07504049688577652,-0.1999337077140808,0.9768531918525696,0.0,0.0,0.0,0.0,0.0,0.0
1316,1724913620375089295,-0.0497497133910656,0.19991475343704224,0.1302720159292221,-0.011879615485668182,-0.07022994011640549,-0.20218493044376373,0.976753830909729,0.0,0.0,0.0,0.0,0.0,0.0
1318,1724913620387303164,-0.05046410486102104,0.1993444859981537,0.13205572962760925,-0.00823246780782938,-0.07772106677293777,-0.2008797824382782,0.9764932990074158,0.0,0.0,0.0,0.0,0.0,0.0
1320,1724913620396107199,-0.05149708315730095,0.19876202940940857,0.13461479544639587,-0.006204226985573769,-0.0793168693780899,-0.20113694667816162,0.9763270020484924,0.0,0.0,0.0,0.0,0.0,0.0
1322,1724913620405202609,-0.05259186401963234,0.19800086319446564,0.13736562430858612,-0.004565110895782709,-0.08075778186321259,-0.20165401697158813,0.9761112332344055,0.0,0.0,0.0,0.0,0.0,0.0
1324,1724913620416032669,-0.05379100143909454,0.19711697101593018,0.14019417762756348,-0.0025852196849882603,-0.08136659115552902,-0.20138587057590485,0.9761232733726501,0.0,0.0,0.0,0.0,0.0,0.0
1326,1724913620425123980,-0.05488834157586098,0.1962197870016098,0.14291715621948242,0.0008006198913790286,-0.08133178949356079,-0.20109683275222778,0.9761888384819031,0.0,0.0,0.0,0.0,0.0,0.0
1328,1724913620435984133,-0.05596119537949562,0.195150226354599,0.14585882425308228,0.001911197672598064,-0.08079137653112411,-0.20105160772800446,0.976241409778595,0.0,0.0,0.0,0.0,0.0,0.0
1330,1724913620445959981,-0.05697817727923393,0.19413287937641144,0.14924466609954834,0.002307560760527849,-0.07730051875114441,-0.20266090333461761,0.9761905074119568,0.0,0.0,0.0,0.0,0.0,0.0
1332,1724913620457885233,-0.057931311428546906,0.1927674412727356,0.15164723992347717,0.004015631508082151,-0.07899681478738785,-0.20231907069683075,0.9761200547218323,0.0,0.0,0.0,0.0,0.0,0.0
1334,1724913620465511502,-0.05887558311223984,0.1913306564092636,0.15419405698776245,0.006684183608740568,-0.07880448549985886,-0.2023131549358368,0.976122260093689,0.0,0.0,0.0,0.0,0.0,0.0
1336,1724913620476233691,-0.059805192053318024,0.18975341320037842,0.15721595287322998,0.007370648439973593,-0.0778987780213356,-0.20252791047096252,0.9761455059051514,0.0,0.0,0.0,0.0,0.0,0.0
1338,1724913620485244657,-0.06081420183181763,0.1881081610918045,0.1599835902452469,0.008815273642539978,-0.07560619711875916,-0.20243166387081146,0.9763336777687073,0.0,0.0,0.0,0.0,0.0,0.0
1340,1724913620495295962,-0.06182254105806351,0.18633823096752167,0.16249360144138336,0.009940341114997864,-0.07425946742296219,-0.20237983763217926,0.976436972618103,0.0,0.0,0.0,0.0,0.0,0.0
1342,1724913620508132795,-0.0627768412232399,0.18432560563087463,0.16519252955913544,0.010755077004432678,-0.07271523773670197,-0.20220308005809784,0.9765812158584595,0.0,0.0,0.0,0.0,0.0,0.0
1344,1724913620515401621,-0.06383174657821655,0.18229909241199493,0.16787904500961304,0.010095500387251377,-0.07057052850723267,-0.20193588733673096,0.976800799369812,0.0,0.0,0.0,0.0,0.0,0.0
1346,1724913620525698417,-0.06480966508388519,0.1802612841129303,0.17039938271045685,0.00951035600155592,-0.06886978447437286,-0.20213544368743896,0.9768867492675781,0.0,0.0,0.0,0.0,0.0,0.0
1348,1724913620538521895,-0.0658029243350029,0.17813092470169067,0.1727297157049179,0.010279886424541473,-0.06658153235912323,-0.20137116312980652,0.9771954417228699,0.0,0.0,0.0,0.0,0.0,0.0
1350,1724913620544964579,-0.06665655225515366,0.1759362518787384,0.1752748191356659,0.009469193406403065,-0.06410253047943115,-0.20107334852218628,0.9774307012557983,0.0,0.0,0.0,0.0,0.0,0.0
1352,1724913620556181107,-0.06765715777873993,0.1738746613264084,0.1780141294002533,0.00976775586605072,-0.05787486955523491,-0.2010740339756012,0.9778161644935608,0.0,0.0,0.0,0.0,0.0,0.0
1354,1724913620565495530,-0.06855196505784988,0.1717013716697693,0.17957380414009094,0.011269642971456051,-0.058982569724321365,-0.20134377479553223,0.9776782393455505,0.0,0.0,0.0,0.0,0.0,0.0
1356,1724913620575096034,-0.06930778920650482,0.16981150209903717,0.1813962459564209,0.014593832194805145,-0.05741493031382561,-0.20230983197689056,0.9775281548500061,0.0,0.0,0.0,0.0,0.0,0.0
1358,1724913620590972696,-0.07021963596343994,0.16773663461208344,0.18314605951309204,0.013355236500501633,-0.056254059076309204,-0.20240898430347443,0.9775928258895874,0.0,0.0,0.0,0.0,0.0,0.0
1360,1724913620595049828,-0.07102607935667038,0.16570840775966644,0.18474434316158295,0.016563305631279945,-0.05373092368245125,-0.2022993564605713,0.9777083992958069,0.0,0.0,0.0,0.0,0.0,0.0
1362,1724913620607345391,-0.07166560739278793,0.16369087994098663,0.18636414408683777,0.01801103912293911,-0.051741018891334534,-0.20244276523590088,0.977760374546051,0.0,0.0,0.0,0.0,0.0,0.0
1364,1724913620614967431,-0.07215692102909088,0.16172315180301666,0.18800152838230133,0.01666896417737007,-0.05118175223469734,-0.20253747701644897,0.9777941107749939,0.0,0.0,0.0,0.0,0.0,0.0
1366,1724913620655600651,-0.0727275013923645,0.1598006635904312,0.18948647379875183,0.015869224444031715,-0.04900899529457092,-0.2021537572145462,0.9779980182647705,0.0,0.0,0.0,0.0,0.0,0.0
1368,1724913620655966690,-0.07319675385951996,0.15807707607746124,0.19056715071201324,0.018175028264522552,-0.04739560931921005,-0.20105332136154175,0.9782642722129822,0.0,0.0,0.0,0.0,0.0,0.0
1370,1724913620656378947,-0.07354842126369476,0.15636198222637177,0.19153542816638947,0.01733200065791607,-0.04637705162167549,-0.20012229681015015,0.9785192608833313,0.0,0.0,0.0,0.0,0.0,0.0
1372,1724913620657674092,-0.0737966001033783,0.15502576529979706,0.19281767308712006,0.018686601892113686,-0.04382965713739395,-0.20088723301887512,0.9784550070762634,0.0,0.0,0.0,0.0,0.0,0.0
1374,1724913620665273648,-0.0741036981344223,0.15379996597766876,0.19363060593605042,0.019224852323532104,-0.04257394000887871,-0.20102748274803162,0.9784712195396423,0.0,0.0,0.0,0.0,0.0,0.0
1376,1724913620674869233,-0.07429800927639008,0.15265727043151855,0.19419516623020172,0.022347507998347282,-0.042588651180267334,-0.20078930258750916,0.9784530997276306,0.0,0.0,0.0,0.0,0.0,0.0
1378,1724913620685657473,-0.07450780272483826,0.15169109404087067,0.1948358416557312,0.023554867133498192,-0.041650500148534775,-0.20117074251174927,0.9783868789672852,0.0,0.0,0.0,0.0,0.0,0.0
1380,1724913620695475465,-0.07472141832113266,0.15091831982135773,0.19531068205833435,0.02178625762462616,-0.04061909019947052,-0.20117993652820587,0.9784693121910095,0.0,0.0,0.0,0.0,0.0,0.0
1382,1724913620706771749,-0.07488341629505157,0.15041033923625946,0.19640517234802246,0.022262979298830032,-0.03609657287597656,-0.20171865820884705,0.9785249829292297,0.0,0.0,0.0,0.0,0.0,0.0
1384,1724913620715244058,-0.07498784363269806,0.1500270515680313,0.19682128727436066,0.022747017443180084,-0.03517700731754303,-0.2016342282295227,0.9785647392272949,0.0,0.0,0.0,0.0,0.0,0.0
1386,1724913620726087077,-0.07500849664211273,0.14979664981365204,0.19709935784339905,0.022737495601177216,-0.034596603363752365,-0.20141834020614624,0.978630006313324,0.0,0.0,0.0,0.0,0.0,0.0
1388,1724913620736744285,-0.07498236000537872,0.1497727334499359,0.19731523096561432,0.023304924368858337,-0.034686069935560226,-0.20160715281963348,0.9785746335983276,0.0,0.0,0.0,0.0,0.0,0.0
1390,1724913620745181533,-0.07491953670978546,0.14983633160591125,0.19752174615859985,0.024299494922161102,-0.03459809720516205,-0.20162345468997955,0.9785501956939697,0.0,0.0,0.0,0.0,0.0,0.0
1392,1724913620755452634,-0.0748969167470932,0.15005068480968475,0.19762983918190002,0.02451326511800289,-0.03490804135799408,-0.2018069177865982,0.9784960150718689,0.0,0.0,0.0,0.0,0.0,0.0
1394,1724913620773805538,-0.07491627335548401,0.1503482460975647,0.19771277904510498,0.025258636102080345,-0.03514613211154938,-0.20198045670986176,0.9784327745437622,0.0,0.0,0.0,0.0,0.0,0.0
1396,1724913620775890086,-0.07496356964111328,0.15063439309597015,0.1971600502729416,0.024135252460837364,-0.039373572915792465,-0.20157480239868164,0.9783838391304016,0.0,0.0,0.0,0.0,0.0,0.0
1398,1724913620785369310,-0.07494929432868958,0.15101568400859833,0.1971861869096756,0.024244116619229317,-0.04029642790555954,-0.20138397812843323,0.9783828854560852,0.0,0.0,0.0,0.0,0.0,0.0
1400,1724913620794893961,-0.07496878504753113,0.15143677592277527,0.19725297391414642,0.02539205551147461,-0.040658582001924515,-0.2009575217962265,0.9784263968467712,0.0,0.0,0.0,0.0,0.0,0.0
1402,1724913620809001196,-0.07499707490205765,0.15183192491531372,0.1973726600408554,0.02655627392232418,-0.04118712991476059,-0.20021085441112518,0.9785264134407043,0.0,0.0,0.0,0.0,0.0,0.0
1404,1724913620815440593,-0.0750952661037445,0.15226979553699493,0.19747163355350494,0.02754727005958557,-0.04150444641709328,-0.19931943714618683,0.978667676448822,0.0,0.0,0.0,0.0,0.0,0.0
1406,1724913620824769383,-0.0753009095788002,0.15273043513298035,0.1975288987159729,0.027475159615278244,-0.04171806946396828,-0.19862498342990875,0.9788017272949219,0.0,0.0,0.0,0.0,0.0,0.0
1408,1724913620835776221,-0.07558520138263702,0.15315978229045868,0.1975625902414322,0.02731585130095482,-0.04201934486627579,-0.19790177047252655,0.9789398312568665,0.0,0.0,0.0,0.0,0.0,0.0
1410,1724913620845030041,-0.07591068744659424,0.15360035002231598,0.19758112728595734,0.026205789297819138,-0.04214216023683548,-0.1973065286874771,0.9790850877761841,0.0,0.0,0.0,0.0,0.0,0.0
1412,1724913620854915771,-0.0762907862663269,0.15402662754058838,0.19761158525943756,0.02530556730926037,-0.04223673790693283,-0.19693949818611145,0.9791785478591919,0.0,0.0,0.0,0.0,0.0,0.0
1414,1724913620881889372,-0.07669728249311447,0.15445095300674438,0.19760866463184357,0.02492857351899147,-0.042476359754800797,-0.19668768346309662,0.9792283773422241,0.0,0.0,0.0,0.0,0.0,0.0
1416,1724913620882283670,-0.07708447426557541,0.15493109822273254,0.19780178368091583,0.025769272819161415,-0.041820116341114044,-0.19726788997650146,0.9791182279586792,0.0,0.0,0.0,0.0,0.0,0.0
1418,1724913620885918696,-0.07740366458892822,0.1551647037267685,0.19785989820957184,0.027917232364416122,-0.04263056442141533,-0.19670596718788147,0.9791373610496521,0.0,0.0,0.0,0.0,0.0,0.0
1420,1724913620896558928,-0.07776600867509842,0.15551114082336426,0.19854781031608582,0.02875017188489437,-0.039920873939991,-0.19724924862384796,0.9791182279586792,0.0,0.0,0.0,0.0,0.0,0.0
1422,1724913620907347749,-0.07816754281520844,0.15567892789840698,0.19876502454280853,0.028444847092032433,-0.03985385224223137,-0.19708409905433655,0.9791631102561951,0.0,0.0,0.0,0.0,0.0,0.0
1424,1724913620916434193,-0.07854025065898895,0.15570975840091705,0.19853812456130981,0.027935529127717018,-0.04302694648504257,-0.1961146742105484,0.9792381525039673,0.0,0.0,0.0,0.0,0.0,0.0
1426,1724913620925073957,-0.07895591855049133,0.15578757226467133,0.19864396750926971,0.02810840867459774,-0.043369896709918976,-0.195583313703537,0.9793244004249573,0.0,0.0,0.0,0.0,0.0,0.0
1428,1724913620935906367,-0.07938293367624283,0.15587976574897766,0.19875673949718475,0.028607560321688652,-0.04381779581308365,-0.195327490568161,0.9793410897254944,0.0,0.0,0.0,0.0,0.0,0.0
1430,1724913620945340430,-0.07983129471540451,0.1559019237756729,0.19887298345565796,0.029199400916695595,-0.04454262554645538,-0.1948113739490509,0.979393720626831,0.0,0.0,0.0,0.0,0.0,0.0
1432,1724913620955755844,-0.08032025396823883,0.1559155136346817,0.19902019202709198,0.02870117500424385,-0.04494209960103035,-0.19429312646389008,0.9794930815696716,0.0,0.0,0.0,0.0,0.0,0.0
1434,1724913620965379854,-0.08078939467668533,0.15597301721572876,0.19931738078594208,0.02836710214614868,-0.044796381145715714,-0.19395481050014496,0.979576587677002,0.0,0.0,0.0,0.0,0.0,0.0
1436,1724913620979616425,-0.08119461685419083,0.15609940886497498,0.20038937032222748,0.028903359547257423,-0.03988763689994812,-0.19449684023857117,0.9796655774116516,0.0,0.0,0.0,0.0,0.0,0.0
1438,1724913620987083046,-0.08158992975950241,0.15633508563041687,0.20084786415100098,0.02974817156791687,-0.03863721713423729,-0.19521699845790863,0.9795472025871277,0.0,0.0,0.0,0.0,0.0,0.0
1440,1724913620995468298,-0.0819639191031456,0.15639008581638336,0.20064911246299744,0.030739204958081245,-0.04135773703455925,-0.1948818862438202,0.9794721603393555,0.0,0.0,0.0,0.0,0.0,0.0
1442,1724913621005498097,-0.08241254836320877,0.15643666684627533,0.20093050599098206,0.03195291385054588,-0.041618626564741135,-0.19471050798892975,0.97945636510849,0.0,0.0,0.0,0.0,0.0,0.0
1444,1724913621015527165,-0.08293236792087555,0.1564437448978424,0.2011244148015976,0.03352634608745575,-0.042265862226486206,-0.1938839852809906,0.9795399904251099,0.0,0.0,0.0,0.0,0.0,0.0
1446,1724913621025303048,-0.0835617259144783,0.15644431114196777,0.2013329416513443,0.033736251294612885,-0.042732082307338715,-0.1931602507829666,0.9796555042266846,0.0,0.0,0.0,0.0,0.0,0.0
1448,1724913621035192641,-0.08451244235038757,0.15635348856449127,0.20140457153320312,0.032693907618522644,-0.043082330375909805,-0.19119563698768616,0.9800608158111572,0.0,0.0,0.0,0.0,0.0,0.0
1450,1724913621044992155,-0.08527296781539917,0.15637367963790894,0.20156186819076538,0.028544001281261444,-0.04343508183956146,-0.18957524001598358,0.9804896712303162,0.0,0.0,0.0,0.0,0.0,0.0
1452,1724913621064345053,-0.08574077486991882,0.15671145915985107,0.20212997496128082,0.03194025903940201,-0.0432315319776535,-0.19019699096679688,0.980273425579071,0.0,0.0,0.0,0.0,0.0,0.0
1454,1724913621065223130,-0.08628678321838379,0.1570868045091629,0.20229509472846985,0.0331479087471962,-0.04417306184768677,-0.19051460921764374,0.9801297187805176,0.0,0.0,0.0,0.0,0.0,0.0
1456,1724913621076403689,-0.08683297038078308,0.15735426545143127,0.2025437206029892,0.03298860415816307,-0.04641101509332657,-0.19057632982730865,0.9800196886062622,0.0,0.0,0.0,0.0,0.0,0.0
1458,1724913621086953632,-0.0875200554728508,0.15756139159202576,0.2026224434375763,0.03075980953872204,-0.04817028343677521,-0.18963627517223358,0.9801896214485168,0.0,0.0,0.0,0.0,0.0,0.0
1460,1724913621095163261,-0.08808815479278564,0.1579795926809311,0.20302121341228485,0.032988835126161575,-0.04874291643500328,-0.19012950360774994,0.9799932837486267,0.0,0.0,0.0,0.0,0.0,0.0
1462,1724913621107505778,-0.08864222466945648,0.15856361389160156,0.2034674435853958,0.03488783538341522,-0.05002981424331665,-0.1912992149591446,0.9796349406242371,0.0,0.0,0.0,0.0,0.0,0.0
1464,1724913621116148102,-0.08934000134468079,0.1590942144393921,0.20365163683891296,0.03368763253092766,-0.05096129700541496,-0.1916721910238266,0.9795559644699097,0.0,0.0,0.0,0.0,0.0,0.0
1466,1724913621125404355,-0.09000696241855621,0.15951338410377502,0.20395052433013916,0.03368247672915459,-0.0521366149187088,-0.19195736944675446,0.9794384241104126,0.0,0.0,0.0,0.0,0.0,0.0
1468,1724913621136357790,-0.09056085348129272,0.15994110703468323,0.20435571670532227,0.0345766544342041,-0.053157102316617966,-0.19238479435443878,0.9792686104774475,0.0,0.0,0.0,0.0,0.0,0.0
1470,1724913621146176924,-0.09109596908092499,0.16026902198791504,0.20468077063560486,0.035471443086862564,-0.05448107048869133,-0.19265484809875488,0.9791106581687927,0.0,0.0,0.0,0.0,0.0,0.0
1472,1724913621158659642,-0.09178420901298523,0.16042771935462952,0.20513677597045898,0.03412751853466034,-0.05558845028281212,-0.19246001541614532,0.9791346192359924,0.0,0.0,0.0,0.0,0.0,0.0
1474,1724913621165943658,-0.09251248091459274,0.1606224775314331,0.20554250478744507,0.03395099937915802,-0.05661153420805931,-0.19262243807315826,0.9790500998497009,0.0,0.0,0.0,0.0,0.0,0.0
1476,1724913621175978059,-0.09304152429103851,0.16098056733608246,0.2063325047492981,0.03837623447179794,-0.057172685861587524,-0.19489970803260803,0.9784031510353088,0.0,0.0,0.0,0.0,0.0,0.0
1478,1724913621185966784,-0.09365178644657135,0.16134142875671387,0.20686084032058716,0.04085361212491989,-0.057370372116565704,-0.1964634358882904,0.9779784083366394,0.0,0.0,0.0,0.0,0.0,0.0
1480,1724913621195638695,-0.09442160278558731,0.16153880953788757,0.20740480720996857,0.0400526225566864,-0.0584200844168663,-0.19749566912651062,0.9777414202690125,0.0,0.0,0.0,0.0,0.0,0.0
1482,1724913621207426169,-0.09517332166433334,0.16160203516483307,0.2078627049922943,0.03981653228402138,-0.05985120311379433,-0.19747959077358246,0.9776678085327148,0.0,0.0,0.0,0.0,0.0,0.0
1484,1724913621315910832,-0.09573091566562653,0.1616181582212448,0.2082870751619339,0.04128338396549225,-0.06059516221284866,-0.1969844102859497,0.9776610136032104,0.0,0.0,0.0,0.0,0.0,0.0
1486,1724913621316722524,-0.09646564722061157,0.1617472916841507,0.2086888551712036,0.04111899062991142,-0.060804951936006546,-0.1967477649450302,0.9777025580406189,0.0,0.0,0.0,0.0,0.0,0.0
1488,1724913621316969898,-0.09716951847076416,0.16188529133796692,0.20901601016521454,0.04212462529540062,-0.061266425997018814,-0.19685009121894836,0.9776104092597961,0.0,0.0,0.0,0.0,0.0,0.0
1490,1724913621317282105,-0.09785211086273193,0.16192026436328888,0.2090616673231125,0.0420420877635479,-0.06355941295623779,-0.19616906344890594,0.9776043891906738,0.0,0.0,0.0,0.0,0.0,0.0
1492,1724913621317653015,-0.0985080748796463,0.16212689876556396,0.2092154175043106,0.040866922587156296,-0.06298644095659256,-0.1960519552230835,0.9777147769927979,0.0,0.0,0.0,0.0,0.0,0.0
1494,1724913621317940359,-0.0990607738494873,0.16218188405036926,0.20952683687210083,0.037187233567237854,-0.06347756832838058,-0.1966685652732849,0.9777060747146606,0.0,0.0,0.0,0.0,0.0,0.0
1496,1724913621318199268,-0.09943459928035736,0.16223521530628204,0.20976044237613678,0.036786213517189026,-0.06337541341781616,-0.19713354110717773,0.9776343107223511,0.0,0.0,0.0,0.0,0.0,0.0
1498,1724913621318453666,-0.09963486343622208,0.16227573156356812,0.20986880362033844,0.03785674646496773,-0.0637340396642685,-0.19720666110515594,0.9775552749633789,0.0,0.0,0.0,0.0,0.0,0.0
1500,1724913621338715088,-0.09982869774103165,0.1623034030199051,0.2100347876548767,0.03806087002158165,-0.06319510191679001,-0.1973542869091034,0.9775526523590088,0.0,0.0,0.0,0.0,0.0,0.0
1502,1724913621340101127,-0.09995751082897186,0.16236574947834015,0.20995810627937317,0.03794983774423599,-0.06267939507961273,-0.19734786450862885,0.9775913953781128,0.0,0.0,0.0,0.0,0.0,0.0
1504,1724913621341079511,-0.10005538165569305,0.16246257722377777,0.20964914560317993,0.03681648522615433,-0.06153317913413048,-0.19704829156398773,0.9777680039405823,0.0,0.0,0.0,0.0,0.0,0.0
1506,1724913621341582070,-0.09997443109750748,0.1625816822052002,0.20925945043563843,0.036295004189014435,-0.06088005751371384,-0.19686007499694824,0.9778662323951721,0.0,0.0,0.0,0.0,0.0,0.0
1508,1724913621341833690,-0.09982134401798248,0.16274257004261017,0.20868797600269318,0.035950664430856705,-0.060144759714603424,-0.19637858867645264,0.9780213236808777,0.0,0.0,0.0,0.0,0.0,0.0
1510,1724913621345142814,-0.09939244389533997,0.1628299057483673,0.20803770422935486,0.039091166108846664,-0.060657650232315063,-0.1960631161928177,0.9779325127601624,0.0,0.0,0.0,0.0,0.0,0.0
1512,1724913621355045244,-0.09905660152435303,0.16286756098270416,0.2074815034866333,0.03841621056199074,-0.060690175741910934,-0.19588124752044678,0.9779936075210571,0.0,0.0,0.0,0.0,0.0,0.0
1514,1724913621365533120,-0.09871382266283035,0.16308742761611938,0.20668096840381622,0.03584267571568489,-0.059016287326812744,-0.19502127170562744,0.9783655405044556,0.0,0.0,0.0,0.0,0.0,0.0
1516,1724913621375817863,-0.0980568453669548,0.16316695511341095,0.20646129548549652,0.03558382764458656,-0.057559575885534286,-0.196334570646286,0.9781990647315979,0.0,0.0,0.0,0.0,0.0,0.0
1518,1724913621385978691,-0.09747903048992157,0.16345030069351196,0.20572489500045776,0.034758083522319794,-0.05661787837743759,-0.19706891477108002,0.9781361222267151,0.0,0.0,0.0,0.0,0.0,0.0
1520,1724913621396521969,-0.096834197640419,0.16363821923732758,0.20485998690128326,0.03339153528213501,-0.05681369826197624,-0.19740153849124908,0.9781052470207214,0.0,0.0,0.0,0.0,0.0,0.0
1522,1724913621405242728,-0.09623481333255768,0.16383546590805054,0.20384889841079712,0.03290634602308273,-0.05656328797340393,-0.19677816331386566,0.9782618284225464,0.0,0.0,0.0,0.0,0.0,0.0
1524,1724913621415567436,-0.09547527134418488,0.16412408649921417,0.2033107727766037,0.03355415165424347,-0.0552079863846302,-0.19777756929397583,0.9781156778335571,0.0,0.0,0.0,0.0,0.0,0.0
1526,1724913621425044946,-0.09477224946022034,0.16437724232673645,0.20282040536403656,0.03368454799056053,-0.052814289927482605,-0.1986306607723236,0.9780705571174622,0.0,0.0,0.0,0.0,0.0,0.0
1528,1724913621495318772,-0.09422574937343597,0.16453421115875244,0.20221276581287384,0.03260037302970886,-0.050410252064466476,-0.1986830234527588,0.9782235026359558,0.0,0.0,0.0,0.0,0.0,0.0
1530,1724913621495787311,-0.09345979243516922,0.1645861268043518,0.20168064534664154,0.03254713863134384,-0.04860886558890343,-0.1985522210597992,0.9783430099487305,0.0,0.0,0.0,0.0,0.0,0.0
1532,1724913621496158076,-0.0927995815873146,0.1645587831735611,0.20144130289554596,0.031100492924451828,-0.0466456301510334,-0.19863228499889374,0.9784693121910095,0.0,0.0,0.0,0.0,0.0,0.0
1534,1724913621496534136,-0.09214477986097336,0.16455276310443878,0.20113113522529602,0.029155081138014793,-0.04434874281287193,-0.1986115276813507,0.9786402583122253,0.0,0.0,0.0,0.0,0.0,0.0
1536,1724913621496919973,-0.09137040376663208,0.16452576220035553,0.20081999897956848,0.02857545018196106,-0.042131755501031876,-0.19828906655311584,0.9788206219673157,0.0,0.0,0.0,0.0,0.0,0.0
1538,1724913621497288541,-0.09065626561641693,0.16449467837810516,0.20043157041072845,0.027447020635008812,-0.04062332212924957,-0.19806666672229767,0.978961706161499,0.0,0.0,0.0,0.0,0.0,0.0
1540,1724913621497659267,-0.08998766541481018,0.16452950239181519,0.20004884898662567,0.025823066011071205,-0.039343640208244324,-0.19811299443244934,0.9790488481521606,0.0,0.0,0.0,0.0,0.0,0.0
1542,1724913621509503938,-0.08936942368745804,0.16451407968997955,0.19945299625396729,0.022848578169941902,-0.03821590170264244,-0.19774764776229858,0.9792413115501404,0.0,0.0,0.0,0.0,0.0,0.0
1544,1724913621515288670,-0.08850380778312683,0.16452182829380035,0.19895467162132263,0.023523801937699318,-0.03650987148284912,-0.197885200381279,0.9792625308036804,0.0,0.0,0.0,0.0,0.0,0.0
1546,1724913621525225233,-0.08785120397806168,0.16441497206687927,0.19844825565814972,0.020699601620435715,-0.03471166267991066,-0.19716671109199524,0.9795365929603577,0.0,0.0,0.0,0.0,0.0,0.0
1548,1724913621535497672,-0.08714692294597626,0.16421650350093842,0.1979060024023056,0.017533835023641586,-0.03317393362522125,-0.19617223739624023,0.9798513054847717,0.0,0.0,0.0,0.0,0.0,0.0
1550,1724913621545173090,-0.08632391691207886,0.16403266787528992,0.19777388870716095,0.016823504120111465,-0.02889479324221611,-0.19571085274219513,0.9800915122032166,0.0,0.0,0.0,0.0,0.0,0.0
1552,1724913621560572640,-0.08537520468235016,0.164053812623024,0.1970372498035431,0.018521105870604515,-0.028254510834813118,-0.1970035433769226,0.9798205494880676,0.0,0.0,0.0,0.0,0.0,0.0
1554,1724913621565220441,-0.08447408676147461,0.16417737305164337,0.1966158151626587,0.017822174355387688,-0.025870410725474358,-0.19865715503692627,0.9795655012130737,0.0,0.0,0.0,0.0,0.0,0.0
1556,1724913621574898669,-0.08358705043792725,0.16400527954101562,0.1958102434873581,0.01427289005368948,-0.023073218762874603,-0.1976422369480133,0.9798987507820129,0.0,0.0,0.0,0.0,0.0,0.0
1558,1724913621586439257,-0.08240510523319244,0.1641835868358612,0.19566506147384644,0.013651260174810886,-0.01823817938566208,-0.1993948370218277,0.9796544313430786,0.0,0.0,0.0,0.0,0.0,0.0
1560,1724913621594925365,-0.0815260261297226,0.1643194556236267,0.19459125399589539,0.012157537043094635,-0.019781313836574554,-0.19985294342041016,0.9795507788658142,0.0,0.0,0.0,0.0,0.0,0.0
1562,1724913621605105528,-0.08057282119989395,0.16475778818130493,0.19437867403030396,0.012326299212872982,-0.01810484193265438,-0.20194436609745026,0.9791521430015564,0.0,0.0,0.0,0.0,0.0,0.0
1564,1724913621615316478,-0.07957236468791962,0.1651614010334015,0.19468532502651215,0.010722272098064423,-0.013048900291323662,-0.20353031158447266,0.9789230227470398,0.0,0.0,0.0,0.0,0.0,0.0
1566,1724913621624892999,-0.0786820501089096,0.1652710735797882,0.19436655938625336,0.010041761212050915,-0.011758552864193916,-0.2031826227903366,0.9790187478065491,0.0,0.0,0.0,0.0,0.0,0.0
1568,1724913621635344949,-0.07763825356960297,0.16531482338905334,0.19417595863342285,0.00878587644547224,-0.010629275813698769,-0.20261770486831665,0.9791607856750488,0.0,0.0,0.0,0.0,0.0,0.0
1570,1724913621644810298,-0.07690824568271637,0.16564683616161346,0.194025456905365,0.006448087748140097,-0.009961011819541454,-0.2029813975095749,0.9791106581687927,0.0,0.0,0.0,0.0,0.0,0.0
1572,1724913621656490325,-0.07636956870555878,0.16612085700035095,0.19395513832569122,0.004950726870447397,-0.009015506133437157,-0.20341642200946808,0.9790382981300354,0.0,0.0,0.0,0.0,0.0,0.0
1574,1724913621665432365,-0.07594369351863861,0.16659040749073029,0.1939118504524231,0.004111231304705143,-0.008162083104252815,-0.20363017916679382,0.9790052175521851,0.0,0.0,0.0,0.0,0.0,0.0
1576,1724913621674941337,-0.07561120390892029,0.16681501269340515,0.19371925294399261,0.004298828076571226,-0.008098497986793518,-0.20290060341358185,0.9791563749313354,0.0,0.0,0.0,0.0,0.0,0.0
1578,1724913621685140254,-0.07541966438293457,0.16706421971321106,0.1936873346567154,0.004699241369962692,-0.008284296840429306,-0.20287996530532837,0.9791573882102966,0.0,0.0,0.0,0.0,0.0,0.0
1580,1724913621695332897,-0.07531659305095673,0.16721618175506592,0.1935780942440033,0.005885101389139891,-0.009199030697345734,-0.20282725989818573,0.9791536927223206,0.0,0.0,0.0,0.0,0.0,0.0
1582,1724913621706112765,-0.0753883421421051,0.1673833429813385,0.1935141235589981,0.006251440849155188,-0.009465706534683704,-0.202930748462677,0.9791274666786194,0.0,0.0,0.0,0.0,0.0,0.0
1584,1724913621714958153,-0.07580825686454773,0.16774781048297882,0.1934519112110138,0.006502907257527113,-0.007866108790040016,-0.20375360548496246,0.9789690375328064,0.0,0.0,0.0,0.0,0.0,0.0
1586,1724913621726560819,-0.07600446045398712,0.16781693696975708,0.193464457988739,0.0060914005152881145,-0.007738100830465555,-0.20379799604415894,0.9789634943008423,0.0,0.0,0.0,0.0,0.0,0.0
1588,1724913621735809244,-0.07629109919071198,0.16782036423683167,0.1933451145887375,0.005331181921064854,-0.007833926007151604,-0.20386284589767456,0.9789536595344543,0.0,0.0,0.0,0.0,0.0,0.0
1590,1724913621744817094,-0.0765371099114418,0.1678079217672348,0.19334347546100616,0.004211113788187504,-0.00737925386056304,-0.20397385954856873,0.9789395332336426,0.0,0.0,0.0,0.0,0.0,0.0
1592,1724913621757852302,-0.07673048973083496,0.16773511469364166,0.19335994124412537,0.0034889259841293097,-0.007149509619921446,-0.20419448614120483,0.9788980484008789,0.0,0.0,0.0,0.0,0.0,0.0
1594,1724913621765272218,-0.07685840129852295,0.16759273409843445,0.19336427748203278,0.003544215112924576,-0.006913392338901758,-0.2040863335132599,0.9789221286773682,0.0,0.0,0.0,0.0,0.0,0.0
1596,1724913621775430484,-0.07693085074424744,0.1674966812133789,0.1934370994567871,0.004089804831892252,-0.00648524472489953,-0.20422354340553284,0.9788942933082581,0.0,0.0,0.0,0.0,0.0,0.0
1598,1724913621785422556,-0.07692809402942657,0.16745661199092865,0.19316540658473969,0.00201654271222651,-0.006722528021782637,-0.20397335290908813,0.9789513349533081,0.0,0.0,0.0,0.0,0.0,0.0
1600,1724913621794919162,-0.0768953487277031,0.16736064851284027,0.19308796525001526,0.00263859611004591,-0.006994893774390221,-0.20381732285022736,0.9789804220199585,0.0,0.0,0.0,0.0,0.0,0.0
1602,1724913621811440015,-0.07678814977407455,0.16723957657814026,0.19302955269813538,0.004336848389357328,-0.007414229214191437,-0.20330752432346344,0.9790773391723633,0.0,0.0,0.0,0.0,0.0,0.0
1604,1724913621815430790,-0.07672975957393646,0.16690318286418915,0.19246667623519897,0.005038919858634472,-0.01124122366309166,-0.2012934535741806,0.9794535040855408,0.0,0.0,0.0,0.0,0.0,0.0
1606,1724913621831417639,-0.07658420503139496,0.16677847504615784,0.19243982434272766,0.006146094296127558,-0.011357641778886318,-0.20037125051021576,0.9796350002288818,0.0,0.0,0.0,0.0,0.0,0.0
1608,1724913621835748090,-0.07647551596164703,0.16670474410057068,0.19244039058685303,0.0065011256374418736,-0.011239948682487011,-0.19993728399276733,0.9797226786613464,0.0,0.0,0.0,0.0,0.0,0.0
1610,1724913621845346532,-0.07637423276901245,0.16664689779281616,0.19242750108242035,0.006655173841863871,-0.01109952200204134,-0.19929249584674835,0.9798546433448792,0.0,0.0,0.0,0.0,0.0,0.0
1612,1724913621854921719,-0.07626987993717194,0.16651466488838196,0.19244176149368286,0.006721931975334883,-0.011203278787434101,-0.19839385151863098,0.9800353646278381,0.0,0.0,0.0,0.0,0.0,0.0
1614,1724913621866283318,-0.07617983222007751,0.16644534468650818,0.1921948343515396,0.008176648057997227,-0.011888687498867512,-0.19798362255096436,0.9800991415977478,0.0,0.0,0.0,0.0,0.0,0.0
1616,1724913621874923820,-0.07637737691402435,0.16664265096187592,0.19184963405132294,0.00930666271597147,-0.012126647867262363,-0.19941392540931702,0.9797962307929993,0.0,0.0,0.0,0.0,0.0,0.0
1618,1724913621885600860,-0.07637929916381836,0.16654859483242035,0.19172587990760803,0.010694974102079868,-0.012550346553325653,-0.19877830147743225,0.9799057841300964,0.0,0.0,0.0,0.0,0.0,0.0
1620,1724913621914185754,-0.07638785243034363,0.16654135286808014,0.1918732076883316,0.011093069799244404,-0.012336504645645618,-0.1991959512233734,0.9798192381858826,0.0,0.0,0.0,0.0,0.0,0.0
1622,1724913621914702355,-0.07639986276626587,0.16652175784111023,0.191689133644104,0.011465930379927158,-0.012882537208497524,-0.19904418289661407,0.9798387289047241,0.0,0.0,0.0,0.0,0.0,0.0
1624,1724913621915472536,-0.07638981938362122,0.16653254628181458,0.1915278136730194,0.01132575049996376,-0.01364421471953392,-0.1993088275194168,0.9797763228416443,0.0,0.0,0.0,0.0,0.0,0.0
1626,1724913621925109235,-0.07642154395580292,0.1664772927761078,0.19175118207931519,0.011315626092255116,-0.01309344731271267,-0.19943827390670776,0.9797576069831848,0.0,0.0,0.0,0.0,0.0,0.0
1628,1724913621935448981,-0.07642039656639099,0.16651755571365356,0.19161483645439148,0.011682405136525631,-0.013249286450445652,-0.19935229420661926,0.979768693447113,0.0,0.0,0.0,0.0,0.0,0.0
1630,1724913621945413136,-0.07655173540115356,0.16660447418689728,0.19172441959381104,0.007938305847346783,-0.011788815259933472,-0.19868241250514984,0.9799609780311584,0.0,0.0,0.0,0.0,0.0,0.0
1632,1724913621955318475,-0.07652879506349564,0.16647647321224213,0.19146841764450073,0.010384797118604183,-0.01275123655796051,-0.1976521760225296,0.9801342487335205,0.0,0.0,0.0,0.0,0.0,0.0
1634,1724913621965371675,-0.07664386928081512,0.1662176102399826,0.19158561527729034,0.009272029623389244,-0.011486485600471497,-0.19605836272239685,0.9804811477661133,0.0,0.0,0.0,0.0,0.0,0.0
1636,1724913621975790620,-0.07671806216239929,0.16621893644332886,0.1916622668504715,0.009288148954510689,-0.010316995903849602,-0.19578036665916443,0.9805495142936707,0.0,0.0,0.0,0.0,0.0,0.0
1638,1724913621985028973,-0.07676151394844055,0.16620829701423645,0.1917620599269867,0.009672977030277252,-0.009785913862287998,-0.19620701670646667,0.9804659485816956,0.0,0.0,0.0,0.0,0.0,0.0
1640,1724913621995543315,-0.07675695419311523,0.16623559594154358,0.19183188676834106,0.009809063747525215,-0.009656166657805443,-0.196641743183136,0.9803788661956787,0.0,0.0,0.0,0.0,0.0,0.0
1642,1724913622008513143,-0.07679198682308197,0.16620273888111115,0.19178807735443115,0.009823931381106377,-0.009654532186686993,-0.19633787870407104,0.9804396033287048,0.0,0.0,0.0,0.0,0.0,0.0
1644,1724913622015468715,-0.07680335640907288,0.1661507785320282,0.19172504544258118,0.010049816220998764,-0.009698240086436272,-0.1958717256784439,0.9805301427841187,0.0,0.0,0.0,0.0,0.0,0.0
1646,1724913622025835075,-0.07682415843009949,0.16612458229064941,0.19169305264949799,0.010002723895013332,-0.00993837509304285,-0.19543537497520447,0.9806151986122131,0.0,0.0,0.0,0.0,0.0,0.0
1648,1724913622043768325,-0.07684072107076645,0.166115865111351,0.19168390333652496,0.009969506412744522,-0.010020855814218521,-0.19546669721603394,0.9806084632873535,0.0,0.0,0.0,0.0,0.0,0.0
1650,1724913622045056287,-0.07684791088104248,0.16609176993370056,0.19165123999118805,0.010146978311240673,-0.010074563324451447,-0.19499076902866364,0.9807008504867554,0.0,0.0,0.0,0.0,0.0,0.0
1652,1724913622056527088,-0.07685398310422897,0.166129007935524,0.1917385756969452,0.010165966115891933,-0.01001729629933834,-0.19569778442382812,0.9805604219436646,0.0,0.0,0.0,0.0,0.0,0.0
1654,1724913622065246003,-0.0768529549241066,0.16614510118961334,0.19170507788658142,0.0104127312079072,-0.010166640393435955,-0.1956205666065216,0.9805717468261719,0.0,0.0,0.0,0.0,0.0,0.0
1656,1724913622075463883,-0.07684412598609924,0.16625744104385376,0.1920032501220703,0.009089557453989983,-0.01044412236660719,-0.1972321718931198,0.9802590012550354,0.0,0.0,0.0,0.0,0.0,0.0
1658,1724913622085790460,-0.0767262727022171,0.16619500517845154,0.1918877810239792,0.010590902529656887,-0.01073195319622755,-0.19634990394115448,0.9804179668426514,0.0,0.0,0.0,0.0,0.0,0.0
1660,1724913622095167922,-0.07674852013587952,0.16610723733901978,0.19181935489177704,0.01003328152000904,-0.010435224510729313,-0.19549515843391418,0.9805977940559387,0.0,0.0,0.0,0.0,0.0,0.0
1662,1724913622105123626,-0.07675743848085403,0.1660706251859665,0.19180120527744293,0.00953714270144701,-0.010509170591831207,-0.1951444447040558,0.9806718230247498,0.0,0.0,0.0,0.0,0.0,0.0
1664,1724913622115833078,-0.07673435658216476,0.16606903076171875,0.19182638823986053,0.009629443287849426,-0.010507791303098202,-0.19584959745407104,0.9805303812026978,0.0,0.0,0.0,0.0,0.0,0.0
1666,1724913622124825181,-0.07671207189559937,0.16612814366817474,0.191693976521492,0.011465422809123993,-0.009461630135774612,-0.19664974510669708,0.9803611636161804,0.0,0.0,0.0,0.0,0.0,0.0
1668,1724913622135647447,-0.07684647291898727,0.16610069572925568,0.19150707125663757,0.01103922724723816,-0.008409466594457626,-0.19497956335544586,0.9807091951370239,0.0,0.0,0.0,0.0,0.0,0.0
1670,1724913622170463507,-0.07694049924612045,0.16609203815460205,0.19154207408428192,0.010893844068050385,-0.008545187301933765,-0.1956581026315689,0.9805744886398315,0.0,0.0,0.0,0.0,0.0,0.0
1672,1724913622171070210,-0.07680261135101318,0.166385680437088,0.19168904423713684,0.014355169609189034,-0.007702394388616085,-0.19722574949264526,0.980222761631012,0.0,0.0,0.0,0.0,0.0,0.0
1674,1724913622171395728,-0.07721709460020065,0.1665932685136795,0.19222088158130646,0.004760992247611284,-0.005713305436074734,-0.19990552961826324,0.9797869324684143,0.0,0.0,0.0,0.0,0.0,0.0
1676,1724913622174854820,-0.07734835892915726,0.16689884662628174,0.19223256409168243,0.006604508496820927,-0.0012453501112759113,-0.20248351991176605,0.9792625904083252,0.0,0.0,0.0,0.0,0.0,0.0
1678,1724913622185253909,-0.07702335715293884,0.16652558743953705,0.19216786324977875,0.004437408410012722,-0.007887350395321846,-0.19854508340358734,0.9800500273704529,0.0,0.0,0.0,0.0,0.0,0.0
1680,1724913622195322533,-0.07671582698822021,0.16656944155693054,0.1921902447938919,0.006309796590358019,-0.011630810797214508,-0.1978781372308731,0.980137288570404,0.0,0.0,0.0,0.0,0.0,0.0
1682,1724913622207491553,-0.0766330361366272,0.1666281670331955,0.19232964515686035,0.0075276936404407024,-0.013229665346443653,-0.1990608423948288,0.9798689484596252,0.0,0.0,0.0,0.0,0.0,0.0
1684,1724913622215747067,-0.07646546512842178,0.1666882038116455,0.19224150478839874,0.008141615428030491,-0.013486689887940884,-0.19962425529956818,0.9797459244728088,0.0,0.0,0.0,0.0,0.0,0.0
1686,1724913622225639265,-0.07656846940517426,0.16671250760555267,0.19222429394721985,0.006734086666256189,-0.012843180447816849,-0.19951088726520538,0.9797883033752441,0.0,0.0,0.0,0.0,0.0,0.0
1688,1724913622235083936,-0.07649189233779907,0.16723912954330444,0.1931295096874237,0.006341648753732443,-0.009662067517638206,-0.2023138850927353,0.9792525768280029,0.0,0.0,0.0,0.0,0.0,0.0
1690,1724913622245033800,-0.07631024718284607,0.16716890037059784,0.1928579956293106,0.006841382477432489,-0.010703095234930515,-0.2013147473335266,0.9794442057609558,0.0,0.0,0.0,0.0,0.0,0.0
1692,1724913622257754122,-0.0762723833322525,0.16756010055541992,0.19327068328857422,0.008983553387224674,-0.007403415162116289,-0.2040383219718933,0.9788936972618103,0.0,0.0,0.0,0.0,0.0,0.0
1694,1724913622267180521,-0.07616327702999115,0.1671985536813736,0.1925351768732071,0.011661399155855179,-0.01103245746344328,-0.20140059292316437,0.9793774485588074,0.0,0.0,0.0,0.0,0.0,0.0
1696,1724913622277820006,-0.07622935622930527,0.16721732914447784,0.1925792694091797,0.011223315261304379,-0.011264470405876637,-0.2019605189561844,0.9792646169662476,0.0,0.0,0.0,0.0,0.0,0.0
1698,1724913622296170510,-0.07627828419208527,0.16722255945205688,0.19270896911621094,0.010703712701797485,-0.011061115190386772,-0.20230640470981598,0.9792013168334961,0.0,0.0,0.0,0.0,0.0,0.0
1700,1724913622296426172,-0.0764213502407074,0.16747069358825684,0.19322337210178375,0.008276431821286678,-0.008859931491315365,-0.20384934544563293,0.9789272546768188,0.0,0.0,0.0,0.0,0.0,0.0
1702,1724913622329567348,-0.07642956078052521,0.16749431192874908,0.1932941973209381,0.007938561961054802,-0.008462595753371716,-0.20420314371585846,0.9788597822189331,0.0,0.0,0.0,0.0,0.0,0.0
1704,1724913622330058159,-0.07647105306386948,0.16749906539916992,0.19328436255455017,0.0077431052923202515,-0.008501107804477215,-0.20411939918994904,0.9788784980773926,0.0,0.0,0.0,0.0,0.0,0.0
1706,1724913622330549453,-0.07650840282440186,0.1671413779258728,0.19258563220500946,0.007949241437017918,-0.010972913354635239,-0.20209401845932007,0.9792724251747131,0.0,0.0,0.0,0.0,0.0,0.0
1708,1724913622337098223,-0.07653219997882843,0.16686701774597168,0.19221153855323792,0.008124640211462975,-0.012229024432599545,-0.2009432017803192,0.9794929623603821,0.0,0.0,0.0,0.0,0.0,0.0
1710,1724913622345809940,-0.07655256241559982,0.16691242158412933,0.19232302904129028,0.00793047621846199,-0.011851859278976917,-0.20125997066497803,0.979434072971344,0.0,0.0,0.0,0.0,0.0,0.0
1712,1724913622355454695,-0.07646432518959045,0.1668396294116974,0.19224999845027924,0.008845447562634945,-0.012341652996838093,-0.20063425600528717,0.9795485734939575,0.0,0.0,0.0,0.0,0.0,0.0
1714,1724913622367075467,-0.07647529244422913,0.16687604784965515,0.19226372241973877,0.009368848986923695,-0.012338063679635525,-0.2007085084915161,0.979528546333313,0.0,0.0,0.0,0.0,0.0,0.0
1716,1724913622375154387,-0.07649165391921997,0.1668877750635147,0.19231602549552917,0.009106113575398922,-0.012252424843609333,-0.2007932960987091,0.9795147180557251,0.0,0.0,0.0,0.0,0.0,0.0
1718,1724913622387451359,-0.07655687630176544,0.16693194210529327,0.19236087799072266,0.008511663414537907,-0.011828222312033176,-0.20119036734104156,0.9794437885284424,0.0,0.0,0.0,0.0,0.0,0.0
1720,1724913622397784934,-0.07653327286243439,0.16705173254013062,0.19255143404006958,0.008352288976311684,-0.010605310089886189,-0.2020091563463211,0.9792906641960144,0.0,0.0,0.0,0.0,0.0,0.0
1722,1724913622404930299,-0.07651916146278381,0.16705575585365295,0.19252854585647583,0.00838533602654934,-0.010663372464478016,-0.20190390944480896,0.9793114066123962,0.0,0.0,0.0,0.0,0.0,0.0
1724,1724913622415858499,-0.07650104910135269,0.16711293160915375,0.1925804316997528,0.00871630571782589,-0.010397038422524929,-0.20220400393009186,0.9792494177818298,0.0,0.0,0.0,0.0,0.0,0.0
1726,1724913622426058729,-0.07648099958896637,0.16709914803504944,0.19258612394332886,0.009015871211886406,-0.01041015051305294,-0.20204536616802216,0.9792793989181519,0.0,0.0,0.0,0.0,0.0,0.0
1728,1724913622435624666,-0.07650180906057358,0.16711318492889404,0.19260133802890778,0.008868074975907803,-0.010476534254848957,-0.20212537050247192,0.9792634844779968,0.0,0.0,0.0,0.0,0.0,0.0
1730,1724913622445655031,-0.07646194100379944,0.167134091258049,0.19262108206748962,0.009320253506302834,-0.01037459447979927,-0.20229081809520721,0.9792262315750122,0.0,0.0,0.0,0.0,0.0,0.0
1732,1724913622454957471,-0.07641791552305222,0.1672353595495224,0.19272218644618988,0.009345577098429203,-0.010240402072668076,-0.20248597860336304,0.97918701171875,0.0,0.0,0.0,0.0,0.0,0.0
1734,1724913622465451106,-0.0764036625623703,0.16720406711101532,0.1926783323287964,0.008956877514719963,-0.009982174262404442,-0.20204347372055054,0.9792847633361816,0.0,0.0,0.0,0.0,0.0,0.0
1736,1724913622504721484,-0.07650969922542572,0.16693326830863953,0.19226805865764618,0.007526936009526253,-0.011361503973603249,-0.1997261941432953,0.9797569513320923,0.0,0.0,0.0,0.0,0.0,0.0
1738,1724913622505197086,-0.07660144567489624,0.16696149110794067,0.19230200350284576,0.005648558959364891,-0.011160103604197502,-0.20002570748329163,0.9797108769416809,0.0,0.0,0.0,0.0,0.0,0.0
1740,1724913622505655621,-0.07656857371330261,0.16694362461566925,0.19235371053218842,0.00582339521497488,-0.011170778423547745,-0.20020589232444763,0.979672908782959,0.0,0.0,0.0,0.0,0.0,0.0
1742,1724913622506508577,-0.07653643190860748,0.16697128117084503,0.192458376288414,0.00597153278067708,-0.011058470234274864,-0.20055778324604034,0.979601263999939,0.0,0.0,0.0,0.0,0.0,0.0
1744,1724913622515425872,-0.07654041051864624,0.16694633662700653,0.1924806833267212,0.005896563176065683,-0.011120514944195747,-0.20055484771728516,0.9796016216278076,0.0,0.0,0.0,0.0,0.0,0.0
1746,1724913622525695306,-0.0765322595834732,0.16693134605884552,0.1924820840358734,0.006084948778152466,-0.011146397329866886,-0.20043765008449554,0.9796241521835327,0.0,0.0,0.0,0.0,0.0,0.0
1748,1724913622535538521,-0.07654653489589691,0.16693192720413208,0.19246700406074524,0.0061816261149942875,-0.011054858565330505,-0.20055146515369415,0.979601263999939,0.0,0.0,0.0,0.0,0.0,0.0
1750,1724913622545001940,-0.07657600939273834,0.16695982217788696,0.1926456093788147,0.004550073761492968,-0.009868448600172997,-0.2012995183467865,0.9794694781303406,0.0,0.0,0.0,0.0,0.0,0.0
1752,1724913622556599535,-0.0765901505947113,0.16696803271770477,0.19262580573558807,0.004121385049074888,-0.009854432195425034,-0.20130129158496857,0.9794711470603943,0.0,0.0,0.0,0.0,0.0,0.0
1754,1724913622565652910,-0.07647304236888885,0.16700689494609833,0.19275350868701935,0.007138542365282774,-0.00996494572609663,-0.20261316001415253,0.9791821837425232,0.0,0.0,0.0,0.0,0.0,0.0
1756,1724913622575466889,-0.07645846158266068,0.16704310476779938,0.1928442120552063,0.0075966059230268,-0.009722791612148285,-0.20297203958034515,0.9791067838668823,0.0,0.0,0.0,0.0,0.0,0.0
1758,1724913622585223183,-0.07645228505134583,0.16703641414642334,0.19286155700683594,0.00759997870773077,-0.009707021526992321,-0.20304729044437408,0.9790913462638855,0.0,0.0,0.0,0.0,0.0,0.0
1760,1724913622594952194,-0.07645009458065033,0.16704076528549194,0.19287487864494324,0.007419410161674023,-0.009810319170355797,-0.20309533178806305,0.9790817499160767,0.0,0.0,0.0,0.0,0.0,0.0
1762,1724913622628522758,-0.07644659280776978,0.16703541576862335,0.19285795092582703,0.007216976024210453,-0.009855845011770725,-0.20297032594680786,0.9791087508201599,0.0,0.0,0.0,0.0,0.0,0.0
1764,1724913622628867871,-0.07644377648830414,0.16699311137199402,0.19284208118915558,0.006991104688495398,-0.010152927599847317,-0.2027464658021927,0.9791536331176758,0.0,0.0,0.0,0.0,0.0,0.0
1766,1724913622629138098,-0.07643508911132812,0.16696469485759735,0.19281168282032013,0.007147131487727165,-0.010667246766388416,-0.20261338353157043,0.9791746735572815,0.0,0.0,0.0,0.0,0.0,0.0
1768,1724913622635434180,-0.07645004242658615,0.1669897884130478,0.19282294809818268,0.006877370644360781,-0.010536800138652325,-0.20247893035411835,0.9792057871818542,0.0,0.0,0.0,0.0,0.0,0.0
1770,1724913622645134367,-0.07661962509155273,0.16709621250629425,0.1927412897348404,0.006365760695189238,-0.008344698697328568,-0.2019292265176773,0.9793439507484436,0.0,0.0,0.0,0.0,0.0,0.0
1772,1724913622655191798,-0.07668717205524445,0.1671336442232132,0.19260463118553162,0.006818002555519342,-0.00749591737985611,-0.201575368642807,0.9794206023216248,0.0,0.0,0.0,0.0,0.0,0.0
1774,1724913622665199762,-0.07666496932506561,0.1671903431415558,0.19258107244968414,0.007481468841433525,-0.0071139563806355,-0.20175273716449738,0.9793821573257446,0.0,0.0,0.0,0.0,0.0,0.0
1776,1724913622675998574,-0.0766221284866333,0.16717740893363953,0.19260112941265106,0.007571032736450434,-0.007375550456345081,-0.20194563269615173,0.9793397188186646,0.0,0.0,0.0,0.0,0.0,0.0
1778,1724913622685313108,-0.07670938223600388,0.166909322142601,0.19235531985759735,0.007061637472361326,-0.008883021771907806,-0.20152691006660461,0.9794172644615173,0.0,0.0,0.0,0.0,0.0,0.0
1780,1724913622695558218,-0.07678060978651047,0.1668517291545868,0.19231028854846954,0.005991988815367222,-0.00925656221807003,-0.20143185555934906,0.979440450668335,0.0,0.0,0.0,0.0,0.0,0.0
1782,1724913622705074053,-0.07678820192813873,0.16685453057289124,0.19234955310821533,0.00573232676833868,-0.009194288402795792,-0.2013545036315918,0.9794585704803467,0.0,0.0,0.0,0.0,0.0,0.0
1784,1724913622715237638,-0.07681133598089218,0.16687406599521637,0.1923263669013977,0.005638566799461842,-0.009064991027116776,-0.2013361155986786,0.979464054107666,0.0,0.0,0.0,0.0,0.0,0.0
1786,1724913622727839032,-0.07682575285434723,0.1668999344110489,0.1923564225435257,0.005732075776904821,-0.00892049353569746,-0.2013615369796753,0.9794595837593079,0.0,0.0,0.0,0.0,0.0,0.0
1788,1724913622735496073,-0.07681272178888321,0.1669112890958786,0.19234946370124817,0.006030454766005278,-0.009022772312164307,-0.2011091709136963,0.9795087575912476,0.0,0.0,0.0,0.0,0.0,0.0
1790,1724913622745219551,-0.07682661712169647,0.16692975163459778,0.19239675998687744,0.005956800188869238,-0.008628347888588905,-0.2015039175748825,0.9794315695762634,0.0,0.0,0.0,0.0,0.0,0.0
1792,1724913622756917119,-0.07682889699935913,0.16689221560955048,0.19239062070846558,0.005831722170114517,-0.008721396327018738,-0.2016066163778305,0.9794104099273682,0.0,0.0,0.0,0.0,0.0,0.0
1794,1724913622765467475,-0.07683223485946655,0.1668911576271057,0.19237160682678223,0.005725510884076357,-0.008773233741521835,-0.20143446326255798,0.9794459939002991,0.0,0.0,0.0,0.0,0.0,0.0
1796,1724913622776019220,-0.07682862132787704,0.16688545048236847,0.19236014783382416,0.0059430659748613834,-0.008816288784146309,-0.20133472979068756,0.9794648289680481,0.0,0.0,0.0,0.0,0.0,0.0
1798,1724913622789495545,-0.07683554291725159,0.1669190526008606,0.19239173829555511,0.005872620269656181,-0.008704385720193386,-0.20152267813682556,0.9794275760650635,0.0,0.0,0.0,0.0,0.0,0.0
1800,1724913622795048572,-0.07685022056102753,0.16691744327545166,0.19237558543682098,0.005723743699491024,-0.00879758596420288,-0.20151858031749725,0.9794284701347351,0.0,0.0,0.0,0.0,0.0,0.0
1802,1724913622806661227,-0.07683451473712921,0.16690154373645782,0.19239766895771027,0.005732962395995855,-0.008752026595175266,-0.20147553086280823,0.9794376492500305,0.0,0.0,0.0,0.0,0.0,0.0
1804,1724913622822952724,-0.07680532336235046,0.16691838204860687,0.19237177073955536,0.00615424569696188,-0.00893186405301094,-0.20111073553562164,0.9795085191726685,0.0,0.0,0.0,0.0,0.0,0.0
1806,1724913622825856304,-0.07686088979244232,0.1667627990245819,0.19226299226284027,0.005296654533594847,-0.009741241112351418,-0.20047546923160553,0.9796359539031982,0.0,0.0,0.0,0.0,0.0,0.0
1808,1724913622836226338,-0.07688284665346146,0.166764497756958,0.19226878881454468,0.005146224983036518,-0.009802236221730709,-0.2003626674413681,0.9796593189239502,0.0,0.0,0.0,0.0,0.0,0.0
1810,1724913622845168484,-0.07686471939086914,0.1667763888835907,0.1923268735408783,0.005342382472008467,-0.00964406318962574,-0.2007484883069992,0.979580819606781,0.0,0.0,0.0,0.0,0.0,0.0
1812,1724913622855187319,-0.07686629891395569,0.1667686104774475,0.19232839345932007,0.0052842446602880955,-0.009609543718397617,-0.2007470279932022,0.9795817136764526,0.0,0.0,0.0,0.0,0.0,0.0
1814,1724913622865413480,-0.07697875052690506,0.16678141057491302,0.19240204989910126,0.002642930718138814,-0.008815539069473743,-0.20072941482067108,0.9796034693717957,0.0,0.0,0.0,0.0,0.0,0.0
1816,1724913622875260416,-0.07696729153394699,0.16683676838874817,0.19238287210464478,0.004399351309984922,-0.008997157216072083,-0.20085100829601288,0.9795706272125244,0.0,0.0,0.0,0.0,0.0,0.0
1818,1724913622885313147,-0.07697451859712601,0.16688035428524017,0.19240178167819977,0.004417791962623596,-0.008877350948750973,-0.20142363011837006,0.9794541001319885,0.0,0.0,0.0,0.0,0.0,0.0
1820,1724913622896526691,-0.07698889076709747,0.16688768565654755,0.1923692524433136,0.004402649588882923,-0.008852900937199593,-0.201239675283432,0.9794921875,0.0,0.0,0.0,0.0,0.0,0.0
1822,1724913622906200412,-0.07699866592884064,0.16686487197875977,0.19237248599529266,0.004025689326226711,-0.008878747001290321,-0.20120787620544434,0.9795000553131104,0.0,0.0,0.0,0.0,0.0,0.0
1824,1724913622933262388,-0.07699279487133026,0.1668596714735031,0.19240246713161469,0.004042932763695717,-0.008837973698973656,-0.20128430426120758,0.9794847369194031,0.0,0.0,0.0,0.0,0.0,0.0
1826,1724913622933501960,-0.07698012888431549,0.1668485403060913,0.19237352907657623,0.004033240489661694,-0.00902366079390049,-0.201228067278862,0.979494571685791,0.0,0.0,0.0,0.0,0.0,0.0
1828,1724913622935695954,-0.07691311091184616,0.16686010360717773,0.1923070251941681,0.004962635226547718,-0.009485315531492233,-0.20094604790210724,0.9795438647270203,0.0,0.0,0.0,0.0,0.0,0.0
1830,1724913622945346125,-0.07694537937641144,0.16685199737548828,0.1923270970582962,0.004373263102024794,-0.009332932531833649,-0.20105905830860138,0.9795249104499817,0.0,0.0,0.0,0.0,0.0,0.0
1832,1724913622955187205,-0.07697660475969315,0.16686493158340454,0.19236671924591064,0.0039674220606684685,-0.009204498492181301,-0.20130783319473267,0.9794767498970032,0.0,0.0,0.0,0.0,0.0,0.0
1834,1724913622965695804,-0.07692424952983856,0.16687403619289398,0.19235002994537354,0.0047838264144957066,-0.009393345564603806,-0.20103614032268524,0.9795271754264832,0.0,0.0,0.0,0.0,0.0,0.0
1836,1724913622976251422,-0.07693104445934296,0.1668478548526764,0.19234426319599152,0.004248854238539934,-0.00936346035450697,-0.20115478336811066,0.9795055389404297,0.0,0.0,0.0,0.0,0.0,0.0
1838,1724913622985261785,-0.07695859670639038,0.1668534129858017,0.19236455857753754,0.0040956116281449795,-0.009283190593123436,-0.20127707719802856,0.9794818758964539,0.0,0.0,0.0,0.0,0.0,0.0
1840,1724913622996870161,-0.07696494460105896,0.16684803366661072,0.1923784762620926,0.003946113400161266,-0.009179088287055492,-0.20147864520549774,0.9794419407844543,0.0,0.0,0.0,0.0,0.0,0.0
1842,1724913623005517540,-0.07702808082103729,0.16686402261257172,0.19233988225460052,0.0021390800829976797,-0.00894769188016653,-0.20117776095867157,0.979511559009552,0.0,0.0,0.0,0.0,0.0,0.0
1844,1724913623016144045,-0.07699881494045258,0.16690772771835327,0.1923486739397049,0.0036885456647723913,-0.00905208196491003,-0.20080246031284332,0.9795829653739929,0.0,0.0,0.0,0.0,0.0,0.0
1846,1724913623036743069,-0.07704348862171173,0.16684380173683167,0.1920974850654602,0.004509799648076296,-0.010029541328549385,-0.1993221938610077,0.9798722863197327,0.0,0.0,0.0,0.0,0.0,0.0
1848,1724913623037266215,-0.07706916332244873,0.1667921245098114,0.1920088827610016,0.004395732656121254,-0.010151294991374016,-0.19888606667518616,0.9799601435661316,0.0,0.0,0.0,0.0,0.0,0.0
1850,1724913623045361834,-0.0770702213048935,0.1668315976858139,0.1919582039117813,0.0043860068544745445,-0.01002325490117073,-0.19885392487049103,0.9799680709838867,0.0,0.0,0.0,0.0,0.0,0.0
1852,1724913623057623256,-0.0770607590675354,0.16685335338115692,0.1919582486152649,0.00430101715028286,-0.010053405538201332,-0.19885939359664917,0.9799670577049255,0.0,0.0,0.0,0.0,0.0,0.0
1854,1724913623065839513,-0.07695205509662628,0.16673532128334045,0.19181077182292938,0.007438042666763067,-0.01094419788569212,-0.19861024618148804,0.979989230632782,0.0,0.0,0.0,0.0,0.0,0.0
1856,1724913623075886291,-0.07683660835027695,0.1667226403951645,0.19194860756397247,0.008105387911200523,-0.010593806393444538,-0.19976772367954254,0.9797525405883789,0.0,0.0,0.0,0.0,0.0,0.0
1858,1724913623087251418,-0.07677263021469116,0.16674767434597015,0.19212830066680908,0.008160448633134365,-0.010352673009037971,-0.20058271288871765,0.9795881509780884,0.0,0.0,0.0,0.0,0.0,0.0
1860,1724913623095325694,-0.07679922878742218,0.16676843166351318,0.19210265576839447,0.008210686966776848,-0.01061252411454916,-0.20018255710601807,0.9796668291091919,0.0,0.0,0.0,0.0,0.0,0.0
1862,1724913623105279698,-0.07694642245769501,0.16684076189994812,0.1923142373561859,0.004360568709671497,-0.009563357569277287,-0.2010004073381424,0.9795347452163696,0.0,0.0,0.0,0.0,0.0,0.0
1864,1724913623116354983,-0.07696089148521423,0.16683429479599,0.19233261048793793,0.0041097309440374374,-0.009440399706363678,-0.20109078288078308,0.979518473148346,0.0,0.0,0.0,0.0,0.0,0.0
1866,1724913623125159631,-0.07692251354455948,0.16685163974761963,0.1923454999923706,0.004998801276087761,-0.009439068846404552,-0.20109815895557404,0.9795128703117371,0.0,0.0,0.0,0.0,0.0,0.0
1868,1724913623135491724,-0.07693745195865631,0.16685406863689423,0.19235646724700928,0.004379034508019686,-0.009396281093358994,-0.20116767287254333,0.9795020222663879,0.0,0.0,0.0,0.0,0.0,0.0
1870,1724913623145137207,-0.076933354139328,0.1668526977300644,0.19235096871852875,0.004256351385265589,-0.009338201954960823,-0.20116902887821198,0.97950279712677,0.0,0.0,0.0,0.0,0.0,0.0
1872,1724913623155054976,-0.07699300348758698,0.1665695756673813,0.19213615357875824,0.0036746447440236807,-0.010471826419234276,-0.19927024841308594,0.9798818230628967,0.0,0.0,0.0,0.0,0.0,0.0
1874,1724913623165891546,-0.076963871717453,0.16654711961746216,0.1921122968196869,0.004380987491458654,-0.010543540120124817,-0.19882315397262573,0.9799688458442688,0.0,0.0,0.0,0.0,0.0,0.0
1876,1724913623175267484,-0.07696724683046341,0.16652655601501465,0.19212029874324799,0.0037033027037978172,-0.010513163171708584,-0.19884687662124634,0.9799671769142151,0.0,0.0,0.0,0.0,0.0,0.0
1878,1724913623185224636,-0.07696694135665894,0.1665334552526474,0.19215160608291626,0.003441817592829466,-0.0104387691244483,-0.19930872321128845,0.9798751473426819,0.0,0.0,0.0,0.0,0.0,0.0
1880,1724913623196370772,-0.0769786536693573,0.1665407121181488,0.19212107360363007,0.0035273756366223097,-0.01064492017030716,-0.19916550815105438,0.9799016714096069,0.0,0.0,0.0,0.0,0.0,0.0
1882,1724913623206669004,-0.07695220410823822,0.1665259599685669,0.19207389652729034,0.004248489160090685,-0.010835155844688416,-0.1987154483795166,0.9799880981445312,0.0,0.0,0.0,0.0,0.0,0.0
1884,1724913623215633028,-0.07696333527565002,0.16654232144355774,0.19207768142223358,0.0038785459473729134,-0.010547866113483906,-0.1988890916109085,0.979957640171051,0.0,0.0,0.0,0.0,0.0,0.0
1886,1724913623225413314,-0.07698047161102295,0.16657006740570068,0.19209739565849304,0.003641353687271476,-0.010420420207083225,-0.19909264147281647,0.9799184799194336,0.0,0.0,0.0,0.0,0.0,0.0
1888,1724913623235546105,-0.07696335017681122,0.16657379269599915,0.19208672642707825,0.004440398421138525,-0.010633614845573902,-0.19893807172775269,0.9799443483352661,0.0,0.0,0.0,0.0,0.0,0.0
1890,1724913623245159355,-0.07698395848274231,0.16656126081943512,0.19209754467010498,0.0037550858687609434,-0.010637126863002777,-0.19898615777492523,0.9799373745918274,0.0,0.0,0.0,0.0,0.0,0.0
1892,1724913623256255600,-0.07698505371809006,0.16657863557338715,0.192161425948143,0.0036679913755506277,-0.010384290479123592,-0.19940611720085144,0.9798550605773926,0.0,0.0,0.0,0.0,0.0,0.0
1894,1724913623266065685,-0.07699073106050491,0.1665974259376526,0.1921864002943039,0.003510745009407401,-0.010331768542528152,-0.1996840089559555,0.9797995686531067,0.0,0.0,0.0,0.0,0.0,0.0
1896,1724913623275490800,-0.076991006731987,0.16657620668411255,0.1921272724866867,0.003689828794449568,-0.01043627504259348,-0.1992037296295166,0.9798955917358398,0.0,0.0,0.0,0.0,0.0,0.0
1898,1724913623291571589,-0.0769740492105484,0.16657254099845886,0.19210733473300934,0.003708165604621172,-0.010426361113786697,-0.19915226101875305,0.9799061417579651,0.0,0.0,0.0,0.0,0.0,0.0
1900,1724913623298688852,-0.07698831707239151,0.16660155355930328,0.19217045605182648,0.0036536764819175005,-0.010342027992010117,-0.19943545758724213,0.9798495769500732,0.0,0.0,0.0,0.0,0.0,0.0
1902,1724913623306001810,-0.07697427272796631,0.16658343374729156,0.1921566128730774,0.003553531365469098,-0.010384615510702133,-0.19950896501541138,0.9798346161842346,0.0,0.0,0.0,0.0,0.0,0.0
1904,1724913623316162713,-0.07697968184947968,0.16655150055885315,0.19212573766708374,0.0035456500481814146,-0.010678818449378014,-0.1990356296300888,0.979927659034729,0.0,0.0,0.0,0.0,0.0,0.0
1906,1724913623325699454,-0.07692718505859375,0.16659706830978394,0.19218212366104126,0.0037718554958701134,-0.010197353549301624,-0.19954393804073334,0.9798286557197571,0.0,0.0,0.0,0.0,0.0,0.0
1908,1724913623338552829,-0.07690998911857605,0.16660480201244354,0.19217681884765625,0.0038912028539925814,-0.010138657875359058,-0.19955959916114807,0.9798255562782288,0.0,0.0,0.0,0.0,0.0,0.0
1910,1724913623345787483,-0.07691919803619385,0.16663137078285217,0.19219721853733063,0.004021664150059223,-0.01000896468758583,-0.19977624714374542,0.9797821640968323,0.0,0.0,0.0,0.0,0.0,0.0
1912,1724913623361744777,-0.07692313194274902,0.16664741933345795,0.19220088422298431,0.0037773121148347855,-0.010040768422186375,-0.1998167783021927,0.979774534702301,0.0,0.0,0.0,0.0,0.0,0.0
1914,1724913623366960664,-0.07687775790691376,0.16663223505020142,0.1921866089105606,0.004464395344257355,-0.010147660039365292,-0.19939671456813812,0.9798561334609985,0.0,0.0,0.0,0.0,0.0,0.0
1916,1724913623376430099,-0.07678981125354767,0.16656287014484406,0.19207701086997986,0.006515621207654476,-0.010538074187934399,-0.19874419271945953,0.9799730777740479,0.0,0.0,0.0,0.0,0.0,0.0
1918,1724913623386344161,-0.07678019255399704,0.16657453775405884,0.19205768406391144,0.006493876688182354,-0.010535510256886482,-0.19880953431129456,0.9799599647521973,0.0,0.0,0.0,0.0,0.0,0.0
1920,1724913623395185419,-0.07678375393152237,0.16662080585956573,0.19207994639873505,0.006929124239832163,-0.00977838784456253,-0.1995800882577896,0.9798082709312439,0.0,0.0,0.0,0.0,0.0,0.0
1922,1724913623405224746,-0.07682967185974121,0.16666831076145172,0.19207412004470825,0.006250620353966951,-0.009306124411523342,-0.1995776891708374,0.9798178672790527,0.0,0.0,0.0,0.0,0.0,0.0
1924,1724913623415626308,-0.07683476060628891,0.16675859689712524,0.19206638634204865,0.006486824713647366,-0.009043822064995766,-0.19919881224632263,0.9798959493637085,0.0,0.0,0.0,0.0,0.0,0.0
1926,1724913623425755671,-0.07674141228199005,0.16691826283931732,0.19241462647914886,0.006781290285289288,-0.008217941038310528,-0.20040427148342133,0.9796553254127502,0.0,0.0,0.0,0.0,0.0,0.0
1928,1724913623435543073,-0.07662782073020935,0.16676346957683563,0.19232532382011414,0.006807833444327116,-0.008812039159238338,-0.20039239525794983,0.9796525239944458,0.0,0.0,0.0,0.0,0.0,0.0
1930,1724913623503608394,-0.0765434056520462,0.16682946681976318,0.19256627559661865,0.008071845397353172,-0.008386465720832348,-0.20093542337417603,0.9795354008674622,0.0,0.0,0.0,0.0,0.0,0.0
1932,1724913623504017365,-0.07651104032993317,0.1668342500925064,0.19250556826591492,0.008168165571987629,-0.008737224154174328,-0.20048506557941437,0.9796237349510193,0.0,0.0,0.0,0.0,0.0,0.0
1934,1724913623504395457,-0.07652727514505386,0.16684335470199585,0.19245637953281403,0.007965571247041225,-0.009063122794032097,-0.20021331310272217,0.9796780347824097,0.0,0.0,0.0,0.0,0.0,0.0
1936,1724913623504658993,-0.07666629552841187,0.16700556874275208,0.1926485002040863,0.006691469810903072,-0.008144850842654705,-0.2013377547264099,0.979465126991272,0.0,0.0,0.0,0.0,0.0,0.0
1938,1724913623504950962,-0.07676397264003754,0.16689950227737427,0.19231101870536804,0.0066433316096663475,-0.009162278845906258,-0.19983221590518951,0.9797647595405579,0.0,0.0,0.0,0.0,0.0,0.0
1940,1724913623505274158,-0.07685857266187668,0.166770339012146,0.19209548830986023,0.006637857761234045,-0.009888378903269768,-0.19866017997264862,0.9799961447715759,0.0,0.0,0.0,0.0,0.0,0.0
1942,1724913623505986913,-0.07696186006069183,0.16676710546016693,0.19223438203334808,0.003527214052155614,-0.008984517306089401,-0.19932517409324646,0.9798859357833862,0.0,0.0,0.0,0.0,0.0,0.0
1944,1724913623516235984,-0.07694271206855774,0.16674183309078217,0.19218268990516663,0.0044390191324055195,-0.009329896420240402,-0.1989474892616272,0.9799557328224182,0.0,0.0,0.0,0.0,0.0,0.0
1946,1724913623525699939,-0.0769568383693695,0.16673000156879425,0.1922219693660736,0.004466773942112923,-0.009363533928990364,-0.19905617833137512,0.9799331426620483,0.0,0.0,0.0,0.0,0.0,0.0
1948,1724913623535323157,-0.07695744931697845,0.16672112047672272,0.19218623638153076,0.004392607603222132,-0.00950570683926344,-0.1988116055727005,0.9799817800521851,0.0,0.0,0.0,0.0,0.0,0.0
1950,1724913623547187374,-0.07693041861057281,0.16670385003089905,0.19222351908683777,0.004254325293004513,-0.009518840350210667,-0.1989624947309494,0.9799516797065735,0.0,0.0,0.0,0.0,0.0,0.0
1952,1724913623557922177,-0.07696470618247986,0.16674630343914032,0.19216597080230713,0.004026435781270266,-0.010250224731862545,-0.19899922609329224,0.979937732219696,0.0,0.0,0.0,0.0,0.0,0.0
1954,1724913623565486554,-0.07694792002439499,0.16674190759658813,0.19217057526111603,0.004019788932055235,-0.010237034410238266,-0.19915930926799774,0.9799054265022278,0.0,0.0,0.0,0.0,0.0,0.0
1956,1724913623575314149,-0.0769381895661354,0.166737899184227,0.19216179847717285,0.004027885850518942,-0.010394386015832424,-0.1992911994457245,0.9798769354820251,0.0,0.0,0.0,0.0,0.0,0.0
1958,1724913623586019035,-0.07696084678173065,0.16676394641399384,0.1921588033437729,0.003850840264931321,-0.010362076573073864,-0.199382945895195,0.9798593521118164,0.0,0.0,0.0,0.0,0.0,0.0
1960,1724913623595271355,-0.07700469344854355,0.1668187528848648,0.19206534326076508,0.0037569894921034575,-0.010532553307712078,-0.19846008718013763,0.9800452589988708,0.0,0.0,0.0,0.0,0.0,0.0
1962,1724913623608813291,-0.07699383795261383,0.16680024564266205,0.1920965611934662,0.003702746005728841,-0.010364874266088009,-0.1987711489200592,0.9799841046333313,0.0,0.0,0.0,0.0,0.0,0.0
1964,1724913623616312064,-0.07699047029018402,0.16680598258972168,0.19211867451667786,0.0038938308134675026,-0.010295448824763298,-0.19908225536346436,0.9799210429191589,0.0,0.0,0.0,0.0,0.0,0.0
1966,1724913623627016781,-0.076973095536232,0.1667913794517517,0.19217626750469208,0.004218027926981449,-0.010149972513318062,-0.1992853432893753,0.9798799157142639,0.0,0.0,0.0,0.0,0.0,0.0
1968,1724913623638891590,-0.07698678970336914,0.16678865253925323,0.19218330085277557,0.0041051325388252735,-0.01027907244861126,-0.19933873414993286,0.9798681139945984,0.0,0.0,0.0,0.0,0.0,0.0
1970,1724913623655159217,-0.07697604596614838,0.1667795479297638,0.1921718567609787,0.003906451165676117,-0.010298469103872776,-0.19934837520122528,0.9798667430877686,0.0,0.0,0.0,0.0,0.0,0.0
1972,1724913623655441202,-0.07695291191339493,0.1667928248643875,0.1922125369310379,0.00359748606570065,-0.01012978982180357,-0.19972606003284454,0.9797928333282471,0.0,0.0,0.0,0.0,0.0,0.0
1974,1724913623665467205,-0.07696376740932465,0.16682463884353638,0.19224758446216583,0.0036706679966300726,-0.01003930252045393,-0.19977819919586182,0.9797828793525696,0.0,0.0,0.0,0.0,0.0,0.0
1976,1724913623705941313,-0.07697033882141113,0.1668091118335724,0.19220419228076935,0.004098168108612299,-0.01017255149781704,-0.19973886013031006,0.9797877669334412,0.0,0.0,0.0,0.0,0.0,0.0
1978,1724913623706193482,-0.07698693126440048,0.166792094707489,0.1921471655368805,0.004195885732769966,-0.010219098068773746,-0.19934211671352386,0.979867696762085,0.0,0.0,0.0,0.0,0.0,0.0
1980,1724913623706499332,-0.07699055224657059,0.16682209074497223,0.19206595420837402,0.003998070023953915,-0.010342133231461048,-0.1985214203596115,0.9800338745117188,0.0,0.0,0.0,0.0,0.0,0.0
1982,1724913623707011148,-0.07699796557426453,0.16681356728076935,0.19207938015460968,0.0038190181367099285,-0.010458556935191154,-0.1985979974269867,0.9800177812576294,0.0,0.0,0.0,0.0,0.0,0.0
1984,1724913623715480753,-0.07696576416492462,0.1667945384979248,0.19216060638427734,0.0038613167125731707,-0.010334736667573452,-0.19925324618816376,0.979885995388031,0.0,0.0,0.0,0.0,0.0,0.0
1986,1724913623787198920,-0.07696348428726196,0.16679084300994873,0.19218380749225616,0.0038846086245030165,-0.010189183056354523,-0.1995040774345398,0.9798363447189331,0.0,0.0,0.0,0.0,0.0,0.0
1988,1724913623787572154,-0.07695963978767395,0.16678382456302643,0.1921813040971756,0.003968471195548773,-0.010198739357292652,-0.1995125561952591,0.9798341393470764,0.0,0.0,0.0,0.0,0.0,0.0
1990,1724913623787896375,-0.07695765048265457,0.16677801311016083,0.1921953707933426,0.003900220850482583,-0.01023907121270895,-0.19948117434978485,0.9798404574394226,0.0,0.0,0.0,0.0,0.0,0.0
1992,1724913623788205288,-0.07696918398141861,0.16679319739341736,0.19215510785579681,0.004080425016582012,-0.01021535973995924,-0.19930845499038696,0.9798751473426819,0.0,0.0,0.0,0.0,0.0,0.0
1994,1724913623788582885,-0.07699795067310333,0.166798397898674,0.19217494130134583,0.003972745966166258,-0.010170587338507175,-0.19928297400474548,0.9798811674118042,0.0,0.0,0.0,0.0,0.0,0.0
1996,1724913623788850047,-0.0769818052649498,0.16680464148521423,0.19217123091220856,0.004075105767697096,-0.010132474824786186,-0.1992865800857544,0.9798803925514221,0.0,0.0,0.0,0.0,0.0,0.0
1998,1724913623789234408,-0.07698865979909897,0.16680258512496948,0.19217169284820557,0.004042629152536392,-0.010171128436923027,-0.19944408535957336,0.9798480868339539,0.0,0.0,0.0,0.0,0.0,0.0
2000,1724913623795342142,-0.07697587460279465,0.16677576303482056,0.19216790795326233,0.004007144831120968,-0.010290129110217094,-0.19937632977962494,0.979860782623291,0.0,0.0,0.0,0.0,0.0,0.0
2002,1724913623805970994,-0.07696856558322906,0.1667710542678833,0.19216150045394897,0.00409108679741621,-0.010214587673544884,-0.19940587878227234,0.9798552989959717,0.0,0.0,0.0,0.0,0.0,0.0
2004,1724913623816264217,-0.0769837275147438,0.16678643226623535,0.19214047491550446,0.003989702556282282,-0.010292373597621918,-0.199245885014534,0.9798873662948608,0.0,0.0,0.0,0.0,0.0,0.0
2006,1724913623825516214,-0.07699622958898544,0.1667923927307129,0.19214078783988953,0.003967447206377983,-0.010259971022605896,-0.1991085559129715,0.9799157381057739,0.0,0.0,0.0,0.0,0.0,0.0
2008,1724913623835641760,-0.07699602097272873,0.1667824238538742,0.19216394424438477,0.004084623884409666,-0.010150574147701263,-0.1992802917957306,0.9798814058303833,0.0,0.0,0.0,0.0,0.0,0.0
2010,1724913623869148301,-0.07699057459831238,0.166775643825531,0.1921643763780594,0.004103381186723709,-0.01016023475676775,-0.19937826693058014,0.9798613786697388,0.0,0.0,0.0,0.0,0.0,0.0
2012,1724913623869440131,-0.07696008682250977,0.1667775809764862,0.19222156703472137,0.003972556442022324,-0.010051979683339596,-0.19982212781906128,0.9797725677490234,0.0,0.0,0.0,0.0,0.0,0.0
2014,1724913623869837547,-0.07697957754135132,0.16677959263324738,0.19216756522655487,0.003933119121938944,-0.010182175785303116,-0.19938939809799194,0.9798595309257507,0.0,0.0,0.0,0.0,0.0,0.0
2016,1724913623875732964,-0.07697373628616333,0.16677214205265045,0.1921440213918686,0.0040121315978467464,-0.01031066570430994,-0.19923406839370728,0.979889452457428,0.0,0.0,0.0,0.0,0.0,0.0
2018,1724913623885932497,-0.07695195078849792,0.16677649319171906,0.19216637313365936,0.003881772980093956,-0.010250871069729328,-0.19947995245456696,0.9798405766487122,0.0,0.0,0.0,0.0,0.0,0.0
2020,1724913623895205377,-0.07696610689163208,0.16678445041179657,0.19217365980148315,0.00397951016202569,-0.010259692557156086,-0.19957895576953888,0.9798199534416199,0.0,0.0,0.0,0.0,0.0,0.0
2022,1724913623905160599,-0.07699433714151382,0.16681525111198425,0.192061185836792,0.0039445944130420685,-0.010397613979876041,-0.19861172139644623,0.980015218257904,0.0,0.0,0.0,0.0,0.0,0.0
2024,1724913623915995616,-0.07699724286794662,0.16681134700775146,0.19212226569652557,0.003571860957890749,-0.010216163471341133,-0.19892124831676483,0.9799557328224182,0.0,0.0,0.0,0.0,0.0,0.0
2026,1724913623925512917,-0.07697901129722595,0.16679783165454865,0.1921529620885849,0.0037335334345698357,-0.010186545550823212,-0.19927938282489777,0.9798826575279236,0.0,0.0,0.0,0.0,0.0,0.0
2028,1724913623935546081,-0.07696022093296051,0.16678068041801453,0.19218723475933075,0.00403264444321394,-0.010055960156023502,-0.19950513541698456,0.9798368811607361,0.0,0.0,0.0,0.0,0.0,0.0
2030,1724913623946558967,-0.07697699964046478,0.16678354144096375,0.19217334687709808,0.00406919838860631,-0.010260322131216526,-0.19937339425086975,0.9798614978790283,0.0,0.0,0.0,0.0,0.0,0.0
2032,1724913623956913442,-0.07697605341672897,0.16676756739616394,0.19213007390499115,0.004066349472850561,-0.010313073173165321,-0.19926276803016663,0.9798833727836609,0.0,0.0,0.0,0.0,0.0,0.0
2034,1724913623970754171,-0.07699491083621979,0.16678164899349213,0.19212664663791656,0.004021540749818087,-0.010271374136209488,-0.19916237890720367,0.9799044132232666,0.0,0.0,0.0,0.0,0.0,0.0
2036,1724913623975173364,-0.07698170840740204,0.1667957454919815,0.19214385747909546,0.00413636164739728,-0.010248294100165367,-0.19919635355472565,0.9798973202705383,0.0,0.0,0.0,0.0,0.0,0.0
2038,1724913623985939881,-0.07698563486337662,0.16678786277770996,0.19215089082717896,0.004140420351177454,-0.010250885970890522,-0.1990988701581955,0.9799171090126038,0.0,0.0,0.0,0.0,0.0,0.0
2040,1724913623995336692,-0.07696997374296188,0.16678287088871002,0.1921527236700058,0.004082529339939356,-0.010283404029905796,-0.1992197185754776,0.979892373085022,0.0,0.0,0.0,0.0,0.0,0.0
2042,1724913624005358226,-0.07696764171123505,0.16677117347717285,0.19216464459896088,0.0038914831820875406,-0.010204956866800785,-0.19941681623458862,0.9798539280891418,0.0,0.0,0.0,0.0,0.0,0.0
2044,1724913624015780527,-0.07695633918046951,0.16677428781986237,0.19215326011180878,0.0038981768302619457,-0.010249631479382515,-0.19944509863853455,0.9798476696014404,0.0,0.0,0.0,0.0,0.0,0.0
2046,1724913624025424034,-0.07696159183979034,0.16679416596889496,0.1921524554491043,0.0039049398619681597,-0.010224536992609501,-0.1993994563817978,0.9798571467399597,0.0,0.0,0.0,0.0,0.0,0.0
2048,1724913624040099449,-0.07697560638189316,0.16679586470127106,0.19217029213905334,0.003957453183829784,-0.01012448687106371,-0.1993696540594101,0.9798641204833984,0.0,0.0,0.0,0.0,0.0,0.0
2050,1724913624045419047,-0.07696842402219772,0.16678749024868011,0.19219574332237244,0.004030633717775345,-0.010118251666426659,-0.1995345652103424,0.979830265045166,0.0,0.0,0.0,0.0,0.0,0.0
2052,1724913624055419515,-0.07697077840566635,0.1667798012495041,0.19217553734779358,0.004023566842079163,-0.010253626853227615,-0.19950345158576965,0.9798352718353271,0.0,0.0,0.0,0.0,0.0,0.0
2054,1724913624066290652,-0.07697375863790512,0.16677843034267426,0.19215457141399384,0.0038912345189601183,-0.01020724792033434,-0.19939418137073517,0.9798585176467896,0.0,0.0,0.0,0.0,0.0,0.0
2056,1724913624075625340,-0.07698846608400345,0.16677434742450714,0.192165806889534,0.003892515553161502,-0.010283850133419037,-0.19943620264530182,0.9798491597175598,0.0,0.0,0.0,0.0,0.0,0.0
2058,1724913624086532319,-0.07696758955717087,0.166767418384552,0.19217891991138458,0.0038773766718804836,-0.010285544209182262,-0.19945651292800903,0.9798451066017151,0.0,0.0,0.0,0.0,0.0,0.0
2060,1724913624095217990,-0.07696933299303055,0.16679398715496063,0.1922200620174408,0.003942490089684725,-0.010124541819095612,-0.19968801736831665,0.9797993302345276,0.0,0.0,0.0,0.0,0.0,0.0
2062,1724913624106479636,-0.07700735330581665,0.1668342798948288,0.1920778751373291,0.003936773631721735,-0.01034735981374979,-0.19848693907260895,0.9800410270690918,0.0,0.0,0.0,0.0,0.0,0.0
2064,1724913624116362604,-0.07698839902877808,0.1668204367160797,0.19215048849582672,0.003820710349828005,-0.010200797580182552,-0.19907145202159882,0.9799244403839111,0.0,0.0,0.0,0.0,0.0,0.0
2066,1724913624125151474,-0.07695937901735306,0.16679386794567108,0.19217510521411896,0.004050095099955797,-0.010054158046841621,-0.19949974119663239,0.9798380136489868,0.0,0.0,0.0,0.0,0.0,0.0
2068,1724913624135674344,-0.07697132229804993,0.16677412390708923,0.1921956092119217,0.003988328855484724,-0.010038855485618114,-0.19967180490493774,0.9798032641410828,0.0,0.0,0.0,0.0,0.0,0.0
2070,1724913624146133546,-0.0769849419593811,0.16678209602832794,0.19214922189712524,0.00403335876762867,-0.010344919748604298,-0.19923730194568634,0.979888379573822,0.0,0.0,0.0,0.0,0.0,0.0
2072,1724913624155361118,-0.07698817551136017,0.16678206622600555,0.19216665625572205,0.004075122531503439,-0.01023854874074459,-0.19931894540786743,0.9798727035522461,0.0,0.0,0.0,0.0,0.0,0.0
2074,1724913624166041084,-0.07696470618247986,0.16678163409233093,0.19217926263809204,0.004141423851251602,-0.010208284482359886,-0.19954277575016022,0.9798271656036377,0.0,0.0,0.0,0.0,0.0,0.0
2076,1724913624175416326,-0.0769580826163292,0.1667858511209488,0.1921776831150055,0.004019632935523987,-0.01014502439647913,-0.19952964782714844,0.9798310399055481,0.0,0.0,0.0,0.0,0.0,0.0
2078,1724913624185929385,-0.07698053121566772,0.16679175198078156,0.19217942655086517,0.003995738923549652,-0.010168379172682762,-0.19939373433589935,0.9798586368560791,0.0,0.0,0.0,0.0,0.0,0.0
2080,1724913624195778679,-0.0769829973578453,0.16681239008903503,0.19219453632831573,0.00409215223044157,-0.010042545385658741,-0.19957391917705536,0.9798228144645691,0.0,0.0,0.0,0.0,0.0,0.0
2082,1724913624205606835,-0.07697614282369614,0.16679853200912476,0.19218143820762634,0.004149257205426693,-0.010077930055558681,-0.19943663477897644,0.979850172996521,0.0,0.0,0.0,0.0,0.0,0.0
2084,1724913624219629050,-0.07696455717086792,0.16677425801753998,0.19219069182872772,0.004075850825756788,-0.010124050080776215,-0.19959387183189392,0.9798179864883423,0.0,0.0,0.0,0.0,0.0,0.0
2086,1724913624226097126,-0.07694198191165924,0.16678212583065033,0.19218987226486206,0.004019605927169323,-0.010001284070312977,-0.19969554245471954,0.9797987937927246,0.0,0.0,0.0,0.0,0.0,0.0
2088,1724913624235254713,-0.07694508135318756,0.16676688194274902,0.1921745091676712,0.004115010611712933,-0.010092386044561863,-0.19963403046131134,0.9798098802566528,0.0,0.0,0.0,0.0,0.0,0.0
2090,1724913624245224409,-0.07698407769203186,0.1667841225862503,0.19213423132896423,0.004136462230235338,-0.010184580460190773,-0.19926796853542328,0.9798833727836609,0.0,0.0,0.0,0.0,0.0,0.0
2092,1724913624255932575,-0.07696093618869781,0.16676394641399384,0.1921459138393402,0.003919587004929781,-0.010216002352535725,-0.19939778745174408,0.9798576235771179,0.0,0.0,0.0,0.0,0.0,0.0
2094,1724913624265793384,-0.07696038484573364,0.16678251326084137,0.19215795397758484,0.004011218901723623,-0.010157231241464615,-0.19941148161888123,0.9798550009727478,0.0,0.0,0.0,0.0,0.0,0.0
2096,1724913624275311287,-0.0769428238272667,0.1667797863483429,0.19220371544361115,0.004124487284570932,-0.010037695057690144,-0.19970761239528656,0.9797954559326172,0.0,0.0,0.0,0.0,0.0,0.0
2098,1724913624286502774,-0.07693585753440857,0.16680574417114258,0.19219784438610077,0.004102764185518026,-0.009965004399418831,-0.19973786175251007,0.9797900915145874,0.0,0.0,0.0,0.0,0.0,0.0
2100,1724913624295323804,-0.07695163786411285,0.1668015718460083,0.19219748675823212,0.004202487412840128,-0.010019960813224316,-0.19963712990283966,0.9798096418380737,0.0,0.0,0.0,0.0,0.0,0.0
2102,1724913624305780866,-0.07695119827985764,0.16678600013256073,0.19217988848686218,0.004207424819469452,-0.010026974603533745,-0.1995028555393219,0.9798368811607361,0.0,0.0,0.0,0.0,0.0,0.0
2104,1724913624315778771,-0.07697957754135132,0.1667872965335846,0.1921766847372055,0.004108457826077938,-0.010152239352464676,-0.19939930737018585,0.9798571467399597,0.0,0.0,0.0,0.0,0.0,0.0
2106,1724913624325392572,-0.07699013501405716,0.16678307950496674,0.19213980436325073,0.004143225494772196,-0.010227657854557037,-0.19914600253105164,0.979907751083374,0.0,0.0,0.0,0.0,0.0,0.0
2108,1724913624336992192,-0.07697870582342148,0.16677610576152802,0.19215945899486542,0.0041455053724348545,-0.010194307193160057,-0.19941343367099762,0.9798537492752075,0.0,0.0,0.0,0.0,0.0,0.0
2110,1724913624345253882,-0.07696143537759781,0.16677658259868622,0.19217820465564728,0.004015426617115736,-0.010164566338062286,-0.19947697222232819,0.9798415899276733,0.0,0.0,0.0,0.0,0.0,0.0
2112,1724913624366368843,-0.07696549594402313,0.1667742133140564,0.19216209650039673,0.004049722105264664,-0.01014995202422142,-0.1994839608669281,0.9798402190208435,0.0,0.0,0.0,0.0,0.0,0.0
2114,1724913624366636001,-0.07696472853422165,0.16679343581199646,0.19217772781848907,0.004162827506661415,-0.010084724053740501,-0.1994507759809494,0.9798471927642822,0.0,0.0,0.0,0.0,0.0,0.0
2116,1724913624376113408,-0.07694791257381439,0.16678941249847412,0.1921931952238083,0.004044001922011375,-0.010126320645213127,-0.1995425820350647,0.9798285365104675,0.0,0.0,0.0,0.0,0.0,0.0
2118,1724913624386673432,-0.07696068286895752,0.16679011285305023,0.1921643763780594,0.004014603793621063,-0.010108334012329578,-0.199359729886055,0.979866087436676,0.0,0.0,0.0,0.0,0.0,0.0
2120,1724913624395468481,-0.07695822417736053,0.16679534316062927,0.19216614961624146,0.003962834365665913,-0.01012413576245308,-0.19950199127197266,0.9798371195793152,0.0,0.0,0.0,0.0,0.0,0.0
2122,1724913624405464828,-0.07695818692445755,0.16678832471370697,0.19215023517608643,0.004039122723042965,-0.010097254998981953,-0.1993207335472107,0.9798739552497864,0.0,0.0,0.0,0.0,0.0,0.0
2124,1724913624416433281,-0.0769561305642128,0.16676943004131317,0.19216802716255188,0.004019302316009998,-0.010160534642636776,-0.19953946769237518,0.9798288941383362,0.0,0.0,0.0,0.0,0.0,0.0
2126,1724913624425263191,-0.07695159316062927,0.16679206490516663,0.19220155477523804,0.003896620823070407,-0.010067149065434933,-0.1996772736310959,0.9798023104667664,0.0,0.0,0.0,0.0,0.0,0.0
2128,1724913624435462244,-0.07694520056247711,0.16678233444690704,0.19220441579818726,0.004036506172269583,-0.010071766562759876,-0.19976046681404114,0.9797847270965576,0.0,0.0,0.0,0.0,0.0,0.0
2130,1724913624446868667,-0.0769653171300888,0.16679084300994873,0.1921824812889099,0.004031595773994923,-0.010184979997575283,-0.19953998923301697,0.9798285365104675,0.0,0.0,0.0,0.0,0.0,0.0
2132,1724913624459812805,-0.07696961611509323,0.1667758822441101,0.19217535853385925,0.0038427086547017097,-0.010225224308669567,-0.1993790864944458,0.9798616170883179,0.0,0.0,0.0,0.0,0.0,0.0
2134,1724913624465929350,-0.07698404788970947,0.16678619384765625,0.19215522706508636,0.003960309084504843,-0.01008477620780468,-0.1994585245847702,0.9798464179039001,0.0,0.0,0.0,0.0,0.0,0.0
2136,1724913624476589704,-0.07695914059877396,0.16677579283714294,0.1921824961900711,0.0039068362675607204,-0.010038704611361027,-0.1996988207101822,0.9797981977462769,0.0,0.0,0.0,0.0,0.0,0.0
2138,1724913624490500697,-0.07696175575256348,0.16677391529083252,0.19216717779636383,0.003910576459020376,-0.010048151016235352,-0.19945953786373138,0.979846715927124,0.0,0.0,0.0,0.0,0.0,0.0
2140,1724913624495240760,-0.07695314288139343,0.1667826771736145,0.19219277799129486,0.003908244427293539,-0.01000574603676796,-0.1996680349111557,0.9798047542572021,0.0,0.0,0.0,0.0,0.0,0.0
2142,1724913624506121563,-0.07694587856531143,0.16677804291248322,0.1921580582857132,0.003945234697312117,-0.010206312872469425,-0.1994406282901764,0.9798488020896912,0.0,0.0,0.0,0.0,0.0,0.0
2144,1724913624515807459,-0.07695218920707703,0.1667931079864502,0.19217266142368317,0.004056739155203104,-0.010114622302353382,-0.1995280683040619,0.9798315167427063,0.0,0.0,0.0,0.0,0.0,0.0
2146,1724913624525703647,-0.07697643339633942,0.16679541766643524,0.19212841987609863,0.00400882912799716,-0.010261443443596363,-0.19915075600147247,0.9799069166183472,0.0,0.0,0.0,0.0,0.0,0.0
2148,1724913624535622576,-0.07698094099760056,0.16679008305072784,0.19216670095920563,0.0038986727595329285,-0.010136491619050503,-0.19951124489307404,0.9798353910446167,0.0,0.0,0.0,0.0,0.0,0.0
2150,1724913624545347041,-0.07696180045604706,0.16678687930107117,0.19215533137321472,0.0038981507532298565,-0.010095342993736267,-0.1994747817516327,0.9798431992530823,0.0,0.0,0.0,0.0,0.0,0.0
2152,1724913624555989181,-0.07694846391677856,0.16677483916282654,0.19218331575393677,0.003942794632166624,-0.01007508672773838,-0.19971810281276703,0.9797937273979187,0.0,0.0,0.0,0.0,0.0,0.0
2154,1724913624566026224,-0.0769600048661232,0.16679945588111877,0.19218710064888,0.0039458684623241425,-0.00998159870505333,-0.19963163137435913,0.9798122644424438,0.0,0.0,0.0,0.0,0.0,0.0
2156,1724913624575404345,-0.07696176320314407,0.16677722334861755,0.1921856701374054,0.003953061532229185,-0.010144197382032871,-0.19951175153255463,0.9798349738121033,0.0,0.0,0.0,0.0,0.0,0.0
2158,1724913624586665961,-0.07696930319070816,0.16679194569587708,0.1921624392271042,0.004004196263849735,-0.010173415765166283,-0.19941985607147217,0.9798531532287598,0.0,0.0,0.0,0.0,0.0,0.0
