seq,stamp,px,py,pz,ox,oy,oz,ow,lx,ly,lz,ax,ay,az
18,1724915389047237687,-0.4864453077316284,0.13301649689674377,0.16831517219543457,-0.04371638968586922,-0.02354196459054947,-0.38565799593925476,0.9213048815727234,0.0,0.0,0.0,0.0,0.0,0.0
20,1724915389058481575,-0.48664915561676025,0.13367436826229095,0.16769953072071075,-0.045110683888196945,-0.024080604314804077,-0.38547706604003906,0.9212994575500488,0.0,0.0,0.0,0.0,0.0,0.0
22,1724915389066115826,-0.48678913712501526,0.13430583477020264,0.16717767715454102,-0.046103332191705704,-0.024183856323361397,-0.38513606786727905,0.921390175819397,0.0,0.0,0.0,0.0,0.0,0.0
24,1724915389077406458,-0.48699724674224854,0.13489924371242523,0.16663597524166107,-0.0482952818274498,-0.023940036073327065,-0.3842635154724121,0.9216485023498535,0.0,0.0,0.0,0.0,0.0,0.0
26,1724915389086396743,-0.4872164726257324,0.13536398112773895,0.1659102588891983,-0.050029680132865906,-0.024829866364598274,-0.3825061619281769,0.9222632646560669,0.0,0.0,0.0,0.0,0.0,0.0
28,1724915389118684062,-0.48725777864456177,0.13584737479686737,0.1653027981519699,-0.04969722405076027,-0.025278843939304352,-0.3814043402671814,0.922725260257721,0.0,0.0,0.0,0.0,0.0,0.0
30,1724915389119069102,-0.4873039126396179,0.13628913462162018,0.1648145169019699,-0.04958384484052658,-0.025721285492181778,-0.38047826290130615,0.9231013655662537,0.0,0.0,0.0,0.0,0.0,0.0
32,1724915389119370851,-0.48742225766181946,0.13666673004627228,0.1643117368221283,-0.05015620216727257,-0.026304354891180992,-0.379028856754303,0.9236501455307007,0.0,0.0,0.0,0.0,0.0,0.0
34,1724915389126441014,-0.487483412027359,0.13700024783611298,0.16387513279914856,-0.050608791410923004,-0.025802774354815483,-0.377717524766922,0.9241767525672913,0.0,0.0,0.0,0.0,0.0,0.0
36,1724915389136958792,-0.48759567737579346,0.1373099535703659,0.16338640451431274,-0.05210917070508003,-0.02617967687547207,-0.3758928179740906,0.924826443195343,0.0,0.0,0.0,0.0,0.0,0.0
38,1724915389150700713,-0.4878001809120178,0.13753201067447662,0.16291117668151855,-0.053621556609869,-0.02629372663795948,-0.3739822208881378,0.9255111217498779,0.0,0.0,0.0,0.0,0.0,0.0
40,1724915389156004990,-0.48797979950904846,0.13781094551086426,0.16263464093208313,-0.05487070977687836,-0.026114052161574364,-0.37239617109298706,0.9260823130607605,0.0,0.0,0.0,0.0,0.0,0.0
42,1724915389166273615,-0.48811647295951843,0.13813439011573792,0.16241110861301422,-0.05569516122341156,-0.026158755645155907,-0.3710469901561737,0.9265732765197754,0.0,0.0,0.0,0.0,0.0,0.0
44,1724915389176664962,-0.48812708258628845,0.13846082985401154,0.16213226318359375,-0.055490512400865555,-0.02563554421067238,-0.3700449466705322,0.9270007610321045,0.0,0.0,0.0,0.0,0.0,0.0
46,1724915389192264818,-0.4881516396999359,0.13873417675495148,0.1617799550294876,-0.05547051504254341,-0.02561500482261181,-0.36869725584983826,0.9275394082069397,0.0,0.0,0.0,0.0,0.0,0.0
48,1724915389195966631,-0.48813962936401367,0.1390126645565033,0.1614665985107422,-0.054326415061950684,-0.026040038093924522,-0.36742377281188965,0.9281004071235657,0.0,0.0,0.0,0.0,0.0,0.0
50,1724915389206868465,-0.48816749453544617,0.13932277262210846,0.16124005615711212,-0.054628416895866394,-0.026142464950680733,-0.36659473180770874,0.9284075498580933,0.0,0.0,0.0,0.0,0.0,0.0
52,1724915389218677441,-0.4881676733493805,0.13966023921966553,0.16107085347175598,-0.05437803640961647,-0.026114724576473236,-0.3656306564807892,0.9288031458854675,0.0,0.0,0.0,0.0,0.0,0.0
54,1724915389226884080,-0.4881975054740906,0.13998058438301086,0.1609296053647995,-0.055229414254426956,-0.02603548765182495,-0.3644404113292694,0.9292228817939758,0.0,0.0,0.0,0.0,0.0,0.0
56,1724915389237344972,-0.48821547627449036,0.14027667045593262,0.16078177094459534,-0.0559130497276783,-0.025787819176912308,-0.36309948563575745,0.9297137260437012,0.0,0.0,0.0,0.0,0.0,0.0
58,1724915389246036880,-0.4881837069988251,0.14052999019622803,0.16055794060230255,-0.05656126141548157,-0.025573967024683952,-0.3609485924243927,0.9305176138877869,0.0,0.0,0.0,0.0,0.0,0.0
60,1724915389256507260,-0.4881300926208496,0.1406940370798111,0.1603265404701233,-0.05589248239994049,-0.025661157444119453,-0.35890132188796997,0.9313470721244812,0.0,0.0,0.0,0.0,0.0,0.0
62,1724915389267075945,-0.48812049627304077,0.14087119698524475,0.16022445261478424,-0.057010896503925323,-0.026384226977825165,-0.3571683466434479,0.9319251775741577,0.0,0.0,0.0,0.0,0.0,0.0
64,1724915389277555185,-0.48806267976760864,0.14099834859371185,0.16007578372955322,-0.05731045454740524,-0.026580778881907463,-0.3557681441307068,0.9324365854263306,0.0,0.0,0.0,0.0,0.0,0.0
66,1724915389286968445,-0.4880364239215851,0.14113250374794006,0.15999463200569153,-0.05728502571582794,-0.026639016345143318,-0.35484153032302856,0.9327895641326904,0.0,0.0,0.0,0.0,0.0,0.0
68,1724915389298135291,-0.4879288077354431,0.14137190580368042,0.15984854102134705,-0.055729545652866364,-0.02700774371623993,-0.3534122705459595,0.9334155321121216,0.0,0.0,0.0,0.0,0.0,0.0
70,1724915389308288119,-0.4878576993942261,0.14157257974147797,0.1598329246044159,-0.0547194741666317,-0.027016887441277504,-0.35258355736732483,0.9337884187698364,0.0,0.0,0.0,0.0,0.0,0.0
72,1724915389316526420,-0.4879051744937897,0.141612246632576,0.1597272753715515,-0.05475470796227455,-0.027691015973687172,-0.35071468353271484,0.9344701170921326,0.0,0.0,0.0,0.0,0.0,0.0
74,1724915389327376101,-0.4879172444343567,0.14173300564289093,0.15970657765865326,-0.05461757630109787,-0.027392655611038208,-0.3492145836353302,0.935048520565033,0.0,0.0,0.0,0.0,0.0,0.0
76,1724915389336657435,-0.48793813586235046,0.14186535775661469,0.15975315868854523,-0.054605357348918915,-0.026898382231593132,-0.34787118434906006,0.9355642199516296,0.0,0.0,0.0,0.0,0.0,0.0
78,1724915389351081900,-0.4879957139492035,0.1420367956161499,0.1597312092781067,-0.05503789708018303,-0.026782061904668808,-0.3462429344654083,0.936146080493927,0.0,0.0,0.0,0.0,0.0,0.0
80,1724915389357858938,-0.4880547821521759,0.14214494824409485,0.15969780087471008,-0.05579662695527077,-0.026794150471687317,-0.3446976840496063,0.9366709589958191,0.0,0.0,0.0,0.0,0.0,0.0
82,1724915389365885833,-0.4880312383174896,0.14226654171943665,0.15966738760471344,-0.05566668510437012,-0.026800280436873436,-0.34381014108657837,0.9370046257972717,0.0,0.0,0.0,0.0,0.0,0.0
84,1724915389376509751,-0.4879853129386902,0.14241984486579895,0.15965013206005096,-0.05510791018605232,-0.026680076494812965,-0.34297072887420654,0.9373486042022705,0.0,0.0,0.0,0.0,0.0,0.0
86,1724915389388055874,-0.4879835247993469,0.14253389835357666,0.15959453582763672,-0.05506094545125961,-0.026767676696181297,-0.34224259853363037,0.9376149773597717,0.0,0.0,0.0,0.0,0.0,0.0
88,1724915389395676766,-0.4879711866378784,0.14265500009059906,0.1595083773136139,-0.05502341315150261,-0.02632318250834942,-0.34118562936782837,0.9380148649215698,0.0,0.0,0.0,0.0,0.0,0.0
90,1724915389405959246,-0.48793381452560425,0.14272275567054749,0.1595042198896408,-0.054802242666482925,-0.02609114907681942,-0.340040922164917,0.9384498596191406,0.0,0.0,0.0,0.0,0.0,0.0
92,1724915389416185153,-0.48795467615127563,0.14271120727062225,0.1595594435930252,-0.05641299486160278,-0.026518557220697403,-0.3382311165332794,0.9389963150024414,0.0,0.0,0.0,0.0,0.0,0.0
94,1724915389426157207,-0.48801761865615845,0.14258646965026855,0.15961810946464539,-0.057088542729616165,-0.02624475210905075,-0.33636748790740967,0.9396324753761292,0.0,0.0,0.0,0.0,0.0,0.0
96,1724915389436633581,-0.4879729151725769,0.1426209807395935,0.15977558493614197,-0.05644310638308525,-0.02557717077434063,-0.3344680368900299,0.940367579460144,0.0,0.0,0.0,0.0,0.0,0.0
98,1724915389475281627,-0.48802927136421204,0.14265787601470947,0.15979419648647308,-0.05602192506194115,-0.025185037404298782,-0.3323056697845459,0.9411696195602417,0.0,0.0,0.0,0.0,0.0,0.0
100,1724915389475599829,-0.48808473348617554,0.14267723262310028,0.15982843935489655,-0.0555601567029953,-0.02496553584933281,-0.3307531177997589,0.9417495727539062,0.0,0.0,0.0,0.0,0.0,0.0
102,1724915389475901192,-0.48811256885528564,0.14266708493232727,0.15970392525196075,-0.053530652076005936,-0.025819536298513412,-0.3290040194988251,0.9424564242362976,0.0,0.0,0.0,0.0,0.0,0.0
104,1724915389480449421,-0.4882338047027588,0.14267094433307648,0.1596362143754959,-0.05281093344092369,-0.025973239913582802,-0.3279830515384674,0.9428486227989197,0.0,0.0,0.0,0.0,0.0,0.0
106,1724915389486343328,-0.48839059472084045,0.14265967905521393,0.15966559946537018,-0.052529845386743546,-0.02585458755493164,-0.32739368081092834,0.9430723786354065,0.0,0.0,0.0,0.0,0.0,0.0
108,1724915389497960609,-0.4886625409126282,0.14273500442504883,0.15972702205181122,-0.05384855344891548,-0.024966035038232803,-0.3271300792694092,0.9431135058403015,0.0,0.0,0.0,0.0,0.0,0.0
110,1724915389506314752,-0.48887279629707336,0.14255014061927795,0.15965113043785095,-0.054041389375925064,-0.025487925857305527,-0.3254428505897522,0.9436720609664917,0.0,0.0,0.0,0.0,0.0,0.0
112,1724915389516111391,-0.48902201652526855,0.1423952281475067,0.15976600348949432,-0.05393145605921745,-0.025325888767838478,-0.3237791061401367,0.9442548155784607,0.0,0.0,0.0,0.0,0.0,0.0
114,1724915389527533708,-0.48912638425827026,0.14220742881298065,0.1600298285484314,-0.05446180701255798,-0.02525254525244236,-0.3214970529079437,0.9450058341026306,0.0,0.0,0.0,0.0,0.0,0.0
116,1724915389536224902,-0.4892868101596832,0.14197106659412384,0.16019034385681152,-0.05452433601021767,-0.025096697732806206,-0.3189939260482788,0.9458542466163635,0.0,0.0,0.0,0.0,0.0,0.0
118,1724915389567419289,-0.4895605742931366,0.14178764820098877,0.16026867926120758,-0.0553462840616703,-0.025051316246390343,-0.3168919086456299,0.9465140104293823,0.0,0.0,0.0,0.0,0.0,0.0
120,1724915389567735599,-0.48970988392829895,0.1416504979133606,0.16043350100517273,-0.05485064536333084,-0.024073533713817596,-0.31561917066574097,0.946993350982666,0.0,0.0,0.0,0.0,0.0,0.0
122,1724915389568045501,-0.489886611700058,0.14138317108154297,0.1605483442544937,-0.05383161082863808,-0.023871775716543198,-0.31404542922973633,0.9475799798965454,0.0,0.0,0.0,0.0,0.0,0.0
124,1724915389576083466,-0.49019595980644226,0.14108982682228088,0.1608397215604782,-0.05448418855667114,-0.02353207767009735,-0.31233736872673035,0.9481156468391418,0.0,0.0,0.0,0.0,0.0,0.0
126,1724915389586141983,-0.4904068112373352,0.14076048135757446,0.16135147213935852,-0.05416656658053398,-0.022917471826076508,-0.311117559671402,0.9485498070716858,0.0,0.0,0.0,0.0,0.0,0.0
128,1724915389595762124,-0.49066030979156494,0.140387162566185,0.16185645759105682,-0.054515738040208817,-0.02239382080733776,-0.3096955120563507,0.9490074515342712,0.0,0.0,0.0,0.0,0.0,0.0
130,1724915389606550092,-0.4908548891544342,0.13999180495738983,0.16238349676132202,-0.05378488078713417,-0.021243909373879433,-0.30867427587509155,0.949408233165741,0.0,0.0,0.0,0.0,0.0,0.0
132,1724915389617066091,-0.49105456471443176,0.13944342732429504,0.16306424140930176,-0.051720403134822845,-0.021077023819088936,-0.3082810640335083,0.9496544599533081,0.0,0.0,0.0,0.0,0.0,0.0
134,1724915389626117260,-0.49132028222084045,0.138967365026474,0.16382603347301483,-0.050879113376140594,-0.021133586764335632,-0.3072330951690674,0.9500381350517273,0.0,0.0,0.0,0.0,0.0,0.0
136,1724915389635810539,-0.4915253520011902,0.1384219080209732,0.16460688412189484,-0.05065515637397766,-0.020870426669716835,-0.3059408366680145,0.9504729509353638,0.0,0.0,0.0,0.0,0.0,0.0
138,1724915389646432831,-0.4916362464427948,0.13792328536510468,0.16543491184711456,-0.04978379234671593,-0.020625857636332512,-0.3051294982433319,0.9507850408554077,0.0,0.0,0.0,0.0,0.0,0.0
140,1724915389657855777,-0.4916732907295227,0.13744015991687775,0.16619035601615906,-0.048239003866910934,-0.02020251378417015,-0.3047560751438141,0.950993537902832,0.0,0.0,0.0,0.0,0.0,0.0
142,1724915389665988906,-0.4918302893638611,0.13681523501873016,0.16680917143821716,-0.04670804738998413,-0.020397016778588295,-0.3032457232475281,0.9515485167503357,0.0,0.0,0.0,0.0,0.0,0.0
144,1724915389675983866,-0.4920421838760376,0.13624931871891022,0.16748826205730438,-0.045378539711236954,-0.019942263141274452,-0.30215194821357727,0.9519702196121216,0.0,0.0,0.0,0.0,0.0,0.0
146,1724915389686950566,-0.4922140836715698,0.1356995403766632,0.1682342290878296,-0.04402956739068031,-0.019643692299723625,-0.3011861741542816,0.9523457884788513,0.0,0.0,0.0,0.0,0.0,0.0
148,1724915389695845616,-0.4923093020915985,0.13519716262817383,0.16901680827140808,-0.04243011027574539,-0.019086383283138275,-0.30127280950546265,0.9524023532867432,0.0,0.0,0.0,0.0,0.0,0.0
150,1724915389706168927,-0.49247676134109497,0.13457036018371582,0.1696345955133438,-0.041763704270124435,-0.01831923983991146,-0.30070000886917114,0.9526277780532837,0.0,0.0,0.0,0.0,0.0,0.0
152,1724915389717064449,-0.49263110756874084,0.13355280458927155,0.1701955795288086,-0.04125196114182472,-0.017713502049446106,-0.3002285957336426,0.9528102278709412,0.0,0.0,0.0,0.0,0.0,0.0
154,1724915389727191241,-0.49259135127067566,0.13256993889808655,0.17070548236370087,-0.038704100996255875,-0.01628521829843521,-0.3008763790130615,0.9527382850646973,0.0,0.0,0.0,0.0,0.0,0.0
156,1724915389735669190,-0.49256759881973267,0.13163012266159058,0.17100177705287933,-0.03807903826236725,-0.015685999765992165,-0.3007690906524658,0.9528074264526367,0.0,0.0,0.0,0.0,0.0,0.0
158,1724915389748848274,-0.49227529764175415,0.13065938651561737,0.171115905046463,-0.03637705743312836,-0.01621652953326702,-0.2985198497772217,0.9535720944404602,0.0,0.0,0.0,0.0,0.0,0.0
160,1724915389855534274,-0.4920298755168915,0.1295066922903061,0.1711425483226776,-0.032225772738456726,-0.016036178916692734,-0.2967904806137085,0.9542641043663025,0.0,0.0,0.0,0.0,0.0,0.0
162,1724915389855954620,-0.4917353093624115,0.12823954224586487,0.17148950695991516,-0.02836812287569046,-0.01614840142428875,-0.29725125432014465,0.954241156578064,0.0,0.0,0.0,0.0,0.0,0.0
164,1724915389856192240,-0.4916004538536072,0.1272026151418686,0.1718563288450241,-0.025725407525897026,-0.016595542430877686,-0.29810118675231934,0.9540432095527649,0.0,0.0,0.0,0.0,0.0,0.0
166,1724915389856440939,-0.4917498528957367,0.12607306241989136,0.1718626320362091,-0.024212051182985306,-0.017241405323147774,-0.29735851287841797,0.9543032050132751,0.0,0.0,0.0,0.0,0.0,0.0
168,1724915389856688821,-0.4919143319129944,0.12507584691047668,0.17205195128917694,-0.023048799484968185,-0.015681760385632515,-0.2973775267601013,0.9543529152870178,0.0,0.0,0.0,0.0,0.0,0.0
170,1724915389856936532,-0.4920062720775604,0.12386045604944229,0.1723305732011795,-0.020360391587018967,-0.014878520742058754,-0.2985985279083252,0.9540456533432007,0.0,0.0,0.0,0.0,0.0,0.0
172,1724915389857192877,-0.4920412003993988,0.12250852584838867,0.17251329123973846,-0.018301041796803474,-0.014223936013877392,-0.2977166473865509,0.9543729424476624,0.0,0.0,0.0,0.0,0.0,0.0
174,1724915389857439918,-0.4920535981655121,0.1213967427611351,0.17286889255046844,-0.01694348081946373,-0.011475235223770142,-0.29777154326438904,0.9544178247451782,0.0,0.0,0.0,0.0,0.0,0.0
176,1724915389857689090,-0.49198678135871887,0.12014329433441162,0.17271171510219574,-0.013521555811166763,-0.010558631271123886,-0.2968986928462982,0.9547548294067383,0.0,0.0,0.0,0.0,0.0,0.0
178,1724915389857937092,-0.4918343424797058,0.1188926100730896,0.17247916758060455,-0.0096481554210186,-0.010226273909211159,-0.29658886790275574,0.9549018144607544,0.0,0.0,0.0,0.0,0.0,0.0
180,1724915389858253411,-0.4918178915977478,0.11752676963806152,0.17227323353290558,-0.00929277390241623,-0.011051448993384838,-0.2952326238155365,0.9553162455558777,0.0,0.0,0.0,0.0,0.0,0.0
182,1724915389867248907,-0.4918631911277771,0.11618410795927048,0.1722216159105301,-0.005223365966230631,-0.009931814856827259,-0.29519662261009216,0.9553706645965576,0.0,0.0,0.0,0.0,0.0,0.0
184,1724915389876014066,-0.4918908476829529,0.11464957147836685,0.17226670682430267,-0.001834068214520812,-0.010619834996759892,-0.2961307168006897,0.9550867080688477,0.0,0.0,0.0,0.0,0.0,0.0
186,1724915389886248064,-0.4919208884239197,0.11342757940292358,0.17207005620002747,3.996124360128306e-05,-0.009428403340280056,-0.29617008566856384,0.9550886750221252,0.0,0.0,0.0,0.0,0.0,0.0
188,1724915389955825884,-0.4919881522655487,0.11222676187753677,0.17184974253177643,0.0026702589821070433,-0.009199513122439384,-0.29611921310424805,0.9551030397415161,0.0,0.0,0.0,0.0,0.0,0.0
190,1724915389956138371,-0.49192899465560913,0.11092592775821686,0.1716310977935791,0.006270597688853741,-0.008517732843756676,-0.29517021775245667,0.955386221408844,0.0,0.0,0.0,0.0,0.0,0.0
192,1724915389956437043,-0.49190109968185425,0.10955303907394409,0.17175300419330597,0.007725046016275883,-0.007269439287483692,-0.2949504852294922,0.9554536938667297,0.0,0.0,0.0,0.0,0.0,0.0
194,1724915389956821602,-0.49223360419273376,0.10789630562067032,0.17153134942054749,0.009343297220766544,-0.007673592306673527,-0.29381394386291504,0.9557862281799316,0.0,0.0,0.0,0.0,0.0,0.0
196,1724915389957135992,-0.4923666715621948,0.10669095814228058,0.17171883583068848,0.010905706323683262,-0.005912114400416613,-0.2947775423526764,0.9554853439331055,0.0,0.0,0.0,0.0,0.0,0.0
198,1724915389957493002,-0.4924311935901642,0.1055384948849678,0.1716642528772354,0.013423275202512741,-0.006051606964319944,-0.2955666482448578,0.9552086591720581,0.0,0.0,0.0,0.0,0.0,0.0
200,1724915389958143329,-0.49272555112838745,0.10420433431863785,0.17114712297916412,0.015489930287003517,-0.0067091332748532295,-0.29417917132377625,0.9556012749671936,0.0,0.0,0.0,0.0,0.0,0.0
202,1724915389968521331,-0.49293455481529236,0.10299718379974365,0.17080694437026978,0.01933145709335804,-0.004578533582389355,-0.2947266399860382,0.9553751349449158,0.0,0.0,0.0,0.0,0.0,0.0
204,1724915389976041689,-0.4932301640510559,0.10184428095817566,0.1701352447271347,0.022907402366399765,-0.004191245883703232,-0.29455435276031494,0.955350935459137,0.0,0.0,0.0,0.0,0.0,0.0
206,1724915389986296293,-0.4935374855995178,0.10077684372663498,0.16947051882743835,0.022818807512521744,-0.005635152570903301,-0.29420047998428345,0.9554547071456909,0.0,0.0,0.0,0.0,0.0,0.0
208,1724915389996173417,-0.49374327063560486,0.09992970526218414,0.16928596794605255,0.022640077397227287,-0.005901556462049484,-0.29621902108192444,0.9548335075378418,0.0,0.0,0.0,0.0,0.0,0.0
210,1724915390005964268,-0.4937676191329956,0.09901873767375946,0.1690085530281067,0.02224484458565712,-0.005904954858124256,-0.29752129316329956,0.954437792301178,0.0,0.0,0.0,0.0,0.0,0.0
212,1724915390015616493,-0.4936888813972473,0.09821881353855133,0.16860781610012054,0.023803114891052246,-0.0037952889688313007,-0.2986143231391907,0.9540694952011108,0.0,0.0,0.0,0.0,0.0,0.0
214,1724915390033513681,-0.4936853349208832,0.09746085852384567,0.16784285008907318,0.02597385086119175,-0.003163734683766961,-0.2978613078594208,0.9542505145072937,0.0,0.0,0.0,0.0,0.0,0.0
216,1724915390036136827,-0.4937751889228821,0.09652434289455414,0.1669304072856903,0.0265518706291914,-0.004463311284780502,-0.2969326376914978,0.9545187950134277,0.0,0.0,0.0,0.0,0.0,0.0
218,1724915390046445554,-0.49384433031082153,0.09567726403474808,0.16635532677173615,0.027018852531909943,-0.004367500077933073,-0.29765892028808594,0.954279899597168,0.0,0.0,0.0,0.0,0.0,0.0
220,1724915390118693596,-0.4938610792160034,0.09493233263492584,0.16589805483818054,0.0276610367000103,-0.003784122411161661,-0.29882967472076416,0.953898012638092,0.0,0.0,0.0,0.0,0.0,0.0
222,1724915390119185123,-0.4938536584377289,0.09410911053419113,0.165205180644989,0.02912736125290394,-0.004552813712507486,-0.29890355467796326,0.9538277983665466,0.0,0.0,0.0,0.0,0.0,0.0
224,1724915390119473611,-0.4937659204006195,0.09338979423046112,0.16456647217273712,0.030694501474499702,-0.003037628484889865,-0.3005638122558594,0.9532628059387207,0.0,0.0,0.0,0.0,0.0,0.0
226,1724915390119702850,-0.4937807321548462,0.09269599616527557,0.16394899785518646,0.030524563044309616,-0.0025361180305480957,-0.30249568819999695,0.9526585340499878,0.0,0.0,0.0,0.0,0.0,0.0
228,1724915390119937152,-0.4937345087528229,0.09215097874403,0.16335856914520264,0.030213285237550735,-0.0020439440850168467,-0.30381304025650024,0.9522502422332764,0.0,0.0,0.0,0.0,0.0,0.0
230,1724915390120185031,-0.4937331974506378,0.09140326082706451,0.16269907355308533,0.030172528699040413,-0.003191511146724224,-0.30394476652145386,0.9522064328193665,0.0,0.0,0.0,0.0,0.0,0.0
232,1724915390120473980,-0.49372702836990356,0.09093786776065826,0.16228020191192627,0.03169934079051018,-0.0013455840526148677,-0.30592769384384155,0.9515259861946106,0.0,0.0,0.0,0.0,0.0,0.0
234,1724915390126001215,-0.49369555711746216,0.09045306593179703,0.16181054711341858,0.03215022012591362,-0.001168247195892036,-0.30716702342033386,0.9511116743087769,0.0,0.0,0.0,0.0,0.0,0.0
236,1724915390137136653,-0.4935515820980072,0.08998128771781921,0.16133713722229004,0.033884938806295395,-0.0003924070915672928,-0.30854082107543945,0.9506073594093323,0.0,0.0,0.0,0.0,0.0,0.0
238,1724915390145727531,-0.4934673309326172,0.08944211155176163,0.16087105870246887,0.034085702151060104,-7.630563050042838e-05,-0.30981993675231934,0.9501841068267822,0.0,0.0,0.0,0.0,0.0,0.0
240,1724915390155747789,-0.49336278438568115,0.08903802931308746,0.1606805920600891,0.03476690500974655,0.0005325832171365619,-0.3109418451786041,0.949792742729187,0.0,0.0,0.0,0.0,0.0,0.0
242,1724915390177049597,-0.4932125210762024,0.08857828378677368,0.1604759246110916,0.03535057604312897,0.0005911440821364522,-0.3118117153644562,0.9494858980178833,0.0,0.0,0.0,0.0,0.0,0.0
244,1724915390177442473,-0.4930424094200134,0.0881095826625824,0.16028480231761932,0.036953072994947433,-0.0002922194835264236,-0.31284299492836,0.9490857720375061,0.0,0.0,0.0,0.0,0.0,0.0
246,1724915390186146210,-0.49294936656951904,0.08771180361509323,0.1600886583328247,0.03677115589380264,-0.0003679231449496001,-0.31418997049331665,0.948647677898407,0.0,0.0,0.0,0.0,0.0,0.0
248,1724915390199194705,-0.4929454028606415,0.08727256208658218,0.16003867983818054,0.03657820075750351,-0.00010716277756728232,-0.315712034702301,0.9481497406959534,0.0,0.0,0.0,0.0,0.0,0.0
250,1724915390205571159,-0.49294692277908325,0.08688761293888092,0.15982744097709656,0.0360259935259819,-0.000360114878276363,-0.3163989782333374,0.9479418992996216,0.0,0.0,0.0,0.0,0.0,0.0
252,1724915390215980549,-0.492885559797287,0.0865335464477539,0.15963758528232574,0.036091625690460205,-0.0007624456775374711,-0.31754249334335327,0.9475566148757935,0.0,0.0,0.0,0.0,0.0,0.0
254,1724915390226257330,-0.4928242564201355,0.08607305586338043,0.15927760303020477,0.03531923145055771,-0.0011280718026682734,-0.3196762204170227,0.9468677043914795,0.0,0.0,0.0,0.0,0.0,0.0
256,1724915390236128503,-0.49265560507774353,0.08576355129480362,0.15903860330581665,0.03658786416053772,0.0011554233497008681,-0.3226161003112793,0.9458218216896057,0.0,0.0,0.0,0.0,0.0,0.0
258,1724915390246806437,-0.4925920069217682,0.08543325215578079,0.15862375497817993,0.03560633584856987,0.0004609509196598083,-0.3238927125930786,0.945423424243927,0.0,0.0,0.0,0.0,0.0,0.0
260,1724915390255713855,-0.4924730360507965,0.08514995872974396,0.15832683444023132,0.03592459112405777,-0.0005066525191068649,-0.32487034797668457,0.9450759291648865,0.0,0.0,0.0,0.0,0.0,0.0
262,1724915390265632212,-0.49235808849334717,0.08495167642831802,0.15812243521213531,0.03700155392289162,-0.00042324859532527626,-0.3259883224964142,0.9446493983268738,0.0,0.0,0.0,0.0,0.0,0.0
264,1724915390277747785,-0.49237486720085144,0.08473455905914307,0.1580905318260193,0.036352191120386124,-0.0007122675306163728,-0.3283068537712097,0.9438710808753967,0.0,0.0,0.0,0.0,0.0,0.0
266,1724915390286037876,-0.4923623204231262,0.08470899611711502,0.15798023343086243,0.03690701723098755,-6.875732651678845e-05,-0.3295379877090454,0.9434207081794739,0.0,0.0,0.0,0.0,0.0,0.0
268,1724915390300400322,-0.4923247694969177,0.08462946861982346,0.15795694291591644,0.03776388242840767,0.0008524166769348085,-0.3308422267436981,0.9429298043251038,0.0,0.0,0.0,0.0,0.0,0.0
270,1724915390305365410,-0.492296040058136,0.0844702199101448,0.1579194962978363,0.03772105276584625,0.0010156092466786504,-0.3325798511505127,0.9423198699951172,0.0,0.0,0.0,0.0,0.0,0.0
272,1724915390315748035,-0.4922385811805725,0.08431147783994675,0.157785102725029,0.03748636320233345,0.0006618508487008512,-0.33412259817123413,0.9417837262153625,0.0,0.0,0.0,0.0,0.0,0.0
274,1724915390388395123,-0.4921628534793854,0.08427514880895615,0.15775541961193085,0.03721029683947563,0.0006445913459174335,-0.3357808291912079,0.9412046670913696,0.0,0.0,0.0,0.0,0.0,0.0
276,1724915390388739246,-0.4921085238456726,0.0841553583741188,0.15777172148227692,0.03716280311346054,0.0007404766511172056,-0.3374069333076477,0.9406248331069946,0.0,0.0,0.0,0.0,0.0,0.0
278,1724915390389495742,-0.49204131960868835,0.08411610871553421,0.1577993780374527,0.03663395345211029,0.00111311802174896,-0.33892473578453064,0.94009929895401,0.0,0.0,0.0,0.0,0.0,0.0
280,1724915390390450608,-0.4919009208679199,0.08404195308685303,0.1577092856168747,0.035982895642519,0.0007658532122150064,-0.3399202823638916,0.9397653937339783,0.0,0.0,0.0,0.0,0.0,0.0
282,1724915390390695380,-0.4916962683200836,0.08406895399093628,0.15777400135993958,0.03643161058425903,0.0013576728524640203,-0.3418501317501068,0.9390470385551453,0.0,0.0,0.0,0.0,0.0,0.0
284,1724915390390939746,-0.49159854650497437,0.08405884355306625,0.157771497964859,0.035726338624954224,0.0014404203975573182,-0.34410035610198975,0.9382519125938416,0.0,0.0,0.0,0.0,0.0,0.0
286,1724915390391213950,-0.4914136528968811,0.08397401124238968,0.15765036642551422,0.036438263952732086,0.0007889409898780286,-0.34551289677619934,0.9377059936523438,0.0,0.0,0.0,0.0,0.0,0.0
288,1724915390396279500,-0.4911733865737915,0.08394262939691544,0.1576513648033142,0.0365612730383873,0.0008848710567690432,-0.34696441888809204,0.9371650218963623,0.0,0.0,0.0,0.0,0.0,0.0
290,1724915390405771226,-0.49097904562950134,0.08396118134260178,0.15777893364429474,0.03632267192006111,0.0011845894623547792,-0.3487342894077301,0.9365168213844299,0.0,0.0,0.0,0.0,0.0,0.0
292,1724915390419692799,-0.4907599091529846,0.08398459851741791,0.15783728659152985,0.03732063248753548,0.001625529839657247,-0.35034528374671936,0.935875415802002,0.0,0.0,0.0,0.0,0.0,0.0
294,1724915390426306313,-0.49055612087249756,0.08407576382160187,0.15804705023765564,0.03790028393268585,0.0029790967237204313,-0.3527316749095917,0.934951901435852,0.0,0.0,0.0,0.0,0.0,0.0
296,1724915390437391173,-0.4905182123184204,0.08402600884437561,0.15794497728347778,0.037227291613817215,0.00256135780364275,-0.35402724146842957,0.9344903826713562,0.0,0.0,0.0,0.0,0.0,0.0
298,1724915390448151363,-0.49037304520606995,0.08398769795894623,0.15796662867069244,0.03677193820476532,0.0022734825033694506,-0.35533851385116577,0.9340113401412964,0.0,0.0,0.0,0.0,0.0,0.0
300,1724915390455515488,-0.49036842584609985,0.08394481986761093,0.1580606997013092,0.03541943430900574,0.0021207269746810198,-0.35731616616249084,0.9333093166351318,0.0,0.0,0.0,0.0,0.0,0.0
302,1724915390467029074,-0.49030065536499023,0.0839303731918335,0.15810085833072662,0.03475213423371315,0.0021473108790814877,-0.35894736647605896,0.932708203792572,0.0,0.0,0.0,0.0,0.0,0.0
304,1724915390476892307,-0.4902460277080536,0.08395843207836151,0.15812014043331146,0.03477790579199791,0.0022461144253611565,-0.360342800617218,0.93216872215271,0.0,0.0,0.0,0.0,0.0,0.0
306,1724915390486185246,-0.49018794298171997,0.08415158838033676,0.15836691856384277,0.03527434170246124,0.003631846746429801,-0.3625115752220154,0.9313045144081116,0.0,0.0,0.0,0.0,0.0,0.0
308,1724915390496852193,-0.49018239974975586,0.08432906866073608,0.15846848487854004,0.03505033999681473,0.004263600800186396,-0.3642580807209015,0.9306284785270691,0.0,0.0,0.0,0.0,0.0,0.0
310,1724915390505988036,-0.4901994466781616,0.08440297096967697,0.15824882686138153,0.03419686108827591,0.002632763469591737,-0.36482229828834534,0.9304451942443848,0.0,0.0,0.0,0.0,0.0,0.0
312,1724915390516019076,-0.49016663432121277,0.08465564996004105,0.1583503633737564,0.0354805514216423,0.0033243652433156967,-0.3662642538547516,0.9298282861709595,0.0,0.0,0.0,0.0,0.0,0.0
314,1724915390527095268,-0.4902290105819702,0.08486229181289673,0.15849678218364716,0.03612972050905228,0.0032652991358190775,-0.3675563633441925,0.9292934536933899,0.0,0.0,0.0,0.0,0.0,0.0
316,1724915390536117828,-0.49039337038993835,0.08503961563110352,0.15870119631290436,0.03535927087068558,0.0033617070876061916,-0.36858704686164856,0.9289144277572632,0.0,0.0,0.0,0.0,0.0,0.0
318,1724915390546271515,-0.49063611030578613,0.08520134538412094,0.15876303613185883,0.034774575382471085,0.0029289796948432922,-0.3689735233783722,0.9287844896316528,0.0,0.0,0.0,0.0,0.0,0.0
320,1724915390555641970,-0.49091315269470215,0.08549309521913528,0.15911301970481873,0.03307400271296501,0.004101361148059368,-0.37063270807266235,0.9281814694404602,0.0,0.0,0.0,0.0,0.0,0.0
322,1724915390566323222,-0.49115875363349915,0.08590175956487656,0.1593930870294571,0.03343089669942856,0.004356992430984974,-0.37147578597068787,0.9278303384780884,0.0,0.0,0.0,0.0,0.0,0.0
324,1724915390579330286,-0.4913715422153473,0.08623868227005005,0.15995463728904724,0.03367258608341217,0.004145503044128418,-0.3724629580974579,0.9274266958236694,0.0,0.0,0.0,0.0,0.0,0.0
326,1724915390585970579,-0.491599977016449,0.08671221137046814,0.16070149838924408,0.03284149244427681,0.0036467446479946375,-0.37400731444358826,0.9268369674682617,0.0,0.0,0.0,0.0,0.0,0.0
328,1724915390597372713,-0.4917594790458679,0.08722707629203796,0.16162806749343872,0.030487019568681717,0.0032558399252593517,-0.37561655044555664,0.9262678623199463,0.0,0.0,0.0,0.0,0.0,0.0
330,1724915390605684778,-0.49184536933898926,0.08785140514373779,0.16223753988742828,0.02952326461672783,0.003797812620177865,-0.3761456608772278,0.9260823130607605,0.0,0.0,0.0,0.0,0.0,0.0
332,1724915390615749609,-0.4917401075363159,0.0885976254940033,0.16307109594345093,0.029729589819908142,0.005675135180354118,-0.37785640358924866,0.9253694415092468,0.0,0.0,0.0,0.0,0.0,0.0
334,1724915390626158424,-0.4918815791606903,0.08918856084346771,0.16366423666477203,0.02723965235054493,0.004695303272455931,-0.3783595860004425,0.9252459406852722,0.0,0.0,0.0,0.0,0.0,0.0
336,1724915390635919138,-0.4917973279953003,0.08976946026086807,0.16488634049892426,0.026780202984809875,0.004965365864336491,-0.3812743127346039,0.9240606427192688,0.0,0.0,0.0,0.0,0.0,0.0
338,1724915390645832886,-0.4917449355125427,0.09057333320379257,0.16580608487129211,0.025762807577848434,0.005425913259387016,-0.38246649503707886,0.9235942959785461,0.0,0.0,0.0,0.0,0.0,0.0
340,1724915390657151260,-0.4917144477367401,0.09110886603593826,0.16650821268558502,0.024358045309782028,0.004946210887283087,-0.383475124835968,0.9232166409492493,0.0,0.0,0.0,0.0,0.0,0.0
342,1724915390668440348,-0.4916892647743225,0.09174162149429321,0.16692332923412323,0.02303028665482998,0.004099383018910885,-0.38340991735458374,0.9232820272445679,0.0,0.0,0.0,0.0,0.0,0.0
344,1724915390675845146,-0.49168455600738525,0.0923442542552948,0.16752830147743225,0.02167459763586521,0.0026569401379674673,-0.38345032930374146,0.9233033061027527,0.0,0.0,0.0,0.0,0.0,0.0
346,1724915390686328960,-0.4916611611843109,0.09288688004016876,0.16828180849552155,0.020658347755670547,0.0018007964827120304,-0.38399621844291687,0.9231018424034119,0.0,0.0,0.0,0.0,0.0,0.0
348,1724915390695803252,-0.49154990911483765,0.09361490607261658,0.16917972266674042,0.020989462733268738,0.0028312818612903357,-0.3853779435157776,0.9225158095359802,0.0,0.0,0.0,0.0,0.0,0.0
350,1724915390705588870,-0.49142423272132874,0.09450965374708176,0.16977669298648834,0.019998939707875252,0.002000946318730712,-0.3836703300476074,0.9232513308525085,0.0,0.0,0.0,0.0,0.0,0.0
352,1724915390716891922,-0.491329163312912,0.09562095254659653,0.17006906867027283,0.019191738218069077,9.749822493176907e-05,-0.3802223801612854,0.9246959686279297,0.0,0.0,0.0,0.0,0.0,0.0
354,1724915390730238972,-0.49141424894332886,0.09692957997322083,0.17009617388248444,0.01385460700839758,-0.00015461668954230845,-0.3764668405056,0.9263265132904053,0.0,0.0,0.0,0.0,0.0,0.0
356,1724915390736056001,-0.4911230802536011,0.09844864904880524,0.17002756893634796,0.011179868131875992,0.000515305669978261,-0.37156441807746887,0.9283397197723389,0.0,0.0,0.0,0.0,0.0,0.0
358,1724915390748078420,-0.4910465478897095,0.10006311535835266,0.16987688839435577,0.009674163535237312,0.0001647776080062613,-0.3663374185562134,0.9304317831993103,0.0,0.0,0.0,0.0,0.0,0.0
360,1724915390755428408,-0.4910126328468323,0.10178324580192566,0.1701304316520691,0.008875113911926746,0.0004838875902350992,-0.36249038577079773,0.9319452047348022,0.0,0.0,0.0,0.0,0.0,0.0
362,1724915390767139529,-0.4912589490413666,0.10351813584566116,0.17024162411689758,0.0068349712528288364,-0.001957648666575551,-0.3584515154361725,0.9335213303565979,0.0,0.0,0.0,0.0,0.0,0.0
364,1724915390778101361,-0.4913841485977173,0.10510367155075073,0.17065376043319702,0.005763712804764509,-0.00390263763256371,-0.35639655590057373,0.9343088269233704,0.0,0.0,0.0,0.0,0.0,0.0
366,1724915390786082138,-0.49147725105285645,0.10680582374334335,0.17133118212223053,0.003835308365523815,-0.0038747130893170834,-0.3559119403362274,0.9345036745071411,0.0,0.0,0.0,0.0,0.0,0.0
368,1724915390796141099,-0.4915233254432678,0.10824444890022278,0.17198464274406433,0.003925862722098827,-0.004306980408728123,-0.3555522859096527,0.9346382021903992,0.0,0.0,0.0,0.0,0.0,0.0
370,1724915390805621060,-0.49139270186424255,0.10969646275043488,0.17269444465637207,0.0019992657471448183,-0.005296824965626001,-0.3554287552833557,0.9346861839294434,0.0,0.0,0.0,0.0,0.0,0.0
372,1724915390815884451,-0.49104776978492737,0.1113029196858406,0.1728573888540268,-0.0006605706294067204,-0.0066146268509328365,-0.35366037487983704,0.9353503584861755,0.0,0.0,0.0,0.0,0.0,0.0
374,1724915390827136394,-0.4907984733581543,0.11244846880435944,0.17266292870044708,-0.0020470384042710066,-0.00857575610280037,-0.3532041609287262,0.9355047941207886,0.0,0.0,0.0,0.0,0.0,0.0
376,1724915390836406840,-0.4905289113521576,0.11353123933076859,0.17256149649620056,-0.005273208022117615,-0.00919822882860899,-0.3537850081920624,0.9352667331695557,0.0,0.0,0.0,0.0,0.0,0.0
378,1724915390849065719,-0.4901328384876251,0.11441907286643982,0.17255038022994995,-0.007284276187419891,-0.008750665932893753,-0.3552962839603424,0.9346844553947449,0.0,0.0,0.0,0.0,0.0,0.0
380,1724915390856454480,-0.4896809756755829,0.11520016938447952,0.17222267389297485,-0.008834488689899445,-0.00993491429835558,-0.3557768166065216,0.9344764947891235,0.0,0.0,0.0,0.0,0.0,0.0
382,1724915390865844257,-0.4889373481273651,0.116053007543087,0.17215006053447723,-0.008752799592912197,-0.010715744458138943,-0.35778290033340454,0.9337023496627808,0.0,0.0,0.0,0.0,0.0,0.0
384,1724915390880109386,-0.4883897602558136,0.11681066453456879,0.17196150124073029,-0.012255138717591763,-0.012591873295605183,-0.36121177673339844,0.9323182702064514,0.0,0.0,0.0,0.0,0.0,0.0
386,1724915390887131945,-0.48791608214378357,0.11751294136047363,0.17210811376571655,-0.016125580295920372,-0.012699433602392673,-0.3660467565059662,0.9303700923919678,0.0,0.0,0.0,0.0,0.0,0.0
388,1724915390896286332,-0.4874759912490845,0.11835495382547379,0.17246663570404053,-0.019420355558395386,-0.011885270476341248,-0.37147125601768494,0.9281651973724365,0.0,0.0,0.0,0.0,0.0,0.0
390,1724915390906782253,-0.48718148469924927,0.11905655264854431,0.1724913865327835,-0.02270110324025154,-0.014030012302100658,-0.37495309114456177,0.9266596436500549,0.0,0.0,0.0,0.0,0.0,0.0
392,1724915390916114388,-0.4868602454662323,0.12003450095653534,0.17243701219558716,-0.025055279955267906,-0.014755522832274437,-0.3780948221683502,0.9253101348876953,0.0,0.0,0.0,0.0,0.0,0.0
394,1724915390926124557,-0.48660629987716675,0.12103011459112167,0.17235520482063293,-0.02735208347439766,-0.01522752270102501,-0.3811452388763428,0.9239850640296936,0.0,0.0,0.0,0.0,0.0,0.0
396,1724915390937000913,-0.4863922894001007,0.12210605293512344,0.17223085463047028,-0.028186339884996414,-0.015498684719204903,-0.3834455907344818,0.9230032563209534,0.0,0.0,0.0,0.0,0.0,0.0
398,1724915390946192287,-0.4864503741264343,0.12308599054813385,0.17191223800182343,-0.03273845836520195,-0.016799651086330414,-0.3836943209171295,0.9227268695831299,0.0,0.0,0.0,0.0,0.0,0.0
400,1724915390956114132,-0.4863021671772003,0.12430675327777863,0.17160874605178833,-0.032108258455991745,-0.017221082001924515,-0.38352516293525696,0.9228114485740662,0.0,0.0,0.0,0.0,0.0,0.0
402,1724915390967919785,-0.48640233278274536,0.12546023726463318,0.1711343228816986,-0.032976046204566956,-0.018838584423065186,-0.3830280303955078,0.9229558110237122,0.0,0.0,0.0,0.0,0.0,0.0
404,1724915390976354424,-0.48668524622917175,0.12670694291591644,0.17085497081279755,-0.03652710095047951,-0.019506799057126045,-0.3829461336135864,0.9228421449661255,0.0,0.0,0.0,0.0,0.0,0.0
406,1724915390985982565,-0.48689207434654236,0.12773440778255463,0.17057956755161285,-0.03890334814786911,-0.02049875818192959,-0.38223952054977417,0.9230164289474487,0.0,0.0,0.0,0.0,0.0,0.0
408,1724915390996618044,-0.48704469203948975,0.12859788537025452,0.17053461074829102,-0.040101002901792526,-0.021542206406593323,-0.3830990791320801,0.9225850105285645,0.0,0.0,0.0,0.0,0.0,0.0
410,1724915391005528129,-0.4872918128967285,0.12951946258544922,0.17042487859725952,-0.041999753564596176,-0.021964706480503082,-0.3837663233280182,0.9222131371498108,0.0,0.0,0.0,0.0,0.0,0.0
412,1724915391071820182,-0.4875376224517822,0.130416139960289,0.17013706266880035,-0.043409887701272964,-0.021687328815460205,-0.3832610547542572,0.9223644733428955,0.0,0.0,0.0,0.0,0.0,0.0
414,1724915391072182296,-0.4878244698047638,0.13130584359169006,0.16976210474967957,-0.04357311874628067,-0.020360298454761505,-0.38267654180526733,0.922629714012146,0.0,0.0,0.0,0.0,0.0,0.0
416,1724915391072478714,-0.4880695939064026,0.13197019696235657,0.16932418942451477,-0.04558612406253815,-0.020732076838612556,-0.3823939859867096,0.9226413369178772,0.0,0.0,0.0,0.0,0.0,0.0
418,1724915391072730861,-0.4882306158542633,0.1326679289340973,0.16875556111335754,-0.04636901617050171,-0.020748218521475792,-0.38212186098098755,0.9227145910263062,0.0,0.0,0.0,0.0,0.0,0.0
420,1724915391072979709,-0.4883911609649658,0.13322196900844574,0.1682668775320053,-0.046986743807792664,-0.02106785587966442,-0.3819543123245239,0.9227455854415894,0.0,0.0,0.0,0.0,0.0,0.0
422,1724915391073228413,-0.48848825693130493,0.133786141872406,0.16762259602546692,-0.04831715300679207,-0.021320562809705734,-0.3813974857330322,0.9229013919830322,0.0,0.0,0.0,0.0,0.0,0.0
424,1724915391077368088,-0.4886876940727234,0.13421174883842468,0.16653993725776672,-0.04971926286816597,-0.02289574407041073,-0.37908485531806946,0.9237415790557861,0.0,0.0,0.0,0.0,0.0,0.0
426,1724915391099625982,-0.48869094252586365,0.13465432822704315,0.16582059860229492,-0.050106655806303024,-0.02370639517903328,-0.3786061108112335,0.9238964915275574,0.0,0.0,0.0,0.0,0.0,0.0
428,1724915391099877605,-0.4886614680290222,0.13518893718719482,0.1652342677116394,-0.049855418503284454,-0.024563882499933243,-0.37830740213394165,0.9240100979804993,0.0,0.0,0.0,0.0,0.0,0.0
430,1724915391106135868,-0.4887063801288605,0.13558422029018402,0.16477344930171967,-0.05103227123618126,-0.02475799433887005,-0.3781924843788147,0.9239876866340637,0.0,0.0,0.0,0.0,0.0,0.0
432,1724915391115603975,-0.48867130279541016,0.13594263792037964,0.16436399519443512,-0.05089041590690613,-0.02555675432085991,-0.37780818343162537,0.924130916595459,0.0,0.0,0.0,0.0,0.0,0.0
434,1724915391126002498,-0.48866382241249084,0.13627783954143524,0.16386865079402924,-0.05157768726348877,-0.025964675471186638,-0.37710312008857727,0.9243695139884949,0.0,0.0,0.0,0.0,0.0,0.0
436,1724915391137137363,-0.488698810338974,0.13661614060401917,0.16339866816997528,-0.05212834104895592,-0.026137959212064743,-0.37632766366004944,0.924649715423584,0.0,0.0,0.0,0.0,0.0,0.0
438,1724915391145885039,-0.4887170195579529,0.13688932359218597,0.1628648042678833,-0.052002038806676865,-0.026706555858254433,-0.37500372529029846,0.9251782894134521,0.0,0.0,0.0,0.0,0.0,0.0
440,1724915391155676615,-0.48869600892066956,0.1372639238834381,0.1625833660364151,-0.052278924733400345,-0.02647680602967739,-0.374450147151947,0.9253934025764465,0.0,0.0,0.0,0.0,0.0,0.0
442,1724915391169325565,-0.4888218641281128,0.13766805827617645,0.16237418353557587,-0.05492883175611496,-0.024899983778595924,-0.37330710887908936,0.92574542760849,0.0,0.0,0.0,0.0,0.0,0.0
444,1724915391176382859,-0.4888771176338196,0.13814960420131683,0.162167027592659,-0.055893320590257645,-0.02449660934507847,-0.37201350927352905,0.92621910572052,0.0,0.0,0.0,0.0,0.0,0.0
446,1724915391186303735,-0.48888570070266724,0.1384926587343216,0.1618504673242569,-0.056150250136852264,-0.024543417617678642,-0.37048113346099854,0.9268163442611694,0.0,0.0,0.0,0.0,0.0,0.0
448,1724915391195678393,-0.48883843421936035,0.13879679143428802,0.1614898443222046,-0.055494654923677444,-0.025271054357290268,-0.36840561032295227,0.9276632070541382,0.0,0.0,0.0,0.0,0.0,0.0
450,1724915391205721907,-0.488810658454895,0.13914306461811066,0.16127482056617737,-0.055016450583934784,-0.026004215702414513,-0.3671078383922577,0.928185760974884,0.0,0.0,0.0,0.0,0.0,0.0
452,1724915391216578841,-0.48884090781211853,0.13948041200637817,0.16110125184059143,-0.055468641221523285,-0.025994492694735527,-0.36568576097488403,0.9287203550338745,0.0,0.0,0.0,0.0,0.0,0.0
454,1724915391284288678,-0.4888312816619873,0.13979914784431458,0.16090235114097595,-0.05557071417570114,-0.025975476950407028,-0.36425453424453735,0.9292770624160767,0.0,0.0,0.0,0.0,0.0,0.0
456,1724915391284546059,-0.488796591758728,0.1401958465576172,0.16075655817985535,-0.056074466556310654,-0.02525746077299118,-0.36299675703048706,0.9297586679458618,0.0,0.0,0.0,0.0,0.0,0.0
458,1724915391284883843,-0.4888148605823517,0.1405419409275055,0.16056986153125763,-0.057262126356363297,-0.024951329454779625,-0.361537367105484,0.9302629828453064,0.0,0.0,0.0,0.0,0.0,0.0
460,1724915391285178780,-0.4887528419494629,0.14077548682689667,0.1603507250547409,-0.05692050978541374,-0.024906858801841736,-0.3597720265388489,0.9309693574905396,0.0,0.0,0.0,0.0,0.0,0.0
462,1724915391285445125,-0.4886561930179596,0.14099933207035065,0.16026060283184052,-0.056213341653347015,-0.02490638568997383,-0.3582112491130829,0.9316139221191406,0.0,0.0,0.0,0.0,0.0,0.0
464,1724915391285701812,-0.4886001944541931,0.14128921926021576,0.16003833711147308,-0.05741502717137337,-0.02556591108441353,-0.35563915967941284,0.9325077533721924,0.0,0.0,0.0,0.0,0.0,0.0
466,1724915391286160549,-0.48850536346435547,0.1414758414030075,0.15994597971439362,-0.05748318135738373,-0.025416988879442215,-0.35424137115478516,0.9330394864082336,0.0,0.0,0.0,0.0,0.0,0.0
468,1724915391296696209,-0.48846644163131714,0.1416243612766266,0.1598958671092987,-0.05708373710513115,-0.025356322526931763,-0.3532123863697052,0.9334557056427002,0.0,0.0,0.0,0.0,0.0,0.0
470,1724915391305749503,-0.4884456396102905,0.1417342722415924,0.15991531312465668,-0.05685219168663025,-0.025357987731695175,-0.3523745536804199,0.9337864518165588,0.0,0.0,0.0,0.0,0.0,0.0
472,1724915391315571714,-0.4884045422077179,0.1416938751935959,0.1597890406847,-0.05548902973532677,-0.026854125782847404,-0.35067155957221985,0.9344673752784729,0.0,0.0,0.0,0.0,0.0,0.0
474,1724915391326778920,-0.48835843801498413,0.14171379804611206,0.15979769825935364,-0.05458156391978264,-0.026804465800523758,-0.3496284484863281,0.9349129796028137,0.0,0.0,0.0,0.0,0.0,0.0
476,1724915391336049982,-0.48838603496551514,0.14170712232589722,0.1597878634929657,-0.05454419180750847,-0.026724714785814285,-0.3485856354236603,0.9353068470954895,0.0,0.0,0.0,0.0,0.0,0.0
478,1724915391349752854,-0.4884667694568634,0.14171218872070312,0.15978428721427917,-0.05483284965157509,-0.02648799493908882,-0.3477007746696472,0.9356259703636169,0.0,0.0,0.0,0.0,0.0,0.0
480,1724915391355478133,-0.48854339122772217,0.14164826273918152,0.1597568541765213,-0.055141620337963104,-0.026165833696722984,-0.34655165672302246,0.9360431432723999,0.0,0.0,0.0,0.0,0.0,0.0
482,1724915391365938942,-0.4886190593242645,0.14160098135471344,0.1597657948732376,-0.05520876497030258,-0.02632535807788372,-0.3452596962451935,0.9365120530128479,0.0,0.0,0.0,0.0,0.0,0.0
484,1724915391400932856,-0.4887802004814148,0.1416391134262085,0.15972940623760223,-0.05645080283284187,-0.026150325313210487,-0.34313270449638367,0.9372243881225586,0.0,0.0,0.0,0.0,0.0,0.0
486,1724915391401291276,-0.4888661205768585,0.14168521761894226,0.15963801741600037,-0.05585541948676109,-0.026214806362986565,-0.34097322821617126,0.9380459189414978,0.0,0.0,0.0,0.0,0.0,0.0
488,1724915391401549470,-0.48889395594596863,0.14187124371528625,0.15971273183822632,-0.05512157082557678,-0.025427719578146935,-0.3401409089565277,0.9384132027626038,0.0,0.0,0.0,0.0,0.0,0.0
490,1724915391405812706,-0.4889485239982605,0.14201220870018005,0.15972281992435455,-0.05439367890357971,-0.02523348480463028,-0.33876827359199524,0.9389572739601135,0.0,0.0,0.0,0.0,0.0,0.0
492,1724915391418439330,-0.4891039729118347,0.1421119123697281,0.159747913479805,-0.0560038723051548,-0.02453620918095112,-0.3374028503894806,0.9393725395202637,0.0,0.0,0.0,0.0,0.0,0.0
494,1724915391492491332,-0.48918697237968445,0.14219874143600464,0.15967287123203278,-0.05609521642327309,-0.024036621674895287,-0.33543744683265686,0.9400836825370789,0.0,0.0,0.0,0.0,0.0,0.0
496,1724915391492935456,-0.4892515242099762,0.14230850338935852,0.15973681211471558,-0.057121239602565765,-0.023974254727363586,-0.33389854431152344,0.9405712485313416,0.0,0.0,0.0,0.0,0.0,0.0
498,1724915391493496027,-0.48933979868888855,0.14226257801055908,0.15960751473903656,-0.05712826922535896,-0.024569561704993248,-0.33226528763771057,0.9411336779594421,0.0,0.0,0.0,0.0,0.0,0.0
500,1724915391494056264,-0.4893788695335388,0.14221183955669403,0.15958593785762787,-0.05693851411342621,-0.0247965008020401,-0.3309715688228607,0.9415948987007141,0.0,0.0,0.0,0.0,0.0,0.0
502,1724915391494618614,-0.4893724322319031,0.1421615183353424,0.15959432721138,-0.054748836904764175,-0.025308659300208092,-0.3296380639076233,0.9421787261962891,0.0,0.0,0.0,0.0,0.0,0.0
504,1724915391495172980,-0.489533394575119,0.14197124540805817,0.15958000719547272,-0.054788459092378616,-0.02587711624801159,-0.3275262415409088,0.9428972601890564,0.0,0.0,0.0,0.0,0.0,0.0
506,1724915391495726906,-0.48970896005630493,0.14186015725135803,0.15961366891860962,-0.05479564145207405,-0.02575165405869484,-0.3257697820663452,0.9435085654258728,0.0,0.0,0.0,0.0,0.0,0.0
508,1724915391522174185,-0.4899711608886719,0.14175865054130554,0.1595975160598755,-0.054799024015665054,-0.02572094090282917,-0.32379674911499023,0.944188117980957,0.0,0.0,0.0,0.0,0.0,0.0
510,1724915391522448095,-0.49022412300109863,0.14163090288639069,0.1596970558166504,-0.055463969707489014,-0.025095326825976372,-0.32244035601615906,0.9446302652359009,0.0,0.0,0.0,0.0,0.0,0.0
512,1724915391522730749,-0.4904613494873047,0.14154289662837982,0.15982553362846375,-0.055536843836307526,-0.024349568411707878,-0.3209969699382782,0.9451368451118469,0.0,0.0,0.0,0.0,0.0,0.0
514,1724915391526414959,-0.4906751811504364,0.1415887475013733,0.16017141938209534,-0.05517907440662384,-0.022997921332716942,-0.3204043507575989,0.9453927278518677,0.0,0.0,0.0,0.0,0.0,0.0
516,1724915391535990449,-0.4909626245498657,0.14154401421546936,0.16039134562015533,-0.0559658445417881,-0.022841671481728554,-0.31882020831108093,0.9458857774734497,0.0,0.0,0.0,0.0,0.0,0.0
518,1724915391546051896,-0.49118220806121826,0.1414843499660492,0.16047900915145874,-0.055907875299453735,-0.022450003772974014,-0.31717392802238464,0.9464518427848816,0.0,0.0,0.0,0.0,0.0,0.0
520,1724915391555515651,-0.4914497435092926,0.14124761521816254,0.1604127585887909,-0.05627136304974556,-0.023054031655192375,-0.3148958384990692,0.9471761584281921,0.0,0.0,0.0,0.0,0.0,0.0
522,1724915391566376118,-0.49161070585250854,0.1410379558801651,0.16054193675518036,-0.05591290816664696,-0.022947799414396286,-0.31372538208961487,0.947588324546814,0.0,0.0,0.0,0.0,0.0,0.0
524,1724915391576059940,-0.4917546808719635,0.14084526896476746,0.1606222540140152,-0.05574186518788338,-0.022824175655841827,-0.31234779953956604,0.9480563998222351,0.0,0.0,0.0,0.0,0.0,0.0
526,1724915391601750571,-0.4918520152568817,0.14058999717235565,0.16083577275276184,-0.05588149279356003,-0.022672295570373535,-0.31099018454551697,0.9484979510307312,0.0,0.0,0.0,0.0,0.0,0.0
528,1724915391602250297,-0.4919363856315613,0.14032772183418274,0.1609961986541748,-0.055380672216415405,-0.022644439712166786,-0.3095959722995758,0.9489839673042297,0.0,0.0,0.0,0.0,0.0,0.0
530,1724915391606076253,-0.49202463030815125,0.13993121683597565,0.16107311844825745,-0.055117104202508926,-0.022426113486289978,-0.3079603910446167,0.9495365023612976,0.0,0.0,0.0,0.0,0.0,0.0
532,1724915391615880616,-0.49207597970962524,0.13948103785514832,0.16137944161891937,-0.05433013290166855,-0.021860405802726746,-0.3064430356025696,0.9500858783721924,0.0,0.0,0.0,0.0,0.0,0.0
534,1724915391625895816,-0.4919999837875366,0.13900405168533325,0.16209004819393158,-0.051857784390449524,-0.021418949589133263,-0.30571219325065613,0.950469434261322,0.0,0.0,0.0,0.0,0.0,0.0
536,1724915391635515449,-0.49205276370048523,0.13850916922092438,0.16307199001312256,-0.05157997086644173,-0.021459121257066727,-0.3053490221500397,0.9506003260612488,0.0,0.0,0.0,0.0,0.0,0.0
538,1724915391647553549,-0.4921981394290924,0.13796716928482056,0.16405515372753143,-0.05122574046254158,-0.021637672558426857,-0.30448347330093384,0.9508930444717407,0.0,0.0,0.0,0.0,0.0,0.0
540,1724915391655859113,-0.49240389466285706,0.13732197880744934,0.16482262313365936,-0.050401926040649414,-0.021427005529403687,-0.30297720432281494,0.9514228105545044,0.0,0.0,0.0,0.0,0.0,0.0
542,1724915391668468221,-0.4925309717655182,0.13670574128627777,0.16564668715000153,-0.048809777945280075,-0.02041729725897312,-0.3021450638771057,0.9517925977706909,0.0,0.0,0.0,0.0,0.0,0.0
544,1724915391676054248,-0.4925289452075958,0.13612383604049683,0.1665637344121933,-0.04654061421751976,-0.01879805698990822,-0.30214646458625793,0.9519391655921936,0.0,0.0,0.0,0.0,0.0,0.0
546,1724915391685629287,-0.4925050139427185,0.13544589281082153,0.1674008071422577,-0.04524857923388481,-0.018264416605234146,-0.3014269471168518,0.9522399306297302,0.0,0.0,0.0,0.0,0.0,0.0
548,1724915391695763717,-0.4923805594444275,0.13469482958316803,0.16818518936634064,-0.04401300475001335,-0.018425967544317245,-0.3008306622505188,0.9524831771850586,0.0,0.0,0.0,0.0,0.0,0.0
550,1724915391711032251,-0.492260605096817,0.13377463817596436,0.16897179186344147,-0.04380068928003311,-0.017814915627241135,-0.30060192942619324,0.9525768756866455,0.0,0.0,0.0,0.0,0.0,0.0
552,1724915391728808688,-0.4920468330383301,0.13271909952163696,0.1697015017271042,-0.04258687421679497,-0.016748648136854172,-0.3013884723186493,0.952402651309967,0.0,0.0,0.0,0.0,0.0,0.0
554,1724915391729148280,-0.49194464087486267,0.131712406873703,0.1701754927635193,-0.04171851649880409,-0.015587007626891136,-0.3004281520843506,0.9527641534805298,0.0,0.0,0.0,0.0,0.0,0.0
556,1724915391736077745,-0.4917454123497009,0.13061414659023285,0.17045465111732483,-0.038427919149398804,-0.015757359564304352,-0.29902106523513794,0.9533422589302063,0.0,0.0,0.0,0.0,0.0,0.0
558,1724915391763429769,-0.4917144477367401,0.12936435639858246,0.17076162993907928,-0.03659611567854881,-0.016156040132045746,-0.29766154289245605,0.9538329839706421,0.0,0.0,0.0,0.0,0.0,0.0
560,1724915391764293204,-0.49155962467193604,0.12809708714485168,0.17136529088020325,-0.033592674881219864,-0.015617494471371174,-0.29803231358528137,0.9538366794586182,0.0,0.0,0.0,0.0,0.0,0.0
562,1724915391766753138,-0.49148228764533997,0.1269436478614807,0.17196108400821686,-0.03213493525981903,-0.014678393490612507,-0.29842743277549744,0.9537782073020935,0.0,0.0,0.0,0.0,0.0,0.0
564,1724915391777207980,-0.4916384816169739,0.12562283873558044,0.1719062477350235,-0.030012737959623337,-0.014682826586067677,-0.2971854507923126,0.9542350769042969,0.0,0.0,0.0,0.0,0.0,0.0
566,1724915391786345263,-0.49171289801597595,0.1243627667427063,0.17190763354301453,-0.028174666687846184,-0.012589405290782452,-0.29722583293914795,0.9543084502220154,0.0,0.0,0.0,0.0,0.0,0.0
568,1724915391796679699,-0.49184536933898926,0.12303663790225983,0.17180085182189941,-0.027963876724243164,-0.013659944757819176,-0.29771968722343445,0.9541459679603577,0.0,0.0,0.0,0.0,0.0,0.0
570,1724915391805830612,-0.49175605177879333,0.12198948860168457,0.17183104157447815,-0.02526259236037731,-0.01275237649679184,-0.2974914610385895,0.9543050527572632,0.0,0.0,0.0,0.0,0.0,0.0
572,1724915391816255254,-0.49164244532585144,0.12064527720212936,0.17171815037727356,-0.01990360952913761,-0.011059647426009178,-0.29668688774108887,0.9547033309936523,0.0,0.0,0.0,0.0,0.0,0.0
574,1724915391827681508,-0.4917476773262024,0.1192900612950325,0.1713131070137024,-0.016720302402973175,-0.011505506932735443,-0.29649829864501953,0.9548177123069763,0.0,0.0,0.0,0.0,0.0,0.0
576,1724915391835907196,-0.4918881952762604,0.11807320266962051,0.1711488664150238,-0.01467287726700306,-0.012064813636243343,-0.2959705591201782,0.9550081491470337,0.0,0.0,0.0,0.0,0.0,0.0
578,1724915391849588690,-0.4921649992465973,0.11690356582403183,0.17115113139152527,-0.012587708421051502,-0.010984985157847404,-0.2955397963523865,0.9551844000816345,0.0,0.0,0.0,0.0,0.0,0.0
580,1724915391856089554,-0.4925519526004791,0.11565782129764557,0.1713675856590271,-0.010851135477423668,-0.011022122576832771,-0.29590022563934326,0.9550936818122864,0.0,0.0,0.0,0.0,0.0,0.0
582,1724915391865725374,-0.49276894330978394,0.11422248929738998,0.17132575809955597,-0.007161394227296114,-0.01013464480638504,-0.2954178750514984,0.9552876353263855,0.0,0.0,0.0,0.0,0.0,0.0
584,1724915391875848798,-0.49299493432044983,0.11307477205991745,0.1711074709892273,-0.004002970177680254,-0.009237570688128471,-0.2947983741760254,0.9555065035820007,0.0,0.0,0.0,0.0,0.0,0.0
586,1724915391886705730,-0.4933692216873169,0.11191689968109131,0.17080606520175934,-0.002660196041688323,-0.008586791343986988,-0.294782429933548,0.9555221796035767,0.0,0.0,0.0,0.0,0.0,0.0
588,1724915391908051047,-0.49348142743110657,0.11089762300252914,0.17075474560260773,-0.0016029351390898228,-0.007314490620046854,-0.29484134912490845,0.9555168747901917,0.0,0.0,0.0,0.0,0.0,0.0
590,1724915391908412934,-0.4936552047729492,0.10968226939439774,0.17055462300777435,0.0014793646987527609,-0.006719239056110382,-0.29392632842063904,0.9558033347129822,0.0,0.0,0.0,0.0,0.0,0.0
592,1724915391916924447,-0.49396461248397827,0.10833200067281723,0.17053109407424927,0.004245477728545666,-0.006903542671352625,-0.29381096363067627,0.9558292627334595,0.0,0.0,0.0,0.0,0.0,0.0
594,1724915391925931728,-0.49415406584739685,0.10710789263248444,0.1706687957048416,0.007039631716907024,-0.005569532513618469,-0.2941818833351135,0.9557073712348938,0.0,0.0,0.0,0.0,0.0,0.0
596,1724915391936906290,-0.4942747950553894,0.10587425529956818,0.17068903148174286,0.009623750112950802,-0.004685124382376671,-0.2942919135093689,0.9556556940078735,0.0,0.0,0.0,0.0,0.0,0.0
598,1724915391945956699,-0.49449190497398376,0.10470858961343765,0.17042168974876404,0.010847218334674835,-0.005463903769850731,-0.29328086972236633,0.9559492468833923,0.0,0.0,0.0,0.0,0.0,0.0
600,1724915391955889839,-0.49464669823646545,0.10358937829732895,0.17047639191150665,0.014430944807827473,-0.004282023757696152,-0.29405516386032104,0.9556699395179749,0.0,0.0,0.0,0.0,0.0,0.0
602,1724915391966190216,-0.49483469128608704,0.10233180969953537,0.17011967301368713,0.01831207424402237,-0.004206004552543163,-0.29321953654289246,0.9558605551719666,0.0,0.0,0.0,0.0,0.0,0.0
604,1724915391980723442,-0.49497222900390625,0.10124117881059647,0.16987720131874084,0.02077018842101097,-0.004227856174111366,-0.293922483921051,0.9555943012237549,0.0,0.0,0.0,0.0,0.0,0.0
606,1724915391985945657,-0.49502846598625183,0.10025975853204727,0.16970086097717285,0.021601438522338867,-0.004284981172531843,-0.2953821122646332,0.9551253318786621,0.0,0.0,0.0,0.0,0.0,0.0
608,1724915391997251939,-0.4950438141822815,0.09935656189918518,0.16928669810295105,0.022222362458705902,-0.005238784477114677,-0.2962578237056732,0.9548351168632507,0.0,0.0,0.0,0.0,0.0,0.0
610,1724915392018360563,-0.4949931502342224,0.09848233312368393,0.16879746317863464,0.02201409824192524,-0.006017528008669615,-0.29618772864341736,0.9548570513725281,0.0,0.0,0.0,0.0,0.0,0.0
612,1724915392018707341,-0.4948566257953644,0.09773845970630646,0.1683918684720993,0.02215188927948475,-0.0055188885889947414,-0.29641374945640564,0.9547868371009827,0.0,0.0,0.0,0.0,0.0,0.0
614,1724915392027384007,-0.4945754408836365,0.09700576215982437,0.16791975498199463,0.02658892795443535,-0.0020520389080047607,-0.29804372787475586,0.9541797041893005,0.0,0.0,0.0,0.0,0.0,0.0
616,1724915392036006667,-0.4945308268070221,0.09623748064041138,0.16697151958942413,0.028235100209712982,-0.0024476866237819195,-0.29756811261177063,0.954279899597168,0.0,0.0,0.0,0.0,0.0,0.0
618,1724915392046068137,-0.4945627748966217,0.09543900191783905,0.1662147343158722,0.02731958217918873,-0.0033932707738131285,-0.2977443039417267,0.9542486667633057,0.0,0.0,0.0,0.0,0.0,0.0
620,1724915392055693364,-0.49451419711112976,0.09474755078554153,0.16583465039730072,0.027423007413744926,-0.003034061985090375,-0.29916536808013916,0.9538022875785828,0.0,0.0,0.0,0.0,0.0,0.0
622,1724915392065487365,-0.4945315420627594,0.09397119283676147,0.16541771590709686,0.028346354141831398,-0.0033456278033554554,-0.30069130659103394,0.9532943964004517,0.0,0.0,0.0,0.0,0.0,0.0
624,1724915392075993580,-0.49450793862342834,0.09324613958597183,0.16474489867687225,0.028540141880512238,-0.002962543396279216,-0.30162039399147034,0.9529963135719299,0.0,0.0,0.0,0.0,0.0,0.0
626,1724915392085965311,-0.49458542466163635,0.09252455085515976,0.16381147503852844,0.029221557080745697,-0.002598005114123225,-0.3028247654438019,0.9525946974754333,0.0,0.0,0.0,0.0,0.0,0.0
628,1724915392096233311,-0.4945155382156372,0.09205534309148788,0.16327157616615295,0.030522514134645462,-0.0007918112096376717,-0.3043403923511505,0.9520739316940308,0.0,0.0,0.0,0.0,0.0,0.0
630,1724915392105974208,-0.49445444345474243,0.09134799242019653,0.16259944438934326,0.031069492921233177,-0.0015280459774658084,-0.3044857084751129,0.952008843421936,0.0,0.0,0.0,0.0,0.0,0.0
632,1724915392118480599,-0.49437227845191956,0.09079981595277786,0.162115678191185,0.03140545263886452,-0.001571128610521555,-0.3056517243385315,0.9516240358352661,0.0,0.0,0.0,0.0,0.0,0.0
634,1724915392129079762,-0.4942655861377716,0.0903150886297226,0.16154634952545166,0.033155012875795364,-0.0009139202884398401,-0.30673447251319885,0.9512170553207397,0.0,0.0,0.0,0.0,0.0,0.0
636,1724915392136797877,-0.4942118525505066,0.08984149992465973,0.16107545793056488,0.03282499313354492,-0.0005090703489258885,-0.30813372135162354,0.9507764577865601,0.0,0.0,0.0,0.0,0.0,0.0
638,1724915392145965413,-0.49415698647499084,0.08936082571744919,0.16079695522785187,0.03327333927154541,0.0001954966428456828,-0.30973199009895325,0.9502415060997009,0.0,0.0,0.0,0.0,0.0,0.0
640,1724915392158763847,-0.4941365122795105,0.08892866224050522,0.1605241447687149,0.03396494686603546,0.00021566599025391042,-0.31074848771095276,0.9498850703239441,0.0,0.0,0.0,0.0,0.0,0.0
642,1724915392168180981,-0.4940416216850281,0.08850596100091934,0.16029271483421326,0.03554247319698334,-0.0005933832144364715,-0.31148016452789307,0.9495875239372253,0.0,0.0,0.0,0.0,0.0,0.0
644,1724915392176048037,-0.493942528963089,0.08812674880027771,0.16023209691047668,0.03612402454018593,-0.00027040281565859914,-0.31300437450408936,0.9490644335746765,0.0,0.0,0.0,0.0,0.0,0.0
646,1724915392186087378,-0.49394023418426514,0.08766777068376541,0.16017742455005646,0.03551368787884712,-0.00017943962302524596,-0.3147836923599243,0.9484989047050476,0.0,0.0,0.0,0.0,0.0,0.0
648,1724915392196315929,-0.4939378499984741,0.08733318001031876,0.16026857495307922,0.03519635647535324,0.0005862480611540377,-0.31683671474456787,0.9478267431259155,0.0,0.0,0.0,0.0,0.0,0.0
650,1724915392205629420,-0.49391788244247437,0.08703899383544922,0.1604871153831482,0.03537031263113022,0.0017212048405781388,-0.31931087374687195,0.9469881653785706,0.0,0.0,0.0,0.0,0.0,0.0
652,1724915392215738137,-0.49383261799812317,0.08671845495700836,0.16037072241306305,0.03551802411675453,0.002244786359369755,-0.32056668400764465,0.9465571641921997,0.0,0.0,0.0,0.0,0.0,0.0
654,1724915392225952935,-0.49363958835601807,0.08629956096410751,0.15974897146224976,0.03746901825070381,0.002813491504639387,-0.32099488377571106,0.9463353157043457,0.0,0.0,0.0,0.0,0.0,0.0
656,1724915392236085894,-0.493569552898407,0.08582870662212372,0.1591930240392685,0.036812663078308105,0.0017860569059848785,-0.3224337697029114,0.9458742737770081,0.0,0.0,0.0,0.0,0.0,0.0
658,1724915392246813045,-0.49354496598243713,0.08545154333114624,0.15858721733093262,0.035198986530303955,0.0002926098823081702,-0.3231901228427887,0.945679247379303,0.0,0.0,0.0,0.0,0.0,0.0
660,1724915392255940238,-0.49342289566993713,0.08527849614620209,0.1583363562822342,0.03570249304175377,0.0009970602113753557,-0.3243709206581116,0.9452555179595947,0.0,0.0,0.0,0.0,0.0,0.0
662,1724915392267890561,-0.49339786171913147,0.08498980849981308,0.15793976187705994,0.03652998432517052,-0.00024892381043173373,-0.3243653476238251,0.9452263116836548,0.0,0.0,0.0,0.0,0.0,0.0
664,1724915392277360960,-0.49338868260383606,0.08470242470502853,0.15782001614570618,0.036608751863241196,-0.0008052822086028755,-0.3253806531429291,0.9448738694190979,0.0,0.0,0.0,0.0,0.0,0.0
666,1724915392285957175,-0.49339085817337036,0.08448215574026108,0.15780529379844666,0.0359816774725914,-0.0008589400094933808,-0.3265315890312195,0.944500744342804,0.0,0.0,0.0,0.0,0.0,0.0
668,1724915392300076289,-0.4933256506919861,0.08434434980154037,0.1578734666109085,0.03599407896399498,-0.0006391684291884303,-0.3277280628681183,0.944085955619812,0.0,0.0,0.0,0.0,0.0,0.0
670,1724915392306114449,-0.4931943416595459,0.08426778763532639,0.15778246521949768,0.03644093498587608,9.924236110236961e-06,-0.328959196805954,0.9436408281326294,0.0,0.0,0.0,0.0,0.0,0.0
672,1724915392316199573,-0.49309042096138,0.08420047163963318,0.15766122937202454,0.03755984827876091,0.000821902125608176,-0.331093430519104,0.9428497552871704,0.0,0.0,0.0,0.0,0.0,0.0
674,1724915392326340463,-0.49299395084381104,0.08414743840694427,0.15787124633789062,0.03832976147532463,0.0025415585841983557,-0.33465325832366943,0.9415580630302429,0.0,0.0,0.0,0.0,0.0,0.0
676,1724915392335891381,-0.49293285608291626,0.08411721140146255,0.15808896720409393,0.037776313722133636,0.003591992659494281,-0.33813151717185974,0.9403335452079773,0.0,0.0,0.0,0.0,0.0,0.0
678,1724915392346650384,-0.49283406138420105,0.08399022370576859,0.15798693895339966,0.03610299527645111,0.0023614487145096064,-0.3397098481655121,0.9398341178894043,0.0,0.0,0.0,0.0,0.0,0.0
680,1724915392356282768,-0.4926581382751465,0.08390482515096664,0.15787293016910553,0.03594152256846428,0.002775890287011862,-0.34111103415489197,0.939331591129303,0.0,0.0,0.0,0.0,0.0,0.0
682,1724915392365583299,-0.4925130307674408,0.08385063707828522,0.15777894854545593,0.03614073619246483,0.0027523657772690058,-0.3418472409248352,0.9390563368797302,0.0,0.0,0.0,0.0,0.0,0.0
684,1724915392379688734,-0.4923401176929474,0.08375520259141922,0.1575811803340912,0.03657487779855728,0.0020747503731399775,-0.3417416214942932,0.939079761505127,0.0,0.0,0.0,0.0,0.0,0.0
686,1724915392385940876,-0.4921707510948181,0.0836762934923172,0.15753430128097534,0.03659040108323097,0.0018311829771846533,-0.34235653281211853,0.9388555884361267,0.0,0.0,0.0,0.0,0.0,0.0
688,1724915392395763657,-0.4920433759689331,0.08367601782083511,0.15752823650836945,0.03726465627551079,0.0018072455422952771,-0.3426896333694458,0.9387076497077942,0.0,0.0,0.0,0.0,0.0,0.0
690,1724915392423142106,-0.49190908670425415,0.08367995172739029,0.15765757858753204,0.03739175945520401,0.00299701071344316,-0.3446877598762512,0.9379675984382629,0.0,0.0,0.0,0.0,0.0,0.0
692,1724915392423907354,-0.49180516600608826,0.0837077870965004,0.1577627807855606,0.03739241510629654,0.0033065802417695522,-0.3473965525627136,0.9369666576385498,0.0,0.0,0.0,0.0,0.0,0.0
694,1724915392426275111,-0.4917526841163635,0.08368230611085892,0.157732754945755,0.036321014165878296,0.0023518770467489958,-0.34997525811195374,0.9360516667366028,0.0,0.0,0.0,0.0,0.0,0.0
696,1724915392436559311,-0.491687536239624,0.08368517458438873,0.15782330930233002,0.034824781119823456,0.0019124707905575633,-0.3528793454170227,0.9350185990333557,0.0,0.0,0.0,0.0,0.0,0.0
698,1724915392446345650,-0.4914853274822235,0.08369475603103638,0.15791016817092896,0.0348132848739624,0.0024268634151667356,-0.35548135638237,0.9340317249298096,0.0,0.0,0.0,0.0,0.0,0.0
700,1724915392455802832,-0.49128270149230957,0.08373524993658066,0.15792563557624817,0.034821413457393646,0.0025253589265048504,-0.35704174637794495,0.9334357380867004,0.0,0.0,0.0,0.0,0.0,0.0
702,1724915392466647710,-0.49114277958869934,0.08371580392122269,0.15788957476615906,0.03427031263709068,0.002033092314377427,-0.3583415448665619,0.9329591393470764,0.0,0.0,0.0,0.0,0.0,0.0
704,1724915392479242952,-0.491033673286438,0.08379862457513809,0.15795360505580902,0.03408162295818329,0.002449942519888282,-0.3601641058921814,0.9322630167007446,0.0,0.0,0.0,0.0,0.0,0.0
706,1724915392486133211,-0.49097657203674316,0.0839526578783989,0.1580648571252823,0.03351057693362236,0.0029259780421853065,-0.36199161410331726,0.931574285030365,0.0,0.0,0.0,0.0,0.0,0.0
708,1724915392499029559,-0.4909776449203491,0.08414778113365173,0.15806671977043152,0.03397900238633156,0.0034814649261534214,-0.36340102553367615,0.9310065507888794,0.0,0.0,0.0,0.0,0.0,0.0
710,1724915392505719702,-0.4909793734550476,0.08443358540534973,0.15823423862457275,0.03442855924367905,0.004848029464483261,-0.36557745933532715,0.9301313757896423,0.0,0.0,0.0,0.0,0.0,0.0
712,1724915392515851899,-0.4910295307636261,0.08466537296772003,0.15834519267082214,0.03464486822485924,0.005248129367828369,-0.3674822747707367,0.9293702840805054,0.0,0.0,0.0,0.0,0.0,0.0
714,1724915392526761341,-0.49116992950439453,0.08479483425617218,0.1583532989025116,0.03352653980255127,0.004145030397921801,-0.3684893548488617,0.9290180802345276,0.0,0.0,0.0,0.0,0.0,0.0
716,1724915392535922828,-0.49134397506713867,0.0849338099360466,0.15845158696174622,0.03355185687541962,0.003479269566014409,-0.36922428011894226,0.928727924823761,0.0,0.0,0.0,0.0,0.0,0.0
718,1724915392548788327,-0.49155959486961365,0.08510596305131912,0.15869197249412537,0.03383921831846237,0.003780880942940712,-0.3703109920024872,0.9282835721969604,0.0,0.0,0.0,0.0,0.0,0.0
720,1724915392555495051,-0.49180853366851807,0.08539651334285736,0.15896180272102356,0.03422468528151512,0.0035571090411394835,-0.3708344101905823,0.928061306476593,0.0,0.0,0.0,0.0,0.0,0.0
722,1724915392565783786,-0.491982638835907,0.08578252047300339,0.15921391546726227,0.034838322550058365,0.004210293758660555,-0.3712475597858429,0.9278705716133118,0.0,0.0,0.0,0.0,0.0,0.0
724,1724915392576601594,-0.4920883774757385,0.08611196279525757,0.15974439680576324,0.03415244445204735,0.005266050808131695,-0.37276285886764526,0.9272830486297607,0.0,0.0,0.0,0.0,0.0,0.0
726,1724915392587768001,-0.49221569299697876,0.08646908402442932,0.16046710312366486,0.03122830204665661,0.005056655965745449,-0.37433290481567383,0.9267546534538269,0.0,0.0,0.0,0.0,0.0,0.0
728,1724915392597715823,-0.49220240116119385,0.08673348277807236,0.16110405325889587,0.030170269310474396,0.0050148628652095795,-0.37564170360565186,0.926260232925415,0.0,0.0,0.0,0.0,0.0,0.0
730,1724915392609855688,-0.4920656383037567,0.08710093796253204,0.16166651248931885,0.030032522976398468,0.0045935241505503654,-0.376275897026062,0.9260094165802002,0.0,0.0,0.0,0.0,0.0,0.0
732,1724915392615951504,-0.4919464588165283,0.0875667855143547,0.16238117218017578,0.02877882681787014,0.005075649358332157,-0.3776797950267792,0.925475001335144,0.0,0.0,0.0,0.0,0.0,0.0
734,1724915392628858867,-0.49180641770362854,0.08810266852378845,0.16323591768741608,0.028761059045791626,0.006036693230271339,-0.37907230854034424,0.9249003529548645,0.0,0.0,0.0,0.0,0.0,0.0
736,1724915392635504741,-0.4917033612728119,0.08865513652563095,0.16396984457969666,0.027345390990376472,0.005402846727520227,-0.3803504407405853,0.9244223237037659,0.0,0.0,0.0,0.0,0.0,0.0
738,1724915392645942311,-0.4916837811470032,0.08929359167814255,0.16478364169597626,0.02546517737209797,0.004998058080673218,-0.3817470967769623,0.9239025115966797,0.0,0.0,0.0,0.0,0.0,0.0
740,1724915392667264737,-0.49166199564933777,0.08995043486356735,0.165794238448143,0.02416391856968403,0.005253282841295004,-0.38420218229293823,0.9229177236557007,0.0,0.0,0.0,0.0,0.0,0.0
742,1724915392667565731,-0.4916801452636719,0.09077088534832001,0.16662390530109406,0.02249949425458908,0.004968866240233183,-0.3850303292274475,0.9226163625717163,0.0,0.0,0.0,0.0,0.0,0.0
744,1724915392679383581,-0.4917023181915283,0.0913918986916542,0.16726800799369812,0.02200905978679657,0.004597614053636789,-0.38501402735710144,0.9226367473602295,0.0,0.0,0.0,0.0,0.0,0.0
746,1724915392686173899,-0.49171748757362366,0.09198006987571716,0.16767464578151703,0.02069208212196827,0.002961459569633007,-0.3839712142944336,0.9231083989143372,0.0,0.0,0.0,0.0,0.0,0.0
748,1724915392696999376,-0.4916486442089081,0.09258952736854553,0.1681201308965683,0.01954580843448639,0.0017457775538787246,-0.38347524404525757,0.9233427047729492,0.0,0.0,0.0,0.0,0.0,0.0
750,1724915392705728392,-0.49146366119384766,0.09345841407775879,0.16872547566890717,0.01967340148985386,0.002597580198198557,-0.38447365164756775,0.9229226112365723,0.0,0.0,0.0,0.0,0.0,0.0
752,1724915392716287085,-0.49108409881591797,0.09445048868656158,0.16910186409950256,0.01780105009675026,0.0008827925194054842,-0.38424262404441833,0.9230601787567139,0.0,0.0,0.0,0.0,0.0,0.0
754,1724915392730348578,-0.49074244499206543,0.09554587304592133,0.1694348007440567,0.015570278279483318,-0.00030332538881339133,-0.3842601478099823,0.9230935573577881,0.0,0.0,0.0,0.0,0.0,0.0
756,1724915392735507847,-0.49053072929382324,0.09667015820741653,0.16981199383735657,0.01325034350156784,-0.0015669933054596186,-0.38497263193130493,0.922831654548645,0.0,0.0,0.0,0.0,0.0,0.0
758,1724915392748011821,-0.4904269874095917,0.09791307151317596,0.17030596733093262,0.012355651706457138,-0.0014631834346801043,-0.3859320282936096,0.9224433898925781,0.0,0.0,0.0,0.0,0.0,0.0
760,1724915392756046990,-0.4903389513492584,0.09931867569684982,0.17078664898872375,0.01275807898491621,-0.000891675241291523,-0.38656532764434814,0.9221733808517456,0.0,0.0,0.0,0.0,0.0,0.0
762,1724915392765946550,-0.4903331696987152,0.10074923187494278,0.17105065286159515,0.009647650644183159,-0.0031777173280715942,-0.3865732252597809,0.9222028255462646,0.0,0.0,0.0,0.0,0.0,0.0
764,1724915392777041596,-0.49032899737358093,0.10211946815252304,0.17151886224746704,0.00642471993342042,-0.004674403928220272,-0.38845527172088623,0.9214333891868591,0.0,0.0,0.0,0.0,0.0,0.0
766,1724915392786332144,-0.49033933877944946,0.1035795733332634,0.17175206542015076,0.004141162149608135,-0.0037188022397458553,-0.38881438970565796,0.921299397945404,0.0,0.0,0.0,0.0,0.0,0.0
768,1724915392798711376,-0.4904865026473999,0.10480426251888275,0.1715938150882721,0.003227136330679059,-0.005609861109405756,-0.3877564072608948,0.9217391610145569,0.0,0.0,0.0,0.0,0.0,0.0
770,1724915392805564813,-0.4906477928161621,0.10613963007926941,0.1717452108860016,0.002312056953087449,-0.005944502539932728,-0.3878825008869171,0.9216867089271545,0.0,0.0,0.0,0.0,0.0,0.0
772,1724915392816394742,-0.49073079228401184,0.10762424767017365,0.17194528877735138,-4.705931496573612e-05,-0.005565627012401819,-0.3887602388858795,0.9213221669197083,0.0,0.0,0.0,0.0,0.0,0.0
774,1724915392826031863,-0.4910045266151428,0.10897678136825562,0.1719181090593338,-0.004554454702883959,-0.007767311297357082,-0.38936156034469604,0.9210410118103027,0.0,0.0,0.0,0.0,0.0,0.0
776,1724915392854763901,-0.491075336933136,0.11027510464191437,0.17219170928001404,-0.008234996348619461,-0.009065364487469196,-0.39037656784057617,0.920573890209198,0.0,0.0,0.0,0.0,0.0,0.0
778,1724915392855010830,-0.4911053776741028,0.1116914302110672,0.1723799705505371,-0.01065149437636137,-0.009577096439898014,-0.3913522958755493,0.9201294779777527,0.0,0.0,0.0,0.0,0.0,0.0
780,1724915392856473210,-0.49097949266433716,0.11299184709787369,0.1721162348985672,-0.01138181984424591,-0.011161320842802525,-0.3898445665836334,0.9207427501678467,0.0,0.0,0.0,0.0,0.0,0.0
782,1724915392865733252,-0.4907244145870209,0.1143014132976532,0.17222338914871216,-0.013142191804945469,-0.010605956427752972,-0.3904968202114105,0.9204493761062622,0.0,0.0,0.0,0.0,0.0,0.0
784,1724915392875750409,-0.4905952513217926,0.11564050614833832,0.17221467196941376,-0.01676332950592041,-0.011244007386267185,-0.3901146948337555,0.9205450415611267,0.0,0.0,0.0,0.0,0.0,0.0
786,1724915392886501843,-0.4904736578464508,0.11666736006736755,0.17230135202407837,-0.019192086532711983,-0.012211737222969532,-0.3912912905216217,0.9199857115745544,0.0,0.0,0.0,0.0,0.0,0.0
788,1724915392897013589,-0.4903157949447632,0.11741437017917633,0.17252030968666077,-0.021642204374074936,-0.0131599809974432,-0.39239776134490967,0.9194468259811401,0.0,0.0,0.0,0.0,0.0,0.0
790,1724915392905501721,-0.4900128245353699,0.11805335432291031,0.1726522296667099,-0.023142192512750626,-0.013402974233031273,-0.3927389979362488,0.91926109790802,0.0,0.0,0.0,0.0,0.0,0.0
792,1724915392917664103,-0.4897114634513855,0.11900819838047028,0.17273689806461334,-0.026618855074048042,-0.012915123254060745,-0.39267677068710327,0.919200599193573,0.0,0.0,0.0,0.0,0.0,0.0
794,1724915392928977178,-0.48934227228164673,0.11996963620185852,0.17269523441791534,-0.027587614953517914,-0.013388032093644142,-0.3915998935699463,0.9196245670318604,0.0,0.0,0.0,0.0,0.0,0.0
796,1724915392936545994,-0.48908761143684387,0.12090927362442017,0.17260223627090454,-0.029311640188097954,-0.014084164053201675,-0.39024850726127625,0.9201350212097168,0.0,0.0,0.0,0.0,0.0,0.0
798,1724915392946322782,-0.48891526460647583,0.12183432281017303,0.17273712158203125,-0.03078850731253624,-0.014122367836534977,-0.38990163803100586,0.9202333092689514,0.0,0.0,0.0,0.0,0.0,0.0
800,1724915392955708064,-0.488792359828949,0.12292048335075378,0.17287355661392212,-0.0325554683804512,-0.014209561049938202,-0.39006632566452026,0.9201014637947083,0.0,0.0,0.0,0.0,0.0,0.0
802,1724915392967373808,-0.4888325333595276,0.12420134246349335,0.17286641895771027,-0.03668810427188873,-0.015213601291179657,-0.3899121880531311,0.9199951887130737,0.0,0.0,0.0,0.0,0.0,0.0
804,1724915392980655844,-0.4888347387313843,0.12529294192790985,0.17264029383659363,-0.039668790996074677,-0.017734505236148834,-0.3898090422153473,0.9198699593544006,0.0,0.0,0.0,0.0,0.0,0.0
806,1724915392985966934,-0.4886108636856079,0.12631043791770935,0.1722203940153122,-0.03851291909813881,-0.01951960101723671,-0.38948172330856323,0.9200217127799988,0.0,0.0,0.0,0.0,0.0,0.0
808,1724915392997252313,-0.4886960983276367,0.12725219130516052,0.17175865173339844,-0.04212568700313568,-0.019877607002854347,-0.389040470123291,0.9200423359870911,0.0,0.0,0.0,0.0,0.0,0.0
810,1724915393005756015,-0.48879915475845337,0.12821276485919952,0.17124661803245544,-0.044188182801008224,-0.02078055404126644,-0.3883116543292999,0.9202334880828857,0.0,0.0,0.0,0.0,0.0,0.0
812,1724915393016250220,-0.48864760994911194,0.12914490699768066,0.17081189155578613,-0.044316068291664124,-0.020480768755078316,-0.38816019892692566,0.9202979803085327,0.0,0.0,0.0,0.0,0.0,0.0
814,1724915393027231082,-0.48856061697006226,0.12991727888584137,0.1704186052083969,-0.04465749114751816,-0.01965807005763054,-0.3882617950439453,0.9202565550804138,0.0,0.0,0.0,0.0,0.0,0.0
816,1724915393038652507,-0.48857301473617554,0.13072161376476288,0.16992634534835815,-0.04590367153286934,-0.019240017980337143,-0.38782769441604614,0.9203871488571167,0.0,0.0,0.0,0.0,0.0,0.0
818,1724915393049094334,-0.48872020840644836,0.1316470354795456,0.16966353356838226,-0.048177335411310196,-0.019059963524341583,-0.3878864645957947,0.920249879360199,0.0,0.0,0.0,0.0,0.0,0.0
820,1724915393055630445,-0.488837867975235,0.13255076110363007,0.16913726925849915,-0.047699179500341415,-0.020030256360769272,-0.38622865080833435,0.9209511280059814,0.0,0.0,0.0,0.0,0.0,0.0
822,1724915393066322215,-0.48898279666900635,0.13353611528873444,0.1685362607240677,-0.04730718582868576,-0.02076132223010063,-0.3844124674797058,0.921714723110199,0.0,0.0,0.0,0.0,0.0,0.0
824,1724915393076234199,-0.48917749524116516,0.13441745936870575,0.16772867739200592,-0.048528041690588,-0.021574558690190315,-0.3825483024120331,0.9224079847335815,0.0,0.0,0.0,0.0,0.0,0.0
826,1724915393086138357,-0.4894085228443146,0.13532952964305878,0.16677245497703552,-0.04966670274734497,-0.021692780777812004,-0.3813837468624115,0.9228267669677734,0.0,0.0,0.0,0.0,0.0,0.0
828,1724915393100211884,-0.48945605754852295,0.13598285615444183,0.1657290756702423,-0.04746823012828827,-0.023612312972545624,-0.3796995282173157,0.9235895276069641,0.0,0.0,0.0,0.0,0.0,0.0
830,1724915393105948979,-0.4894920289516449,0.1366700977087021,0.1650182157754898,-0.047219619154930115,-0.023974191397428513,-0.37900060415267944,0.9238799214363098,0.0,0.0,0.0,0.0,0.0,0.0
832,1724915393115622894,-0.4895904064178467,0.1373591423034668,0.1644231230020523,-0.04792894795536995,-0.02358180843293667,-0.3786724805831909,0.9239881038665771,0.0,0.0,0.0,0.0,0.0,0.0
834,1724915393125916764,-0.4896227717399597,0.13794094324111938,0.16396310925483704,-0.04937022551894188,-0.023591523990035057,-0.37844958901405334,0.9240032434463501,0.0,0.0,0.0,0.0,0.0,0.0
836,1724915393151240205,-0.48966842889785767,0.13837388157844543,0.16357415914535522,-0.05039169639348984,-0.023724667727947235,-0.3778136670589447,0.92420494556427,0.0,0.0,0.0,0.0,0.0,0.0
838,1724915393151591327,-0.48979687690734863,0.1386307328939438,0.1630740761756897,-0.053287848830223083,-0.02443634904921055,-0.3758048117160797,0.9248427748680115,0.0,0.0,0.0,0.0,0.0,0.0
840,1724915393155607396,-0.4897594749927521,0.13897262513637543,0.16270291805267334,-0.053450919687747955,-0.02411765046417713,-0.3741248846054077,0.92552250623703,0.0,0.0,0.0,0.0,0.0,0.0
842,1724915393165926209,-0.4897293448448181,0.13925811648368835,0.16238902509212494,-0.05444170907139778,-0.024472873657941818,-0.3721662163734436,0.9262449145317078,0.0,0.0,0.0,0.0,0.0,0.0
844,1724915393175886199,-0.48970088362693787,0.1394704133272171,0.16200657188892365,-0.054978784173727036,-0.024719104170799255,-0.3703581690788269,0.9269310235977173,0.0,0.0,0.0,0.0,0.0,0.0
846,1724915393186108938,-0.48968541622161865,0.1396821141242981,0.16172732412815094,-0.05490627884864807,-0.02475968934595585,-0.3691085875034332,0.9274325370788574,0.0,0.0,0.0,0.0,0.0,0.0
848,1724915393196158839,-0.48969998955726624,0.13997240364551544,0.16155244410037994,-0.05472685769200325,-0.024107296019792557,-0.3685312271118164,0.9276899099349976,0.0,0.0,0.0,0.0,0.0,0.0
850,1724915393205830808,-0.4897274374961853,0.14018182456493378,0.16135087609291077,-0.05419093370437622,-0.02445804327726364,-0.3673909604549408,0.9281643629074097,0.0,0.0,0.0,0.0,0.0,0.0
852,1724915393216043864,-0.48974302411079407,0.14037631452083588,0.1612066626548767,-0.0539824478328228,-0.025113452225923538,-0.3657788336277008,0.928795576095581,0.0,0.0,0.0,0.0,0.0,0.0
854,1724915393225493945,-0.4898208677768707,0.14057980477809906,0.1610228270292282,-0.05414840206503868,-0.02533193863928318,-0.3640747368335724,0.929449200630188,0.0,0.0,0.0,0.0,0.0,0.0
856,1724915393248410424,-0.48994192481040955,0.14085450768470764,0.1608981490135193,-0.05508168414235115,-0.024449894204735756,-0.3631833493709564,0.9297667145729065,0.0,0.0,0.0,0.0,0.0,0.0
858,1724915393248705095,-0.49001193046569824,0.1410766839981079,0.1607656478881836,-0.0557691790163517,-0.024501800537109375,-0.3615831136703491,0.9303479194641113,0.0,0.0,0.0,0.0,0.0,0.0
860,1724915393255608859,-0.48997998237609863,0.14133232831954956,0.1606367826461792,-0.05579526722431183,-0.024541590362787247,-0.35989561676979065,0.9309993982315063,0.0,0.0,0.0,0.0,0.0,0.0
862,1724915393266160121,-0.4899775981903076,0.14143769443035126,0.16040301322937012,-0.05600613355636597,-0.025725869461894035,-0.3578048348426819,0.931760311126709,0.0,0.0,0.0,0.0,0.0,0.0
864,1724915393277951977,-0.4899002015590668,0.14162640273571014,0.16018104553222656,-0.05527259409427643,-0.02548723854124546,-0.35595041513442993,0.9325206279754639,0.0,0.0,0.0,0.0,0.0,0.0
866,1724915393285913094,-0.4898599088191986,0.14172841608524323,0.15993085503578186,-0.05474110320210457,-0.025318460538983345,-0.35416388511657715,0.9332364797592163,0.0,0.0,0.0,0.0,0.0,0.0
868,1724915393300772191,-0.4898900091648102,0.14185091853141785,0.1598086804151535,-0.05601320043206215,-0.025637829676270485,-0.3528181314468384,0.9336619973182678,0.0,0.0,0.0,0.0,0.0,0.0
870,1724915393310148962,-0.48994651436805725,0.14192134141921997,0.1596464365720749,-0.05656508728861809,-0.026170283555984497,-0.3514983057975769,0.9341116547584534,0.0,0.0,0.0,0.0,0.0,0.0
872,1724915393315316007,-0.4899755120277405,0.14198218286037445,0.15964332222938538,-0.05653103068470955,-0.026382088661193848,-0.35034939646720886,0.9345391988754272,0.0,0.0,0.0,0.0,0.0,0.0
874,1724915393325728465,-0.4900881052017212,0.14203038811683655,0.15963104367256165,-0.05633486062288284,-0.02657565101981163,-0.3487945795059204,0.9351269602775574,0.0,0.0,0.0,0.0,0.0,0.0
876,1724915393335855580,-0.49019360542297363,0.14210912585258484,0.15972013771533966,-0.05670895799994469,-0.026423057541251183,-0.34736865758895874,0.9356393218040466,0.0,0.0,0.0,0.0,0.0,0.0
878,1724915393345808323,-0.49033793807029724,0.1423003077507019,0.15970823168754578,-0.0581539012491703,-0.0256582610309124,-0.34518668055534363,0.9363792538642883,0.0,0.0,0.0,0.0,0.0,0.0
880,1724915393356547588,-0.490378201007843,0.14239385724067688,0.15966233611106873,-0.057418640702962875,-0.02519209310412407,-0.34360265731811523,0.9370195865631104,0.0,0.0,0.0,0.0,0.0,0.0
882,1724915393365336598,-0.49035343527793884,0.14251165091991425,0.1596211940050125,-0.056263841688632965,-0.0253435205668211,-0.3418898582458496,0.9377118945121765,0.0,0.0,0.0,0.0,0.0,0.0
884,1724915393375640460,-0.49024492502212524,0.14260147511959076,0.1595771759748459,-0.054870814085006714,-0.025513485074043274,-0.34032097458839417,0.9383602738380432,0.0,0.0,0.0,0.0,0.0,0.0
886,1724915393386876535,-0.49027949571609497,0.1427273154258728,0.15960431098937988,-0.05579444020986557,-0.025263387709856033,-0.3390669524669647,0.9387664794921875,0.0,0.0,0.0,0.0,0.0,0.0
888,1724915393396170384,-0.4902215003967285,0.14292548596858978,0.15975321829319,-0.05614200234413147,-0.024503106251358986,-0.3383094370365143,0.9390391111373901,0.0,0.0,0.0,0.0,0.0,0.0
890,1724915393406760254,-0.49009814858436584,0.1430424451828003,0.15973158180713654,-0.053849395364522934,-0.02518058568239212,-0.3367290198802948,0.9397232532501221,0.0,0.0,0.0,0.0,0.0,0.0
892,1724915393418153621,-0.4899827539920807,0.14317156374454498,0.15962110459804535,-0.05327174440026283,-0.02486470714211464,-0.33482417464256287,0.9404450058937073,0.0,0.0,0.0,0.0,0.0,0.0
894,1724915393427242464,-0.4899614751338959,0.14323605597019196,0.15964250266551971,-0.053126007318496704,-0.0244735199958086,-0.33314967155456543,0.9410579204559326,0.0,0.0,0.0,0.0,0.0,0.0
896,1724915393436541449,-0.4900057911872864,0.1434479057788849,0.15967874228954315,-0.05537652224302292,-0.02446027286350727,-0.3315591812133789,0.9414901733398438,0.0,0.0,0.0,0.0,0.0,0.0
898,1724915393446419142,-0.48998451232910156,0.14355044066905975,0.15963369607925415,-0.05476241931319237,-0.024300333112478256,-0.33045846223831177,0.9419170618057251,0.0,0.0,0.0,0.0,0.0,0.0
900,1724915393457386944,-0.49016833305358887,0.14354509115219116,0.15954262018203735,-0.05654444545507431,-0.02504163235425949,-0.3285921812057495,0.9424452185630798,0.0,0.0,0.0,0.0,0.0,0.0
902,1724915393465997793,-0.49028781056404114,0.14349617063999176,0.15950152277946472,-0.05652472749352455,-0.02500506304204464,-0.3268526792526245,0.9430519938468933,0.0,0.0,0.0,0.0,0.0,0.0
904,1724915393475712999,-0.49046412110328674,0.14345169067382812,0.15955093502998352,-0.056359004229307175,-0.024853922426700592,-0.32537001371383667,0.9435785412788391,0.0,0.0,0.0,0.0,0.0,0.0
906,1724915393486220188,-0.4907218813896179,0.14334677159786224,0.15960001945495605,-0.05691225826740265,-0.024759365245699883,-0.3239503800868988,0.944036066532135,0.0,0.0,0.0,0.0,0.0,0.0
908,1724915393498182752,-0.49091169238090515,0.1432807594537735,0.15971516072750092,-0.05664611980319023,-0.02410728670656681,-0.32309573888778687,0.9443618059158325,0.0,0.0,0.0,0.0,0.0,0.0
910,1724915393505422316,-0.4911472201347351,0.14301499724388123,0.15966060757637024,-0.05681385472416878,-0.0247093103826046,-0.3209829330444336,0.9450564384460449,0.0,0.0,0.0,0.0,0.0,0.0
912,1724915393516461587,-0.4913303554058075,0.14280350506305695,0.1598661243915558,-0.056948572397232056,-0.024187732487916946,-0.31988441944122314,0.9454342126846313,0.0,0.0,0.0,0.0,0.0,0.0
914,1724915393527050976,-0.49154695868492126,0.1426294595003128,0.16007867455482483,-0.057423077523708344,-0.023702384904026985,-0.31857767701148987,0.9458589553833008,0.0,0.0,0.0,0.0,0.0,0.0
916,1724915393536478799,-0.49166157841682434,0.14251068234443665,0.16039513051509857,-0.056913599371910095,-0.022527962923049927,-0.3179074227809906,0.9461439251899719,0.0,0.0,0.0,0.0,0.0,0.0
918,1724915393548678281,-0.4918210506439209,0.14231331646442413,0.16055145859718323,-0.056700270622968674,-0.022267673164606094,-0.31627264618873596,0.9467105865478516,0.0,0.0,0.0,0.0,0.0,0.0
920,1724915393558648725,-0.49204394221305847,0.14203117787837982,0.16067220270633698,-0.05696979910135269,-0.02298261784017086,-0.31474757194519043,0.9471855163574219,0.0,0.0,0.0,0.0,0.0,0.0
922,1724915393567523988,-0.4921485185623169,0.14183922111988068,0.1610708236694336,-0.0561787374317646,-0.021869918331503868,-0.3145972192287445,0.9473090171813965,0.0,0.0,0.0,0.0,0.0,0.0
924,1724915393576103055,-0.4923027455806732,0.14161302149295807,0.16142363846302032,-0.055730659514665604,-0.02124195732176304,-0.3132803738117218,0.9477859735488892,0.0,0.0,0.0,0.0,0.0,0.0
926,1724915393585954639,-0.492480605840683,0.14134937524795532,0.16192001104354858,-0.05613221600651741,-0.02034035697579384,-0.3122919797897339,0.9481081962585449,0.0,0.0,0.0,0.0,0.0,0.0
928,1724915393596492978,-0.4926885962486267,0.14106479287147522,0.16239617764949799,-0.0563633106648922,-0.019643882289528847,-0.3112330734729767,0.9484573006629944,0.0,0.0,0.0,0.0,0.0,0.0
930,1724915393606446532,-0.4929216802120209,0.14055965840816498,0.16269096732139587,-0.05674725025892258,-0.01998346671462059,-0.3092673122882843,0.9490702152252197,0.0,0.0,0.0,0.0,0.0,0.0
932,1724915393616377412,-0.49302637577056885,0.14010044932365417,0.16312134265899658,-0.05495945364236832,-0.01978972926735878,-0.307877779006958,0.9496310949325562,0.0,0.0,0.0,0.0,0.0,0.0
934,1724915393625779556,-0.49311456084251404,0.13974593579769135,0.16364389657974243,-0.053477466106414795,-0.019217543303966522,-0.30689767003059387,0.950044572353363,0.0,0.0,0.0,0.0,0.0,0.0
936,1724915393635462185,-0.49323752522468567,0.1393192708492279,0.16428229212760925,-0.05252574384212494,-0.019097844138741493,-0.30552294850349426,0.9505430459976196,0.0,0.0,0.0,0.0,0.0,0.0
938,1724915393646017345,-0.4932835102081299,0.1388663351535797,0.16507114470005035,-0.05028633400797844,-0.01905151829123497,-0.30489423871040344,0.9508669972419739,0.0,0.0,0.0,0.0,0.0,0.0
940,1724915393655724915,-0.49326473474502563,0.1382843405008316,0.16578054428100586,-0.048700619488954544,-0.019402416422963142,-0.30432045459747314,0.9511260986328125,0.0,0.0,0.0,0.0,0.0,0.0
942,1724915393665582182,-0.49331167340278625,0.13749909400939941,0.16631467640399933,-0.04796130210161209,-0.01950502209365368,-0.30276957154273987,0.9516564011573792,0.0,0.0,0.0,0.0,0.0,0.0
944,1724915393676174114,-0.4932856857776642,0.13684414327144623,0.16687189042568207,-0.04612802341580391,-0.018686505034565926,-0.3022167682647705,0.9519391059875488,0.0,0.0,0.0,0.0,0.0,0.0
946,1724915393685861645,-0.49316734075546265,0.13618624210357666,0.16750288009643555,-0.044848304241895676,-0.017880184575915337,-0.3014777898788452,0.952250063419342,0.0,0.0,0.0,0.0,0.0,0.0
948,1724915393696870377,-0.49307844042778015,0.1354823261499405,0.16816484928131104,-0.04404085502028465,-0.017664123326539993,-0.3010252118110657,0.9524349570274353,0.0,0.0,0.0,0.0,0.0,0.0
950,1724915393705524853,-0.4930359423160553,0.1345420777797699,0.16911138594150543,-0.044087618589401245,-0.017731809988617897,-0.3020830750465393,0.9520965218544006,0.0,0.0,0.0,0.0,0.0,0.0
952,1724915393717134713,-0.4929298460483551,0.13339073956012726,0.16973142325878143,-0.04217797890305519,-0.01728556491434574,-0.3027970492839813,0.9519644379615784,0.0,0.0,0.0,0.0,0.0,0.0
954,1724915393725545823,-0.4930022656917572,0.13208208978176117,0.17009180784225464,-0.04189770668745041,-0.017989329993724823,-0.30210691690444946,0.952182948589325,0.0,0.0,0.0,0.0,0.0,0.0
956,1724915393735812231,-0.4929945468902588,0.13093000650405884,0.17039577662944794,-0.04064284637570381,-0.018575623631477356,-0.30133306980133057,0.9524713158607483,0.0,0.0,0.0,0.0,0.0,0.0
958,1724915393746881583,-0.49305862188339233,0.12951740622520447,0.17062009871006012,-0.039231158792972565,-0.019322244450449944,-0.29947271943092346,0.9531022310256958,0.0,0.0,0.0,0.0,0.0,0.0
960,1724915393755945740,-0.49284112453460693,0.12809209525585175,0.17121335864067078,-0.03509072959423065,-0.018097858875989914,-0.299748033285141,0.9532011151313782,0.0,0.0,0.0,0.0,0.0,0.0
962,1724915393766785760,-0.4926398694515228,0.12656283378601074,0.17139269411563873,-0.030925238505005836,-0.018646027892827988,-0.29874858260154724,0.9536484479904175,0.0,0.0,0.0,0.0,0.0,0.0
964,1724915393776617973,-0.49270200729370117,0.1251143515110016,0.1715618371963501,-0.02859814278781414,-0.01857032999396324,-0.2987053394317627,0.9537360668182373,0.0,0.0,0.0,0.0,0.0,0.0
966,1724915393785986599,-0.49286597967147827,0.12359929084777832,0.17155739665031433,-0.026224274188280106,-0.01821555569767952,-0.29879480600357056,0.9537830948829651,0.0,0.0,0.0,0.0,0.0,0.0
968,1724915393796038904,-0.49292218685150146,0.12237048894166946,0.17158114910125732,-0.025235282257199287,-0.01741713657975197,-0.29808327555656433,0.9540472626686096,0.0,0.0,0.0,0.0,0.0,0.0
970,1724915393805279998,-0.49300363659858704,0.12123526632785797,0.17167216539382935,-0.023310452699661255,-0.01677783578634262,-0.29684802889823914,0.9544927477836609,0.0,0.0,0.0,0.0,0.0,0.0
972,1724915393817070385,-0.49311313033103943,0.11989440768957138,0.17174182832241058,-0.019812287762761116,-0.017214767634868622,-0.2953605353832245,0.9550252556800842,0.0,0.0,0.0,0.0,0.0,0.0
974,1724915393826993229,-0.4931837320327759,0.11859539151191711,0.17202170193195343,-0.016296161338686943,-0.016413401812314987,-0.2961365282535553,0.9548655152320862,0.0,0.0,0.0,0.0,0.0,0.0
976,1724915393837975976,-0.4936079680919647,0.1172044575214386,0.17210033535957336,-0.015263094566762447,-0.016512028872966766,-0.2946901023387909,0.9553283452987671,0.0,0.0,0.0,0.0,0.0,0.0
978,1724915393846571986,-0.4939661920070648,0.11596685647964478,0.1724402755498886,-0.014782417565584183,-0.016213268041610718,-0.29481324553489685,0.9553029537200928,0.0,0.0,0.0,0.0,0.0,0.0
980,1724915393857123133,-0.49403417110443115,0.11464954167604446,0.17256872355937958,-0.011377135291695595,-0.015658792108297348,-0.29505327343940735,0.9552847743034363,0.0,0.0,0.0,0.0,0.0,0.0
982,1724915393865799165,-0.49413320422172546,0.11318472027778625,0.1723911017179489,-0.007031782064586878,-0.014325901865959167,-0.29385292530059814,0.9557175040245056,0.0,0.0,0.0,0.0,0.0,0.0
984,1724915393876280279,-0.4943501651287079,0.11197506636381149,0.17228519916534424,-0.003256912110373378,-0.01203048788011074,-0.29432782530784607,0.9556233286857605,0.0,0.0,0.0,0.0,0.0,0.0
986,1724915393886024405,-0.49456682801246643,0.11072845757007599,0.17198580503463745,0.00031538185430690646,-0.010917664505541325,-0.2943335175514221,0.955640435218811,0.0,0.0,0.0,0.0,0.0,0.0
988,1724915393896432222,-0.4948035478591919,0.10953793674707413,0.17174769937992096,0.0014122634893283248,-0.010870635509490967,-0.29363322257995605,0.9558553099632263,0.0,0.0,0.0,0.0,0.0,0.0
990,1724915393905549211,-0.49489840865135193,0.1085963025689125,0.17170362174510956,0.003176901489496231,-0.009467714466154575,-0.2944388687610626,0.955618143081665,0.0,0.0,0.0,0.0,0.0,0.0
992,1724915393916014670,-0.495008647441864,0.10742563009262085,0.17172782123088837,0.005265755578875542,-0.00873775128275156,-0.29495495557785034,0.9554566740989685,0.0,0.0,0.0,0.0,0.0,0.0
994,1724915393926339552,-0.4951113164424896,0.10631749033927917,0.1715525984764099,0.007771763019263744,-0.007552638649940491,-0.29409193992614746,0.9557156562805176,0.0,0.0,0.0,0.0,0.0,0.0
996,1724915393936964496,-0.4952084720134735,0.10528390109539032,0.17134901881217957,0.009701729752123356,-0.007199020124971867,-0.29340165853500366,0.9559129476547241,0.0,0.0,0.0,0.0,0.0,0.0
998,1724915393946070664,-0.4952634871006012,0.10436327010393143,0.17126713693141937,0.012663343921303749,-0.00598030025139451,-0.29358166456222534,0.9558314085006714,0.0,0.0,0.0,0.0,0.0,0.0
1000,1724915393956050950,-0.4954022765159607,0.1033380851149559,0.17093031108379364,0.014322832226753235,-0.005599044729024172,-0.2938068211078644,0.9557411670684814,0.0,0.0,0.0,0.0,0.0,0.0
1002,1724915393966839031,-0.4954048693180084,0.10224335640668869,0.1704666018486023,0.017928605899214745,-0.004592199344187975,-0.2938081920146942,0.9556852579116821,0.0,0.0,0.0,0.0,0.0,0.0
1004,1724915393975820207,-0.4954819083213806,0.10133401304483414,0.17006853222846985,0.02063809335231781,-0.004705680999904871,-0.29460424184799194,0.9553849101066589,0.0,0.0,0.0,0.0,0.0,0.0
1006,1724915393986682528,-0.4954911470413208,0.10053152590990067,0.1697094887495041,0.022240741178393364,-0.0042780363000929356,-0.29544079303741455,0.9550925493240356,0.0,0.0,0.0,0.0,0.0,0.0
1008,1724915393996257300,-0.4954603612422943,0.09986163675785065,0.16925841569900513,0.023605387657880783,-0.004767991602420807,-0.29552939534187317,0.955030083656311,0.0,0.0,0.0,0.0,0.0,0.0
1010,1724915394006983513,-0.4954637885093689,0.09905365109443665,0.16883787512779236,0.023613180965185165,-0.005723737645894289,-0.29638877511024475,0.95475834608078,0.0,0.0,0.0,0.0,0.0,0.0
1012,1724915394015841252,-0.4954856336116791,0.09836767613887787,0.1684763878583908,0.0231761671602726,-0.006123618688434362,-0.29670488834381104,0.9546682834625244,0.0,0.0,0.0,0.0,0.0,0.0
1014,1724915394027416351,-0.49552294611930847,0.0977439135313034,0.16806043684482574,0.024361563846468925,-0.005376183893531561,-0.29706835746765137,0.9545302391052246,0.0,0.0,0.0,0.0,0.0,0.0
1016,1724915394035993375,-0.49554166197776794,0.09699928760528564,0.16733458638191223,0.027736181393265724,-0.0043700323440134525,-0.2976711690425873,0.9542555212974548,0.0,0.0,0.0,0.0,0.0,0.0
1018,1724915394046024977,-0.4957738518714905,0.09654954075813293,0.16680598258972168,0.029443399980664253,-0.000862002489157021,-0.298953115940094,0.9538130760192871,0.0,0.0,0.0,0.0,0.0,0.0
1020,1724915394055659770,-0.4961472749710083,0.09589757025241852,0.16642501950263977,0.028222696855664253,-0.0004937679041177034,-0.30082517862319946,0.9532615542411804,0.0,0.0,0.0,0.0,0.0,0.0
1022,1724915394067315519,-0.4963653087615967,0.09515788406133652,0.16596774756908417,0.027949446812272072,-0.0010390859097242355,-0.3019793629646301,0.9529041647911072,0.0,0.0,0.0,0.0,0.0,0.0
1024,1724915394076224751,-0.4964620769023895,0.09449303150177002,0.16507244110107422,0.028178097680211067,-0.0017264564521610737,-0.30178844928741455,0.9529569149017334,0.0,0.0,0.0,0.0,0.0,0.0
1026,1724915394085923146,-0.4965478479862213,0.09369316697120667,0.16409453749656677,0.02819432131946087,-0.003079974325373769,-0.30220937728881836,0.9528195858001709,0.0,0.0,0.0,0.0,0.0,0.0
1028,1724915394099697620,-0.4965880513191223,0.09281612187623978,0.1630164086818695,0.028348758816719055,-0.004014556296169758,-0.30195656418800354,0.9528916478157043,0.0,0.0,0.0,0.0,0.0,0.0
1030,1724915394106562227,-0.4964245855808258,0.0922699123620987,0.16229765117168427,0.030236022546887398,-0.0027550472877919674,-0.30170753598213196,0.9529170393943787,0.0,0.0,0.0,0.0,0.0,0.0
1032,1724915394115509922,-0.49612826108932495,0.09168536961078644,0.1619032323360443,0.035857126116752625,-0.0012626743409782648,-0.3033922612667084,0.9521900415420532,0.0,0.0,0.0,0.0,0.0,0.0
1034,1724915394126207887,-0.4960021376609802,0.09120624512434006,0.16159415245056152,0.03703983873128891,-0.000885249872226268,-0.30462372303009033,0.9517519474029541,0.0,0.0,0.0,0.0,0.0,0.0
1036,1724915394135800627,-0.4961725175380707,0.0906400978565216,0.1612122654914856,0.03435022383928299,-0.003305192571133375,-0.30615106225013733,0.9513573050498962,0.0,0.0,0.0,0.0,0.0,0.0
1038,1724915394147833746,-0.49621570110321045,0.09020759910345078,0.16078592836856842,0.03403919190168381,-0.003947810269892216,-0.3066055476665497,0.9512196183204651,0.0,0.0,0.0,0.0,0.0,0.0
1040,1724915394156375540,-0.4962528347969055,0.0898364782333374,0.1604689657688141,0.03429044783115387,-0.0037584644742310047,-0.30766060948371887,0.95087069272995,0.0,0.0,0.0,0.0,0.0,0.0
1042,1724915394165922650,-0.49623334407806396,0.08953110128641129,0.16013124585151672,0.03472442179918289,-0.002656457480043173,-0.30875882506370544,0.9505026340484619,0.0,0.0,0.0,0.0,0.0,0.0
1044,1724915394179644113,-0.4962756633758545,0.08916110545396805,0.15981322526931763,0.034279659390449524,-0.0008558569243177772,-0.31151407957077026,0.949622631072998,0.0,0.0,0.0,0.0,0.0,0.0
1046,1724915394186062764,-0.4961965084075928,0.08875039219856262,0.15953141450881958,0.03384137526154518,-0.00019628151494544,-0.31365033984184265,0.948935329914093,0.0,0.0,0.0,0.0,0.0,0.0
1048,1724915394197715149,-0.49611344933509827,0.08834650367498398,0.15924867987632751,0.03374577686190605,1.2109354429412633e-05,-0.3150210678577423,0.9484845995903015,0.0,0.0,0.0,0.0,0.0,0.0
1050,1724915394205912747,-0.4959687292575836,0.08798164129257202,0.15908192098140717,0.034610237926244736,0.0004027511167805642,-0.3164466917514801,0.9479786157608032,0.0,0.0,0.0,0.0,0.0,0.0
1052,1724915394216522247,-0.4958704113960266,0.08751991391181946,0.15885044634342194,0.036984726786613464,0.0010496664326637983,-0.31807878613471985,0.947342038154602,0.0,0.0,0.0,0.0,0.0,0.0
1054,1724915394227734222,-0.49582797288894653,0.08712343871593475,0.15860673785209656,0.03652389720082283,0.0006849265191704035,-0.3194733262062073,0.9468909502029419,0.0,0.0,0.0,0.0,0.0,0.0
1056,1724915394235947284,-0.4957176446914673,0.08676797151565552,0.15848782658576965,0.03641488030552864,0.001196005498059094,-0.32169097661972046,0.9461434483528137,0.0,0.0,0.0,0.0,0.0,0.0
1058,1724915394247540874,-0.4956856966018677,0.08640159666538239,0.158255472779274,0.035048287361860275,0.00046605541137978435,-0.32323139905929565,0.9456706047058105,0.0,0.0,0.0,0.0,0.0,0.0
1060,1724915394255732864,-0.49560990929603577,0.08604990690946579,0.15810470283031464,0.03461236506700516,0.00021679951169062406,-0.3247515559196472,0.9451658725738525,0.0,0.0,0.0,0.0,0.0,0.0
1062,1724915394265647464,-0.49551934003829956,0.08592239022254944,0.1580638736486435,0.035011712461709976,0.001169246737845242,-0.3267137110233307,0.944473922252655,0.0,0.0,0.0,0.0,0.0,0.0
1064,1724915394276504875,-0.49539825320243835,0.08575696498155594,0.15791210532188416,0.03577316179871559,0.0014269717503339052,-0.3279297649860382,0.9440234899520874,0.0,0.0,0.0,0.0,0.0,0.0
1066,1724915394285962400,-0.49530795216560364,0.08553359657526016,0.1576034128665924,0.03583965823054314,0.0006892634555697441,-0.32832053303718567,0.9438859224319458,0.0,0.0,0.0,0.0,0.0,0.0
1068,1724915394295553967,-0.4951695203781128,0.08531037718057632,0.1575004905462265,0.036325570195913315,0.0006564059294760227,-0.32968831062316895,0.9433904886245728,0.0,0.0,0.0,0.0,0.0,0.0
1070,1724915394305198323,-0.4950370192527771,0.08511826395988464,0.1575087159872055,0.03663252294063568,0.001071177190169692,-0.3315114378929138,0.9427392482757568,0.0,0.0,0.0,0.0,0.0,0.0
1072,1724915394315705842,-0.4949323236942291,0.08493529260158539,0.1574215292930603,0.037166938185691833,0.0012971812393516302,-0.3330288529396057,0.9421829581260681,0.0,0.0,0.0,0.0,0.0,0.0
1074,1724915394326430085,-0.494750052690506,0.08487913012504578,0.15759225189685822,0.038895826786756516,0.0029630817007273436,-0.3350489139556885,0.9413929581642151,0.0,0.0,0.0,0.0,0.0,0.0
1076,1724915394335829878,-0.4947345554828644,0.0847981795668602,0.15767261385917664,0.03763732314109802,0.0026686866767704487,-0.33674103021621704,0.9408409595489502,0.0,0.0,0.0,0.0,0.0,0.0
1078,1724915394401868892,-0.49463674426078796,0.0847744420170784,0.15771004557609558,0.0380457378923893,0.002984306775033474,-0.3380550444126129,0.9403523206710815,0.0,0.0,0.0,0.0,0.0,0.0
1080,1724915394402237133,-0.49456071853637695,0.08482643961906433,0.15768618881702423,0.0381951779127121,0.0029842499643564224,-0.3394041657447815,0.9398601651191711,0.0,0.0,0.0,0.0,0.0,0.0
1082,1724915394402480730,-0.4944799244403839,0.0848037600517273,0.15753678977489471,0.037691764533519745,0.0018937321146950126,-0.340973436832428,0.9393150806427002,0.0,0.0,0.0,0.0,0.0,0.0
1084,1724915394402719786,-0.4943431317806244,0.08485585451126099,0.1575038731098175,0.037413813173770905,0.001861418946646154,-0.3429447412490845,0.9386084675788879,0.0,0.0,0.0,0.0,0.0,0.0
1086,1724915394402969644,-0.49415409564971924,0.08484411984682083,0.1576366275548935,0.036952558904886246,0.00214025960303843,-0.3454389274120331,0.9377110600471497,0.0,0.0,0.0,0.0,0.0,0.0
1088,1724915394403218354,-0.49392279982566833,0.08486603945493698,0.157883882522583,0.036774568259716034,0.0038242172449827194,-0.3482944071292877,0.9366557598114014,0.0,0.0,0.0,0.0,0.0,0.0
1090,1724915394405486841,-0.49372366070747375,0.08479564636945724,0.15803760290145874,0.03697354346513748,0.004099575337022543,-0.35045933723449707,0.9358388781547546,0.0,0.0,0.0,0.0,0.0,0.0
1092,1724915394415641262,-0.49352148175239563,0.08465076982975006,0.1578545719385147,0.035901568830013275,0.0026369576808065176,-0.35129982233047485,0.9355707168579102,0.0,0.0,0.0,0.0,0.0,0.0
1094,1724915394426044087,-0.49327152967453003,0.08454664051532745,0.15773101150989532,0.03590811416506767,0.0017631169175729156,-0.35245779156684875,0.9351369738578796,0.0,0.0,0.0,0.0,0.0,0.0
1096,1724915394437010243,-0.4930233359336853,0.08450952172279358,0.15779797732830048,0.03665701299905777,0.0024979785084724426,-0.3542092740535736,0.9344441890716553,0.0,0.0,0.0,0.0,0.0,0.0
1098,1724915394446503793,-0.492828905582428,0.0844103991985321,0.15784788131713867,0.03641781955957413,0.002946327906101942,-0.35586830973625183,0.9338216185569763,0.0,0.0,0.0,0.0,0.0,0.0
1100,1724915394455441206,-0.4926431477069855,0.0844237208366394,0.15787366032600403,0.0368887260556221,0.0032741038594394922,-0.35695311427116394,0.9333878755569458,0.0,0.0,0.0,0.0,0.0,0.0
1102,1724915394466840055,-0.49253779649734497,0.08440103381872177,0.15786582231521606,0.03686028718948364,0.0029484746046364307,-0.35823994874954224,0.9328970313072205,0.0,0.0,0.0,0.0,0.0,0.0
1104,1724915394480743905,-0.49242788553237915,0.08437620848417282,0.1580227166414261,0.03685195744037628,0.003061160910874605,-0.3600548803806305,0.9321980476379395,0.0,0.0,0.0,0.0,0.0,0.0
1106,1724915394486131281,-0.4923269748687744,0.08442841470241547,0.1580308973789215,0.03777683898806572,0.0036359496880322695,-0.36152929067611694,0.9315880537033081,0.0,0.0,0.0,0.0,0.0,0.0
1108,1724915394496716838,-0.4923660159111023,0.08442021906375885,0.1578596830368042,0.035822972655296326,0.0029028330463916063,-0.36260199546813965,0.9312508702278137,0.0,0.0,0.0,0.0,0.0,0.0
1110,1724915394505602926,-0.4923194944858551,0.08460593968629837,0.15794649720191956,0.03571530431509018,0.0031328718177974224,-0.36422544717788696,0.9306204319000244,0.0,0.0,0.0,0.0,0.0,0.0
1112,1724915394515818974,-0.4923536479473114,0.08478012681007385,0.15795087814331055,0.036271609365940094,0.0035956345964223146,-0.36567988991737366,0.9300267696380615,0.0,0.0,0.0,0.0,0.0,0.0
1114,1724915394527078887,-0.492416113615036,0.08502508699893951,0.1579725593328476,0.036850716918706894,0.003939180169254541,-0.3671753704547882,0.9294131398200989,0.0,0.0,0.0,0.0,0.0,0.0
1116,1724915394536142791,-0.492544561624527,0.08523871749639511,0.15792220830917358,0.036760807037353516,0.0032317969016730785,-0.3679851293563843,0.9290992021560669,0.0,0.0,0.0,0.0,0.0,0.0
1118,1724915394548973271,-0.4928252100944519,0.08548545092344284,0.15802186727523804,0.037212666124105453,0.004949754104018211,-0.3706274926662445,0.9280226230621338,0.0,0.0,0.0,0.0,0.0,0.0
1120,1724915394555345417,-0.4929814636707306,0.0858408659696579,0.15811806917190552,0.03602902591228485,0.005115115083754063,-0.37168261408805847,0.9276463985443115,0.0,0.0,0.0,0.0,0.0,0.0
1122,1724915394590109274,-0.49304842948913574,0.0861949473619461,0.15847845375537872,0.03448929637670517,0.004919840954244137,-0.3726641535758972,0.9273120760917664,0.0,0.0,0.0,0.0,0.0,0.0
1124,1724915394590383775,-0.4931209981441498,0.08648611605167389,0.15909667313098907,0.03339184820652008,0.004308038391172886,-0.3740854263305664,0.9267829060554504,0.0,0.0,0.0,0.0,0.0,0.0
1126,1724915394590668348,-0.49323225021362305,0.08689774572849274,0.15994834899902344,0.031696710735559464,0.004566927906125784,-0.37542444467544556,0.9262996912002563,0.0,0.0,0.0,0.0,0.0,0.0
1128,1724915394596389848,-0.49329930543899536,0.08741720020771027,0.16091078519821167,0.031372640281915665,0.006045254413038492,-0.3772369623184204,0.9255654811859131,0.0,0.0,0.0,0.0,0.0,0.0
1130,1724915394607598702,-0.4933984875679016,0.087983638048172,0.16176292300224304,0.030779164284467697,0.006982829887419939,-0.3786865472793579,0.9249867796897888,0.0,0.0,0.0,0.0,0.0,0.0
1132,1724915394617044117,-0.49357205629348755,0.08844992518424988,0.16242462396621704,0.029527563601732254,0.006699250545352697,-0.38013309240341187,0.9244362115859985,0.0,0.0,0.0,0.0,0.0,0.0
1134,1724915394626122510,-0.4936448037624359,0.08908327668905258,0.1630696803331375,0.03047669120132923,0.007952235639095306,-0.38136687874794006,0.9238870143890381,0.0,0.0,0.0,0.0,0.0,0.0
1136,1724915394635591993,-0.49382346868515015,0.08963461965322495,0.1637548953294754,0.02892979048192501,0.006250671576708555,-0.382439523935318,0.9235063791275024,0.0,0.0,0.0,0.0,0.0,0.0
1138,1724915394670073821,-0.49388599395751953,0.0902169719338417,0.1642591506242752,0.027871105819940567,0.005195428617298603,-0.3828047513961792,0.9233942031860352,0.0,0.0,0.0,0.0,0.0,0.0
1140,1724915394670445651,-0.4937329590320587,0.09079673141241074,0.16465488076210022,0.02723667211830616,0.0031564123928546906,-0.38149818778038025,0.9239628314971924,0.0,0.0,0.0,0.0,0.0,0.0
1142,1724915394671009005,-0.4934535324573517,0.09145382791757584,0.1655009239912033,0.025985591113567352,0.002640251535922289,-0.3818035423755646,0.9238744378089905,0.0,0.0,0.0,0.0,0.0,0.0
1144,1724915394680715103,-0.49334046244621277,0.09211021661758423,0.16636094450950623,0.023959383368492126,0.0031432185787707567,-0.3827514052391052,0.9235354065895081,0.0,0.0,0.0,0.0,0.0,0.0
1146,1724915394686020109,-0.49325940012931824,0.09273569285869598,0.16723179817199707,0.021661385893821716,0.0019832004327327013,-0.3837832510471344,0.9231669306755066,0.0,0.0,0.0,0.0,0.0,0.0
1148,1724915394695764929,-0.4931733012199402,0.09351710975170135,0.16814397275447845,0.020976964384317398,0.0022592460736632347,-0.3849460780620575,0.9226978421211243,0.0,0.0,0.0,0.0,0.0,0.0
1150,1724915394705776489,-0.4929853677749634,0.09446662664413452,0.1692473441362381,0.02088942937552929,0.004396552219986916,-0.3872017562389374,0.9217479228973389,0.0,0.0,0.0,0.0,0.0,0.0
1152,1724915394715707674,-0.4929562211036682,0.09560374915599823,0.16996553540229797,0.018294615671038628,0.004012030083686113,-0.38852381706237793,0.9212484359741211,0.0,0.0,0.0,0.0,0.0,0.0
1154,1724915394725916151,-0.49285927414894104,0.09672325849533081,0.1700011044740677,0.016342654824256897,0.001348735997453332,-0.38691043853759766,0.9219714403152466,0.0,0.0,0.0,0.0,0.0,0.0
1156,1724915394735883702,-0.49257469177246094,0.09793415665626526,0.17038431763648987,0.017817839980125427,0.0011955811642110348,-0.3867968022823334,0.9219921231269836,0.0,0.0,0.0,0.0,0.0,0.0
1158,1724915394748006927,-0.4925711452960968,0.09916064143180847,0.17078091204166412,0.014580758288502693,0.00017086595471482724,-0.38721808791160583,0.9218728542327881,0.0,0.0,0.0,0.0,0.0,0.0
1160,1724915394755425646,-0.49247264862060547,0.10042490810155869,0.17121751606464386,0.011832776479423046,-0.0011537011014297605,-0.3879767954349518,0.9215925335884094,0.0,0.0,0.0,0.0,0.0,0.0
1162,1724915394766827927,-0.4924115836620331,0.10181684046983719,0.17180928587913513,0.00798298791050911,-0.0023450155276805162,-0.3894442915916443,0.9210125207901001,0.0,0.0,0.0,0.0,0.0,0.0
1164,1724915394777464405,-0.49227795004844666,0.1032697781920433,0.17239397764205933,0.00637006014585495,-0.0033337927889078856,-0.39016544818878174,0.9207166433334351,0.0,0.0,0.0,0.0,0.0,0.0
1166,1724915394785928908,-0.49209824204444885,0.10481316596269608,0.17264749109745026,0.007106889504939318,-0.0049185799434781075,-0.38839593529701233,0.9214521050453186,0.0,0.0,0.0,0.0,0.0,0.0
1168,1724915394796330863,-0.4919453561306,0.10601915419101715,0.17313076555728912,0.006894538179039955,-0.007689813617616892,-0.38805443048477173,0.9215786457061768,0.0,0.0,0.0,0.0,0.0,0.0
1170,1724915394805419085,-0.4916522800922394,0.1077984943985939,0.17353996634483337,0.00438716122880578,-0.006583146285265684,-0.3887202739715576,0.9213218092918396,0.0,0.0,0.0,0.0,0.0,0.0
1172,1724915394855250178,-0.49146154522895813,0.10928438603878021,0.17348727583885193,0.00011074485519202426,-0.00904037058353424,-0.38895270228385925,0.9212133884429932,0.0,0.0,0.0,0.0,0.0,0.0
1174,1724915394855522328,-0.4911288022994995,0.1108357310295105,0.17365102469921112,-0.0029990551993250847,-0.009190438315272331,-0.39100465178489685,0.920337975025177,0.0,0.0,0.0,0.0,0.0,0.0
1176,1724915394855760535,-0.4909045100212097,0.11236629635095596,0.17329229414463043,-0.005906353704631329,-0.009884736500680447,-0.3908608853816986,0.9203777313232422,0.0,0.0,0.0,0.0,0.0,0.0
1178,1724915394856020968,-0.49073320627212524,0.11355321109294891,0.17262360453605652,-0.007098468951880932,-0.011180505156517029,-0.3898533284664154,0.9207817912101746,0.0,0.0,0.0,0.0,0.0,0.0
1180,1724915394856433710,-0.49040576815605164,0.11485638469457626,0.17251190543174744,-0.00856759399175644,-0.010917042382061481,-0.39017122983932495,0.9206377863883972,0.0,0.0,0.0,0.0,0.0,0.0
1182,1724915394865589678,-0.4903695285320282,0.11617527902126312,0.17264415323734283,-0.012507251463830471,-0.012037103995680809,-0.39113888144493103,0.9201679229736328,0.0,0.0,0.0,0.0,0.0,0.0
1184,1724915394875651625,-0.490420937538147,0.1173357293009758,0.17277830839157104,-0.015216168947517872,-0.013932677917182446,-0.3919766843318939,0.9197438955307007,0.0,0.0,0.0,0.0,0.0,0.0
1186,1724915394886612923,-0.49032753705978394,0.118288055062294,0.17321226000785828,-0.017405400052666664,-0.014869753271341324,-0.3927363455295563,0.9193662405014038,0.0,0.0,0.0,0.0,0.0,0.0
1188,1724915394895871143,-0.4902590811252594,0.11920183151960373,0.17346203327178955,-0.018788715824484825,-0.015995174646377563,-0.39225485920906067,0.9195255637168884,0.0,0.0,0.0,0.0,0.0,0.0
1190,1724915394905550751,-0.49021202325820923,0.12032384425401688,0.17339786887168884,-0.020351732149720192,-0.01634214073419571,-0.39071521162986755,0.9201415181159973,0.0,0.0,0.0,0.0,0.0,0.0
1192,1724915394915483791,-0.4899178147315979,0.12168512493371964,0.17345845699310303,-0.022751636803150177,-0.015464778058230877,-0.39064821600914,0.9201289415359497,0.0,0.0,0.0,0.0,0.0,0.0
1194,1724915394925801585,-0.48969918489456177,0.12280464917421341,0.17341870069503784,-0.025684991851449013,-0.015599185600876808,-0.3907269835472107,0.9200160503387451,0.0,0.0,0.0,0.0,0.0,0.0
1196,1724915394936635131,-0.4897915720939636,0.12374091893434525,0.1730739325284958,-0.029933305457234383,-0.01865381747484207,-0.39091193675994873,0.9197520613670349,0.0,0.0,0.0,0.0,0.0,0.0
1198,1724915394947098686,-0.4897499978542328,0.12478555738925934,0.17280714213848114,-0.032196372747421265,-0.019329829141497612,-0.3911826014518738,0.9195466041564941,0.0,0.0,0.0,0.0,0.0,0.0
1200,1724915394955488268,-0.4896051287651062,0.12570452690124512,0.17262449860572815,-0.033761974424123764,-0.019482765346765518,-0.3914072513580322,0.9193915724754333,0.0,0.0,0.0,0.0,0.0,0.0
1202,1724915394967492743,-0.48959270119667053,0.12658770382404327,0.17243832349777222,-0.036384738981723785,-0.0198052991181612,-0.39081794023513794,0.9195353984832764,0.0,0.0,0.0,0.0,0.0,0.0
1204,1724915395000455477,-0.4894849956035614,0.12745869159698486,0.17185309529304504,-0.03607160970568657,-0.020740211009979248,-0.38912615180015564,0.9202443361282349,0.0,0.0,0.0,0.0,0.0,0.0
1206,1724915395000924497,-0.48946818709373474,0.12835544347763062,0.17140324413776398,-0.03930789977312088,-0.021499916911125183,-0.38847336173057556,0.9203701615333557,0.0,0.0,0.0,0.0,0.0,0.0
1208,1724915395001230540,-0.48943793773651123,0.12908197939395905,0.1709318310022354,-0.0401734933257103,-0.02210751175880432,-0.3881470263004303,0.9204559922218323,0.0,0.0,0.0,0.0,0.0,0.0
1210,1724915395005555741,-0.48940515518188477,0.1297392100095749,0.1707041710615158,-0.040570709854364395,-0.021800149232149124,-0.38848066329956055,0.9203051328659058,0.0,0.0,0.0,0.0,0.0,0.0
1212,1724915395016224923,-0.4894702732563019,0.13031256198883057,0.17040522396564484,-0.04211640730500221,-0.021816499531269073,-0.38836583495140076,0.920283854007721,0.0,0.0,0.0,0.0,0.0,0.0
1214,1724915395026461020,-0.4896473288536072,0.13096733391284943,0.16992703080177307,-0.04419124871492386,-0.021350977942347527,-0.3881177306175232,0.9203020334243774,0.0,0.0,0.0,0.0,0.0,0.0
1216,1724915395088883454,-0.48987048864364624,0.13153621554374695,0.16929131746292114,-0.04536474868655205,-0.021623296663165092,-0.38762834668159485,0.920444905757904,0.0,0.0,0.0,0.0,0.0,0.0
1218,1724915395089859549,-0.49021950364112854,0.13210394978523254,0.16859273612499237,-0.046813003718853,-0.021914159879088402,-0.3865850269794464,0.9208042621612549,0.0,0.0,0.0,0.0,0.0,0.0
1220,1724915395090523254,-0.49046623706817627,0.13272297382354736,0.16805389523506165,-0.04687820002436638,-0.02241184562444687,-0.3856772780418396,0.9211695194244385,0.0,0.0,0.0,0.0,0.0,0.0
1222,1724915395091097201,-0.4907590448856354,0.1334107518196106,0.16754509508609772,-0.047509998083114624,-0.021881794556975365,-0.38556724786758423,0.921195924282074,0.0,0.0,0.0,0.0,0.0,0.0
1224,1724915395091497348,-0.49097225069999695,0.13403251767158508,0.1669636070728302,-0.047772862017154694,-0.021330423653125763,-0.3854176700115204,0.9212579131126404,0.0,0.0,0.0,0.0,0.0,0.0
1226,1724915395092015607,-0.4911614656448364,0.13456390798091888,0.16614815592765808,-0.04823702573776245,-0.021597521379590034,-0.384016752243042,0.9218123555183411,0.0,0.0,0.0,0.0,0.0,0.0
1228,1724915395095596367,-0.49125903844833374,0.13518871366977692,0.16544924676418304,-0.048938531428575516,-0.021144261583685875,-0.38277414441108704,0.9223025441169739,0.0,0.0,0.0,0.0,0.0,0.0
1230,1724915395105907684,-0.49141666293144226,0.13574445247650146,0.16488155722618103,-0.05117282643914223,-0.022079674527049065,-0.38127002120018005,0.9227821826934814,0.0,0.0,0.0,0.0,0.0,0.0
1232,1724915395115557272,-0.49146825075149536,0.13633932173252106,0.1643434464931488,-0.05193756893277168,-0.022850288078188896,-0.379349023103714,0.9235121607780457,0.0,0.0,0.0,0.0,0.0,0.0
1234,1724915395125800924,-0.49152860045433044,0.1368040293455124,0.16378867626190186,-0.052335578948259354,-0.02333107218146324,-0.37773826718330383,0.9241377711296082,0.0,0.0,0.0,0.0,0.0,0.0
1236,1724915395137071276,-0.4915497601032257,0.1371580809354782,0.16336286067962646,-0.05223449692130089,-0.023906489834189415,-0.37651076912879944,0.9246295690536499,0.0,0.0,0.0,0.0,0.0,0.0
1238,1724915395147895093,-0.4916713833808899,0.13741059601306915,0.1629938781261444,-0.05331846699118614,-0.025213100016117096,-0.3750075101852417,0.9251437187194824,0.0,0.0,0.0,0.0,0.0,0.0
1240,1724915395155365616,-0.49160125851631165,0.13779863715171814,0.16265912353992462,-0.052007321268320084,-0.02580031007528305,-0.37361156940460205,0.9257667660713196,0.0,0.0,0.0,0.0,0.0,0.0
1242,1724915395165740949,-0.491604745388031,0.13815875351428986,0.1623801738023758,-0.05227857083082199,-0.025818975642323494,-0.3726765513420105,0.9261277914047241,0.0,0.0,0.0,0.0,0.0,0.0
1244,1724915395176573608,-0.49160024523735046,0.13865754008293152,0.16199706494808197,-0.053536348044872284,-0.02499517984688282,-0.3718682527542114,0.9264033436775208,0.0,0.0,0.0,0.0,0.0,0.0
1246,1724915395187093970,-0.4915081560611725,0.13904111087322235,0.1615990251302719,-0.05369628965854645,-0.025286981835961342,-0.37159428000450134,0.926496148109436,0.0,0.0,0.0,0.0,0.0,0.0
1248,1724915395195905488,-0.4913722574710846,0.1394280344247818,0.16125865280628204,-0.053143180906772614,-0.025261567905545235,-0.3715875446796417,0.9265314340591431,0.0,0.0,0.0,0.0,0.0,0.0
1250,1724915395205624832,-0.4912915825843811,0.1397818624973297,0.16096457839012146,-0.05347413197159767,-0.024904076009988785,-0.3708958625793457,0.9267991185188293,0.0,0.0,0.0,0.0,0.0,0.0
1252,1724915395215452187,-0.49119341373443604,0.14011070132255554,0.16076043248176575,-0.0544009767472744,-0.02493034489452839,-0.3693137764930725,0.9273761510848999,0.0,0.0,0.0,0.0,0.0,0.0
1254,1724915395229116827,-0.4910763204097748,0.14040355384349823,0.1605481505393982,-0.05459592118859291,-0.02487107738852501,-0.3672192096710205,0.9281976819038391,0.0,0.0,0.0,0.0,0.0,0.0
1256,1724915395236719302,-0.4909823536872864,0.14068949222564697,0.1603926122188568,-0.05425374209880829,-0.02459237538278103,-0.3652108609676361,0.9290171265602112,0.0,0.0,0.0,0.0,0.0,0.0
1258,1724915395247333223,-0.4910706877708435,0.14097703993320465,0.16020530462265015,-0.05617669224739075,-0.025332076475024223,-0.36280661821365356,0.9298245906829834,0.0,0.0,0.0,0.0,0.0,0.0
1260,1724915395255409648,-0.49101006984710693,0.14133431017398834,0.1601022630929947,-0.05617658421397209,-0.025200536474585533,-0.36110737919807434,0.9304894804954529,0.0,0.0,0.0,0.0,0.0,0.0
1262,1724915395267807433,-0.490945428609848,0.14171846210956573,0.15996053814888,-0.05526202917098999,-0.025341926142573357,-0.3599666357040405,0.9309822916984558,0.0,0.0,0.0,0.0,0.0,0.0
1264,1724915395276956226,-0.4909915328025818,0.14206115901470184,0.15970569849014282,-0.05530434101819992,-0.025491273030638695,-0.35890668630599976,0.9313848614692688,0.0,0.0,0.0,0.0,0.0,0.0
1266,1724915395286318525,-0.49102404713630676,0.14234614372253418,0.15955623984336853,-0.05569840595126152,-0.025537095963954926,-0.3581530451774597,0.9316501021385193,0.0,0.0,0.0,0.0,0.0,0.0
1268,1724915395300499534,-0.4910430908203125,0.14258649945259094,0.15947313606739044,-0.05585924908518791,-0.025452513247728348,-0.35787761211395264,0.9317486882209778,0.0,0.0,0.0,0.0,0.0,0.0
1270,1724915395305776307,-0.4910479187965393,0.14270393550395966,0.15940365195274353,-0.05618001148104668,-0.025121154263615608,-0.3568703234195709,0.9321246147155762,0.0,0.0,0.0,0.0,0.0,0.0
