seq,stamp,px,py,pz,ox,oy,oz,ow,lx,ly,lz,ax,ay,az
5408,1724813396386715353,-1.740753412246704,-0.2402142584323883,0.1774626523256302,0.04718684032559395,-0.061199791729450226,0.8762222528457642,0.47567060589790344,0.0,0.0,0.0,0.0,0.0,0.0
5410,1724813396395194996,-1.7407468557357788,-0.240217387676239,0.17744635045528412,0.04709295555949211,-0.06094760447740555,0.8762434720993042,0.47567319869995117,0.0,0.0,0.0,0.0,0.0,0.0
5412,1724813396406112622,-1.7407335042953491,-0.2402200549840927,0.17742040753364563,0.046935323625802994,-0.06120210886001587,0.8761860728263855,0.47576189041137695,0.0,0.0,0.0,0.0,0.0,0.0
5414,1724813396414706091,-1.7407029867172241,-0.24023419618606567,0.17740295827388763,0.04631701111793518,-0.06239750608801842,0.8760911822319031,0.4758419096469879,0.0,0.0,0.0,0.0,0.0,0.0
5416,1724813396425543492,-1.7406859397888184,-0.24021710455417633,0.17737562954425812,0.04607313126325607,-0.0625988095998764,0.8760853409767151,0.4758498966693878,0.0,0.0,0.0,0.0,0.0,0.0
5418,1724813396438342955,-1.7407257556915283,-0.24021150171756744,0.17732366919517517,0.04614201560616493,-0.06272795051336288,0.8761202096939087,0.4757620692253113,0.0,0.0,0.0,0.0,0.0,0.0
5420,1724813396445457847,-1.7407275438308716,-0.24020397663116455,0.17726127803325653,0.04601488634943962,-0.06262778490781784,0.8761356472969055,0.4757591187953949,0.0,0.0,0.0,0.0,0.0,0.0
5422,1724813396455386702,-1.740834355354309,-0.2402561455965042,0.17729061841964722,0.046827904880046844,-0.0612359344959259,0.8760890960693359,0.47594672441482544,0.0,0.0,0.0,0.0,0.0,0.0
5424,1724813396464713974,-1.7408143281936646,-0.24021650850772858,0.1771927922964096,0.046542491763830185,-0.061193209141492844,0.8761716485023499,0.4758281707763672,0.0,0.0,0.0,0.0,0.0,0.0
5426,1724813396475064517,-1.740828275680542,-0.24018701910972595,0.17707978188991547,0.046264879405498505,-0.061219144612550735,0.8761422634124756,0.4759059548377991,0.0,0.0,0.0,0.0,0.0,0.0
5428,1724813396485179917,-1.7408044338226318,-0.240077942609787,0.17674487829208374,0.044987257570028305,-0.060097236186265945,0.8762452602386475,0.47598180174827576,0.0,0.0,0.0,0.0,0.0,0.0
5430,1724813396494415838,-1.7408016920089722,-0.24005375802516937,0.17663872241973877,0.044742826372385025,-0.059653881937265396,0.8762393593788147,0.4760715067386627,0.0,0.0,0.0,0.0,0.0,0.0
5432,1724813396508293917,-1.7408177852630615,-0.24005861580371857,0.17660099267959595,0.044503431767225266,-0.05988826975226402,0.8761196136474609,0.47628483176231384,0.0,0.0,0.0,0.0,0.0,0.0
5434,1724813396516014214,-1.7408392429351807,-0.24007178843021393,0.1766095757484436,0.04450400918722153,-0.05968274548649788,0.8760939240455627,0.47635790705680847,0.0,0.0,0.0,0.0,0.0,0.0
5436,1724813396525048741,-1.740830421447754,-0.24006223678588867,0.17653310298919678,0.04426490515470505,-0.05965312197804451,0.8761060833930969,0.4763614237308502,0.0,0.0,0.0,0.0,0.0,0.0
5438,1724813396535825021,-1.7408132553100586,-0.240059494972229,0.17646907269954681,0.04429103806614876,-0.059703193604946136,0.8761032819747925,0.47635790705680847,0.0,0.0,0.0,0.0,0.0,0.0
5440,1724813396545356832,-1.7408370971679688,-0.24006949365139008,0.1764511615037918,0.04420365020632744,-0.05959003046154976,0.8761334419250488,0.47632476687431335,0.0,0.0,0.0,0.0,0.0,0.0
5442,1724813396554505455,-1.7408305406570435,-0.24007026851177216,0.17646603286266327,0.04413269832730293,-0.05969811975955963,0.8761245012283325,0.47633427381515503,0.0,0.0,0.0,0.0,0.0,0.0
5444,1724813396565676490,-1.74082612991333,-0.2400888353586197,0.1764579564332962,0.04418247938156128,-0.059604182839393616,0.8760920763015747,0.4764009416103363,0.0,0.0,0.0,0.0,0.0,0.0
5446,1724813396574598775,-1.740803837776184,-0.24006833136081696,0.17644813656806946,0.04409532621502876,-0.05982346087694168,0.8760728240013123,0.47641703486442566,0.0,0.0,0.0,0.0,0.0,0.0
5448,1724813396585518258,-1.740807056427002,-0.24005135893821716,0.17642870545387268,0.04399625211954117,-0.05974110588431358,0.8761074542999268,0.47637277841567993,0.0,0.0,0.0,0.0,0.0,0.0
5450,1724813396594625333,-1.7408287525177002,-0.24004057049751282,0.17637965083122253,0.04412417858839035,-0.05950130522251129,0.8760843873023987,0.4764333665370941,0.0,0.0,0.0,0.0,0.0,0.0
5452,1724813396605080710,-1.7408205270767212,-0.23998039960861206,0.17632178962230682,0.04408595710992813,-0.05947677046060562,0.8761064410209656,0.4763994514942169,0.0,0.0,0.0,0.0,0.0,0.0
5454,1724813396615167187,-1.74080491065979,-0.23988966643810272,0.17619208991527557,0.0440206453204155,-0.05948102846741676,0.8761820197105408,0.4762659966945648,0.0,0.0,0.0,0.0,0.0,0.0
5456,1724813396625250337,-1.740830421447754,-0.239865243434906,0.17609766125679016,0.044012267142534256,-0.05914025008678436,0.8762227296829224,0.4762342572212219,0.0,0.0,0.0,0.0,0.0,0.0
5458,1724813396634960975,-1.7408121824264526,-0.23984703421592712,0.17600378394126892,0.04353628680109978,-0.0594637356698513,0.8761628270149231,0.4763479232788086,0.0,0.0,0.0,0.0,0.0,0.0
5460,1724813396644734674,-1.740834355354309,-0.2398364096879959,0.17594313621520996,0.0435294434428215,-0.059230443090200424,0.8761470317840576,0.4764067232608795,0.0,0.0,0.0,0.0,0.0,0.0
5462,1724813396655845216,-1.7408685684204102,-0.2398078888654709,0.17587649822235107,0.04337102547287941,-0.059138037264347076,0.876187801361084,0.476357638835907,0.0,0.0,0.0,0.0,0.0,0.0
5464,1724813396664699087,-1.7408827543258667,-0.2398107796907425,0.1758338212966919,0.04322756081819534,-0.05910654366016388,0.876125693321228,0.47648876905441284,0.0,0.0,0.0,0.0,0.0,0.0
5466,1724813396674729775,-1.740864634513855,-0.23978430032730103,0.17579172551631927,0.04313325881958008,-0.059290189296007156,0.8760542869567871,0.47660577297210693,0.0,0.0,0.0,0.0,0.0,0.0
5468,1724813396685025645,-1.7408031225204468,-0.23973217606544495,0.17569857835769653,0.04214513301849365,-0.06090611591935158,0.8760200142860413,0.4765535891056061,0.0,0.0,0.0,0.0,0.0,0.0
5470,1724813396694742474,-1.7408173084259033,-0.23978503048419952,0.1757379025220871,0.04227728769183159,-0.060832489281892776,0.8759332299232483,0.4767106771469116,0.0,0.0,0.0,0.0,0.0,0.0
5472,1724813396704827681,-1.740795373916626,-0.23976384103298187,0.1756836622953415,0.0421530157327652,-0.061111558228731155,0.8759384155273438,0.47667643427848816,0.0,0.0,0.0,0.0,0.0,0.0
5474,1724813396714733551,-1.740785837173462,-0.2397484928369522,0.17568707466125488,0.042184844613075256,-0.06094575300812721,0.8759994506835938,0.4765826463699341,0.0,0.0,0.0,0.0,0.0,0.0
5476,1724813396725274762,-1.7407810688018799,-0.2397732138633728,0.17569898068904877,0.04200500622391701,-0.06108953431248665,0.8759234547615051,0.47671976685523987,0.0,0.0,0.0,0.0,0.0,0.0
5478,1724813396737257700,-1.7407809495925903,-0.23978009819984436,0.1756577044725418,0.04207918047904968,-0.060881271958351135,0.8759700059890747,0.4766543507575989,0.0,0.0,0.0,0.0,0.0,0.0
5480,1724813396744762963,-1.7407732009887695,-0.23974433541297913,0.1756192147731781,0.0420856811106205,-0.06090053543448448,0.8760277628898621,0.476545125246048,0.0,0.0,0.0,0.0,0.0,0.0
5482,1724813396754869953,-1.7407912015914917,-0.23976822197437286,0.17565271258354187,0.04195714369416237,-0.06097472831606865,0.8759236931800842,0.47673818469047546,0.0,0.0,0.0,0.0,0.0,0.0
5484,1724813396766128052,-1.740792989730835,-0.2397404909133911,0.175607368350029,0.042019158601760864,-0.06080276891589165,0.876000165939331,0.47661423683166504,0.0,0.0,0.0,0.0,0.0,0.0
5486,1724813396775040912,-1.7408071756362915,-0.23975996673107147,0.17562948167324066,0.04207070171833038,-0.06064267084002495,0.8759719133377075,0.47668203711509705,0.0,0.0,0.0,0.0,0.0,0.0
5488,1724813396787682003,-1.7407644987106323,-0.23967935144901276,0.17554858326911926,0.04174784943461418,-0.060816530138254166,0.87603759765625,0.4765675365924835,0.0,0.0,0.0,0.0,0.0,0.0
5490,1724813396794563781,-1.7408065795898438,-0.23973795771598816,0.1755581647157669,0.04191263020038605,-0.0606459379196167,0.8759505152702332,0.47673487663269043,0.0,0.0,0.0,0.0,0.0,0.0
5492,1724813396805633837,-1.7407666444778442,-0.23969006538391113,0.17548911273479462,0.04168171063065529,-0.060972485691308975,0.8759834170341492,0.47665295004844666,0.0,0.0,0.0,0.0,0.0,0.0
5494,1724813396815542167,-1.7408087253570557,-0.23971880972385406,0.17549927532672882,0.041704148054122925,-0.06081440672278404,0.8759042620658875,0.4768165946006775,0.0,0.0,0.0,0.0,0.0,0.0
5496,1724813396824954505,-1.7407865524291992,-0.23968490958213806,0.1754283607006073,0.041638053953647614,-0.060791533440351486,0.8759965300559998,0.4766557514667511,0.0,0.0,0.0,0.0,0.0,0.0
5498,1724813396834715680,-1.7407691478729248,-0.23967723548412323,0.17541731894016266,0.04151167720556259,-0.060965415090322495,0.8759662508964539,0.4767002463340759,0.0,0.0,0.0,0.0,0.0,0.0
5500,1724813396844977015,-1.740778923034668,-0.23967617750167847,0.17542009055614471,0.04150683805346489,-0.06086704507470131,0.8759572505950928,0.47672975063323975,0.0,0.0,0.0,0.0,0.0,0.0
5502,1724813396854970065,-1.7407623529434204,-0.23963198065757751,0.17538562417030334,0.04130884259939194,-0.06098056212067604,0.8759844899177551,0.4766824245452881,0.0,0.0,0.0,0.0,0.0,0.0
5504,1724813396864756218,-1.7407671213150024,-0.23962350189685822,0.1753428876399994,0.04146813228726387,-0.0608011931180954,0.8759936690330505,0.4766746163368225,0.0,0.0,0.0,0.0,0.0,0.0
5506,1724813396875404915,-1.7407822608947754,-0.23963138461112976,0.17532607913017273,0.04140762612223625,-0.060758378356695175,0.8759976029396057,0.4766780734062195,0.0,0.0,0.0,0.0,0.0,0.0
5508,1724813396884613499,-1.7407596111297607,-0.23961219191551208,0.17532533407211304,0.041275713592767715,-0.061137158423662186,0.8759600520133972,0.47671017050743103,0.0,0.0,0.0,0.0,0.0,0.0
5510,1724813396895126419,-1.7407933473587036,-0.23963184654712677,0.17529933154582977,0.041362859308719635,-0.06058798357844353,0.8760014772415161,0.47669661045074463,0.0,0.0,0.0,0.0,0.0,0.0
5512,1724813396904986335,-1.740757942199707,-0.23962311446666718,0.17527273297309875,0.04131614416837692,-0.06075355038046837,0.8760184645652771,0.47664836049079895,0.0,0.0,0.0,0.0,0.0,0.0
5514,1724813396920145232,-1.7407768964767456,-0.23962557315826416,0.17526863515377045,0.041333235800266266,-0.060772400349378586,0.8759874105453491,0.476701557636261,0.0,0.0,0.0,0.0,0.0,0.0
5516,1724813396925131468,-1.7407969236373901,-0.23962798714637756,0.17526911199092865,0.04133467748761177,-0.06064464524388313,0.8759841918945312,0.4767236113548279,0.0,0.0,0.0,0.0,0.0,0.0
5518,1724813396934614520,-1.7407712936401367,-0.23958098888397217,0.1751863658428192,0.04103025421500206,-0.060941778123378754,0.8760046362876892,0.4766744077205658,0.0,0.0,0.0,0.0,0.0,0.0
5520,1724813396945144096,-1.740797996520996,-0.23958028852939606,0.1751578003168106,0.041113466024398804,-0.060478176921606064,0.8760482668876648,0.4766460359096527,0.0,0.0,0.0,0.0,0.0,0.0
5522,1724813396954925516,-1.740820288658142,-0.23960140347480774,0.1751672476530075,0.041137371212244034,-0.060289572924375534,0.8759751319885254,0.4768023192882538,0.0,0.0,0.0,0.0,0.0,0.0
5524,1724813396966443238,-1.7407959699630737,-0.239573672413826,0.1751030683517456,0.04111818969249725,-0.060268256813287735,0.8759835362434387,0.47679126262664795,0.0,0.0,0.0,0.0,0.0,0.0
5526,1724813396975435127,-1.7408086061477661,-0.239573135972023,0.17508985102176666,0.04105705767869949,-0.060165952891111374,0.8759648203849792,0.47684383392333984,0.0,0.0,0.0,0.0,0.0,0.0
5528,1724813396989778774,-1.7408055067062378,-0.2395813912153244,0.17512036859989166,0.04086402431130409,-0.06043357774615288,0.8758886456489563,0.4769664406776428,0.0,0.0,0.0,0.0,0.0,0.0
5530,1724813396994519161,-1.7408150434494019,-0.23958344757556915,0.17509354650974274,0.04085926339030266,-0.06022030860185623,0.8758999705314636,0.4769729971885681,0.0,0.0,0.0,0.0,0.0,0.0
5532,1724813397005695633,-1.7408071756362915,-0.23954381048679352,0.17503973841667175,0.0407584011554718,-0.060475219041109085,0.8759300708770752,0.4768941104412079,0.0,0.0,0.0,0.0,0.0,0.0
5534,1724813397017766155,-1.7408498525619507,-0.23962418735027313,0.17533786594867706,0.04179784655570984,-0.06161393225193024,0.8758397102355957,0.4768245816230774,0.0,0.0,0.0,0.0,0.0,0.0
5536,1724813397025162656,-1.7408849000930786,-0.23967111110687256,0.17541217803955078,0.04213063418865204,-0.06190778315067291,0.8757084012031555,0.47699815034866333,0.0,0.0,0.0,0.0,0.0,0.0
5538,1724813397035227845,-1.7409800291061401,-0.23965205252170563,0.17541144788265228,0.04284610226750374,-0.060637131333351135,0.8758315443992615,0.47687163949012756,0.0,0.0,0.0,0.0,0.0,0.0
5540,1724813397048003605,-1.740943193435669,-0.23958508670330048,0.17529286444187164,0.04258674010634422,-0.06052549183368683,0.875920295715332,0.4767458736896515,0.0,0.0,0.0,0.0,0.0,0.0
5542,1724813397056331416,-1.7409734725952148,-0.2395956963300705,0.17526598274707794,0.042509060353040695,-0.060298141092061996,0.8759027123451233,0.4768139719963074,0.0,0.0,0.0,0.0,0.0,0.0
5544,1724813397064893787,-1.7409731149673462,-0.23957999050617218,0.17520658671855927,0.042414866387844086,-0.06052679568529129,0.8758265972137451,0.47693321108818054,0.0,0.0,0.0,0.0,0.0,0.0
5546,1724813397076102795,-1.740970492362976,-0.23952513933181763,0.175132617354393,0.042403604835271835,-0.0601787269115448,0.8759417533874512,0.4767667353153229,0.0,0.0,0.0,0.0,0.0,0.0
5548,1724813397085432247,-1.7409446239471436,-0.23943810164928436,0.1747632771730423,0.04132295772433281,-0.05856720358133316,0.8760705590248108,0.4768257439136505,0.0,0.0,0.0,0.0,0.0,0.0
5550,1724813397094731093,-1.7409523725509644,-0.23948748409748077,0.1749553084373474,0.04209262132644653,-0.05979026481509209,0.8759843707084656,0.4767649471759796,0.0,0.0,0.0,0.0,0.0,0.0
5552,1724813397104778654,-1.741016149520874,-0.2395365834236145,0.17509227991104126,0.04236980900168419,-0.05983225256204605,0.8758971691131592,0.4768952429294586,0.0,0.0,0.0,0.0,0.0,0.0
5554,1724813397114586612,-1.7409515380859375,-0.23939597606658936,0.17466554045677185,0.04116784781217575,-0.05850175395607948,0.876105785369873,0.4767824411392212,0.0,0.0,0.0,0.0,0.0,0.0
5556,1724813397161808769,-1.7409281730651855,-0.2393360435962677,0.17451359331607819,0.041028331965208054,-0.05794685333967209,0.8761651515960693,0.47675302624702454,0.0,0.0,0.0,0.0,0.0,0.0
5558,1724813397162426145,-1.7409213781356812,-0.23936893045902252,0.1745329648256302,0.040671903640031815,-0.058362409472465515,0.8760190010070801,0.4770013988018036,0.0,0.0,0.0,0.0,0.0,0.0
5560,1724813397162724064,-1.7409608364105225,-0.23932740092277527,0.17444753646850586,0.040741510689258575,-0.05772597715258598,0.8761641383171082,0.47680625319480896,0.0,0.0,0.0,0.0,0.0,0.0
5562,1724813397162985334,-1.7409803867340088,-0.23929385840892792,0.17439571022987366,0.04085930064320564,-0.057726290076971054,0.876169741153717,0.4767858684062958,0.0,0.0,0.0,0.0,0.0,0.0
5564,1724813397165053268,-1.7410240173339844,-0.23931050300598145,0.1743667870759964,0.040832988917827606,-0.057452961802482605,0.8761297464370728,0.47689467668533325,0.0,0.0,0.0,0.0,0.0,0.0
5566,1724813397175749313,-1.7409919500350952,-0.23926545679569244,0.1742984503507614,0.04043535888195038,-0.05774945765733719,0.8760920763015747,0.4769618809223175,0.0,0.0,0.0,0.0,0.0,0.0
5568,1724813397185966223,-1.7409472465515137,-0.23916471004486084,0.1741846650838852,0.04019287973642349,-0.058797720819711685,0.8760956525802612,0.476847767829895,0.0,0.0,0.0,0.0,0.0,0.0
5570,1724813397194875198,-1.7409707307815552,-0.23916694521903992,0.17413315176963806,0.040054116398096085,-0.05875319615006447,0.876039445400238,0.4769681692123413,0.0,0.0,0.0,0.0,0.0,0.0
5572,1724813397204738315,-1.7410433292388916,-0.23915420472621918,0.1739611178636551,0.03984919562935829,-0.057687148451805115,0.8761720657348633,0.47687187790870667,0.0,0.0,0.0,0.0,0.0,0.0
5574,1724813397214762662,-1.741112232208252,-0.23918823897838593,0.1739085614681244,0.03974875062704086,-0.05744308605790138,0.8760620951652527,0.4771116077899933,0.0,0.0,0.0,0.0,0.0,0.0
5576,1724813397225193325,-1.741134524345398,-0.23916515707969666,0.1737838238477707,0.039433643221855164,-0.05744802579283714,0.8760331869125366,0.4771902859210968,0.0,0.0,0.0,0.0,0.0,0.0
5578,1724813397240127762,-1.7411249876022339,-0.23911996185779572,0.17367905378341675,0.03924838453531265,-0.05766654387116432,0.8760077357292175,0.4772259593009949,0.0,0.0,0.0,0.0,0.0,0.0
5580,1724813397244546569,-1.7411308288574219,-0.23910114169120789,0.1736147403717041,0.038941267877817154,-0.05766534060239792,0.875982940196991,0.4772966802120209,0.0,0.0,0.0,0.0,0.0,0.0
5582,1724813397257091325,-1.7411397695541382,-0.2390577346086502,0.1735420972108841,0.03887011855840683,-0.05754978209733963,0.8759865164756775,0.477309912443161,0.0,0.0,0.0,0.0,0.0,0.0
5584,1724813397265478924,-1.7411352396011353,-0.23905110359191895,0.17347224056720734,0.038572587072849274,-0.057882074266672134,0.875896155834198,0.47745969891548157,0.0,0.0,0.0,0.0,0.0,0.0
5586,1724813397274844106,-1.7410836219787598,-0.23897607624530792,0.17335590720176697,0.03827884420752525,-0.05792295187711716,0.875964879989624,0.4773522615432739,0.0,0.0,0.0,0.0,0.0,0.0
5588,1724813397287804150,-1.7410680055618286,-0.23900340497493744,0.17330774664878845,0.03811014071106911,-0.0581032857298851,0.8758834004402161,0.4774933159351349,0.0,0.0,0.0,0.0,0.0,0.0
5590,1724813397294330692,-1.741044521331787,-0.23895017802715302,0.173124298453331,0.03808481991291046,-0.05782832205295563,0.8759713172912598,0.47736746072769165,0.0,0.0,0.0,0.0,0.0,0.0
5592,1724813397306221399,-1.7411283254623413,-0.23912353813648224,0.17354269325733185,0.039019834250211716,-0.05951369181275368,0.8755831122398376,0.47779685258865356,0.0,0.0,0.0,0.0,0.0,0.0
5594,1724813397315501485,-1.7411166429519653,-0.23904621601104736,0.17344464361667633,0.038921233266592026,-0.059768661856651306,0.8756512999534607,0.4776480495929718,0.0,0.0,0.0,0.0,0.0,0.0
5596,1724813397324898922,-1.741145133972168,-0.2390698790550232,0.17339357733726501,0.038673873990774155,-0.05996200814843178,0.8755329251289368,0.4778608977794647,0.0,0.0,0.0,0.0,0.0,0.0
5598,1724813397335346517,-1.7411397695541382,-0.23896649479866028,0.173183411359787,0.03848932683467865,-0.059560831636190414,0.8757091760635376,0.47760289907455444,0.0,0.0,0.0,0.0,0.0,0.0
5600,1724813397345264262,-1.7411437034606934,-0.2389371693134308,0.17311695218086243,0.038207124918699265,-0.059804823249578476,0.8756393194198608,0.4777231216430664,0.0,0.0,0.0,0.0,0.0,0.0
5602,1724813397355412340,-1.7411155700683594,-0.23887448012828827,0.17300419509410858,0.0378163643181324,-0.06005922704935074,0.8756585717201233,0.4776870012283325,0.0,0.0,0.0,0.0,0.0,0.0
5604,1724813397365896824,-1.7411116361618042,-0.23887485265731812,0.17295655608177185,0.037641748785972595,-0.06017637625336647,0.8755589127540588,0.4778687059879303,0.0,0.0,0.0,0.0,0.0,0.0
5606,1724813397378264571,-1.7411094903945923,-0.23880909383296967,0.17255812883377075,0.0366872102022171,-0.05839565396308899,0.8756510019302368,0.47799524664878845,0.0,0.0,0.0,0.0,0.0,0.0
5608,1724813397387821731,-1.7410004138946533,-0.23873761296272278,0.17236392199993134,0.03550451993942261,-0.059767503291368484,0.8756027221679688,0.47800320386886597,0.0,0.0,0.0,0.0,0.0,0.0
5610,1724813397395300041,-1.7409839630126953,-0.23876604437828064,0.17233583331108093,0.035372331738471985,-0.05976463481783867,0.8755080699920654,0.47818681597709656,0.0,0.0,0.0,0.0,0.0,0.0
5612,1724813397406239320,-1.7409489154815674,-0.23875965178012848,0.17228607833385468,0.035220831632614136,-0.05966310203075409,0.8755017518997192,0.4782222509384155,0.0,0.0,0.0,0.0,0.0,0.0
5614,1724813397417949547,-1.7408771514892578,-0.23877441883087158,0.17221075296401978,0.035223715007305145,-0.059645820409059525,0.875558614730835,0.47811999917030334,0.0,0.0,0.0,0.0,0.0,0.0
5616,1724813397425803048,-1.7408148050308228,-0.2388296127319336,0.17220813035964966,0.03528418391942978,-0.05951235443353653,0.8755255341529846,0.4781927764415741,0.0,0.0,0.0,0.0,0.0,0.0
5618,1724813397438749202,-1.740767002105713,-0.23883046209812164,0.17210128903388977,0.03526593744754791,-0.05958707258105278,0.8755850195884705,0.47807589173316956,0.0,0.0,0.0,0.0,0.0,0.0
5620,1724813397445129155,-1.740706443786621,-0.23887500166893005,0.171989306807518,0.03517882525920868,-0.059766001999378204,0.8756956458091736,0.4778573215007782,0.0,0.0,0.0,0.0,0.0,0.0
5622,1724813397458758897,-1.740689992904663,-0.23897933959960938,0.17191965878009796,0.03590849041938782,-0.05882331728935242,0.8757498264312744,0.4778207242488861,0.0,0.0,0.0,0.0,0.0,0.0
5624,1724813397464708261,-1.7406357526779175,-0.23907668888568878,0.1717650443315506,0.03592422604560852,-0.05890245735645294,0.8758958578109741,0.47754210233688354,0.0,0.0,0.0,0.0,0.0,0.0
5626,1724813397478070476,-1.740547776222229,-0.2391507923603058,0.1715279370546341,0.03584127500653267,-0.059107039123773575,0.8760771155357361,0.47719037532806396,0.0,0.0,0.0,0.0,0.0,0.0
5628,1724813397486397108,-1.740422010421753,-0.23927518725395203,0.17130570113658905,0.035754889249801636,-0.05965745449066162,0.8761641979217529,0.4769684374332428,0.0,0.0,0.0,0.0,0.0,0.0
5630,1724813397494363420,-1.740313172340393,-0.23940347135066986,0.17109344899654388,0.035880543291568756,-0.05971277877688408,0.87629234790802,0.4767165184020996,0.0,0.0,0.0,0.0,0.0,0.0
5632,1724813397505226635,-1.7402056455612183,-0.2396322637796402,0.17099057137966156,0.03599263355135918,-0.05997646972537041,0.8761581182479858,0.4769217371940613,0.0,0.0,0.0,0.0,0.0,0.0
5634,1724813397516653210,-1.7400939464569092,-0.23974239826202393,0.17078685760498047,0.03618726506829262,-0.059886734932661057,0.8762942552566528,0.476668119430542,0.0,0.0,0.0,0.0,0.0,0.0
5636,1724813397525077221,-1.7398556470870972,-0.23992681503295898,0.17072811722755432,0.035916414111852646,-0.06148068979382515,0.8761036992073059,0.4768359065055847,0.0,0.0,0.0,0.0,0.0,0.0
5638,1724813397534911466,-1.7396938800811768,-0.240038201212883,0.17065677046775818,0.036409057676792145,-0.061270490288734436,0.8761274814605713,0.4767819046974182,0.0,0.0,0.0,0.0,0.0,0.0
5640,1724813397545632978,-1.7396243810653687,-0.24017775058746338,0.17063021659851074,0.03656025975942612,-0.06140213832259178,0.876101016998291,0.47680196166038513,0.0,0.0,0.0,0.0,0.0,0.0
5642,1724813397555044751,-1.739528775215149,-0.2402842491865158,0.1706075519323349,0.03642059117555618,-0.06138954684138298,0.876186728477478,0.4766567647457123,0.0,0.0,0.0,0.0,0.0,0.0
5644,1724813397565102545,-1.7395085096359253,-0.24044841527938843,0.17063196003437042,0.03617788478732109,-0.06171873211860657,0.876102864742279,0.47678688168525696,0.0,0.0,0.0,0.0,0.0,0.0
5646,1724813397575021578,-1.739428162574768,-0.24055077135562897,0.17052002251148224,0.03615834191441536,-0.061571791768074036,0.8763059377670288,0.47643405199050903,0.0,0.0,0.0,0.0,0.0,0.0
5648,1724813397589119362,-1.739328145980835,-0.24065639078617096,0.1704154759645462,0.03584234416484833,-0.0621446818113327,0.876327633857727,0.47634363174438477,0.0,0.0,0.0,0.0,0.0,0.0
5650,1724813397595024145,-1.7392544746398926,-0.2408258616924286,0.17034992575645447,0.03585192933678627,-0.06203685328364372,0.8763140439987183,0.47638195753097534,0.0,0.0,0.0,0.0,0.0,0.0
5652,1724813397604784364,-1.7391974925994873,-0.24099773168563843,0.17027869820594788,0.03555474802851677,-0.06191850081086159,0.8764081597328186,0.4762464761734009,0.0,0.0,0.0,0.0,0.0,0.0
5654,1724813397614711540,-1.7391364574432373,-0.24121154844760895,0.17022106051445007,0.03535008803009987,-0.061838142573833466,0.8764495253562927,0.4761960506439209,0.0,0.0,0.0,0.0,0.0,0.0
5656,1724813397634803230,-1.7390938997268677,-0.24146568775177002,0.17015224695205688,0.03517109900712967,-0.061224084347486496,0.8765454292297363,0.47611212730407715,0.0,0.0,0.0,0.0,0.0,0.0
5658,1724813397635305620,-1.7390260696411133,-0.24176651239395142,0.1701143980026245,0.034983087331056595,-0.061177100986242294,0.8766810297966003,0.47588223218917847,0.0,0.0,0.0,0.0,0.0,0.0
5660,1724813397644426926,-1.7389920949935913,-0.24229183793067932,0.17051023244857788,0.036102019250392914,-0.061791252344846725,0.8764480352401733,0.4761483669281006,0.0,0.0,0.0,0.0,0.0,0.0
5662,1724813397654705550,-1.7390037775039673,-0.24273881316184998,0.17064866423606873,0.037151165306568146,-0.05986906960606575,0.8765274286270142,0.47616711258888245,0.0,0.0,0.0,0.0,0.0,0.0
5664,1724813397664865775,-1.73884916305542,-0.24307763576507568,0.17050999402999878,0.03686246648430824,-0.059687621891498566,0.8767394423484802,0.47582191228866577,0.0,0.0,0.0,0.0,0.0,0.0
5666,1724813397674788947,-1.7387573719024658,-0.24356141686439514,0.17048406600952148,0.035877928137779236,-0.06030341610312462,0.8767163753509521,0.475862056016922,0.0,0.0,0.0,0.0,0.0,0.0
5668,1724813397684941929,-1.7386583089828491,-0.24395188689231873,0.17013150453567505,0.03463742509484291,-0.05873874947428703,0.876848042011261,0.47590717673301697,0.0,0.0,0.0,0.0,0.0,0.0
5670,1724813397694949450,-1.7385597229003906,-0.24439109861850739,0.1700069159269333,0.03401351720094681,-0.0582788921892643,0.8768901824951172,0.47593095898628235,0.0,0.0,0.0,0.0,0.0,0.0
5672,1724813397706104526,-1.7384910583496094,-0.244887113571167,0.16994336247444153,0.034279003739356995,-0.05683660879731178,0.8769749402999878,0.47593027353286743,0.0,0.0,0.0,0.0,0.0,0.0
5674,1724813397714676316,-1.7383254766464233,-0.24525438249111176,0.16974088549613953,0.03393959254026413,-0.056189969182014465,0.8771856427192688,0.4756428599357605,0.0,0.0,0.0,0.0,0.0,0.0
5676,1724813397725437549,-1.7381739616394043,-0.24567648768424988,0.16964933276176453,0.03373214974999428,-0.05540815368294716,0.8772119879722595,0.4757007360458374,0.0,0.0,0.0,0.0,0.0,0.0
5678,1724813397735456476,-1.7379363775253296,-0.24600844085216522,0.16935725510120392,0.03291337192058563,-0.05508219450712204,0.8774336576461792,0.4753870368003845,0.0,0.0,0.0,0.0,0.0,0.0
5680,1724813397744406412,-1.7377103567123413,-0.24635003507137299,0.16911789774894714,0.03208775073289871,-0.05538737401366234,0.8774988651275635,0.47528764605522156,0.0,0.0,0.0,0.0,0.0,0.0
5682,1724813397754885968,-1.737568736076355,-0.24673211574554443,0.16898661851882935,0.03254500776529312,-0.053185563534498215,0.8776423335075378,0.47524315118789673,0.0,0.0,0.0,0.0,0.0,0.0
5684,1724813397782584326,-1.737411379814148,-0.24729734659194946,0.16922007501125336,0.03320934250950813,-0.053861819207668304,0.8775339126586914,0.4753212332725525,0.0,0.0,0.0,0.0,0.0,0.0
5686,1724813397783246686,-1.737104058265686,-0.24753327667713165,0.16891561448574066,0.032602645456790924,-0.05322597920894623,0.8780257701873779,0.47452589869499207,0.0,0.0,0.0,0.0,0.0,0.0
5688,1724813397788119410,-1.7368590831756592,-0.2478598654270172,0.16879001259803772,0.03228602185845375,-0.05221792310476303,0.8781368136405945,0.47445404529571533,0.0,0.0,0.0,0.0,0.0,0.0
5690,1724813397794539355,-1.736579179763794,-0.24810250103473663,0.16830143332481384,0.030825471505522728,-0.050069134682416916,0.8783222436904907,0.47443971037864685,0.0,0.0,0.0,0.0,0.0,0.0
5692,1724813397804506155,-1.7363379001617432,-0.24844738841056824,0.1681518703699112,0.030033769086003304,-0.04912152513861656,0.8784032464027405,0.474439412355423,0.0,0.0,0.0,0.0,0.0,0.0
5694,1724813397815506009,-1.736040711402893,-0.24882282316684723,0.16804440319538116,0.02869594283401966,-0.049935150891542435,0.878301739692688,0.47462546825408936,0.0,0.0,0.0,0.0,0.0,0.0
5696,1724813397826144900,-1.7358241081237793,-0.2492155283689499,0.16795231401920319,0.028140980750322342,-0.04935521259903908,0.8782842755317688,0.474751353263855,0.0,0.0,0.0,0.0,0.0,0.0
5698,1724813397834864791,-1.7356210947036743,-0.24959340691566467,0.16785326600074768,0.027562309056520462,-0.04838802292943001,0.878438413143158,0.4745997190475464,0.0,0.0,0.0,0.0,0.0,0.0
5700,1724813397844647906,-1.735426902770996,-0.24996310472488403,0.16771315038204193,0.02694445103406906,-0.04824565723538399,0.8785088658332825,0.4745192527770996,0.0,0.0,0.0,0.0,0.0,0.0
5702,1724813397854729048,-1.7352734804153442,-0.25035110116004944,0.16755999624729156,0.026803040876984596,-0.04744993895292282,0.8787810802459717,0.47410327196121216,0.0,0.0,0.0,0.0,0.0,0.0
5704,1724813397866832097,-1.7351082563400269,-0.2507063150405884,0.16736344993114471,0.026921292766928673,-0.04613795131444931,0.8790315985679626,0.473761647939682,0.0,0.0,0.0,0.0,0.0,0.0
5706,1724813397875440512,-1.7349528074264526,-0.25104400515556335,0.16706068813800812,0.02587505802512169,-0.04628942534327507,0.8794026970863342,0.47311586141586304,0.0,0.0,0.0,0.0,0.0,0.0
5708,1724813397885135017,-1.734772801399231,-0.2513439357280731,0.1667378842830658,0.025066014379262924,-0.0458311066031456,0.8796459436416626,0.4727517366409302,0.0,0.0,0.0,0.0,0.0,0.0
5710,1724813397894796815,-1.734584093093872,-0.25169020891189575,0.1663205474615097,0.024158896878361702,-0.045086950063705444,0.8800118565559387,0.4721892178058624,0.0,0.0,0.0,0.0,0.0,0.0
5712,1724813397907304363,-1.734427809715271,-0.2521197497844696,0.16624566912651062,0.02531178668141365,-0.04402825981378555,0.8803473711013794,0.4716029465198517,0.0,0.0,0.0,0.0,0.0,0.0
5714,1724813397914794396,-1.7341645956039429,-0.25249770283699036,0.16569027304649353,0.02384495921432972,-0.04256192594766617,0.8807781934738159,0.47100943326950073,0.0,0.0,0.0,0.0,0.0,0.0
5716,1724813397925126427,-1.7339280843734741,-0.25292932987213135,0.16538845002651215,0.023205911740660667,-0.04142870381474495,0.881173312664032,0.47040289640426636,0.0,0.0,0.0,0.0,0.0,0.0
5718,1724813397934824716,-1.7336333990097046,-0.2533433437347412,0.16515126824378967,0.022495707497000694,-0.04085683077573776,0.8814636468887329,0.4699430763721466,0.0,0.0,0.0,0.0,0.0,0.0
5720,1724813397944594940,-1.7333426475524902,-0.2538491189479828,0.16527430713176727,0.021715955808758736,-0.04279056191444397,0.881695032119751,0.46937310695648193,0.0,0.0,0.0,0.0,0.0,0.0
5722,1724813397954759233,-1.7331401109695435,-0.2543777823448181,0.1652860939502716,0.022001147270202637,-0.041374851018190384,0.8819650411605835,0.4689796268939972,0.0,0.0,0.0,0.0,0.0,0.0
5724,1724813397974814024,-1.7328203916549683,-0.2548815906047821,0.16515567898750305,0.020981615409255028,-0.0409664623439312,0.8824735283851624,0.4681048095226288,0.0,0.0,0.0,0.0,0.0,0.0
5726,1724813397975240682,-1.732445240020752,-0.2553475499153137,0.16493423283100128,0.020594127476215363,-0.04079959914088249,0.8829676508903503,0.46720385551452637,0.0,0.0,0.0,0.0,0.0,0.0
5728,1724813397985194671,-1.7321346998214722,-0.2558092474937439,0.1643611341714859,0.018648017197847366,-0.03953472152352333,0.8835435509681702,0.4663047790527344,0.0,0.0,0.0,0.0,0.0,0.0
5730,1724813397994746901,-1.7318130731582642,-0.25638827681541443,0.1644001603126526,0.01829683594405651,-0.04122548550367355,0.8840731978416443,0.4651668965816498,0.0,0.0,0.0,0.0,0.0,0.0
5732,1724813398005446086,-1.7314788103103638,-0.2568923830986023,0.1638331413269043,0.01636551506817341,-0.04041449353098869,0.8847310543060303,0.4640580117702484,0.0,0.0,0.0,0.0,0.0,0.0
5734,1724813398015854254,-1.7311561107635498,-0.2574858069419861,0.1635168194770813,0.01610659435391426,-0.037997495383024216,0.8852646946907043,0.46325287222862244,0.0,0.0,0.0,0.0,0.0,0.0
5736,1724813398024975697,-1.7308591604232788,-0.25814875960350037,0.1635880023241043,0.016606200486421585,-0.03798193112015724,0.8858475089073181,0.4621209502220154,0.0,0.0,0.0,0.0,0.0,0.0
5738,1724813398035384925,-1.7305101156234741,-0.25877922773361206,0.16333259642124176,0.015966420993208885,-0.03753799572587013,0.8864827156066895,0.46096041798591614,0.0,0.0,0.0,0.0,0.0,0.0
5740,1724813398044640107,-1.7301316261291504,-0.25935569405555725,0.1630902886390686,0.014958799816668034,-0.03808576613664627,0.8869767785072327,0.45999762415885925,0.0,0.0,0.0,0.0,0.0,0.0
5742,1724813398055051714,-1.7297283411026,-0.25992172956466675,0.1625952422618866,0.01295239757746458,-0.03681401163339615,0.8875712156295776,0.45901450514793396,0.0,0.0,0.0,0.0,0.0,0.0
5744,1724813398065631398,-1.7293184995651245,-0.2605629861354828,0.16236433386802673,0.010540429502725601,-0.038827039301395416,0.8880711793899536,0.45794209837913513,0.0,0.0,0.0,0.0,0.0,0.0
5746,1724813398075511108,-1.7289328575134277,-0.26124513149261475,0.16233894228935242,0.00997620727866888,-0.038103412836790085,0.8884586095809937,0.4572635293006897,0.0,0.0,0.0,0.0,0.0,0.0
5748,1724813398085351711,-1.7284953594207764,-0.26187044382095337,0.16231954097747803,0.01007221918553114,-0.03678518533706665,0.8888698816299438,0.4565696716308594,0.0,0.0,0.0,0.0,0.0,0.0
5750,1724813398095642574,-1.728028655052185,-0.2625018358230591,0.1622505933046341,0.010165447369217873,-0.035664152354002,0.8891286253929138,0.45615240931510925,0.0,0.0,0.0,0.0,0.0,0.0
5752,1724813398105456045,-1.7275511026382446,-0.26317334175109863,0.1622045785188675,0.010214947164058685,-0.034613270312547684,0.8894030451774597,0.45569708943367004,0.0,0.0,0.0,0.0,0.0,0.0
5754,1724813398115246487,-1.7270259857177734,-0.2637753188610077,0.16210657358169556,0.008591419085860252,-0.03731565177440643,0.8895748853683472,0.4551815390586853,0.0,0.0,0.0,0.0,0.0,0.0
5756,1724813398125393186,-1.726524829864502,-0.2643861174583435,0.1621641218662262,0.009424475952982903,-0.035405151546001434,0.889938235282898,0.45460712909698486,0.0,0.0,0.0,0.0,0.0,0.0
5758,1724813398135916256,-1.7260196208953857,-0.26496651768684387,0.16213764250278473,0.0092461621388793,-0.03498345986008644,0.8902217745780945,0.4540879726409912,0.0,0.0,0.0,0.0,0.0,0.0
5760,1724813398144539461,-1.7254825830459595,-0.26567041873931885,0.16240942478179932,0.010215409100055695,-0.03587556630373001,0.890447199344635,0.4535553455352783,0.0,0.0,0.0,0.0,0.0,0.0
5762,1724813398157429896,-1.724983811378479,-0.266202837228775,0.16213692724704742,0.009772603400051594,-0.033160604536533356,0.8906617760658264,0.4533504545688629,0.0,0.0,0.0,0.0,0.0,0.0
5764,1724813398169150002,-1.724416971206665,-0.2667554020881653,0.1620250940322876,0.009597341530025005,-0.03300745040178299,0.8907709121704102,0.45315077900886536,0.0,0.0,0.0,0.0,0.0,0.0
5766,1724813398175551139,-1.723841667175293,-0.2672833800315857,0.1618979424238205,0.008735605515539646,-0.03346366435289383,0.8909529447555542,0.452776700258255,0.0,0.0,0.0,0.0,0.0,0.0
5768,1724813398188341633,-1.7233995199203491,-0.26775169372558594,0.1618557572364807,0.00875695887953043,-0.03226606547832489,0.8910821676254272,0.4526089131832123,0.0,0.0,0.0,0.0,0.0,0.0
5770,1724813398195136908,-1.7229335308074951,-0.26822149753570557,0.16188286244869232,0.008281329646706581,-0.03185473755002022,0.8910451531410217,0.4527198374271393,0.0,0.0,0.0,0.0,0.0,0.0
5772,1724813398204822209,-1.722379207611084,-0.26857510209083557,0.16177821159362793,0.0072911884635686874,-0.03195692598819733,0.8911657333374023,0.45249223709106445,0.0,0.0,0.0,0.0,0.0,0.0
5774,1724813398215010679,-1.7217684984207153,-0.2690090537071228,0.16191869974136353,0.006944703403860331,-0.0337800532579422,0.8911758065223694,0.4523455798625946,0.0,0.0,0.0,0.0,0.0,0.0
5776,1724813398225095968,-1.7211745977401733,-0.269403874874115,0.1619357168674469,0.006380158010870218,-0.0338846817612648,0.8911331295967102,0.45242998003959656,0.0,0.0,0.0,0.0,0.0,0.0
5778,1724813398238014703,-1.7205994129180908,-0.26976197957992554,0.16150525212287903,0.004666409455239773,-0.03272669017314911,0.8911320567131042,0.4525383710861206,0.0,0.0,0.0,0.0,0.0,0.0
5780,1724813398244832635,-1.7201013565063477,-0.2701616883277893,0.16130076348781586,0.0042570121586322784,-0.03185364976525307,0.8910659551620483,0.4527346193790436,0.0,0.0,0.0,0.0,0.0,0.0
5782,1724813398254911257,-1.719531536102295,-0.27064573764801025,0.16130657494068146,0.004286884795874357,-0.03306332603096962,0.8910062909126282,0.4527651369571686,0.0,0.0,0.0,0.0,0.0,0.0
5784,1724813398265614582,-1.7188903093338013,-0.2710609436035156,0.1611376702785492,0.004044087138026953,-0.032900746911764145,0.890860378742218,0.45306622982025146,0.0,0.0,0.0,0.0,0.0,0.0
5786,1724813398284674726,-1.718332290649414,-0.27142924070358276,0.16093380749225616,0.0028027750086039305,-0.03320318087935448,0.8906726837158203,0.4534223973751068,0.0,0.0,0.0,0.0,0.0,0.0
5788,1724813398287951243,-1.7177646160125732,-0.2718449831008911,0.16063280403614044,0.0018733806209638715,-0.03245135396718979,0.8906019330024719,0.453620582818985,0.0,0.0,0.0,0.0,0.0,0.0
5790,1724813398295441363,-1.71721351146698,-0.2722512483596802,0.1602441370487213,0.0004814722342416644,-0.03248029574751854,0.8904963135719299,0.45382940769195557,0.0,0.0,0.0,0.0,0.0,0.0
5792,1724813398304723524,-1.7166662216186523,-0.2726638615131378,0.15965308248996735,-0.0006784950383007526,-0.0295732244849205,0.890350341796875,0.45431414246559143,0.0,0.0,0.0,0.0,0.0,0.0
5794,1724813398316064835,-1.7160037755966187,-0.2730883061885834,0.15925076603889465,-0.0020169890485703945,-0.029401442036032677,0.8903514742851257,0.4543190002441406,0.0,0.0,0.0,0.0,0.0,0.0
5796,1724813398325072010,-1.7154053449630737,-0.2735153138637543,0.15902216732501984,-0.0028542745858430862,-0.028066759929060936,0.8904007077217102,0.4543026089668274,0.0,0.0,0.0,0.0,0.0,0.0
5798,1724813398334760132,-1.714814305305481,-0.27401912212371826,0.15883676707744598,-0.0037715407088398933,-0.02747911587357521,0.8904353976249695,0.4542635977268219,0.0,0.0,0.0,0.0,0.0,0.0
5800,1724813398345171822,-1.7142462730407715,-0.2745213210582733,0.15867936611175537,-0.004660391248762608,-0.027761992067098618,0.8904942274093628,0.4541229009628296,0.0,0.0,0.0,0.0,0.0,0.0
5802,1724813398354594000,-1.7136731147766113,-0.2751232087612152,0.15873168408870697,-0.005151441320776939,-0.029153652489185333,0.8905878663063049,0.45384681224823,0.0,0.0,0.0,0.0,0.0,0.0
5804,1724813398364867013,-1.7131043672561646,-0.2756732404232025,0.15853768587112427,-0.006018052343279123,-0.029400134459137917,0.8905889391899109,0.4538179337978363,0.0,0.0,0.0,0.0,0.0,0.0
5806,1724813398414304967,-1.7125251293182373,-0.2761995792388916,0.15832965075969696,-0.006487307604402304,-0.02918075956404209,0.8904719948768616,0.45405513048171997,0.0,0.0,0.0,0.0,0.0,0.0
5808,1724813398414572999,-1.711996078491211,-0.2767396569252014,0.15785406529903412,-0.008410515263676643,-0.02813638187944889,0.8903738856315613,0.4542818069458008,0.0,0.0,0.0,0.0,0.0,0.0
5810,1724813398414857020,-1.7115848064422607,-0.2773664593696594,0.15753427147865295,-0.008776788599789143,-0.025187335908412933,0.8905234336853027,0.4541548788547516,0.0,0.0,0.0,0.0,0.0,0.0
5812,1724813398415136721,-1.7111232280731201,-0.2779046595096588,0.1573837846517563,-0.009110181592404842,-0.023500170558691025,0.8903135061264038,0.4546501338481903,0.0,0.0,0.0,0.0,0.0,0.0
5814,1724813398419461100,-1.710561990737915,-0.27843740582466125,0.1571490615606308,-0.00975139532238245,-0.02346131205558777,0.8901740908622742,0.45491158962249756,0.0,0.0,0.0,0.0,0.0,0.0
5816,1724813398425410089,-1.7100281715393066,-0.2790345549583435,0.15722331404685974,-0.0095713185146451,-0.024514997377991676,0.8901242613792419,0.45495739579200745,0.0,0.0,0.0,0.0,0.0,0.0
5818,1724813398435328652,-1.7095215320587158,-0.27951380610466003,0.15679214894771576,-0.010981070809066296,-0.022665023803710938,0.8899791836738586,0.4553051292896271,0.0,0.0,0.0,0.0,0.0,0.0
5820,1724813398444939771,-1.708994746208191,-0.2800571024417877,0.1564946472644806,-0.012612189166247845,-0.023005593568086624,0.8898166418075562,0.45556339621543884,0.0,0.0,0.0,0.0,0.0,0.0
5822,1724813398455796502,-1.7084803581237793,-0.2805837094783783,0.15627124905586243,-0.013434140011668205,-0.022511491551995277,0.8895711898803711,0.4560437500476837,0.0,0.0,0.0,0.0,0.0,0.0
5824,1724813398464846300,-1.7079954147338867,-0.2811790704727173,0.15643973648548126,-0.01299438625574112,-0.02250843495130539,0.8891461491584778,0.4568847417831421,0.0,0.0,0.0,0.0,0.0,0.0
5826,1724813398475318399,-1.7074540853500366,-0.281716912984848,0.15626198053359985,-0.014220797456800938,-0.02258671261370182,0.8888342380523682,0.4574509561061859,0.0,0.0,0.0,0.0,0.0,0.0
5828,1724813398486794470,-1.706805944442749,-0.2821337580680847,0.15602295100688934,-0.01518179103732109,-0.02304256521165371,0.8886507153511047,0.45775365829467773,0.0,0.0,0.0,0.0,0.0,0.0
5830,1724813398494722165,-1.706287145614624,-0.2826464772224426,0.15582507848739624,-0.01576288789510727,-0.022200336679816246,0.8882789611816406,0.4584966003894806,0.0,0.0,0.0,0.0,0.0,0.0
5832,1724813398505625367,-1.7058528661727905,-0.2832547128200531,0.15582457184791565,-0.01654139906167984,-0.021484116092324257,0.8874958753585815,0.4600173234939575,0.0,0.0,0.0,0.0,0.0,0.0
5834,1724813398535865851,-1.7050138711929321,-0.28351131081581116,0.15505623817443848,-0.018211180344223976,-0.020049912855029106,0.8875937461853027,0.45983022451400757,0.0,0.0,0.0,0.0,0.0,0.0
5836,1724813398536355793,-1.7043578624725342,-0.28391972184181213,0.15462394058704376,-0.02005128562450409,-0.02152486890554428,0.8872519731521606,0.46034640073776245,0.0,0.0,0.0,0.0,0.0,0.0
5838,1724813398538300299,-1.703826665878296,-0.2844236493110657,0.15445548295974731,-0.02036421000957489,-0.01981399953365326,0.8868091702461243,0.4612615406513214,0.0,0.0,0.0,0.0,0.0,0.0
5840,1724813398545085156,-1.703210473060608,-0.28484368324279785,0.15416041016578674,-0.021322734653949738,-0.019343601539731026,0.886553943157196,0.4617285430431366,0.0,0.0,0.0,0.0,0.0,0.0
5842,1724813398555695156,-1.702588438987732,-0.2852388918399811,0.1539510041475296,-0.02233884111046791,-0.019596025347709656,0.8863423466682434,0.46207600831985474,0.0,0.0,0.0,0.0,0.0,0.0
5844,1724813398565274637,-1.7020951509475708,-0.28580373525619507,0.15409430861473083,-0.02178794890642166,-0.019575443118810654,0.8858972191810608,0.46295595169067383,0.0,0.0,0.0,0.0,0.0,0.0
5846,1724813398574783102,-1.7015728950500488,-0.2862726151943207,0.15382122993469238,-0.022935302928090096,-0.018801551312208176,0.8856988549232483,0.4633121192455292,0.0,0.0,0.0,0.0,0.0,0.0
5848,1724813398584794683,-1.701047658920288,-0.28661468625068665,0.1531432569026947,-0.02443152293562889,-0.01625002920627594,0.8855247497558594,0.4636647403240204,0.0,0.0,0.0,0.0,0.0,0.0
5850,1724813398595108110,-1.700472354888916,-0.28695833683013916,0.15281839668750763,-0.025960560888051987,-0.016572462394833565,0.8851681351661682,0.464250773191452,0.0,0.0,0.0,0.0,0.0,0.0
5852,1724813398604816874,-1.6999361515045166,-0.28734925389289856,0.15252140164375305,-0.027332095429301262,-0.016715453937649727,0.8848762512207031,0.46472322940826416,0.0,0.0,0.0,0.0,0.0,0.0
5854,1724813398615487203,-1.6994799375534058,-0.2876940965652466,0.15224148333072662,-0.02844487503170967,-0.01658029295504093,0.8846133351325989,0.46516153216362,0.0,0.0,0.0,0.0,0.0,0.0
5856,1724813398625283464,-1.6990820169448853,-0.2880512475967407,0.15202605724334717,-0.029017215594649315,-0.015852641314268112,0.8842810988426208,0.4657828211784363,0.0,0.0,0.0,0.0,0.0,0.0
5858,1724813398634788825,-1.698548436164856,-0.288437157869339,0.15204323828220367,-0.029949145391583443,-0.01895354688167572,0.8839696049690247,0.46619921922683716,0.0,0.0,0.0,0.0,0.0,0.0
5860,1724813398644586712,-1.6981819868087769,-0.2888013422489166,0.1520106941461563,-0.029651278629899025,-0.017230579629540443,0.8833919763565063,0.4673781991004944,0.0,0.0,0.0,0.0,0.0,0.0
5862,1724813398657258280,-1.6977921724319458,-0.2892038822174072,0.15201878547668457,-0.030249737203121185,-0.016927149146795273,0.8827372789382935,0.4685867428779602,0.0,0.0,0.0,0.0,0.0,0.0
5864,1724813398665398714,-1.697483777999878,-0.28959691524505615,0.15197741985321045,-0.030727537348866463,-0.015885643661022186,0.8820598125457764,0.469866007566452,0.0,0.0,0.0,0.0,0.0,0.0
5866,1724813398675176304,-1.6969919204711914,-0.28982308506965637,0.15172523260116577,-0.031107863411307335,-0.015062832273542881,0.8819612264633179,0.47005295753479004,0.0,0.0,0.0,0.0,0.0,0.0
5868,1724813398688870624,-1.6964049339294434,-0.2899923324584961,0.15134644508361816,-0.031766269356012344,-0.014734039083123207,0.882043182849884,0.4698655903339386,0.0,0.0,0.0,0.0,0.0,0.0
5870,1724813398698808100,-1.6959123611450195,-0.29020145535469055,0.15083445608615875,-0.032949261367321014,-0.013224385678768158,0.8817704319953918,0.4703408479690552,0.0,0.0,0.0,0.0,0.0,0.0
5872,1724813398707127312,-1.6954874992370605,-0.29049381613731384,0.1506405472755432,-0.03383883088827133,-0.013554958626627922,0.8813580870628357,0.47104042768478394,0.0,0.0,0.0,0.0,0.0,0.0
5874,1724813398714708605,-1.6950589418411255,-0.2907536029815674,0.1505378633737564,-0.03454674780368805,-0.014094991609454155,0.8808990120887756,0.471831351518631,0.0,0.0,0.0,0.0,0.0,0.0
5876,1724813398725304112,-1.6946977376937866,-0.29102444648742676,0.15044699609279633,-0.03499826788902283,-0.012978995218873024,0.8803563714027405,0.47284188866615295,0.0,0.0,0.0,0.0,0.0,0.0
5878,1724813398738595312,-1.6943514347076416,-0.29139262437820435,0.1506965011358261,-0.034659769386053085,-0.01370782870799303,0.8799424171447754,0.47361597418785095,0.0,0.0,0.0,0.0,0.0,0.0
5880,1724813398745214555,-1.6939971446990967,-0.2917662262916565,0.1507643759250641,-0.0351533479988575,-0.013795772567391396,0.8795050978660583,0.47438880801200867,0.0,0.0,0.0,0.0,0.0,0.0
5882,1724813398754733831,-1.6935803890228271,-0.2920615077018738,0.15070006251335144,-0.035676635801792145,-0.013549362309277058,0.8792861700057983,0.474762499332428,0.0,0.0,0.0,0.0,0.0,0.0
5884,1724813398765107880,-1.6931036710739136,-0.29232048988342285,0.15040138363838196,-0.03700743988156319,-0.012101701460778713,0.8791213035583496,0.4750051498413086,0.0,0.0,0.0,0.0,0.0,0.0
5886,1724813398775134978,-1.6926897764205933,-0.29260018467903137,0.15039682388305664,-0.0378732867538929,-0.011865451000630856,0.8788405656814575,0.4754619896411896,0.0,0.0,0.0,0.0,0.0,0.0
5888,1724813398796563665,-1.692307472229004,-0.292858749628067,0.15046140551567078,-0.038563765585422516,-0.011789213865995407,0.8785163760185242,0.4760071039199829,0.0,0.0,0.0,0.0,0.0,0.0
5890,1724813398796825736,-1.691932201385498,-0.2931361496448517,0.15058963000774384,-0.03913334384560585,-0.011462820693850517,0.8781244158744812,0.4766913950443268,0.0,0.0,0.0,0.0,0.0,0.0
5892,1724813398804742515,-1.6915736198425293,-0.29343703389167786,0.1507783681154251,-0.03933507204055786,-0.009917826391756535,0.8778408765792847,0.47723138332366943,0.0,0.0,0.0,0.0,0.0,0.0
5894,1724813398815340651,-1.6912695169448853,-0.293738454580307,0.15102837979793549,-0.03970995917916298,-0.008788047358393669,0.8775297403335571,0.477794349193573,0.0,0.0,0.0,0.0,0.0,0.0
5896,1724813398826206649,-1.690984845161438,-0.29406657814979553,0.15127860009670258,-0.04047338664531708,-0.00787264108657837,0.8772713541984558,0.47822055220603943,0.0,0.0,0.0,0.0,0.0,0.0
5898,1724813398838058597,-1.690576434135437,-0.29440075159072876,0.1514347642660141,-0.04194359853863716,-0.007927141152322292,0.8772282600402832,0.4781721532344818,0.0,0.0,0.0,0.0,0.0,0.0
5900,1724813398845040132,-1.6900545358657837,-0.2947799265384674,0.1518867313861847,-0.04216647893190384,-0.009611660614609718,0.8772503733634949,0.4780809283256531,0.0,0.0,0.0,0.0,0.0,0.0
5902,1724813398854739321,-1.6896929740905762,-0.2952248156070709,0.15225614607334137,-0.04271964356303215,-0.008309895172715187,0.8767304420471191,0.4790092408657074,0.0,0.0,0.0,0.0,0.0,0.0
5904,1724813398864847099,-1.689281702041626,-0.29568129777908325,0.1525803506374359,-0.043696336448192596,-0.007967768236994743,0.8762677311897278,0.4797729253768921,0.0,0.0,0.0,0.0,0.0,0.0
5906,1724813398875243917,-1.688742756843567,-0.2959696352481842,0.15223748981952667,-0.045497845858335495,-0.005602582823485136,0.8764125108718872,0.47937437891960144,0.0,0.0,0.0,0.0,0.0,0.0
5908,1724813398885679487,-1.6883200407028198,-0.2963658273220062,0.15236474573612213,-0.04661957919597626,-0.005142310168594122,0.8762286305427551,0.4796077311038971,0.0,0.0,0.0,0.0,0.0,0.0
5910,1724813398894486073,-1.6879147291183472,-0.29678040742874146,0.15259824693202972,-0.04718167334794998,-0.0039011179469525814,0.8759499788284302,0.48007336258888245,0.0,0.0,0.0,0.0,0.0,0.0
5912,1724813398908222662,-1.6875030994415283,-0.29720041155815125,0.1528618037700653,-0.04692865535616875,-0.001964310882613063,0.8756258487701416,0.48070088028907776,0.0,0.0,0.0,0.0,0.0,0.0
5914,1724813398914449995,-1.6870414018630981,-0.29766547679901123,0.15313422679901123,-0.04783818498253822,-0.002018129453063011,0.8752670884132385,0.4812638759613037,0.0,0.0,0.0,0.0,0.0,0.0
5916,1724813398925329955,-1.6864808797836304,-0.2981443703174591,0.15326863527297974,-0.04869525879621506,-0.0016806829953566194,0.8751096129417419,0.48146557807922363,0.0,0.0,0.0,0.0,0.0,0.0
5918,1724813398934467754,-1.6859698295593262,-0.2987036108970642,0.15377399325370789,-0.048343125730752945,-0.0018111844547092915,0.8748347163200378,0.48199987411499023,0.0,0.0,0.0,0.0,0.0,0.0
5920,1724813398944834228,-1.685437560081482,-0.29926395416259766,0.15405087172985077,-0.04882952570915222,-0.000977755174972117,0.8744679689407349,0.48261839151382446,0.0,0.0,0.0,0.0,0.0,0.0
5922,1724813398954926208,-1.6847208738327026,-0.29965680837631226,0.15383630990982056,-0.051185693591833115,-0.0008221176103688776,0.874373197555542,0.48254621028900146,0.0,0.0,0.0,0.0,0.0,0.0
5924,1724813398965123427,-1.684197187423706,-0.300059974193573,0.15395201742649078,-0.051070574671030045,0.0012787241721525788,0.8741530179977417,0.4829564094543457,0.0,0.0,0.0,0.0,0.0,0.0
5926,1724813398975326955,-1.6835724115371704,-0.30050551891326904,0.15415048599243164,-0.05187006667256355,0.0013842260232195258,0.8739465475082397,0.48324427008628845,0.0,0.0,0.0,0.0,0.0,0.0
5928,1724813398986094140,-1.6830370426177979,-0.30094242095947266,0.1544472575187683,-0.05183892697095871,0.0037623809184879065,0.8735758066177368,0.4839050769805908,0.0,0.0,0.0,0.0,0.0,0.0
5930,1724813398994811716,-1.6824512481689453,-0.3013867139816284,0.15475167334079742,-0.052618566900491714,0.0037953443825244904,0.8733643889427185,0.48420190811157227,0.0,0.0,0.0,0.0,0.0,0.0
5932,1724813399004898992,-1.6818957328796387,-0.30183765292167664,0.15498177707195282,-0.05286708474159241,0.004966465290635824,0.8731762170791626,0.48450353741645813,0.0,0.0,0.0,0.0,0.0,0.0
5934,1724813399015554943,-1.6812673807144165,-0.3023991584777832,0.15546171367168427,-0.05249181017279625,0.004048096481710672,0.8731184601783752,0.4846569299697876,0.0,0.0,0.0,0.0,0.0,0.0
5936,1724813399025142485,-1.6805778741836548,-0.3029039204120636,0.15569715201854706,-0.05287768691778183,0.004249855410307646,0.8728069067001343,0.4851742088794708,0.0,0.0,0.0,0.0,0.0,0.0
5938,1724813399035293470,-1.6797382831573486,-0.3032996952533722,0.15551042556762695,-0.05415581911802292,0.005680404603481293,0.8727794885635376,0.48506802320480347,0.0,0.0,0.0,0.0,0.0,0.0
5940,1724813399108790325,-1.6789896488189697,-0.3037160634994507,0.15569710731506348,-0.05539589002728462,0.004010683391243219,0.8727088570594788,0.48507165908813477,0.0,0.0,0.0,0.0,0.0,0.0
5942,1724813399109224294,-1.6783620119094849,-0.30420923233032227,0.155782550573349,-0.05533615127205849,0.006761753465980291,0.8724597096443176,0.485495924949646,0.0,0.0,0.0,0.0,0.0,0.0
5944,1724813399109578056,-1.677703619003296,-0.30476295948028564,0.15606047213077545,-0.05627654120326042,0.007259370759129524,0.8721624612808228,0.4859144687652588,0.0,0.0,0.0,0.0,0.0,0.0
5946,1724813399109943093,-1.6769548654556274,-0.30529531836509705,0.1563170850276947,-0.057181306183338165,0.007183742243796587,0.871953010559082,0.4861857295036316,0.0,0.0,0.0,0.0,0.0,0.0
5948,1724813399110292041,-1.6761188507080078,-0.3058852255344391,0.15681442618370056,-0.05648249015212059,0.006269085220992565,0.8720510601997375,0.48610422015190125,0.0,0.0,0.0,0.0,0.0,0.0
5950,1724813399110692242,-1.6753541231155396,-0.3064664602279663,0.15678276121616364,-0.057464685291051865,0.00802753958851099,0.8718724250793457,0.4862837493419647,0.0,0.0,0.0,0.0,0.0,0.0
5952,1724813399111055924,-1.6746309995651245,-0.3069879710674286,0.15700218081474304,-0.05746813490986824,0.008725747466087341,0.8716518878936768,0.4866664707660675,0.0,0.0,0.0,0.0,0.0,0.0
5954,1724813399117896558,-1.673890471458435,-0.30753272771835327,0.157199889421463,-0.0578329972922802,0.009181350469589233,0.8714824318885803,0.48691827058792114,0.0,0.0,0.0,0.0,0.0,0.0
5956,1724813399125557004,-1.6731038093566895,-0.30812370777130127,0.15739057958126068,-0.0580601803958416,0.009698731824755669,0.8712571859359741,0.48728418350219727,0.0,0.0,0.0,0.0,0.0,0.0
5958,1724813399134934523,-1.6722939014434814,-0.3086349368095398,0.1575077474117279,-0.058306895196437836,0.009686198085546494,0.8710507750511169,0.4876238703727722,0.0,0.0,0.0,0.0,0.0,0.0
5960,1724813399144743917,-1.6714757680892944,-0.30924761295318604,0.15792934596538544,-0.05777328833937645,0.008679558522999287,0.8710135221481323,0.4877728819847107,0.0,0.0,0.0,0.0,0.0,0.0
5962,1724813399155774029,-1.6707900762557983,-0.3098333477973938,0.15788225829601288,-0.05868171900510788,0.01078417431563139,0.8708734512329102,0.4878726303577423,0.0,0.0,0.0,0.0,0.0,0.0
5964,1724813399164738085,-1.669909954071045,-0.31040719151496887,0.15794450044631958,-0.05872305855154991,0.010480737313628197,0.8709689974784851,0.4877035915851593,0.0,0.0,0.0,0.0,0.0,0.0
5966,1724813399175161796,-1.6690901517868042,-0.3109995126724243,0.1583879292011261,-0.057871244847774506,0.00835621077567339,0.871123194694519,0.48757103085517883,0.0,0.0,0.0,0.0,0.0,0.0
5968,1724813399185962261,-1.6683108806610107,-0.31151893734931946,0.15820546448230743,-0.058332301676273346,0.009888364933431149,0.8711657524108887,0.4874113202095032,0.0,0.0,0.0,0.0,0.0,0.0
5970,1724813399195231868,-1.667633295059204,-0.31200817227363586,0.15828508138656616,-0.05799402296543121,0.01006532646715641,0.8712657690048218,0.4872692823410034,0.0,0.0,0.0,0.0,0.0,0.0
5972,1724813399206194078,-1.6669100522994995,-0.3124946653842926,0.1584307998418808,-0.05835908278822899,0.009109824895858765,0.8713521361351013,0.48708999156951904,0.0,0.0,0.0,0.0,0.0,0.0
5974,1724813399215744021,-1.666177749633789,-0.31298354268074036,0.15856978297233582,-0.058308713138103485,0.009137178771197796,0.8713738322257996,0.4870567321777344,0.0,0.0,0.0,0.0,0.0,0.0
5976,1724813399225169523,-1.665437936782837,-0.313486784696579,0.1586988866329193,-0.058242034167051315,0.009370312094688416,0.8712936043739319,0.4872037470340729,0.0,0.0,0.0,0.0,0.0,0.0
5978,1724813399236407398,-1.664659857749939,-0.31395724415779114,0.1589956283569336,-0.05866983160376549,0.006198917981237173,0.8716866374015808,0.4864994287490845,0.0,0.0,0.0,0.0,0.0,0.0
5980,1724813399244354838,-1.663986325263977,-0.31435832381248474,0.1591988056898117,-0.058632493019104004,0.006620882544666529,0.8718127012252808,0.4862726032733917,0.0,0.0,0.0,0.0,0.0,0.0
5982,1724813399254981650,-1.6632864475250244,-0.3148307502269745,0.15933580696582794,-0.05908796936273575,0.006318074185401201,0.8720325827598572,0.4858269691467285,0.0,0.0,0.0,0.0,0.0,0.0
5984,1724813399266140018,-1.6627190113067627,-0.31527572870254517,0.15951696038246155,-0.05817363038659096,0.007860797457396984,0.8721518516540527,0.4857008457183838,0.0,0.0,0.0,0.0,0.0,0.0
5986,1724813399275212608,-1.662089228630066,-0.31569886207580566,0.15963323414325714,-0.0579344667494297,0.008274507708847523,0.8723233342170715,0.48541441559791565,0.0,0.0,0.0,0.0,0.0,0.0
5988,1724813399286034770,-1.6614305973052979,-0.31611111760139465,0.15971875190734863,-0.057977452874183655,0.007835421711206436,0.872595489025116,0.4849272072315216,0.0,0.0,0.0,0.0,0.0,0.0
5990,1724813399295775049,-1.6608648300170898,-0.3165469467639923,0.15988248586654663,-0.05769870802760124,0.00819731317460537,0.8726837038993835,0.4847956895828247,0.0,0.0,0.0,0.0,0.0,0.0
5992,1724813399307582813,-1.660244107246399,-0.3168996274471283,0.15965673327445984,-0.05862420052289963,0.009256094694137573,0.8728967308998108,0.48428183794021606,0.0,0.0,0.0,0.0,0.0,0.0
5994,1724813399314906982,-1.659679889678955,-0.3172999620437622,0.15971973538398743,-0.05883564427495003,0.0091709541156888,0.8731237649917603,0.4838482737541199,0.0,0.0,0.0,0.0,0.0,0.0
5996,1724813399325010148,-1.6592166423797607,-0.3176630735397339,0.15978702902793884,-0.05872247740626335,0.009838518686592579,0.873340904712677,0.48345690965652466,0.0,0.0,0.0,0.0,0.0,0.0
5998,1724813399337960963,-1.6586859226226807,-0.3180888593196869,0.16014684736728668,-0.058814942836761475,0.00747222825884819,0.8738111853599548,0.48263755440711975,0.0,0.0,0.0,0.0,0.0,0.0
6000,1724813399344771933,-1.6581237316131592,-0.31851428747177124,0.16028925776481628,-0.059176988899707794,0.006059431936591864,0.8740651607513428,0.4821529686450958,0.0,0.0,0.0,0.0,0.0,0.0
6002,1724813399354692507,-1.6576519012451172,-0.3188421428203583,0.1601801961660385,-0.05917724594473839,0.00869546364992857,0.8740715384483337,0.48210105299949646,0.0,0.0,0.0,0.0,0.0,0.0
6004,1724813399365796537,-1.6571409702301025,-0.3192038834095001,0.1602110117673874,-0.05900556966662407,0.008900593034923077,0.8741869926452637,0.48190900683403015,0.0,0.0,0.0,0.0,0.0,0.0
6006,1724813399375508656,-1.6567049026489258,-0.319536417722702,0.16033223271369934,-0.05896531790494919,0.009537756443023682,0.8741922974586487,0.48189204931259155,0.0,0.0,0.0,0.0,0.0,0.0
6008,1724813399384526536,-1.6562405824661255,-0.3198583126068115,0.16045449674129486,-0.059013087302446365,0.00959763303399086,0.8742069602012634,0.48185840249061584,0.0,0.0,0.0,0.0,0.0,0.0
6010,1724813399394685535,-1.6557180881500244,-0.32022836804389954,0.1608033925294876,-0.05880866199731827,0.0069669755175709724,0.8744546175003052,0.4814791679382324,0.0,0.0,0.0,0.0,0.0,0.0
6012,1724813399405637162,-1.655288815498352,-0.32053959369659424,0.1606881469488144,-0.05904626101255417,0.009409823454916477,0.8742890954017639,0.4817090332508087,0.0,0.0,0.0,0.0,0.0,0.0
6014,1724813399415138613,-1.654779314994812,-0.32083582878112793,0.1607324331998825,-0.05924519523978233,0.009745110757648945,0.8742890954017639,0.4816778600215912,0.0,0.0,0.0,0.0,0.0,0.0
6016,1724813399425479116,-1.6543400287628174,-0.32115352153778076,0.16080354154109955,-0.05938788875937462,0.010096017271280289,0.8743265867233276,0.4815850555896759,0.0,0.0,0.0,0.0,0.0,0.0
6018,1724813399435849672,-1.6538563966751099,-0.3214733600616455,0.16085727512836456,-0.0594945028424263,0.010230284184217453,0.8743321299552917,0.48155903816223145,0.0,0.0,0.0,0.0,0.0,0.0
6020,1724813399444868307,-1.6534297466278076,-0.3218104839324951,0.16093406081199646,-0.059444066137075424,0.010653683915734291,0.8742988109588623,0.4816165566444397,0.0,0.0,0.0,0.0,0.0,0.0
6022,1724813399454927475,-1.6529868841171265,-0.3221665620803833,0.16106916964054108,-0.05959217622876167,0.010613696649670601,0.874186098575592,0.48180368542671204,0.0,0.0,0.0,0.0,0.0,0.0
6024,1724813399465224469,-1.6525006294250488,-0.32245585322380066,0.16115693747997284,-0.0595502145588398,0.010656953789293766,0.8741850256919861,0.4818097949028015,0.0,0.0,0.0,0.0,0.0,0.0
6026,1724813399475709045,-1.6520898342132568,-0.3227330446243286,0.1613416224718094,-0.05970371514558792,0.009811162017285824,0.8741241097450256,0.4819193184375763,0.0,0.0,0.0,0.0,0.0,0.0
6028,1724813399488810966,-1.6517136096954346,-0.3230445086956024,0.1615702211856842,-0.05981987714767456,0.00945553183555603,0.8741365075111389,0.48188960552215576,0.0,0.0,0.0,0.0,0.0,0.0
6030,1724813399494507069,-1.6512547731399536,-0.3233357071876526,0.16205275058746338,-0.05904693901538849,0.007662807125598192,0.8745400309562683,0.4812842011451721,0.0,0.0,0.0,0.0,0.0,0.0
6032,1724813399506869985,-1.6509034633636475,-0.32364726066589355,0.16233757138252258,-0.05861635506153107,0.0073744249530136585,0.8746254444122314,0.4811860918998718,0.0,0.0,0.0,0.0,0.0,0.0
6034,1724813399515403641,-1.6505008935928345,-0.3239515423774719,0.1626196801662445,-0.05826874077320099,0.007005531340837479,0.8747477531433105,0.48101142048835754,0.0,0.0,0.0,0.0,0.0,0.0
6036,1724813399526206586,-1.650103211402893,-0.3242241442203522,0.16295962035655975,-0.05768435820937157,0.006602137815207243,0.8748241662979126,0.48094862699508667,0.0,0.0,0.0,0.0,0.0,0.0
6038,1724813399536427690,-1.6497464179992676,-0.3245624005794525,0.1632218062877655,-0.0575573593378067,0.007980920374393463,0.8744442462921143,0.4816332757472992,0.0,0.0,0.0,0.0,0.0,0.0
6040,1724813399544685540,-1.649280071258545,-0.3248448371887207,0.1635453999042511,-0.05645154416561127,0.00782226026058197,0.8745139837265015,0.4816402196884155,0.0,0.0,0.0,0.0,0.0,0.0
6042,1724813399555110323,-1.6487797498703003,-0.3250891864299774,0.1638823002576828,-0.05520259588956833,0.007476448081433773,0.8748127818107605,0.4812476634979248,0.0,0.0,0.0,0.0,0.0,0.0
6044,1724813399565092141,-1.6481990814208984,-0.3253624439239502,0.16461633145809174,-0.05328510329127312,0.0048118894919753075,0.8751160502433777,0.48094651103019714,0.0,0.0,0.0,0.0,0.0,0.0
6046,1724813399574746221,-1.6475682258605957,-0.32566970586776733,0.165116548538208,-0.05214725807309151,0.0035176598466932774,0.8755494952201843,0.4802928864955902,0.0,0.0,0.0,0.0,0.0,0.0
6048,1724813399585162624,-1.6470110416412354,-0.3259333372116089,0.16537900269031525,-0.05090036988258362,0.0054746163077652454,0.8756654858589172,0.4801969826221466,0.0,0.0,0.0,0.0,0.0,0.0
6050,1724813399595323626,-1.646344542503357,-0.3262457549571991,0.16591700911521912,-0.04943588748574257,0.004495066590607166,0.8758025765419006,0.48011019825935364,0.0,0.0,0.0,0.0,0.0,0.0
6052,1724813399604577923,-1.6456228494644165,-0.3265935182571411,0.16654932498931885,-0.04785306379199028,0.0040700798854231834,0.8759264349937439,0.48004859685897827,0.0,0.0,0.0,0.0,0.0,0.0
6054,1724813399618515000,-1.6449599266052246,-0.3269326388835907,0.16709965467453003,-0.0462493896484375,0.003974808380007744,0.8760709762573242,0.47994256019592285,0.0,0.0,0.0,0.0,0.0,0.0
6056,1724813399625182807,-1.6442139148712158,-0.32727769017219543,0.167716845870018,-0.04477415978908539,0.003468085313215852,0.8762514591217041,0.47975683212280273,0.0,0.0,0.0,0.0,0.0,0.0
6058,1724813399635673822,-1.6432939767837524,-0.32766857743263245,0.16851471364498138,-0.04297574236989021,0.002100233919918537,0.8765363693237305,0.4794086515903473,0.0,0.0,0.0,0.0,0.0,0.0
6060,1724813399644435326,-1.6423678398132324,-0.3281221091747284,0.1693606674671173,-0.041073888540267944,0.0012079549487680197,0.8767334222793579,0.4792182445526123,0.0,0.0,0.0,0.0,0.0,0.0
6062,1724813399656365903,-1.6414154767990112,-0.3286241590976715,0.17007781565189362,-0.03865456581115723,0.0008607225609011948,0.8770011067390442,0.47893020510673523,0.0,0.0,0.0,0.0,0.0,0.0
6064,1724813399668875210,-1.6402087211608887,-0.3291376531124115,0.17082612216472626,-0.03669083118438721,-0.0008557087276130915,0.8773542642593384,0.47843772172927856,0.0,0.0,0.0,0.0,0.0,0.0
6066,1724813399675223964,-1.6389447450637817,-0.32965904474258423,0.17162859439849854,-0.034980881959199905,-0.003853399073705077,0.8775914311408997,0.4781159460544586,0.0,0.0,0.0,0.0,0.0,0.0
6068,1724813399687483061,-1.63775634765625,-0.330238401889801,0.17251800000667572,-0.03184906393289566,-0.0034257052466273308,0.8776051998138428,0.47831282019615173,0.0,0.0,0.0,0.0,0.0,0.0
6070,1724813399720595119,-1.6366006135940552,-0.33069613575935364,0.173338383436203,-0.030662767589092255,-0.0034798725973814726,0.8777042627334595,0.4782080352306366,0.0,0.0,0.0,0.0,0.0,0.0
6072,1724813399720827838,-1.635342001914978,-0.3311687707901001,0.174343541264534,-0.029480047523975372,-0.005405042320489883,0.8775924444198608,0.4784696698188782,0.0,0.0,0.0,0.0,0.0,0.0
6074,1724813399721169992,-1.6340447664260864,-0.3317449986934662,0.17512576282024384,-0.028669483959674835,-0.005491177085787058,0.8777607083320618,0.4782091975212097,0.0,0.0,0.0,0.0,0.0,0.0
6076,1724813399725316871,-1.6327524185180664,-0.33228352665901184,0.17591018974781036,-0.027927955612540245,-0.005779414437711239,0.8779298663139343,0.47793909907341003,0.0,0.0,0.0,0.0,0.0,0.0
6078,1724813399735250884,-1.6314418315887451,-0.33287906646728516,0.1770153045654297,-0.02714436687529087,-0.009172383695840836,0.8780747652053833,0.4776647686958313,0.0,0.0,0.0,0.0,0.0,0.0
6080,1724813399744591125,-1.6301922798156738,-0.3334939181804657,0.17751960456371307,-0.026290100067853928,-0.00787703413516283,0.8781357407569885,0.477623850107193,0.0,0.0,0.0,0.0,0.0,0.0
6082,1724813399754990962,-1.6287169456481934,-0.3340595066547394,0.17835833132266998,-0.026433590799570084,-0.009374329820275307,0.8781059384346008,0.4776436984539032,0.0,0.0,0.0,0.0,0.0,0.0
6084,1724813399765819640,-1.6274381875991821,-0.33465856313705444,0.1790454387664795,-0.02516244165599346,-0.00843999907374382,0.8780708312988281,0.4777941107749939,0.0,0.0,0.0,0.0,0.0,0.0
6086,1724813399775173033,-1.6259454488754272,-0.3354150950908661,0.18010976910591125,-0.023514442145824432,-0.011355174705386162,0.8780869841575623,0.47778815031051636,0.0,0.0,0.0,0.0,0.0,0.0
6088,1724813399785332784,-1.6246062517166138,-0.33609139919281006,0.1805894821882248,-0.02255868911743164,-0.009375677444040775,0.878214955329895,0.4776417911052704,0.0,0.0,0.0,0.0,0.0,0.0
6090,1724813399796125353,-1.623054027557373,-0.33679449558258057,0.18139655888080597,-0.02210286073386669,-0.011273270472884178,0.8783891797065735,0.47730177640914917,0.0,0.0,0.0,0.0,0.0,0.0
6092,1724813399804544328,-1.6216620206832886,-0.3375598192214966,0.18217669427394867,-0.019998034462332726,-0.010729285888373852,0.8784995675086975,0.477203905582428,0.0,0.0,0.0,0.0,0.0,0.0
6094,1724813399815199655,-1.6203274726867676,-0.3383293151855469,0.18305881321430206,-0.01869429647922516,-0.010364947840571404,0.8783024549484253,0.47762757539749146,0.0,0.0,0.0,0.0,0.0,0.0
6096,1724813399825765391,-1.6187912225723267,-0.3389631509780884,0.18374325335025787,-0.017293397337198257,-0.01048770360648632,0.8786367774009705,0.4770623445510864,0.0,0.0,0.0,0.0,0.0,0.0
6098,1724813399834689793,-1.6172816753387451,-0.3397079408168793,0.18461798131465912,-0.016328910365700722,-0.012027094140648842,0.8784969449043274,0.4773174226284027,0.0,0.0,0.0,0.0,0.0,0.0
6100,1724813399844710038,-1.615966796875,-0.34039029479026794,0.1852807104587555,-0.015442593023180962,-0.011942828074097633,0.8784356713294983,0.47746166586875916,0.0,0.0,0.0,0.0,0.0,0.0
6102,1724813399854511436,-1.61470365524292,-0.34103068709373474,0.18604378402233124,-0.01468575932085514,-0.011410417966544628,0.878296434879303,0.4777546525001526,0.0,0.0,0.0,0.0,0.0,0.0
6104,1724813399864656173,-1.6133710145950317,-0.3416781425476074,0.18675081431865692,-0.014682520180940628,-0.0120999775826931,0.8783000111579895,0.47773119807243347,0.0,0.0,0.0,0.0,0.0,0.0
6106,1724813399875380658,-1.612027883529663,-0.34241029620170593,0.18772129714488983,-0.014255445450544357,-0.015277601778507233,0.8783714771270752,0.4775218069553375,0.0,0.0,0.0,0.0,0.0,0.0
6108,1724813399886194937,-1.610846757888794,-0.34303656220436096,0.1880355179309845,-0.014125008136034012,-0.013684562407433987,0.8784523010253906,0.47742539644241333,0.0,0.0,0.0,0.0,0.0,0.0
6110,1724813399894583492,-1.6096668243408203,-0.3436621129512787,0.1885918378829956,-0.013037408702075481,-0.012662611901760101,0.8782016038894653,0.4779452383518219,0.0,0.0,0.0,0.0,0.0,0.0
6112,1724813399910110647,-1.6082837581634521,-0.3443090319633484,0.18921516835689545,-0.012483535334467888,-0.01316926721483469,0.8782122731208801,0.47792673110961914,0.0,0.0,0.0,0.0,0.0,0.0
6114,1724813399915379545,-1.6070421934127808,-0.3449351191520691,0.18979224562644958,-0.011460784822702408,-0.013707360252737999,0.8782883286476135,0.47779738903045654,0.0,0.0,0.0,0.0,0.0,0.0
6116,1724813399925247533,-1.6058820486068726,-0.34555914998054504,0.19041725993156433,-0.010505257174372673,-0.013043146580457687,0.8782702088356018,0.47787123918533325,0.0,0.0,0.0,0.0,0.0,0.0
6118,1724813399936676584,-1.6046357154846191,-0.346146821975708,0.19120396673679352,-0.009159795008599758,-0.015355672687292099,0.8782432079315186,0.47787991166114807,0.0,0.0,0.0,0.0,0.0,0.0
6120,1724813399944917504,-1.6033532619476318,-0.3466872572898865,0.19189229607582092,-0.009315372444689274,-0.017024146392941475,0.8782939910888672,0.4777270555496216,0.0,0.0,0.0,0.0,0.0,0.0
6122,1724813399955166587,-1.6022989749908447,-0.3471435606479645,0.19246892631053925,-0.008880509994924068,-0.017300765961408615,0.8783627152442932,0.47759899497032166,0.0,0.0,0.0,0.0,0.0,0.0
6124,1724813399965671746,-1.6012685298919678,-0.34755265712738037,0.19289472699165344,-0.008883943781256676,-0.015220235101878643,0.878216028213501,0.4779394567012787,0.0,0.0,0.0,0.0,0.0,0.0
6126,1724813399975099029,-1.6002373695373535,-0.34788280725479126,0.19345644116401672,-0.008271820843219757,-0.01538731437176466,0.8779919743537903,0.4783564805984497,0.0,0.0,0.0,0.0,0.0,0.0
6128,1724813399985777518,-1.5991675853729248,-0.34817415475845337,0.19404423236846924,-0.008116373792290688,-0.015702800825238228,0.8779383301734924,0.4784473776817322,0.0,0.0,0.0,0.0,0.0,0.0
6130,1724813399994572156,-1.5982028245925903,-0.3484189510345459,0.19460338354110718,-0.007704300805926323,-0.014969049021601677,0.8779299855232239,0.47849294543266296,0.0,0.0,0.0,0.0,0.0,0.0
6132,1724813400005335590,-1.5972968339920044,-0.3486502170562744,0.1951352208852768,-0.0070572211407125,-0.014959605410695076,0.8779140710830688,0.47853249311447144,0.0,0.0,0.0,0.0,0.0,0.0
6134,1724813400017248757,-1.5964597463607788,-0.34881776571273804,0.19564419984817505,-0.006329095456749201,-0.014806718565523624,0.877845048904419,0.47867393493652344,0.0,0.0,0.0,0.0,0.0,0.0
6136,1724813400025172751,-1.595739722251892,-0.3489830195903778,0.19614878296852112,-0.005578959826380014,-0.01461249403655529,0.8776233792304993,0.47909557819366455,0.0,0.0,0.0,0.0,0.0,0.0
6138,1724813400035543581,-1.5949980020523071,-0.34907329082489014,0.19662488996982574,-0.005346119403839111,-0.014273975044488907,0.8776496648788452,0.47906023263931274,0.0,0.0,0.0,0.0,0.0,0.0
6140,1724813400045215503,-1.5943571329116821,-0.34912583231925964,0.19703984260559082,-0.005294397473335266,-0.013535629026591778,0.8775638341903687,0.47923949360847473,0.0,0.0,0.0,0.0,0.0,0.0
6142,1724813400054559646,-1.5937939882278442,-0.3491649627685547,0.19740070402622223,-0.005097878165543079,-0.012609297409653664,0.8775297999382019,0.4793291687965393,0.0,0.0,0.0,0.0,0.0,0.0
6144,1724813400064910077,-1.5931637287139893,-0.34911152720451355,0.19771254062652588,-0.005191909149289131,-0.013188782148063183,0.8775017261505127,0.4793640077114105,0.0,0.0,0.0,0.0,0.0,0.0
6146,1724813400075640999,-1.592664361000061,-0.3490619361400604,0.19798725843429565,-0.005268997512757778,-0.013448272831737995,0.8773562908172607,0.4796220660209656,0.0,0.0,0.0,0.0,0.0,0.0
6148,1724813400085496690,-1.592188835144043,-0.3490544855594635,0.19822832942008972,-0.00550335505977273,-0.013106005266308784,0.8772165179252625,0.47988444566726685,0.0,0.0,0.0,0.0,0.0,0.0
6150,1724813400094947619,-1.5917434692382812,-0.3490626811981201,0.19848594069480896,-0.005628862883895636,-0.012581481598317623,0.876970112323761,0.4803471863269806,0.0,0.0,0.0,0.0,0.0,0.0
6152,1724813400105452945,-1.5912185907363892,-0.3489976227283478,0.19864463806152344,-0.006063129287213087,-0.012449895963072777,0.8767942190170288,0.4806663691997528,0.0,0.0,0.0,0.0,0.0,0.0
6154,1724813400114703708,-1.5907155275344849,-0.34889447689056396,0.19874560832977295,-0.006227258592844009,-0.012415648438036442,0.8765715956687927,0.48107096552848816,0.0,0.0,0.0,0.0,0.0,0.0
6156,1724813400125065434,-1.5901854038238525,-0.3487955927848816,0.19889849424362183,-0.0066096242517232895,-0.013003428466618061,0.8762809634208679,0.48157963156700134,0.0,0.0,0.0,0.0,0.0,0.0
6158,1724813400137659574,-1.589760184288025,-0.34865549206733704,0.19895458221435547,-0.00643437635153532,-0.012901362031698227,0.8761404752731323,0.48184022307395935,0.0,0.0,0.0,0.0,0.0,0.0
6160,1724813400144837764,-1.5893453359603882,-0.34847012162208557,0.19903184473514557,-0.006571377161890268,-0.013006254099309444,0.8760314583778381,0.48203375935554504,0.0,0.0,0.0,0.0,0.0,0.0
6162,1724813400157315767,-1.5889955759048462,-0.34829241037368774,0.19910933077335358,-0.006583145819604397,-0.0136356670409441,0.8758865594863892,0.4822794198989868,0.0,0.0,0.0,0.0,0.0,0.0
6164,1724813400164340643,-1.5886516571044922,-0.3480794429779053,0.1991518884897232,-0.0065186587162315845,-0.01372462883591652,0.87583327293396,0.48237454891204834,0.0,0.0,0.0,0.0,0.0,0.0
6166,1724813400178772703,-1.5883195400238037,-0.3478546738624573,0.1992361694574356,-0.006485838443040848,-0.01382682379335165,0.8757076859474182,0.48260000348091125,0.0,0.0,0.0,0.0,0.0,0.0
6168,1724813400184844080,-1.5879950523376465,-0.3476181924343109,0.1992693990468979,-0.006331750191748142,-0.013891209848225117,0.8756519556045532,0.4827013909816742,0.0,0.0,0.0,0.0,0.0,0.0
6170,1724813400194612204,-1.5876948833465576,-0.34736233949661255,0.19936078786849976,-0.006147751584649086,-0.013900225050747395,0.875609815120697,0.48277994990348816,0.0,0.0,0.0,0.0,0.0,0.0
6172,1724813400209219380,-1.5873311758041382,-0.34705474972724915,0.19944801926612854,-0.006467063911259174,-0.014120986685156822,0.87563556432724,0.4827226400375366,0.0,0.0,0.0,0.0,0.0,0.0
6174,1724813400214579095,-1.5869812965393066,-0.34675759077072144,0.19952423870563507,-0.006499752402305603,-0.014538128860294819,0.8755792379379272,0.48281198740005493,0.0,0.0,0.0,0.0,0.0,0.0
6176,1724813400224858912,-1.5867029428482056,-0.34647655487060547,0.1996002346277237,-0.006334300152957439,-0.014350786805152893,0.8755256533622742,0.482916921377182,0.0,0.0,0.0,0.0,0.0,0.0
6178,1724813400235120680,-1.5863791704177856,-0.3461700975894928,0.19966445863246918,-0.00663494598120451,-0.014467311091721058,0.8756067156791687,0.4827624261379242,0.0,0.0,0.0,0.0,0.0,0.0
6180,1724813400244697143,-1.5860085487365723,-0.3458265960216522,0.1997714638710022,-0.006848818156868219,-0.01481608022004366,0.8755642175674438,0.4828259348869324,0.0,0.0,0.0,0.0,0.0,0.0
6182,1724813400254680145,-1.585636854171753,-0.34548622369766235,0.19984567165374756,-0.0069396011531353,-0.015187164768576622,0.8754649758338928,0.48299306631088257,0.0,0.0,0.0,0.0,0.0,0.0
6184,1724813400265373050,-1.585217833518982,-0.3451332747936249,0.19989696145057678,-0.006854129955172539,-0.015690291300415993,0.875404417514801,0.4830878973007202,0.0,0.0,0.0,0.0,0.0,0.0
6186,1724813400275034671,-1.584773063659668,-0.3448105752468109,0.2000187784433365,-0.006939314771443605,-0.015941252931952477,0.8753734230995178,0.4831346869468689,0.0,0.0,0.0,0.0,0.0,0.0
6188,1724813400284982304,-1.5843373537063599,-0.3445632755756378,0.20016364753246307,-0.006948048248887062,-0.016104290261864662,0.8752031326293945,0.48343750834465027,0.0,0.0,0.0,0.0,0.0,0.0
6190,1724813400296112192,-1.5837898254394531,-0.3442828357219696,0.2001575082540512,-0.006929890718311071,-0.015974685549736023,0.8752561807632446,0.48334601521492004,0.0,0.0,0.0,0.0,0.0,0.0
6192,1724813400304424579,-1.5832029581069946,-0.3441207706928253,0.20033138990402222,-0.006299515720456839,-0.01760414056479931,0.8753464818000793,0.4831346273422241,0.0,0.0,0.0,0.0,0.0,0.0
6194,1724813400315120139,-1.5825927257537842,-0.3439813554286957,0.20040147006511688,-0.006493369583040476,-0.01823136955499649,0.8752399682998657,0.48330157995224,0.0,0.0,0.0,0.0,0.0,0.0
6196,1724813400326187167,-1.5820508003234863,-0.3438231945037842,0.20055438578128815,-0.006024329457432032,-0.017514701932668686,0.8749293684959412,0.4838962256908417,0.0,0.0,0.0,0.0,0.0,0.0
6198,1724813400334894147,-1.5813320875167847,-0.343612402677536,0.20038506388664246,-0.007643947843462229,-0.018086884170770645,0.874740481376648,0.48419368267059326,0.0,0.0,0.0,0.0,0.0,0.0
6200,1724813400345523582,-1.5807229280471802,-0.3434467613697052,0.20058102905750275,-0.007635460235178471,-0.01720224693417549,0.8747597336769104,0.48419126868247986,0.0,0.0,0.0,0.0,0.0,0.0
6202,1724813400354827482,-1.5800909996032715,-0.3433454930782318,0.20080728828907013,-0.00793131161481142,-0.017718033865094185,0.8747391700744629,0.48420506715774536,0.0,0.0,0.0,0.0,0.0,0.0
6204,1724813400367371279,-1.5794275999069214,-0.3432057499885559,0.200945645570755,-0.00813956931233406,-0.01831814832985401,0.8747473359107971,0.4841645359992981,0.0,0.0,0.0,0.0,0.0,0.0
6206,1724813400376272911,-1.5787848234176636,-0.34306105971336365,0.20100218057632446,-0.008278011344373226,-0.01864723488688469,0.8749262690544128,0.4838261902332306,0.0,0.0,0.0,0.0,0.0,0.0
6208,1724813400384604779,-1.5781294107437134,-0.342884361743927,0.2009960412979126,-0.008431658148765564,-0.018605338409543037,0.8752009272575378,0.4833281934261322,0.0,0.0,0.0,0.0,0.0,0.0
6210,1724813400394625084,-1.57741117477417,-0.3426819443702698,0.20120351016521454,-0.00889141857624054,-0.020217997953295708,0.8753567337989807,0.4829728305339813,0.0,0.0,0.0,0.0,0.0,0.0
6212,1724813400405815530,-1.5767630338668823,-0.34254390001296997,0.2013111561536789,-0.009122994728386402,-0.02096647582948208,0.8755187392234802,0.4826428294181824,0.0,0.0,0.0,0.0,0.0,0.0
6214,1724813400418138649,-1.5761160850524902,-0.34244099259376526,0.20125992596149445,-0.009144948795437813,-0.020421301946043968,0.8758082389831543,0.48214036226272583,0.0,0.0,0.0,0.0,0.0,0.0
6216,1724813400427051672,-1.5755130052566528,-0.3423009514808655,0.20134471356868744,-0.00904861930757761,-0.01977667398750782,0.8759635090827942,0.4818868041038513,0.0,0.0,0.0,0.0,0.0,0.0
6218,1724813400434447128,-1.5749515295028687,-0.3421834707260132,0.20140010118484497,-0.008670409210026264,-0.019375290721654892,0.8761176466941833,0.4816298484802246,0.0,0.0,0.0,0.0,0.0,0.0
6220,1724813400444389825,-1.574353575706482,-0.3420042395591736,0.20153923332691193,-0.008641965687274933,-0.018362034112215042,0.8763588070869446,0.48123109340667725,0.0,0.0,0.0,0.0,0.0,0.0
6222,1724813400456342041,-1.5737477540969849,-0.34188586473464966,0.20177283883094788,-0.008816566318273544,-0.017850404605269432,0.8764697909355164,0.48104503750801086,0.0,0.0,0.0,0.0,0.0,0.0
6224,1724813400465620260,-1.5730936527252197,-0.34177660942077637,0.20192348957061768,-0.008715126663446426,-0.01855188049376011,0.876548171043396,0.48087751865386963,0.0,0.0,0.0,0.0,0.0,0.0
6226,1724813400475180617,-1.572453498840332,-0.34173348546028137,0.20215003192424774,-0.008996309712529182,-0.019115276634693146,0.8765739798545837,0.4808031916618347,0.0,0.0,0.0,0.0,0.0,0.0
6228,1724813400485126298,-1.5718188285827637,-0.34169310331344604,0.20229676365852356,-0.009054613299667835,-0.018832169473171234,0.8765450716018677,0.48086604475975037,0.0,0.0,0.0,0.0,0.0,0.0
6230,1724813400494456830,-1.5711393356323242,-0.3416849672794342,0.20233771204948425,-0.00891027506440878,-0.018592311069369316,0.8766995072364807,0.4805964529514313,0.0,0.0,0.0,0.0,0.0,0.0
6232,1724813400504925979,-1.5704585313796997,-0.3417209982872009,0.20247076451778412,-0.009228949435055256,-0.01842028647661209,0.8767227530479431,0.48055461049079895,0.0,0.0,0.0,0.0,0.0,0.0
6234,1724813400516257529,-1.56974458694458,-0.3417578637599945,0.20261020958423615,-0.009559603407979012,-0.018914761021733284,0.8767372369766235,0.48050248622894287,0.0,0.0,0.0,0.0,0.0,0.0
6236,1724813400530384860,-1.5690059661865234,-0.3417312502861023,0.20267805457115173,-0.009618828073143959,-0.019468704238533974,0.8768095374107361,0.48034730553627014,0.0,0.0,0.0,0.0,0.0,0.0
6238,1724813400539474783,-1.5683200359344482,-0.34174495935440063,0.20273727178573608,-0.009784216061234474,-0.019758980721235275,0.8768791556358337,0.48020488023757935,0.0,0.0,0.0,0.0,0.0,0.0
6240,1724813400546316169,-1.5676038265228271,-0.3416633605957031,0.20275574922561646,-0.010347998701035976,-0.02016700990498066,0.8769537806510925,0.4800398647785187,0.0,0.0,0.0,0.0,0.0,0.0
6242,1724813400554477161,-1.5669273138046265,-0.3415869474411011,0.20276542007923126,-0.010976070538163185,-0.02013949118554592,0.8770081400871277,0.47992774844169617,0.0,0.0,0.0,0.0,0.0,0.0
6244,1724813400564865797,-1.5662212371826172,-0.3414936065673828,0.20278188586235046,-0.011762774549424648,-0.019757483154535294,0.8770732879638672,0.47980594635009766,0.0,0.0,0.0,0.0,0.0,0.0
6246,1724813400574896800,-1.5656105279922485,-0.34143927693367004,0.20274071395397186,-0.012041681446135044,-0.019409822300076485,0.8770691752433777,0.47982072830200195,0.0,0.0,0.0,0.0,0.0,0.0
6248,1724813400584977788,-1.5649834871292114,-0.3413635194301605,0.2026473730802536,-0.012563514523208141,-0.019525477662682533,0.8770870566368103,0.4797699749469757,0.0,0.0,0.0,0.0,0.0,0.0
6250,1724813400594926310,-1.5642740726470947,-0.3412781059741974,0.20257316529750824,-0.013531897217035294,-0.020739689469337463,0.8769934177398682,0.47986385226249695,0.0,0.0,0.0,0.0,0.0,0.0
6252,1724813400604656557,-1.5634182691574097,-0.3411879539489746,0.20238357782363892,-0.013750429265201092,-0.02119949273765087,0.8771340250968933,0.47958043217658997,0.0,0.0,0.0,0.0,0.0,0.0
6254,1724813400614962004,-1.5626718997955322,-0.3411475121974945,0.20227545499801636,-0.014621813781559467,-0.020807599648833275,0.8771699666976929,0.47950610518455505,0.0,0.0,0.0,0.0,0.0,0.0
6256,1724813400624828706,-1.5619323253631592,-0.3411308228969574,0.20222990214824677,-0.015486256219446659,-0.020649069920182228,0.8773399591445923,0.47917473316192627,0.0,0.0,0.0,0.0,0.0,0.0
6258,1724813400644771209,-1.5612035989761353,-0.34115296602249146,0.20215654373168945,-0.016086647287011147,-0.021202869713306427,0.8773962259292603,0.4790276885032654,0.0,0.0,0.0,0.0,0.0,0.0
6260,1724813400645084534,-1.5604246854782104,-0.34115782380104065,0.20213256776332855,-0.01667836122214794,-0.021417567506432533,0.8773354291915894,0.4791091978549957,0.0,0.0,0.0,0.0,0.0,0.0
6262,1724813400664850315,-1.5595959424972534,-0.34116432070732117,0.201897993683815,-0.017158344388008118,-0.021289963275194168,0.8774502277374268,0.478887677192688,0.0,0.0,0.0,0.0,0.0,0.0
6264,1724813400665125491,-1.5586827993392944,-0.34121212363243103,0.20195332169532776,-0.01802833192050457,-0.024881582707166672,0.8775328993797302,0.47853100299835205,0.0,0.0,0.0,0.0,0.0,0.0
6266,1724813400674880278,-1.5578429698944092,-0.3411876857280731,0.2018037736415863,-0.01823251321911812,-0.02394796535372734,0.8777599930763245,0.4781542420387268,0.0,0.0,0.0,0.0,0.0,0.0
6268,1724813400688985957,-1.5569359064102173,-0.341129869222641,0.2014235109090805,-0.019484439864754677,-0.022451059892773628,0.8778043985366821,0.47809597849845886,0.0,0.0,0.0,0.0,0.0,0.0
6270,1724813400694467645,-1.5561021566390991,-0.34115585684776306,0.2013174593448639,-0.020558113232254982,-0.02269795723259449,0.8775898218154907,0.47843316197395325,0.0,0.0,0.0,0.0,0.0,0.0
6272,1724813400705468806,-1.5550768375396729,-0.34111204743385315,0.20113132894039154,-0.020989473909139633,-0.022653428837656975,0.8777323961257935,0.4781549274921417,0.0,0.0,0.0,0.0,0.0,0.0
6274,1724813400714637770,-1.5538603067398071,-0.3410888910293579,0.2010793536901474,-0.021571077406406403,-0.025857219472527504,0.8781077265739441,0.47727662324905396,0.0,0.0,0.0,0.0,0.0,0.0
6276,1724813400725357014,-1.552785873413086,-0.34097161889076233,0.20083697140216827,-0.02243066020309925,-0.02346622385084629,0.8782654404640198,0.4770703613758087,0.0,0.0,0.0,0.0,0.0,0.0
6278,1724813400742095008,-1.5517016649246216,-0.34096190333366394,0.20086270570755005,-0.02298281341791153,-0.023306285962462425,0.8781013488769531,0.4773537218570709,0.0,0.0,0.0,0.0,0.0,0.0
6280,1724813400744648015,-1.5504852533340454,-0.3409208655357361,0.20081086456775665,-0.02377244271337986,-0.02422572672367096,0.8780659437179565,0.47733449935913086,0.0,0.0,0.0,0.0,0.0,0.0
6282,1724813400758784168,-1.5493122339248657,-0.3408432602882385,0.20079565048217773,-0.024426646530628204,-0.024215109646320343,0.8782272934913635,0.4770049750804901,0.0,0.0,0.0,0.0,0.0,0.0
6284,1724813400766700370,-1.548073172569275,-0.340719610452652,0.20086413621902466,-0.025152871385216713,-0.02486889623105526,0.8782305121421814,0.4769279360771179,0.0,0.0,0.0,0.0,0.0,0.0
6286,1724813400775173239,-1.546818494796753,-0.34067249298095703,0.20097139477729797,-0.02494446560740471,-0.026170631870627403,0.8784511089324951,0.4764625132083893,0.0,0.0,0.0,0.0,0.0,0.0
6288,1724813400787453636,-1.5455466508865356,-0.34053176641464233,0.20064078271389008,-0.025997359305620193,-0.02477024309337139,0.8786268830299377,0.476157009601593,0.0,0.0,0.0,0.0,0.0,0.0
6290,1724813400796314528,-1.544293999671936,-0.34039244055747986,0.20045191049575806,-0.02679799497127533,-0.025370392948389053,0.8788959980010986,0.47558391094207764,0.0,0.0,0.0,0.0,0.0,0.0
6292,1724813400804770201,-1.5430768728256226,-0.340271532535553,0.2002021074295044,-0.02734212391078472,-0.026113325729966164,0.879086434841156,0.47516074776649475,0.0,0.0,0.0,0.0,0.0,0.0
6294,1724813400815488603,-1.5417693853378296,-0.34013471007347107,0.20004400610923767,-0.028265947476029396,-0.02674921043217182,0.8791638016700745,0.4749279022216797,0.0,0.0,0.0,0.0,0.0,0.0
6296,1724813400825290354,-1.5405173301696777,-0.33994364738464355,0.20007222890853882,-0.029505882412195206,-0.027123285457491875,0.8791477084159851,0.4748610258102417,0.0,0.0,0.0,0.0,0.0,0.0
6298,1724813400836734704,-1.5393617153167725,-0.33974626660346985,0.19974465668201447,-0.02973492629826069,-0.02604912407696247,0.8795338869094849,0.4741913378238678,0.0,0.0,0.0,0.0,0.0,0.0
6300,1724813400848692310,-1.5381492376327515,-0.33944404125213623,0.199637770652771,-0.03066473826766014,-0.027740510180592537,0.8795527219772339,0.47400137782096863,0.0,0.0,0.0,0.0,0.0,0.0
6302,1724813400854520398,-1.5370161533355713,-0.3391455411911011,0.1995588093996048,-0.03205424174666405,-0.02841518074274063,0.8796147108078003,0.4737544059753418,0.0,0.0,0.0,0.0,0.0,0.0
6304,1724813400864737783,-1.5359270572662354,-0.33884790539741516,0.19935926795005798,-0.0330817885696888,-0.02906632050871849,0.8796117901802063,0.4736495316028595,0.0,0.0,0.0,0.0,0.0,0.0
6306,1724813400875082022,-1.5349103212356567,-0.3385258913040161,0.19918200373649597,-0.033858731389045715,-0.02973248064517975,0.8795220255851746,0.47371992468833923,0.0,0.0,0.0,0.0,0.0,0.0
6308,1724813400884613524,-1.5339181423187256,-0.3380989730358124,0.19904495775699615,-0.03438087925314903,-0.029650520533323288,0.8795016407966614,0.4737253487110138,0.0,0.0,0.0,0.0,0.0,0.0
6310,1724813400894420818,-1.5328747034072876,-0.3375988304615021,0.19875705242156982,-0.034956663846969604,-0.02955145388841629,0.8795831203460693,0.47353804111480713,0.0,0.0,0.0,0.0,0.0,0.0
6312,1724813400907063618,-1.5318949222564697,-0.33709272742271423,0.19845907390117645,-0.035742610692977905,-0.030195169150829315,0.8793962597846985,0.47378572821617126,0.0,0.0,0.0,0.0,0.0,0.0
6314,1724813400914446260,-1.5310993194580078,-0.33664676547050476,0.1982126533985138,-0.03644329681992531,-0.030179301276803017,0.8791484832763672,0.4741930365562439,0.0,0.0,0.0,0.0,0.0,0.0
6316,1724813400925074634,-1.530264139175415,-0.33618807792663574,0.19814202189445496,-0.0360349677503109,-0.0322810560464859,0.8791586756706238,0.47406691312789917,0.0,0.0,0.0,0.0,0.0,0.0
6318,1724813400934698600,-1.5294592380523682,-0.3355761468410492,0.19769352674484253,-0.0371784083545208,-0.031670503318309784,0.8789095282554626,0.47448161244392395,0.0,0.0,0.0,0.0,0.0,0.0
6320,1724813400945774155,-1.5287864208221436,-0.33501917123794556,0.1974393129348755,-0.037785980850458145,-0.03194819763302803,0.8786948323249817,0.47481250762939453,0.0,0.0,0.0,0.0,0.0,0.0
6322,1724813400959549794,-1.5281633138656616,-0.33450233936309814,0.19699209928512573,-0.03814094886183739,-0.0314033180475235,0.8789522647857666,0.47434377670288086,0.0,0.0,0.0,0.0,0.0,0.0
6324,1724813400965055645,-1.5276720523834229,-0.3338838517665863,0.19674943387508392,-0.038924071937799454,-0.03127864748239517,0.8789871335029602,0.4742237329483032,0.0,0.0,0.0,0.0,0.0,0.0
6326,1724813400975134219,-1.5272243022918701,-0.3332441449165344,0.1965329647064209,-0.03975324332714081,-0.03178133815526962,0.878933846950531,0.47422027587890625,0.0,0.0,0.0,0.0,0.0,0.0
6328,1724813400985294214,-1.526806116104126,-0.3325982689857483,0.19637532532215118,-0.04064110666513443,-0.032377760857343674,0.8789599537849426,0.4740562438964844,0.0,0.0,0.0,0.0,0.0,0.0
6330,1724813401001917725,-1.52631413936615,-0.33198681473731995,0.19619546830654144,-0.04174668714404106,-0.03319648653268814,0.8787575960159302,0.4742788076400757,0.0,0.0,0.0,0.0,0.0,0.0
6332,1724813401005606185,-1.5257755517959595,-0.3314536213874817,0.19613593816757202,-0.04219064116477966,-0.03667507693171501,0.878715455532074,0.4740612506866455,0.0,0.0,0.0,0.0,0.0,0.0
6334,1724813401018569677,-1.5253201723098755,-0.3309025168418884,0.19568654894828796,-0.0431312620639801,-0.03494970127940178,0.8786486387252808,0.4742308259010315,0.0,0.0,0.0,0.0,0.0,0.0
6336,1724813401025316177,-1.5248920917510986,-0.33045485615730286,0.19540584087371826,-0.04363377019762993,-0.03444966301321983,0.8786004185676575,0.47431060671806335,0.0,0.0,0.0,0.0,0.0,0.0
6338,1724813401037714412,-1.524397373199463,-0.330036997795105,0.19503244757652283,-0.043654490262269974,-0.03414762020111084,0.8787032961845398,0.4741400480270386,0.0,0.0,0.0,0.0,0.0,0.0
6340,1724813401044303870,-1.5239338874816895,-0.3296365737915039,0.1947019249200821,-0.04392235353589058,-0.03413599729537964,0.8788133859634399,0.47391197085380554,0.0,0.0,0.0,0.0,0.0,0.0
6342,1724813401055396867,-1.523461103439331,-0.32922255992889404,0.19452083110809326,-0.04479760304093361,-0.034712035208940506,0.8787945508956909,0.4738231897354126,0.0,0.0,0.0,0.0,0.0,0.0
6344,1724813401065241693,-1.523013710975647,-0.32884177565574646,0.19431257247924805,-0.045808110386133194,-0.035710837692022324,0.878699541091919,0.47382867336273193,0.0,0.0,0.0,0.0,0.0,0.0
6346,1724813401075258688,-1.5225926637649536,-0.3284852206707001,0.19411756098270416,-0.046546000987291336,-0.03671502321958542,0.878624439239502,0.4738191068172455,0.0,0.0,0.0,0.0,0.0,0.0
6348,1724813401084611387,-1.5221357345581055,-0.32816994190216064,0.19414085149765015,-0.04698247089982033,-0.0391937755048275,0.878814160823822,0.47322529554367065,0.0,0.0,0.0,0.0,0.0,0.0
6350,1724813401094874689,-1.5217952728271484,-0.3278561234474182,0.19394418597221375,-0.047508325427770615,-0.03923020884394646,0.8789134621620178,0.47298526763916016,0.0,0.0,0.0,0.0,0.0,0.0
6352,1724813401104521636,-1.5214760303497314,-0.3275696039199829,0.1937812864780426,-0.04778476431965828,-0.0391731895506382,0.8789792656898499,0.4728398621082306,0.0,0.0,0.0,0.0,0.0,0.0
6354,1724813401114793833,-1.521151065826416,-0.32725244760513306,0.19333040714263916,-0.04915488138794899,-0.038106951862573624,0.8789141178131104,0.472907692193985,0.0,0.0,0.0,0.0,0.0,0.0
6356,1724813401125038869,-1.520909309387207,-0.32696130871772766,0.1931515336036682,-0.049302298575639725,-0.03724599629640579,0.8788232207298279,0.4731297492980957,0.0,0.0,0.0,0.0,0.0,0.0
6358,1724813401134942043,-1.5206809043884277,-0.3267497420310974,0.1929415464401245,-0.04969723895192146,-0.03701437637209892,0.8787403702735901,0.4732604920864105,0.0,0.0,0.0,0.0,0.0,0.0
6360,1724813401155602473,-1.5203723907470703,-0.32650524377822876,0.1927066296339035,-0.05014408379793167,-0.03745827451348305,0.8788079023361206,0.4730530083179474,0.0,0.0,0.0,0.0,0.0,0.0
6362,1724813401155860457,-1.520104169845581,-0.32635998725891113,0.1925869882106781,-0.05091746896505356,-0.03781484439969063,0.878781259059906,0.4729915261268616,0.0,0.0,0.0,0.0,0.0,0.0
6364,1724813401164695244,-1.5197495222091675,-0.3262278735637665,0.19241547584533691,-0.05128214880824089,-0.03829864412546158,0.8788084387779236,0.4728626608848572,0.0,0.0,0.0,0.0,0.0,0.0
6366,1724813401175346325,-1.519405484199524,-0.32616478204727173,0.19233471155166626,-0.052059073001146317,-0.03908459097146988,0.8787416219711304,0.4728375971317291,0.0,0.0,0.0,0.0,0.0,0.0
6368,1724813401184842087,-1.5190656185150146,-0.3261719048023224,0.1922232210636139,-0.05263316258788109,-0.03971218690276146,0.8786459565162659,0.47289958596229553,0.0,0.0,0.0,0.0,0.0,0.0
6370,1724813401194570883,-1.5187138319015503,-0.3261970281600952,0.1921023279428482,-0.05307535082101822,-0.03995191305875778,0.8786609768867493,0.4728020131587982,0.0,0.0,0.0,0.0,0.0,0.0
6372,1724813401205920974,-1.518361210823059,-0.3262862265110016,0.19203802943229675,-0.05354607477784157,-0.04001355543732643,0.8786928653717041,0.47268444299697876,0.0,0.0,0.0,0.0,0.0,0.0
6374,1724813401214689677,-1.5179786682128906,-0.3264632523059845,0.19194310903549194,-0.0540115162730217,-0.040054503828287125,0.8786410689353943,0.4727243185043335,0.0,0.0,0.0,0.0,0.0,0.0
6376,1724813401225192175,-1.5175267457962036,-0.32665517926216125,0.1919044554233551,-0.054841503500938416,-0.04058374464511871,0.8786049485206604,0.4726507067680359,0.0,0.0,0.0,0.0,0.0,0.0
6378,1724813401235461747,-1.5170878171920776,-0.3269527852535248,0.1918799877166748,-0.05541104078292847,-0.04037897661328316,0.8785442113876343,0.47271478176116943,0.0,0.0,0.0,0.0,0.0,0.0
6380,1724813401263913740,-1.5165672302246094,-0.3272542953491211,0.19180777668952942,-0.055634140968322754,-0.040749844163656235,0.8784736394882202,0.47278785705566406,0.0,0.0,0.0,0.0,0.0,0.0
6382,1724813401264231797,-1.5160714387893677,-0.3275771141052246,0.19162730872631073,-0.05586337670683861,-0.04088523983955383,0.8785930275917053,0.4725272059440613,0.0,0.0,0.0,0.0,0.0,0.0
6384,1724813401266753455,-1.515560507774353,-0.3279294967651367,0.19133248925209045,-0.0563170351088047,-0.04136310890316963,0.8787589073181152,0.4721231460571289,0.0,0.0,0.0,0.0,0.0,0.0
6386,1724813401278570163,-1.5150768756866455,-0.3283214867115021,0.19097931683063507,-0.057009339332580566,-0.041988641023635864,0.8788512945175171,0.47181278467178345,0.0,0.0,0.0,0.0,0.0,0.0
6388,1724813401284977223,-1.5146245956420898,-0.32874584197998047,0.19064079225063324,-0.057945676147937775,-0.04241792857646942,0.8789834380149841,0.47141388058662415,0.0,0.0,0.0,0.0,0.0,0.0
6390,1724813401294581983,-1.5142194032669067,-0.32915541529655457,0.19025205075740814,-0.05871497839689255,-0.04309629276394844,0.8790745735168457,0.4710872769355774,0.0,0.0,0.0,0.0,0.0,0.0
6392,1724813401304875905,-1.513884425163269,-0.3296353816986084,0.18990270793437958,-0.05992412939667702,-0.043136417865753174,0.8788744211196899,0.471304714679718,0.0,0.0,0.0,0.0,0.0,0.0
6394,1724813401315821802,-1.5134906768798828,-0.33003684878349304,0.18949684500694275,-0.06138303503394127,-0.04384809732437134,0.878751814365387,0.4712798595428467,0.0,0.0,0.0,0.0,0.0,0.0
6396,1724813401324870226,-1.5129437446594238,-0.33037352561950684,0.1890476942062378,-0.06327825784683228,-0.04514510929584503,0.8788160085678101,0.4707868695259094,0.0,0.0,0.0,0.0,0.0,0.0
6398,1724813401335518589,-1.5124189853668213,-0.3306911587715149,0.1885404735803604,-0.06499920040369034,-0.04608869180083275,0.8788018226623535,0.47048717737197876,0.0,0.0,0.0,0.0,0.0,0.0
6400,1724813401345167216,-1.5119765996932983,-0.3309973180294037,0.18805114924907684,-0.06680852174758911,-0.04699025675654411,0.8787379264831543,0.47026386857032776,0.0,0.0,0.0,0.0,0.0,0.0
6402,1724813401357446279,-1.5115199089050293,-0.3312937617301941,0.18749085068702698,-0.06884681433439255,-0.04861663281917572,0.8786193132400513,0.4700261652469635,0.0,0.0,0.0,0.0,0.0,0.0
6404,1724813401365041951,-1.5110517740249634,-0.33152666687965393,0.18691077828407288,-0.07037624716758728,-0.04899562895298004,0.8786014914512634,0.46979355812072754,0.0,0.0,0.0,0.0,0.0,0.0
6406,1724813401384299952,-1.5105773210525513,-0.3317811191082001,0.18632620573043823,-0.0713675394654274,-0.04915958642959595,0.8784880042076111,0.46983909606933594,0.0,0.0,0.0,0.0,0.0,0.0
6408,1724813401385082489,-1.510012149810791,-0.3319481611251831,0.18570587038993835,-0.07283741980791092,-0.05034693330526352,0.8784005045890808,0.46965155005455017,0.0,0.0,0.0,0.0,0.0,0.0
6410,1724813401394567420,-1.5095250606536865,-0.33202067017555237,0.18520992994308472,-0.07462016493082047,-0.05185537040233612,0.8781357407569885,0.46970266103744507,0.0,0.0,0.0,0.0,0.0,0.0
6412,1724813401408657054,-1.509139895439148,-0.3320924639701843,0.1846972405910492,-0.07610209286212921,-0.05316714197397232,0.8778393268585205,0.46987226605415344,0.0,0.0,0.0,0.0,0.0,0.0
6414,1724813401414533964,-1.508830189704895,-0.3321400284767151,0.18420292437076569,-0.07724427431821823,-0.0540156252682209,0.8775835633277893,0.47006672620773315,0.0,0.0,0.0,0.0,0.0,0.0
6416,1724813401425228295,-1.5085537433624268,-0.3321892321109772,0.18372154235839844,-0.07840177416801453,-0.054598160088062286,0.8772969245910645,0.4703426957130432,0.0,0.0,0.0,0.0,0.0,0.0
6418,1724813401436003801,-1.508292317390442,-0.33222103118896484,0.1831713616847992,-0.07983361184597015,-0.055533479899168015,0.8770275712013245,0.47049480676651,0.0,0.0,0.0,0.0,0.0,0.0
6420,1724813401444644532,-1.5080736875534058,-0.3321906626224518,0.18255367875099182,-0.08152016997337341,-0.056618090718984604,0.8767280578613281,0.4706345796585083,0.0,0.0,0.0,0.0,0.0,0.0
6422,1724813401455896767,-1.5078742504119873,-0.3321434259414673,0.18195001780986786,-0.08300960808992386,-0.057829853147268295,0.8764167428016663,0.47080665826797485,0.0,0.0,0.0,0.0,0.0,0.0
6424,1724813401465137993,-1.5077203512191772,-0.3320411443710327,0.18142347037792206,-0.08466555923223495,-0.05894288048148155,0.876091480255127,0.4709790050983429,0.0,0.0,0.0,0.0,0.0,0.0
6426,1724813401475738767,-1.5075838565826416,-0.3319298028945923,0.18087811768054962,-0.08595333248376846,-0.06006741151213646,0.8757936358451843,0.47115758061408997,0.0,0.0,0.0,0.0,0.0,0.0
6428,1724813401485107672,-1.507525086402893,-0.33186763525009155,0.18058577179908752,-0.08666031062602997,-0.06160718575119972,0.8755337595939636,0.47131237387657166,0.0,0.0,0.0,0.0,0.0,0.0
6430,1724813401494950985,-1.507407546043396,-0.33181077241897583,0.18006016314029694,-0.08784831315279007,-0.06270798295736313,0.8752071261405945,0.471553772687912,0.0,0.0,0.0,0.0,0.0,0.0
6432,1724813401504851373,-1.5071756839752197,-0.33158203959465027,0.17919017374515533,-0.09007985889911652,-0.06249159574508667,0.8750415444374084,0.47146865725517273,0.0,0.0,0.0,0.0,0.0,0.0
6434,1724813401517615497,-1.5070215463638306,-0.3314388394355774,0.17862075567245483,-0.09182662516832352,-0.06392242759466171,0.8747667074203491,0.47144994139671326,0.0,0.0,0.0,0.0,0.0,0.0
6436,1724813401525064013,-1.5069289207458496,-0.3313138782978058,0.17799556255340576,-0.09309210628271103,-0.06450991332530975,0.874573826789856,0.4714796245098114,0.0,0.0,0.0,0.0,0.0,0.0
6438,1724813401537168680,-1.5068082809448242,-0.3311711847782135,0.17730313539505005,-0.09461142122745514,-0.06509213149547577,0.8743860125541687,0.47144538164138794,0.0,0.0,0.0,0.0,0.0,0.0
6440,1724813401544664944,-1.506702184677124,-0.3310624063014984,0.1766241490840912,-0.09588905423879623,-0.06578653305768967,0.8741499781608582,0.4715287685394287,0.0,0.0,0.0,0.0,0.0,0.0
6442,1724813401555670303,-1.5065505504608154,-0.33094850182533264,0.17602500319480896,-0.09718088805675507,-0.06717372685670853,0.8740730285644531,0.47121113538742065,0.0,0.0,0.0,0.0,0.0,0.0
6444,1724813401565381086,-1.5063867568969727,-0.33080700039863586,0.1754986047744751,-0.0979747474193573,-0.06838785111904144,0.8739898204803467,0.47102653980255127,0.0,0.0,0.0,0.0,0.0,0.0
6446,1724813401575073259,-1.5062670707702637,-0.3306850790977478,0.17506790161132812,-0.09864550828933716,-0.06892593950033188,0.8739659190177917,0.47085222601890564,0.0,0.0,0.0,0.0,0.0,0.0
6448,1724813401585042842,-1.5062915086746216,-0.33066272735595703,0.17499034106731415,-0.09829773008823395,-0.0706835389137268,0.8738995790481567,0.4707876443862915,0.0,0.0,0.0,0.0,0.0,0.0
6450,1724813401594965361,-1.5061646699905396,-0.3305743932723999,0.17440004646778107,-0.09954143315553665,-0.07088499516248703,0.8738411664962769,0.47060438990592957,0.0,0.0,0.0,0.0,0.0,0.0
6452,1724813401605133285,-1.5061721801757812,-0.33053576946258545,0.17409752309322357,-0.09998834133148193,-0.07105693966150284,0.8737796545028687,0.47059789299964905,0.0,0.0,0.0,0.0,0.0,0.0
6454,1724813401620280682,-1.5062264204025269,-0.33052772283554077,0.17382057011127472,-0.1000152975320816,-0.07081351429224014,0.8737587332725525,0.47066763043403625,0.0,0.0,0.0,0.0,0.0,0.0
6456,1724813401625288270,-1.5063096284866333,-0.3305833041667938,0.1735774278640747,-0.10045090317726135,-0.07087915390729904,0.8736447691917419,0.4707765579223633,0.0,0.0,0.0,0.0,0.0,0.0
6458,1724813401634827164,-1.5063636302947998,-0.3306806683540344,0.1733490228652954,-0.10074196010828018,-0.07121449708938599,0.873559296131134,0.47082242369651794,0.0,0.0,0.0,0.0,0.0,0.0
6460,1724813401644770613,-1.5064091682434082,-0.3307693302631378,0.17312926054000854,-0.10133647173643112,-0.07164604961872101,0.8734639286994934,0.4708062708377838,0.0,0.0,0.0,0.0,0.0,0.0
6462,1724813401655617852,-1.506360411643982,-0.330880343914032,0.17293348908424377,-0.10160206258296967,-0.07194070518016815,0.8733201026916504,0.4709708094596863,0.0,0.0,0.0,0.0,0.0,0.0
6464,1724813401665137371,-1.5062769651412964,-0.3309476673603058,0.17286908626556396,-0.1014244556427002,-0.0721447765827179,0.8732396364212036,0.47112712264060974,0.0,0.0,0.0,0.0,0.0,0.0
6466,1724813401676978187,-1.5061657428741455,-0.33104413747787476,0.17288337647914886,-0.1012677252292633,-0.07236549258232117,0.8731495141983032,0.47129398584365845,0.0,0.0,0.0,0.0,0.0,0.0
6468,1724813401684758371,-1.5060104131698608,-0.3311823010444641,0.1729249209165573,-0.10113649815320969,-0.07242666929960251,0.8730077147483826,0.47157537937164307,0.0,0.0,0.0,0.0,0.0,0.0
6470,1724813401694502825,-1.5058563947677612,-0.3313380181789398,0.17297698557376862,-0.10102760046720505,-0.07231242209672928,0.8728654384613037,0.4718795418739319,0.0,0.0,0.0,0.0,0.0,0.0
6472,1724813401705263157,-1.5056813955307007,-0.3315167725086212,0.17299985885620117,-0.1008608490228653,-0.07219475507736206,0.8727211952209473,0.4721999168395996,0.0,0.0,0.0,0.0,0.0,0.0
6474,1724813401716048832,-1.505452036857605,-0.33167973160743713,0.17300499975681305,-0.10068941861391068,-0.07218492776155472,0.8727117776870728,0.4722555875778198,0.0,0.0,0.0,0.0,0.0,0.0
6476,1724813401725770213,-1.5051920413970947,-0.3318483531475067,0.17300036549568176,-0.10051704198122025,-0.0723835676908493,0.8727205395698547,0.4722455143928528,0.0,0.0,0.0,0.0,0.0,0.0
6478,1724813401737937398,-1.504939079284668,-0.3320358097553253,0.1729716956615448,-0.10045549273490906,-0.07287009060382843,0.8726063966751099,0.4723947048187256,0.0,0.0,0.0,0.0,0.0,0.0
6480,1724813401744802381,-1.5047013759613037,-0.3321906626224518,0.17296524345874786,-0.10009919852018356,-0.0731293261051178,0.8725030422210693,0.4726211130619049,0.0,0.0,0.0,0.0,0.0,0.0
6482,1724813401758780536,-1.5044866800308228,-0.33236756920814514,0.1729242354631424,-0.0997825339436531,-0.07297821342945099,0.8723353743553162,0.4730207026004791,0.0,0.0,0.0,0.0,0.0,0.0
6484,1724813401766424292,-1.504231333732605,-0.3325040340423584,0.17293547093868256,-0.09954619407653809,-0.07339073717594147,0.8720164895057678,0.4735943078994751,0.0,0.0,0.0,0.0,0.0,0.0
6486,1724813401776215266,-1.5039691925048828,-0.33272138237953186,0.17291302978992462,-0.09935885667800903,-0.07405686378479004,0.8717985153198242,0.4739311635494232,0.0,0.0,0.0,0.0,0.0,0.0
6488,1724813401789560731,-1.5037245750427246,-0.3329310715198517,0.17290663719177246,-0.09893957525491714,-0.07412166148424149,0.8716111183166504,0.47435322403907776,0.0,0.0,0.0,0.0,0.0,0.0
6490,1724813401795162972,-1.5035080909729004,-0.33313918113708496,0.17294077575206757,-0.0986223891377449,-0.07446752488613129,0.8714821338653564,0.474602073431015,0.0,0.0,0.0,0.0,0.0,0.0
6492,1724813401806530831,-1.5032867193222046,-0.33339911699295044,0.17301508784294128,-0.09826916456222534,-0.07439378648996353,0.8713154792785645,0.4749927222728729,0.0,0.0,0.0,0.0,0.0,0.0
6494,1724813401833250829,-1.5030053853988647,-0.3336595892906189,0.17305274307727814,-0.09761761128902435,-0.074505515396595,0.8712406158447266,0.47524675726890564,0.0,0.0,0.0,0.0,0.0,0.0
6496,1724813401833543510,-1.5027270317077637,-0.33391299843788147,0.17316244542598724,-0.09709861874580383,-0.0744977742433548,0.8711569309234619,0.4755076467990875,0.0,0.0,0.0,0.0,0.0,0.0
6498,1724813401834827724,-1.502417802810669,-0.3341744840145111,0.17325975000858307,-0.0968664139509201,-0.07459118962287903,0.8710546493530273,0.47572770714759827,0.0,0.0,0.0,0.0,0.0,0.0
6500,1724813401844574938,-1.5020837783813477,-0.3344939649105072,0.17336465418338776,-0.09635179489850998,-0.07493476569652557,0.8708877563476562,0.4760836958885193,0.0,0.0,0.0,0.0,0.0,0.0
6502,1724813401854708750,-1.5017693042755127,-0.3348841667175293,0.1735234260559082,-0.09591688215732574,-0.07483004778623581,0.8705638647079468,0.4767797887325287,0.0,0.0,0.0,0.0,0.0,0.0
6504,1724813401866547325,-1.5014021396636963,-0.3352551758289337,0.17370294034481049,-0.09559149295091629,-0.07486916333436966,0.8703758716583252,0.477182000875473,0.0,0.0,0.0,0.0,0.0,0.0
6506,1724813401899260875,-1.5010401010513306,-0.33567968010902405,0.1738327294588089,-0.09517115354537964,-0.0744909942150116,0.8703863620758057,0.4773061275482178,0.0,0.0,0.0,0.0,0.0,0.0
6508,1724813401899669153,-1.500609040260315,-0.3361058831214905,0.17402243614196777,-0.09476698935031891,-0.07439369708299637,0.8701054453849792,0.477913498878479,0.0,0.0,0.0,0.0,0.0,0.0
6510,1724813401900068238,-1.500140905380249,-0.3365342915058136,0.17420443892478943,-0.09434445947408676,-0.07440853118896484,0.8698955178260803,0.47837671637535095,0.0,0.0,0.0,0.0,0.0,0.0
6512,1724813401908023981,-1.499678373336792,-0.33700016140937805,0.17440877854824066,-0.09383894503116608,-0.07429017871618271,0.8697148561477661,0.47882279753685,0.0,0.0,0.0,0.0,0.0,0.0
6514,1724813401914692654,-1.4991363286972046,-0.3375213146209717,0.17462535202503204,-0.09368783980607986,-0.0748642161488533,0.8695567846298218,0.47905001044273376,0.0,0.0,0.0,0.0,0.0,0.0
6516,1724813401924890802,-1.4986780881881714,-0.3380022644996643,0.17481330037117004,-0.09305695444345474,-0.07440222054719925,0.8693884015083313,0.4795503318309784,0.0,0.0,0.0,0.0,0.0,0.0
6518,1724813401938301022,-1.4982283115386963,-0.33854395151138306,0.17500446736812592,-0.09243036061525345,-0.07380490005016327,0.8692933917045593,0.4799359440803528,0.0,0.0,0.0,0.0,0.0,0.0
6520,1724813401944722367,-1.4977209568023682,-0.3391110897064209,0.17527493834495544,-0.09201028943061829,-0.07411505281925201,0.8690848350524902,0.48034635186195374,0.0,0.0,0.0,0.0,0.0,0.0
6522,1724813401954778708,-1.4970433712005615,-0.33972975611686707,0.1757429987192154,-0.09139649569988251,-0.07652388513088226,0.8688215017318726,0.4805624186992645,0.0,0.0,0.0,0.0,0.0,0.0
6524,1724813401965560586,-1.4963759183883667,-0.34033694863319397,0.1757703721523285,-0.09213519096374512,-0.0766286626458168,0.8685571551322937,0.4808821380138397,0.0,0.0,0.0,0.0,0.0,0.0
6526,1724813401975129152,-1.4957845211029053,-0.3409726917743683,0.17592573165893555,-0.09175059199333191,-0.07629544287919998,0.8683376312255859,0.4814048111438751,0.0,0.0,0.0,0.0,0.0,0.0
6528,1724813401984806058,-1.495232343673706,-0.34158042073249817,0.17614659667015076,-0.09086863696575165,-0.07482299953699112,0.8680545687675476,0.4823128879070282,0.0,0.0,0.0,0.0,0.0,0.0
6530,1724813401994503012,-1.494636058807373,-0.3422008156776428,0.1764240860939026,-0.09028622508049011,-0.07446528971195221,0.8676642775535583,0.48317909240722656,0.0,0.0,0.0,0.0,0.0,0.0
6532,1724813402005158431,-1.4939775466918945,-0.34275802969932556,0.176719531416893,-0.08970189094543457,-0.07475421577692032,0.8673856854438782,0.48374316096305847,0.0,0.0,0.0,0.0,0.0,0.0
6534,1724813402016093949,-1.4931786060333252,-0.3433382213115692,0.17698776721954346,-0.08951229602098465,-0.07553689926862717,0.8670997023582458,0.48416921496391296,0.0,0.0,0.0,0.0,0.0,0.0
6536,1724813402024972906,-1.4923337697982788,-0.34391748905181885,0.17731672525405884,-0.08991843461990356,-0.07680197060108185,0.8665260672569275,0.48492133617401123,0.0,0.0,0.0,0.0,0.0,0.0
6538,1724813402034844577,-1.4916048049926758,-0.3444163203239441,0.17756573855876923,-0.08910591900348663,-0.07561183720827103,0.8660296201705933,0.48614370822906494,0.0,0.0,0.0,0.0,0.0,0.0
6540,1724813402075024945,-1.490865707397461,-0.3449282944202423,0.1778140813112259,-0.08872628957033157,-0.0754605233669281,0.8657059669494629,0.4868125915527344,0.0,0.0,0.0,0.0,0.0,0.0
6542,1724813402075314874,-1.490103006362915,-0.3454050123691559,0.1781085878610611,-0.08829554915428162,-0.07538915425539017,0.8653101921081543,0.48760494589805603,0.0,0.0,0.0,0.0,0.0,0.0
6544,1724813402075608737,-1.4893497228622437,-0.3459334671497345,0.17830191552639008,-0.0879194363951683,-0.07500263303518295,0.8650615215301514,0.4881734848022461,0.0,0.0,0.0,0.0,0.0,0.0
6546,1724813402075840432,-1.4885004758834839,-0.3464205861091614,0.17852814495563507,-0.08801039308309555,-0.07614975422620773,0.8646200299263,0.4887612462043762,0.0,0.0,0.0,0.0,0.0,0.0
6548,1724813402085983949,-1.4877662658691406,-0.34690335392951965,0.17874550819396973,-0.08684093505144119,-0.07530045509338379,0.8643540143966675,0.48957183957099915,0.0,0.0,0.0,0.0,0.0,0.0
6550,1724813402095731357,-1.4869807958602905,-0.34740662574768066,0.17903363704681396,-0.08623036742210388,-0.0751023218035698,0.864033579826355,0.49027541279792786,0.0,0.0,0.0,0.0,0.0,0.0
6552,1724813402105062051,-1.4860841035842896,-0.34788358211517334,0.17928382754325867,-0.08617082983255386,-0.07603427022695541,0.8638728857040405,0.4904252886772156,0.0,0.0,0.0,0.0,0.0,0.0
6554,1724813402115083127,-1.485252857208252,-0.3484390676021576,0.1797647327184677,-0.08548924326896667,-0.07702520489692688,0.8635072112083435,0.49103373289108276,0.0,0.0,0.0,0.0,0.0,0.0
6556,1724813402125864864,-1.4843846559524536,-0.34893256425857544,0.18013650178909302,-0.08510901778936386,-0.07765618711709976,0.8630305528640747,0.49183759093284607,0.0,0.0,0.0,0.0,0.0,0.0
6558,1724813402134662477,-1.483527421951294,-0.3494214415550232,0.1804405152797699,-0.08475431054830551,-0.07759519666433334,0.8627945184707642,0.4923223555088043,0.0,0.0,0.0,0.0,0.0,0.0
6560,1724813402151898776,-1.4827301502227783,-0.3498665690422058,0.1804897040128708,-0.08467928320169449,-0.07587633281946182,0.862514317035675,0.49309366941452026,0.0,0.0,0.0,0.0,0.0,0.0
6562,1724813402156823435,-1.4818638563156128,-0.3503030836582184,0.18070273101329803,-0.08462846279144287,-0.0759686604142189,0.8620752096176147,0.49385538697242737,0.0,0.0,0.0,0.0,0.0,0.0
6564,1724813402164778581,-1.4809666872024536,-0.35084599256515503,0.1809084266424179,-0.08472137898206711,-0.0764760747551918,0.8615833520889282,0.49461886286735535,0.0,0.0,0.0,0.0,0.0,0.0
6566,1724813402175208695,-1.4801520109176636,-0.35130438208580017,0.18114030361175537,-0.08442557603120804,-0.07672201097011566,0.8611195683479309,0.49543827772140503,0.0,0.0,0.0,0.0,0.0,0.0
6568,1724813402184779710,-1.4793148040771484,-0.3517283499240875,0.18144792318344116,-0.08421318978071213,-0.07718443870544434,0.8606265187263489,0.4962586760520935,0.0,0.0,0.0,0.0,0.0,0.0
6570,1724813402194520900,-1.4785577058792114,-0.3521590530872345,0.18165923655033112,-0.0837450698018074,-0.07719772309064865,0.8602179288864136,0.4970436692237854,0.0,0.0,0.0,0.0,0.0,0.0
6572,1724813402207492167,-1.4777686595916748,-0.35258516669273376,0.18193869292736053,-0.08294537663459778,-0.07651946693658829,0.8598071932792664,0.4979925751686096,0.0,0.0,0.0,0.0,0.0,0.0
6574,1724813402214499368,-1.4769515991210938,-0.3529934287071228,0.18212315440177917,-0.08229304105043411,-0.07632413506507874,0.8593629598617554,0.4988965392112732,0.0,0.0,0.0,0.0,0.0,0.0
6576,1724813402225302348,-1.4761669635772705,-0.35337647795677185,0.18228839337825775,-0.08199868351221085,-0.07656539976596832,0.8590444922447205,0.4994564354419708,0.0,0.0,0.0,0.0,0.0,0.0
6578,1724813402236479852,-1.4754267930984497,-0.3538263738155365,0.18244552612304688,-0.08156298100948334,-0.07614536583423615,0.8587618470191956,0.5000773668289185,0.0,0.0,0.0,0.0,0.0,0.0
6580,1724813402244619484,-1.474605917930603,-0.354245126247406,0.18268388509750366,-0.08167239278554916,-0.07697892934083939,0.8583301901817322,0.5006726980209351,0.0,0.0,0.0,0.0,0.0,0.0
6582,1724813402275587889,-1.4738105535507202,-0.3546583354473114,0.18284331262111664,-0.08135055750608444,-0.07684797048568726,0.8580130934715271,0.5012884736061096,0.0,0.0,0.0,0.0,0.0,0.0
6584,1724813402275879877,-1.4730554819107056,-0.35507556796073914,0.18305937945842743,-0.08056751638650894,-0.07588955014944077,0.8577790856361389,0.5019609332084656,0.0,0.0,0.0,0.0,0.0,0.0
6586,1724813402276186050,-1.4722967147827148,-0.35550060868263245,0.1832730770111084,-0.08096117526292801,-0.07717625051736832,0.8573949337005615,0.5023576021194458,0.0,0.0,0.0,0.0,0.0,0.0
6588,1724813402285262899,-1.4715901613235474,-0.35582491755485535,0.18347570300102234,-0.08072688430547714,-0.07794369012117386,0.8569194078445435,0.5030876994132996,0.0,0.0,0.0,0.0,0.0,0.0
6590,1724813402297257813,-1.4709596633911133,-0.35617122054100037,0.18360184133052826,-0.08039651811122894,-0.07762864977121353,0.8565577864646912,0.5038045048713684,0.0,0.0,0.0,0.0,0.0,0.0
6592,1724813402309769662,-1.4702924489974976,-0.3565559387207031,0.18378666043281555,-0.08015818148851395,-0.07727141678333282,0.8561413288116455,0.5046045780181885,0.0,0.0,0.0,0.0,0.0,0.0
6594,1724813402315064366,-1.4695546627044678,-0.35696640610694885,0.18392698466777802,-0.08009732514619827,-0.07727781683206558,0.8556817173957825,0.50539231300354,0.0,0.0,0.0,0.0,0.0,0.0
6596,1724813402325066801,-1.46891450881958,-0.35734444856643677,0.1839934140443802,-0.08005455881357193,-0.07742559164762497,0.8552985191345215,0.5060247778892517,0.0,0.0,0.0,0.0,0.0,0.0
6598,1724813402335076037,-1.4682494401931763,-0.3576662838459015,0.184035062789917,-0.07955086976289749,-0.07718402147293091,0.8549993634223938,0.5066463351249695,0.0,0.0,0.0,0.0,0.0,0.0
6600,1724813402345826277,-1.4676371812820435,-0.35800468921661377,0.18410111963748932,-0.07923448085784912,-0.07747204601764679,0.8545299172401428,0.507443368434906,0.0,0.0,0.0,0.0,0.0,0.0
6602,1724813402354322078,-1.4669296741485596,-0.3583839237689972,0.1842428743839264,-0.07960314303636551,-0.0792551189661026,0.8539535999298096,0.5080798268318176,0.0,0.0,0.0,0.0,0.0,0.0
6604,1724813402365014734,-1.4662891626358032,-0.35880985856056213,0.18437965214252472,-0.08005733788013458,-0.0794566422700882,0.8535199165344238,0.5087054371833801,0.0,0.0,0.0,0.0,0.0,0.0
6606,1724813402375824921,-1.465696930885315,-0.35925087332725525,0.1844378411769867,-0.07966673374176025,-0.07877925783395767,0.8532886505126953,0.5092598795890808,0.0,0.0,0.0,0.0,0.0,0.0
6608,1724813402384541620,-1.4651532173156738,-0.3597303628921509,0.1844794899225235,-0.07921505719423294,-0.07862400263547897,0.8531126379966736,0.5096489787101746,0.0,0.0,0.0,0.0,0.0,0.0
6610,1724813402394632626,-1.4645929336547852,-0.360246866941452,0.1845894306898117,-0.07948178797960281,-0.07964042574167252,0.852723240852356,0.5101009607315063,0.0,0.0,0.0,0.0,0.0,0.0
6612,1724813402406756839,-1.4640809297561646,-0.3606948256492615,0.18474356830120087,-0.07907989621162415,-0.07959752529859543,0.8525350093841553,0.5104848742485046,0.0,0.0,0.0,0.0,0.0,0.0
6614,1724813402414842063,-1.463579773902893,-0.3611568212509155,0.18481342494487762,-0.07866935431957245,-0.07931425422430038,0.8522779941558838,0.5110213160514832,0.0,0.0,0.0,0.0,0.0,0.0
6616,1724813402425188292,-1.4630731344223022,-0.3616082966327667,0.18485166132450104,-0.07839637249708176,-0.07921402156352997,0.8521663546562195,0.5112648010253906,0.0,0.0,0.0,0.0,0.0,0.0
6618,1724813402434688380,-1.4625170230865479,-0.36208558082580566,0.18489578366279602,-0.07911231368780136,-0.08028091490268707,0.851888120174408,0.5114517211914062,0.0,0.0,0.0,0.0,0.0,0.0
6620,1724813402444694744,-1.4620158672332764,-0.3624993562698364,0.18494436144828796,-0.07944022864103317,-0.08096858859062195,0.8515178561210632,0.511909008026123,0.0,0.0,0.0,0.0,0.0,0.0
6622,1724813402455936327,-1.461506724357605,-0.36289697885513306,0.18501417338848114,-0.07926459610462189,-0.08100391924381256,0.8513264656066895,0.512248694896698,0.0,0.0,0.0,0.0,0.0,0.0
6624,1724813402465440696,-1.4610462188720703,-0.36327460408210754,0.18505340814590454,-0.07888609170913696,-0.08073195070028305,0.8512236475944519,0.5125209093093872,0.0,0.0,0.0,0.0,0.0,0.0
6626,1724813402475013783,-1.4606255292892456,-0.36368823051452637,0.18533113598823547,-0.07766398787498474,-0.08128950744867325,0.851090133190155,0.512840986251831,0.0,0.0,0.0,0.0,0.0,0.0
6628,1724813402487498791,-1.4601677656173706,-0.3640536069869995,0.18513882160186768,-0.07802736014127731,-0.08036606013774872,0.8509377837181091,0.5131841897964478,0.0,0.0,0.0,0.0,0.0,0.0
6630,1724813402499621704,-1.4597198963165283,-0.3644631505012512,0.18525491654872894,-0.07732502371072769,-0.0798724889755249,0.8507170677185059,0.5137332081794739,0.0,0.0,0.0,0.0,0.0,0.0
6632,1724813402506516960,-1.459312081336975,-0.3649047911167145,0.18533578515052795,-0.07689788937568665,-0.0799543708562851,0.8504497408866882,0.5142267942428589,0.0,0.0,0.0,0.0,0.0,0.0
6634,1724813402519392268,-1.4588714838027954,-0.36528411507606506,0.1853628009557724,-0.07721209526062012,-0.08037503808736801,0.8503677248954773,0.5142498016357422,0.0,0.0,0.0,0.0,0.0,0.0
6636,1724813402525075172,-1.45851731300354,-0.36568039655685425,0.18539856374263763,-0.07744165509939194,-0.08100184053182602,0.850244402885437,0.514320969581604,0.0,0.0,0.0,0.0,0.0,0.0
6638,1724813402535368530,-1.4582079648971558,-0.36602190136909485,0.18543048202991486,-0.0771639347076416,-0.08065242320299149,0.8502430319786072,0.5144198536872864,0.0,0.0,0.0,0.0,0.0,0.0
6640,1724813402545395445,-1.457906723022461,-0.36635178327560425,0.1854342818260193,-0.07682907581329346,-0.08025842159986496,0.8502126932144165,0.5145816802978516,0.0,0.0,0.0,0.0,0.0,0.0
6642,1724813402554770631,-1.4575910568237305,-0.366703599691391,0.1855013519525528,-0.07669581472873688,-0.08007447421550751,0.8501313924789429,0.5147643685340881,0.0,0.0,0.0,0.0,0.0,0.0
6644,1724813402567113657,-1.457245111465454,-0.36707571148872375,0.18554635345935822,-0.07659951597452164,-0.08028604090213776,0.850017786026001,0.5149335861206055,0.0,0.0,0.0,0.0,0.0,0.0
6646,1724813402574383216,-1.4568946361541748,-0.3674287497997284,0.1856122463941574,-0.07665615528821945,-0.08017546683549881,0.8499398231506348,0.515070915222168,0.0,0.0,0.0,0.0,0.0,0.0
6648,1724813402584747674,-1.456572413444519,-0.3678024709224701,0.18565550446510315,-0.07636265456676483,-0.08011303097009659,0.8498501181602478,0.5152720808982849,0.0,0.0,0.0,0.0,0.0,0.0
6650,1724813402595327141,-1.4562746286392212,-0.3681725859642029,0.18570512533187866,-0.07631732523441315,-0.08005215972661972,0.8496508002281189,0.5156170725822449,0.0,0.0,0.0,0.0,0.0,0.0
6652,1724813402604920171,-1.4559375047683716,-0.3685377240180969,0.18570514023303986,-0.07614024728536606,-0.0800049901008606,0.8494799733161926,0.5159319043159485,0.0,0.0,0.0,0.0,0.0,0.0
6654,1724813402615213704,-1.4556206464767456,-0.36890709400177,0.1857232004404068,-0.07583300769329071,-0.08008445799350739,0.8493132591247559,0.5162391066551208,0.0,0.0,0.0,0.0,0.0,0.0
6656,1724813402625188947,-1.4553122520446777,-0.369290292263031,0.18575790524482727,-0.07570654153823853,-0.0800505205988884,0.8493320941925049,0.5162320733070374,0.0,0.0,0.0,0.0,0.0,0.0
6658,1724813402635410759,-1.4550050497055054,-0.36970075964927673,0.18579648435115814,-0.07539118081331253,-0.08036661148071289,0.84930419921875,0.5162748694419861,0.0,0.0,0.0,0.0,0.0,0.0
6660,1724813402708824695,-1.454689860343933,-0.370157390832901,0.18581677973270416,-0.07508882135152817,-0.08054143190383911,0.8492973446846008,0.5163029432296753,0.0,0.0,0.0,0.0,0.0,0.0
6662,1724813402709776558,-1.4544246196746826,-0.37064629793167114,0.18585872650146484,-0.07453817129135132,-0.08052559942007065,0.8492408394813538,0.5164781808853149,0.0,0.0,0.0,0.0,0.0,0.0
6664,1724813402710141169,-1.454142451286316,-0.3711153268814087,0.1858532875776291,-0.07405126094818115,-0.08056537061929703,0.8492388129234314,0.5165453553199768,0.0,0.0,0.0,0.0,0.0,0.0
