seq,stamp,px,py,pz,ox,oy,oz,ow,lx,ly,lz,ax,ay,az,timestamp,lyap_z,wx,wy,wz,aa_x,aa_y,aa_z,roll,pitch,yaw,vx,vy,vz,jx,jy,jz,forward_velocity,forward_velocity_1,deviation
7224,1724820332205925573,-1.29210364818573,0.2867651283740997,0.1686268895864486,-0.013821979984641,-0.0007356381393037,0.2522087097167969,-0.967573881149292,0.0,0.0,0.0,0.6762980898394775,-0.34457341802931724,0.7011613979094834,0.0,0.1686268895864486,0.0,0.0,0.0,-3.180878146532253,3.5105421099789655,-11.327134479884648,0.026380494311941335,0.008395714606991277,-0.5098633513998602,0.04016109646618235,-0.04217865224468108,0.016542839624260668,-19.19304334555022,15.560013249781361,-27.346827875248845,0.0,0.0,0.1272063806642657
7226,1724820332216590595,-1.291675329208374,0.2863152921199798,0.1688033193349838,-0.013696820475161,-0.0009833420626819,0.2528290450572967,-0.9674134850502014,0.0,0.0,0.0,0.4716038603122308,-0.17862553440010753,0.4095068769897412,0.010665022,0.1688033193349838,-0.0339241354120857,0.03744000883485209,-0.12080413842492833,-6.962006385066212,-2.108419613637445,-8.954562922735494,0.02600768808222971,0.008828619515798658,-0.511140833594426,0.04737383047287835,-0.04585353532857894,0.024020741358516062,-36.681449104658334,20.85186740738309,-52.242771470516196,0.05551240929180637,0.014309413108189905,0.1272063806642657
7228,1724820332225722258,-1.2911863327026367,0.285867840051651,0.1690811365842819,-0.0131050245836377,-0.001027803402394,0.2536427974700928,-0.9672086238861084,0.0,0.0,0.0,-9.64543135726359e-05,0.05316244008166393,-0.2622119649421367,0.019796685,0.1690811365842819,-0.1270625734557435,-0.025746693155763178,-0.1840236169247161,-3.4546844163982016,-9.645816660788888,4.7722720040013655,0.024832673854028278,0.008636298178439406,-0.5128267932738495,0.05007990252357075,-0.0461871764991475,0.02547984285905791,-23.977347964399307,8.287558944111492,-55.34855494834268,0.07043712479367571,0.022474240126264585,0.1272063806642657
7230,1724820332235870413,-1.2907172441482544,0.2854308485984802,0.1692839562892913,-0.0124839833006262,-0.0003811489441432,0.2536706626415252,-0.967210054397583,0.0,0.0,0.0,0.06872593246541125,-0.05553178768792044,-0.6185204488703157,0.02994484,0.1692839562892913,-0.08605452831589827,-0.15438058663929283,-0.0036957419263913905,5.667576086614825,-3.700551712775042,5.718430182767577,0.023958786707306817,0.007071001738313787,-0.512902555262059,0.046735779394161625,-0.04463606662368491,0.018059680277199064,8.492452528871775,4.004571586122413,1.9887963560810586,0.06126371902488324,0.0190324711156113,0.1272063806642657
7232,1724820332245978304,-1.290239691734314,0.2849638164043426,0.1694471091032028,-0.0122932502999901,9.452054655412212e-05,0.2540055811405182,-0.96712464094162,0.0,0.0,0.0,0.17178956968111603,0.13309658270543423,-0.2249084332794341,0.040052731,0.1694471091032028,-0.012390621748286163,-0.10142654730478122,-0.06722230687008707,8.189920280522283,0.7077896468985516,7.843134058852228,0.0238289209068449,0.00606231920718303,-0.5136063214314065,0.05144001102873119,-0.04729528394792126,0.012942009669988153,-23.58718743978841,43.65979496336645,43.91334211756511,0.06375215147352173,0.01834456496548134,0.1272063806642657
7234,1724820332255433056,-1.2897162437438965,0.284507006406784,0.1695411801338195,-0.0124651649966835,0.0008061985136009,0.2534103393554687,-0.9672783017158508,0.0,0.0,0.0,-0.3499968885122666,0.7669694881172071,0.23425525516332613,0.049507483,0.1695411801338195,0.07302156357707894,-0.13480671424337387,0.13187787005037352,1.8831709935920296,3.944400497953281,2.580279050065169,0.024525901648233154,0.004757984677887005,-0.5123906591566599,0.050467585208174626,-0.04253314649406015,0.013304171368941908,11.352694288170223,-2.4443916230984284,55.29851811177315,0.07189248145509554,0.02448950075711672,0.1272063806642657
7236,1724820332266292136,-1.2892292737960815,0.2841172516345978,0.1697274893522262,-0.0124897202476859,0.0008007432334125,0.2537807822227478,-0.9671808481216432,0.0,0.0,0.0,0.6031749652799201,-0.12621806628097665,0.9187350570356279,0.060366563,0.1697274893522262,0.004288661972529771,0.0012529846433072334,-0.07055936475255163,-2.8412921133623703,7.670546392028729,-11.592520088460404,0.024568816461233142,0.004790393230693245,-0.5131562978338156,0.04358453230837256,-0.03092077606359389,0.018291861901063022,35.35190343689444,-62.341730668691525,6.446256100262119,0.05660612454828855,0.02131387422162079,0.1272063806642657
7238,1724820332280730625,-1.2886241674423218,0.2837662398815155,0.1700133830308914,-0.0127356927841901,0.0007161586545407,0.254495233297348,-0.9669899940490724,0.0,0.0,0.0,0.10716875990174302,-0.644094470533533,-0.07452818940641137,0.074805052,0.1700133830308914,0.030231086922135147,0.018721566819213966,-0.10259964054026344,-0.9401603812831572,32.796945630557786,-11.995196324225844,0.02499802109704874,0.0050973317802358925,-0.5146305808817854,0.07604161471783755,-0.05569577481778509,0.04037692642142332,-219.22909516769755,150.46332570985385,-133.3232063687465,0.04834550220796499,0.024359615126697935,0.1272063806642657
7240,1724820332285806810,-1.288177251815796,0.2834275066852569,0.1702550649642944,-0.0129425544291734,0.0001306949416175,0.2549313604831695,-0.96687251329422,0.0,0.0,0.0,-1.3356177707586445,0.45222105808128044,-0.8664657645112681,0.079881237,0.1702550649642944,0.020574222250414675,0.24157682911992626,-0.18093641137102034,-4.575104491835896,19.600211073866067,-5.818940508775963,0.025097376710413864,0.006346237922916987,-0.5155179626145615,0.07276506720381093,-0.05705251997495431,0.037135805606552275,-184.1594607914841,153.51016961800207,-96.37273537181738,0.10919203534654712,0.043376015288098375,0.1272063806642657
7242,1724820332296308114,-1.2877449989318848,0.2830386161804199,0.1704174727201461,-0.0124005367979407,0.000422831508331,0.2551054060459137,-0.9668337106704712,0.0,0.0,0.0,-1.0956287056206357,0.7073211025930157,-0.582909336083792,0.090382541,0.1704174727201461,-0.08553370491233904,-0.08054119261666198,-0.033199694811743834,2.710956201484086,-3.725196646570155,1.753232878834666,0.024196975527437003,0.00550930030770533,-0.5158874273855248,0.043746346064565955,-0.0366729113114701,0.02308425197958819,70.27779454185848,-40.23407670609612,37.985333523262554,0.05398724682148455,0.01742641653522554,0.1272063806642657
7244,1724820332306246456,-1.2872859239578247,0.2826775312423706,0.1707185506820678,-0.0128706861287355,-0.0001596972142579,0.2557290494441986,-0.9666628241539,0.0,0.0,0.0,0.04887031157294164,-0.2994448991731087,-0.10209389646935141,0.100320883,0.1707185506820678,0.061943005022443855,0.13590602401378368,-0.13160665992528547,3.850121009442589,-6.059480062798642,2.516690605535055,0.024804681676093582,0.006891617931158028,-0.5171618715489649,0.04854341418830188,-0.04124368751656249,0.024393874435631346,24.593681573319707,-22.807199924823365,16.750490418409917,0.05790473976290577,0.021997310811554517,0.1272063806642657
7246,1724820332315321728,-1.2868258953094482,0.2822625339031219,0.1708910316228866,-0.0127223758026957,0.0005037310766056,0.2557634115219116,-0.9666555523872375,0.0,0.0,0.0,-0.4784719134565809,0.14406538124685286,-0.21219593924747893,0.109396155,0.1708910316228866,0.0058159992847580605,-0.14978720774577794,-0.005853500040000264,-6.205411506350072,-12.591193080962594,6.690454719217545,0.024856922589940926,0.0055339958381961695,-0.5172487046684655,0.04539185389271694,-0.0426314047678904,0.02152923933701434,-12.212718793694098,25.95814881572614,2.3191125077227,0.06656523234694818,0.021305584041217764,0.1272063806642657
7248,1724820332325681129,-1.286418318748474,0.2818575203418731,0.1711439043283462,-0.0123531287536025,0.0007092177402228,0.2558738887310028,-0.9666310548782348,0.0,0.0,0.0,-0.06227085169049573,0.14203605353938942,-0.017282478870284335,0.119755556,0.1711439043283462,-0.05871434543122056,-0.05685513709254922,-0.021286692982740458,-1.891428456965025,6.53405054204339,3.2232966810698294,0.024247449394550275,0.004950602621539714,-0.5174836942826193,0.038883666257248706,-0.03762714850126336,0.020554417909044886,33.2317841991651,-12.137539153302738,8.100290838081085,0.05341145670117246,0.014664951318935459,0.1272063806642657
7250,1724820332335713912,-1.2860326766967771,0.2814942896366119,0.1713126599788665,-0.0121613517403602,0.0007397416047751,0.2555992603302002,-0.9667060375213624,0.0,0.0,0.0,0.20366155567950361,-0.09576780991324285,-0.04012433991055486,0.129788339,0.1713126599788665,-0.03554324968470473,-0.014976970302945715,0.05684634425773802,-0.6047701023993817,2.443991743086503,-2.167419951457809,0.023893606246803263,0.004786657946524691,-0.5169170654018108,0.04375813220892155,-0.039515719384350945,0.021127422819882113,12.705693044865379,-17.88367207747262,4.21152287877305,0.051227313678556895,0.015396331345655821,0.1272063806642657
7252,1724820332345362935,-1.2855610847473145,0.281082272529602,0.1715564876794815,-0.0118332458660006,0.000686801795382,0.2558631896972656,-0.966640293598175,0.0,0.0,0.0,0.1981898298125757,-0.2143276996889696,0.06072328072032551,0.139437362,0.1715564876794815,-0.06842330262274525,-0.007450444840581959,-0.05645075503215468,-0.5272594475007586,-0.0345599186492771,-5.342252905230469,0.023230788132725954,0.004727621095915214,-0.5174632770556867,0.04310453937818437,-0.03958164879415271,0.01983790287951237,2.57522851877132,6.1475374902963615,22.748662069126365,0.06347849905477655,0.021167435473698506,0.1272063806642657
7254,1724820332357626849,-1.2851223945617676,0.2806454598903656,0.17171511054039,-0.0116232875734567,0.0007600699900649,0.2559964954853058,-0.9666075706481934,0.0,0.0,0.0,0.2787526947510388,0.14841624265000242,0.5313908327371444,0.151701276,0.17171511054039,-0.029992357659234636,-0.02057165469350139,-0.022214791159492295,9.603551944638417,9.118688545053255,-0.7481970809894434,0.022861687025890205,0.004481677959135742,-0.5177415376478425,0.049680236537682276,-0.0454444606920994,0.023612273930943672,-68.24454159938685,69.57409813502973,-17.57553487628767,0.04865208856172316,0.013359924204144915,0.1272063806642657
7256,1724820332365337404,-1.2846719026565552,0.2802474200725555,0.1719489395618438,-0.0120023125782608,0.0004630689800251,0.256160020828247,-0.9665597677230836,0.0,0.0,0.0,-0.6101300657169793,0.8787623672475045,0.12462251720042461,0.159411831,0.1719489395618438,0.0754209153095838,0.09913046779911794,-0.04514394345486457,8.793037286812458,17.645177405343247,-4.830850773929019,0.023441614775489852,0.0052538817592123815,-0.5180718045418055,0.050581613099090816,-0.04126310470650729,0.028793692038149743,-82.22365661115518,38.65119261469273,-73.47663438767327,0.07616201851384358,0.024981828888139147,0.1272063806642657
7258,1724820332375905172,-1.2842509746551514,0.2799614071846008,0.1722310334444046,-0.0129296472296118,-0.0010280045680701,0.2567679584026336,-0.9663861393928528,0.0,0.0,0.0,-1.0002521631373693,0.4751284126925823,-0.9519921807791774,0.169979599,0.1722310334444046,0.09768824571740346,0.31631669189181977,-0.12309323749160758,-11.469721802978608,-5.395708628412202,-2.5736042889172848,0.024465497371755213,0.008626843980385691,-0.5192923058187169,0.03360375745226207,-0.027103165900157933,0.022182738040569916,26.47080961920018,-74.79316194135951,-34.44085544979549,0.04777956132187475,0.021022679032256596,0.1272063806642657
7260,1724820332386729156,-1.2839562892913818,0.2796676158905029,0.1724211275577545,-0.0119621446356177,-0.0011251759715378,0.2572799026966095,-0.9662622809410096,0.0,0.0,0.0,-0.010997768124387353,-0.7401759156531456,-0.5771522637945552,0.180803583,0.1724211275577545,-0.17697806507927355,-0.029750690766101224,-0.09770704404295859,-6.440334712808926,-29.52404276456009,8.993976913456995,0.022540858669545215,0.008329765343672853,-0.5203571572987438,0.029498929810365837,-0.03154779325287471,0.00825961820483112,56.00104280796161,-37.26454973410527,63.614170725860504,0.036969201810709916,0.01005497058087308,0.1272063806642657
7262,1724820332398862937,-1.2835674285888672,0.2792249023914337,0.1723948121070861,-0.0114234667271375,0.0009652765584178,0.2567079067230224,-0.966421127319336,0.0,0.0,0.0,0.18707991592069506,-0.1719858539944874,0.5889662896719413,0.192937364,0.1723948121070861,0.0024367572614944224,-0.3546879346567106,0.10185881926912424,-30.291711942251382,7.5162602079014835,-15.798096321379631,0.02257744603101513,0.003999271803398638,-0.5192186315869997,0.03437426826620538,-0.04501146561518965,0.010902747720525241,1.5817743624794023,96.53691772874296,20.805022866814745,0.04593685279028214,0.009737969419574912,0.1272063806642657
7264,1724820332405858827,-1.2833175659179688,0.2788756191730499,0.1725238114595413,-0.0099540567025542,0.0011619820725172,0.2571844160556793,-0.966310441493988,0.0,0.0,0.0,0.13868006737711802,0.7038838275714367,0.4307875678834777,0.199933254,0.1725238114595413,-0.3913064897053682,-0.16377037579316128,-0.13872635705440958,-15.834675168736144,20.111820042162048,-13.51191989769187,0.019836488027102195,0.002874389659947115,-0.5202132064488906,0.034816974806005874,-0.04243271612230082,0.016520086661409472,-2.8124684140666876,70.41500133444913,-39.20419578875437,0.0557546291031908,0.006040465876077166,0.1272063806642657
7266,1724820332415199217,-1.283003568649292,0.2785727381706238,0.1726541817188263,-0.0097184162586927,0.0014152576914057,0.2572082877159118,-0.9663061499595642,0.0,0.0,0.0,0.16361298918075606,0.6784141401207409,-0.14233140571842562,0.209273644,0.1726541817188263,-0.03480546303974502,-0.06543378415827014,-0.004577158013766878,20.902704435119738,9.562560907301796,1.319372665914491,0.019511250749753305,0.0022641719229879557,-0.5202679755482492,0.03705257234729231,-0.03167709392278795,0.01590274443571893,-0.18596768407157782,-29.778971887874608,-43.61211726571597,0.045257291554529455,0.012943041512859665,0.1272063806642657
7268,1724820332425392904,-1.282587647438049,0.2782581746578216,0.1728379279375076,-0.0096793472766876,0.0012854995438829,0.2578781843185425,-0.9661280512809752,0.0,0.0,0.0,0.12995188138619262,0.07390327256193618,-0.38946435533369933,0.219467331,0.1728379279375076,-0.013801622072834948,0.021302368894582605,-0.1362292984151189,0.4774286095945881,-0.16007762593274588,-2.1785833332977216,0.01936725406412027,0.0025082732937988534,-0.5216520667900331,0.03787785198336735,-0.030024797407714132,0.013603724464750222,-3.090061475374071,-28.636541612759473,-8.072055040832302,0.05070698310519998,0.019864516588253323,0.1272063806642657
7270,1724820332436008999,-1.2822178602218628,0.277948647737503,0.1729334592819214,-0.009440722875297,0.001638478715904,0.2580907642841339,-0.966073215007782,0.0,0.0,0.0,0.09949237370404385,0.10893779417508198,-0.2963639593486722,0.230083426,0.1729334592819214,-0.02623537035750591,-0.07624031892846242,-0.04065472038777468,6.076249045000613,-0.6000078683850504,10.82084876720511,0.019087798333563742,0.0017073467924650918,-0.5220992431613379,0.039799089446916014,-0.030215228246461834,0.007656715452485585,-11.335395996807378,14.215168904906395,22.56594934523517,0.04471696458973772,0.015581212714845957,0.1272063806642657
7272,1724820332445158100,-1.2818145751953125,0.2776638567447662,0.172992929816246,-0.0098059130832552,0.0018056763801723,0.2577694654464721,-0.9661549925804138,0.0,0.0,0.0,-0.07097092395269389,0.3250569588290787,0.01887488168521756,0.239232527,0.172992929816246,0.08650184387633063,-0.0140135475784428,0.07268131540592035,3.6011618361416913,4.218356180964855,3.229888445883959,0.01988029412584359,0.001566204088309645,-0.5214368339967453,0.0400668866619327,-0.028218152456849666,0.007025457983441008,-5.917851250109413,10.58053454401454,17.870347556233195,0.05371657890502517,0.02266233829666006,0.1272063806642657
7274,1724820332456083623,-1.2814291715621948,0.2773935198783874,0.1730765402317047,-0.0098674092441797,0.001830632216297,0.2578302025794983,-0.9661381840705872,0.0,0.0,0.0,0.030249268184555866,0.2705059221200572,-0.0022692505326052936,0.25015805,0.1730765402317047,0.012064013158780883,-0.0016265229433758248,-0.011510759220683434,-1.7027879868921376,3.8674977959875143,-6.094319049681996,0.020011906003404707,0.0015509455001969702,-0.5215629932071988,0.037983658437909185,-0.023273645286177924,0.008378123846918939,-0.7843041759858553,-12.04446218064812,-11.268705954795076,0.04290158410886053,0.01819295195184061,0.1272063806642657
7276,1724820332465542730,-1.2810477018356323,0.2771854102611542,0.1731617301702499,-0.0101105840876698,0.001612095744349,0.2580828666687011,-0.9660685658454896,0.0,0.0,0.0,-0.05946486749934632,0.09882795449605175,-0.18529721330685575,0.259617157,0.1731617301702499,0.03780898458260589,0.057344454182651265,-0.05595869840748441,7.751917294708796,2.6218565807033904,-0.37334006741334175,0.020368596989871156,0.0021039485548064426,-0.5220812254372279,0.04007905461170935,-0.022205874277959836,0.007324148532040553,-12.110025174594282,-13.34151385338456,-6.797652118942578,0.045908406585044526,0.02391066016639511,0.1272063806642657
7278,1724820332475304751,-1.2806589603424072,0.2769665718078613,0.1732162833213806,-0.0109434220939874,0.0015986210200935,0.2581547498703003,-0.966040313243866,0.0,0.0,0.0,-0.20413521078377284,0.01702642235984997,-0.12520184037494936,0.269379178,0.1732162833213806,0.16416084140414225,0.0465449522439386,-0.016024236340724776,-0.3179775828344751,-5.755935893956366,6.036984832468118,0.02197079667439872,0.0025615308859993197,-0.5222280079960864,0.036667721486622895,-0.02138271171318884,0.004771031578659546,1.7664890785065095,-4.083864080423225,17.989017730427527,0.045681551288877006,0.023284586992243107,0.1272063806642657
7280,1724820332485522811,-1.280318021774292,0.2767591476440429,0.1732562929391861,-0.0109552657231688,0.0019335004035383,0.2578299343585968,-0.9661263227462769,0.0,0.0,0.0,-0.008689008248294217,0.02124155401712291,0.18516951006429222,0.279597238,0.1732562929391861,0.019078013894994004,-0.061999519577555555,0.06647728301123822,-6.72230633316609,0.549487749814882,-0.3075007860431386,0.022167225704005256,0.001913180781896586,-0.5215628962673139,0.03613605030692213,-0.021928498372718153,0.004949857207110497,5.8413250157705665,8.247101531589633,16.213854137936643,0.03903644928850994,0.018780813132195186,0.1272063806642657
7282,1724820332495334118,-1.2799373865127563,0.2765286564826965,0.1733146011829376,-0.0111285811290144,0.0017319191247224,0.2579005360603332,-0.966105818748474,0.0,0.0,0.0,-0.07654389100379677,0.175964020165303,0.21084210501739556,0.289408545,0.1733146011829376,0.023556291973206744,0.048643014525658265,-0.015500521748467524,-2.8234438433546796,4.437290328581101,-8.34000788640913,0.022398036568420588,0.002393702075444172,-0.5217042466583651,0.03645912776891436,-0.021016780708947636,0.008346175106257903,-13.211811697400218,3.2532786048572904,-22.744390539996722,0.04532791956054999,0.021874751573619337,0.1272063806642657
7284,1724820332505894422,-1.2795789241790771,0.2763348519802093,0.1734300553798675,-0.0109315980225801,0.0015759632224217,0.2584273219108581,-0.9659676551818848,0.0,0.0,0.0,-0.2876259888712023,0.06805071093334547,-0.3176111354476048,0.299968849,0.1734300553798675,-0.04354087195894115,0.017758236645107926,-0.10339811096647718,-0.5337616384045241,-1.966148423209408,-2.3472594613749926,0.021935517636722458,0.0026053911527239007,-0.5227918357985338,0.03440647854968404,-0.018214688108299626,0.009034602189036178,-6.218463435444516,-14.219089972489058,-32.93946949731526,0.038544971113466595,0.020153209699988683,0.1272063806642657
7286,1724820332515248773,-1.2792532444000244,0.2761656045913696,0.1734988391399383,-0.0109395924955606,0.0015386939048767,0.258769541978836,-0.9658759236335754,0.0,0.0,0.0,-0.2316975779477104,-0.09810676147660735,-0.48402928726984534,0.3093232,0.1734988391399383,-0.00030906717787546176,0.007308121697966178,-0.07583625356339585,-2.398607749373008,-4.709537791993264,4.002807345600853,0.021930749462598296,0.0026892951275324503,-0.5234994888210516,0.03094322802524374,-0.019212896308287597,0.0028916216269632145,6.2530697677363865,0.3219921669784025,8.293905553633708,0.03917812837619393,0.02104590548511006,0.1272063806642657
7288,1724820332526749990,-1.2789521217346191,0.275928795337677,0.1734690070152282,-0.0100880656391382,0.0018909452483057,0.258859246969223,-0.9658605456352234,0.0,0.0,0.0,-0.15590220507219477,0.16132692846003294,-0.01978560657918714,0.320824417,0.1734690070152282,-0.12716691974976377,-0.09765667483306217,-0.014860953010065672,0.41884244148424,2.8988338986429674,1.491621015683472,0.020467760775447433,0.0015699999758391208,-0.5236941935609933,0.03023736657111442,-0.020219578628587698,-0.00023363535010112457,417.8952770931744,-323.5448104354055,129.58325461311938,0.03297356048753933,0.01240077344220424,0.1272063806642657
7290,1724820332535604975,-1.2786567211151123,0.2757522761821747,0.1734830290079116,-0.0099055869504809,0.0017949275206774,0.258977323770523,-0.9658309817314148,0.0,0.0,0.0,6.348669896642379,-5.063243530808169,1.7359287702757262,0.329679402,0.1734830290079116,-0.0454047243732379,0.009995808828261505,-0.027627870524331508,7.253465267220505,9.257788130814754,-0.9432748919691354,0.020065310759328395,0.0016634523459074465,-0.5239370112079949,0.028212390440623736,-0.017094434136256442,0.0013088394053317742,11.651376070762467,-1664.8638820255744,4303.366725759517,0.03885516988371202,0.018899518547162653,0.1272063806642657
7292,1724820332565989094,-1.2783361673355105,0.2755289673805237,0.1734941601753235,-0.0094010299071669,0.001832062494941,0.2590431272983551,-0.9658182859420776,0.0,0.0,0.0,-68.66627941375282,-167.70928979095834,560.4748143829155,0.360063521,0.1734941601753235,-0.031443535456681534,-0.011006378167810483,-0.004316038940861325,-6191.052502697653,-684.5515475612567,-2369.029841069304,0.01910971958543774,0.0013316658503317311,-0.5240746538305462,0.9068464975380266,-0.735610413571635,0.21687550237811593,-108820.50505530127,89367.68810432509,-28990.05886025983,0.012811385557755739,0.005453724843877636,0.1272063806642657
7294,1724820332566292778,-1.2780580520629885,0.2753033638000488,0.1735606789588928,-0.0091094505041837,0.0017874964978545,0.2591511607170105,-0.965792179107666,0.0,0.0,0.0,-102.03613143183156,-140.28225005090098,551.5271886319181,0.360367205,0.1735606789588928,-1.9303600275622979,-0.2209694303230282,-0.7309454685990232,-6540.082436266861,5111.039156944851,-9337.94949113585,0.018523209827312162,0.0012687494080758793,-0.5242978515076696,0.8856974539939984,-0.7869783070528911,0.3887623933222244,-105725.35048872096,95256.43418533687,-49830.45513024216,1.1644053924210225,0.4191532323927771,0.1272063806642657
7296,1724820332566567736,-1.2778220176696775,0.2750760018825531,0.173709824681282,-0.0086997812613844,0.0012967603979632,0.2598162293434143,-0.9656180739402772,0.0,0.0,0.0,-130.07100139099342,-112.86041697506748,532.7555947085398,0.360642163,0.173709824681282,-3.800093003620815,2.6288611743484664,-5.02750011305055,-6727.506072091849,10255.271504745993,-15460.950396369692,0.01747609592835135,0.002016339537484108,-0.5256670065490945,0.8495772124947522,-0.8183636386166314,0.5368047785448636,-100877.64034720989,98764.57899937077,-67796.00722917577,1.1563723704729356,0.32383719249420395,0.1272063806642657
7298,1724820332592609719,-1.2775524854660034,0.2748115062713623,0.1738123744726181,-0.0084902206435799,0.0008455492788925,0.2600553035736084,-0.965556025505066,0.0,0.0,0.0,-86.11487199774069,75.51316175206284,-61.78689631286852,0.386684146,0.1738123744726181,-0.024526373887336358,0.029113758866917683,-0.019248094608655016,2600.201159217963,12271.955911986654,-4237.547654411713,0.01683620712683844,0.0027830070040101218,-0.5261551320014672,0.657365677177495,-0.5867956459275092,0.44403669188994854,-7766.505648783903,6992.269049703347,-5831.834702158929,0.01403973657504601,0.003825762614647537,0.1272063806642657
7300,1724820332593022545,-1.277276873588562,0.2745654881000519,0.1739985644817352,-0.0089806364849209,-0.0001320810260949,0.2604041397571563,-0.9654579162597656,0.0,0.0,0.0,-89.38295944070089,78.39817381634083,-64.08318801384986,0.387096972,0.1739985644817352,1.064971856520761,5.176260312217915,-1.7976080783048087,2420.794696916991,11436.608481311738,-3951.3579846877824,0.017273133300167463,0.004932247178940208,-0.5268606739862722,0.6212999636189451,-0.5551858643986876,0.41814841786730605,-7039.642792212411,6226.380478907514,-4934.94891611851,0.8745010709182333,0.27543513473918263,0.1272063806642657
7302,1724820332598022418,-1.2769755125045776,0.2742573022842407,0.1740991175174713,-0.0087876636534929,8.2896847743541e-05,0.2603370249271393,-0.9654778242111206,0.0,0.0,0.0,-71.4893550761337,63.38233374405196,-50.763634680355345,0.392096845,0.1740991175174713,-0.0522067940891279,-0.10288377718955553,0.028755053167520875,-135.49282732041436,-650.487665724442,227.42357077920755,0.017012737502704125,0.004415452634261391,-0.5267257662356227,0.052076993980278985,-0.05245487654433134,0.014580526326764875,5422.012211923431,-4682.674788439078,3929.5579606733263,0.08300062900071628,0.02102270552365405,0.1272063806642657
7304,1724820332606382621,-1.2766547203063965,0.273947149515152,0.1741437017917633,-0.0091037554666399,-0.0003751990443561,0.2603204548358917,-0.9654792547225952,0.0,0.0,0.0,-0.39421836557064127,0.757540500197905,-0.22025313216456333,0.400457048,0.1741437017917633,0.04447478538073536,0.12552746826755645,0.0029469799023702477,3.5716200594829117,11.355064288231844,-7.05078431408629,0.017384765330405928,0.005464308507803834,-0.5266830457937479,0.04653382808125173,-0.042113340607638605,0.00888377616021252,4352.9880824003785,-3847.918766470335,3085.5786005999357,0.05178967064367493,0.014500726493664354,0.1272063806642657
7306,1724820332614996184,-1.27618145942688,0.2735399007797241,0.1742517352104187,-0.0092130396515131,-0.0007134907646104,0.2607038021087646,-0.9653747081756592,0.0,0.0,0.0,0.26197480854901767,-0.05743608583496518,0.08756705598617343,0.409070611,0.1742517352104187,0.004305525276625454,0.0816414467731811,-0.09296226561273617,-4.8645762408457225,-4.722374579334318,-5.5061063987724115,0.017417264758099668,0.006181360173676793,-0.5274715583824806,0.04552390609433843,-0.039843192296658,0.01107922095369851,56.67928009463204,-68.0738627766285,16.604279912240973,0.07119535284541219,0.02363284373126622,0.1272063806642657
7308,1724820332629090484,-1.275757074356079,0.2731498479843139,0.1743741482496261,-0.0087876301258802,-0.0010037848260253,0.2609791457653045,-0.9653039574623108,0.0,0.0,0.0,0.6110645250781568,-0.40477607295868623,-0.11964610478199555,0.423164911,0.1743741482496261,-0.0688948125015047,0.02367629353608501,-0.0407587178530643,17.110683364562007,-3.112317431659708,14.326491719226606,0.01644262533825476,0.006524737632421653,-0.5280402464810422,0.057962036644397585,-0.04805553512919403,0.008454728881890361,-92.31101901157169,49.478008243256596,-33.00174933881533,0.03989529585763943,0.012041447059318608,0.1272063806642657
7310,1724820332635773811,-1.2752814292907717,0.2727640867233276,0.1744299232959747,-0.0091678565368056,-0.000919391401112,0.2606933414936065,-0.965377688407898,0.0,0.0,0.0,-0.376920888263105,0.16080493202370194,-0.3982023979071256,0.429848238,0.1744299232959747,0.11614699591094846,0.006045907701898046,0.08865450319293225,10.437235335423063,-2.855461862719125,4.462772049413654,0.01722275131403445,0.006555165146937469,-0.5274470900853621,0.061185782758713,-0.05019701076286509,0.007866043684440882,-96.78498287390767,63.75367420994829,-9.655370603453825,0.0904921564095937,0.03241684022100051,0.1272063806642657
7312,1724820332645401233,-1.2748308181762695,0.2723851501941681,0.1744990050792694,-0.0090318154543638,-0.0008373881573788,0.261042982339859,-0.9652845859527588,0.0,0.0,0.0,-0.6008189480811184,0.48512668177294405,-0.04703729713140903,0.43947566,0.1744990050792694,-0.022597600756378955,-0.024461162242693648,-0.07503149713121264,-6.563798765539732,-6.652058896112682,-2.8028190434991207,0.017000515574828977,0.0063320621597873555,-0.528173414537081,0.04564017799803821,-0.041975031123495654,-0.0002684928436647027,38.5844043454523,6.408053148182147,57.61594687841476,0.060215951145074616,0.020567174275216264,0.1272063806642657
7314,1724820332656291346,-1.2743481397628784,0.2718958258628845,0.1744043827056884,-0.0088470242917537,-9.543992200633512e-05,0.2606852352619171,-0.9653833508491516,0.0,0.0,0.0,0.58114871934891,0.21887420555160908,0.8408235433822749,0.450365773,0.1744043827056884,0.002591840825087693,-0.13981144738258874,0.06935759449313462,1.088454320582841,17.502051495028837,-12.570413512859474,0.017032799876493306,0.004796867837069791,-0.5274441281210095,0.05158686154366876,-0.04123608697338099,0.009048087306760877,37.744578592182016,-6.3125453224727615,8.13551584168434,0.06095591385944982,0.015721247062784858,0.1272063806642657
7316,1724820332665287743,-1.2738300561904907,0.2715523242950439,0.1746176034212112,-0.0091266958042979,-0.001084282528609,0.2616994380950928,-0.9651057124137878,0.0,0.0,0.0,0.39459425183547303,0.296873975682191,0.36855402529977777,0.45936217,0.1746176034212112,0.0032827861640681187,0.2264400389971405,-0.23569266520950496,-2.3570820900727787,14.180853569731834,-11.091801044262521,0.017050168666258216,0.006869850888565491,-0.5295295363292412,0.05707586557342381,-0.03814463217304187,0.01650333411847882,-31.496679582942587,-9.920024282421036,-70.45441229690093,0.06882332471835265,0.03034825569107035,0.1272063806642657
7318,1724820332676221788,-1.2732127904891968,0.2711357474327087,0.1747024059295654,-0.0088784582912921,-0.0013180879177525,0.2619813084602356,-0.9650312066078186,0.0,0.0,0.0,-0.09278314395771714,-0.05863679337117533,-0.6404553562826405,0.470296215,0.1747024059295654,-0.054833606750430204,0.028935593232434522,-0.05376525473946978,2.240397527294179,11.729743297252705,2.813311902304494,0.01644651706450844,0.0071960342929971105,-0.5301119887034532,0.05852606929022386,-0.035519974541443844,0.014418328822465298,-42.22334715950072,-27.35290227334372,-68.7943707576955,0.06791178627524744,0.029422406924385,0.1272063806642657
7320,1724820332685351914,-1.27266263961792,0.2708311080932617,0.1748848408460617,-0.0094142854213714,-0.0028956234455108,0.2625543773174286,-0.9648669958114624,0.0,0.0,0.0,-0.46036438462703133,-0.2690240953143368,-1.0894954451884253,0.479426341,0.1748848408460617,0.02322385781141182,0.3631661124470756,-0.13348102887936003,-8.11562543471244,-12.90790991812462,5.996490803513173,0.016648241598776765,0.010531501361283807,-0.5312757695462896,0.055960423186142805,-0.038332428725430745,0.005141954799324111,-20.194123487641875,0.31179198810104247,3.8906787281613653,0.06864125044976518,0.03505372041375376,0.1272063806642657
7322,1724820332695417082,-1.2721470594406128,0.2703901827335357,0.1747719347476959,-0.0078160297125577,-0.0016776447882875,0.2621268033981323,-0.965000331401825,0.0,0.0,0.0,-0.44096838270340033,-0.006739580545619628,-0.4614395310636661,0.489491509,0.1747719347476959,-0.24337634677102504,-0.31617499620984246,0.09029124161951185,-5.983588938060048,-25.131838357895678,9.068346494429486,0.014206291241841492,0.007335503107557256,-0.5304160748338221,0.049336654503704835,-0.040607269760572606,-0.006639301417411758,6.426196575595251,28.60618225005556,59.229648920050174,0.06642797471980923,0.02203092632802784,0.1272063806642657
7324,1724820332706158498,-1.2716387510299685,0.2699906826019287,0.1747530996799469,-0.007298519834876,-0.0012573443818837,0.2619396150112152,-0.9650559425354004,0.0,0.0,0.0,-0.32036767798306487,0.32973413736221446,0.13844075607771916,0.500232925,0.1747530996799469,-0.07261126379671133,-0.10052184314732282,0.03679792437096283,5.857742553386592,10.345123883265831,-2.2697428927742633,0.013428929194886365,0.006250398984316833,-0.5300358510298694,0.04708889607734079,-0.038166129723290254,-0.003467811106933283,40.27542041136887,8.588571035704593,22.165434566274193,0.059642144532388766,0.0220266029795524,0.1272063806642657
7326,1724820332716002962,-1.2711772918701172,0.2696061730384826,0.1747034937143325,-0.006685959175229,-0.0009811969939619,0.2617571651935577,-0.9651101231575012,0.0,0.0,0.0,0.3382033057667062,0.2091475617415517,0.05275492812273892,0.510077389,0.1747034937143325,-0.10553062205833288,-0.08648273611976799,0.038907471147883226,3.241443286576276,4.207851776491299,-0.8633281301394149,0.012392200529578535,0.005394147902715077,-0.5296637664036838,0.042932597011969165,-0.0339955485808634,-0.0035198068133972527,45.90394820980641,-10.628952079008242,1.8897006258235702,0.060212363716436686,0.02072478694709481,0.1272063806642657
7328,1724820332727707121,-1.270729660987854,0.269278734922409,0.1746834367513656,-0.006824099458754,-0.0009521570173092,0.2616792619228363,-0.96513032913208,0.0,0.0,0.0,0.5833403361366849,0.10729030419867902,0.22228482704869668,0.521781548,0.1746834367513656,0.024044525238514435,0.00147528166985828,0.013807740779206374,-10.45631129570577,5.640191804189822,-4.665308590977213,0.012674495995833566,0.005409388231391572,-0.5295019700775893,0.0574720719678794,-0.03453245222459245,-0.0020947652238749725,-63.86223276563916,33.40079799443009,16.06924678335242,0.0471475420736917,0.018879152823894987,0.1272063806642657
7330,1724820332735544614,-1.2701783180236816,0.2689736783504486,0.17466501891613,-0.0062144054099917,-0.0012639069464057,0.2618137001991272,-0.9650976061820984,0.0,0.0,0.0,-0.3622656696292883,0.5900380704608045,0.3565441240123022,0.529619041,0.17466501891613,-0.17088663384806133,0.03584022600464772,-0.035986331913288,-11.59668349197709,5.223262258407334,-2.022704088761899,0.01133362559622409,0.005693650849103964,-0.5297806026644787,0.05858588570170298,-0.032887727194296446,0.0001749949694014319,-86.50757733425445,48.264896196448575,9.293264436487704,0.08038500564112029,0.04103422263374343,0.1272063806642657
7332,1724820332746461808,-1.269717574119568,0.2687064111232757,0.1747053265571594,-0.0058616776950657,-0.0019566852133721,0.2617683708667755,-0.9651110172271729,0.0,0.0,0.0,-0.7874560400628936,0.91424886386903,0.33882098616581935,0.540536235,0.1747053265571594,-0.095617270981953,0.10561586491764545,0.007787240101750011,12.057727342032239,14.459493034874342,-1.3146397431695571,0.010290365570403864,0.006845694023677543,-0.5296831873058975,0.04696084300694281,-0.020664681863991063,0.0050854356703489145,52.72482378830933,-30.812361357794074,-27.629034753418154,0.04876325260926606,0.02405174491213015,0.1272063806642657
7334,1724820332755384504,-1.2692638635635376,0.2685498595237732,0.1747608631849289,-0.0064176870509982,-0.0031634473707526,0.2619450390338897,-0.965056300163269,0.0,0.0,0.0,0.35151452832770635,0.19804828323998658,-0.09735253732388081,0.549458931,0.1747608631849289,0.049622896244355376,0.293471078419606,-0.04277032562531654,9.514117322854382,9.490902469273575,-3.4572647697424506,0.010730246805627841,0.009468113662073846,-0.5300372411913494,0.041957441890644986,-0.014004760135748029,0.007299384649799734,61.76162851423549,-48.30054325925595,-34.305178192363925,0.05268097268647698,0.03501572970964173,0.1272063806642657
7336,1724820332771379385,-1.2688477039337158,0.2684273719787597,0.1749084442853927,-0.0067158555611968,-0.0040266090072691,0.2622073590755462,-0.9649798274040222,0.0,0.0,0.0,-0.5497643093358402,0.342054015104702,-0.22805955767287978,0.565453812,0.1749084442853927,0.007873657151988919,0.11374411188639065,-0.03473380385056837,-19.995704466552617,-10.816348689255687,31.625827943919717,0.010850622088776993,0.01129332648646811,-0.5305731813484513,0.07373679969131786,-0.02655969823295834,-0.0041634868741518005,-273.94228246084094,130.64454239264197,97.34863478185903,0.026210475706084466,0.018603305108496018,0.1272063806642657
7338,1724820332776021885,-1.268441081047058,0.2682785987854004,0.1748710721731186,-0.0065135317854583,-0.0042337453924119,0.2618602812290191,-0.9650744795799256,0.0,0.0,0.0,-2.114745686285116,1.1124807095630418,0.3660683174571536,0.570096312,0.1748710721731186,-0.10838309696654234,0.06409540017289177,0.15402728733659085,-18.170498542997883,-11.45736934234591,23.458866619128905,0.010355666870149313,0.011583288817666406,-0.5298548598047705,0.0677664840542036,-0.023453115940586855,-0.004563874989401917,-214.20539229546262,96.12507549377642,78.55916358011362,0.09186050862441107,0.059335043828767656,0.1272063806642657
7340,1724820332785668645,-1.2681846618652344,0.2682245969772339,0.1748969256877899,-0.0057569928467273,-0.0041296216659247,0.2616937458515167,-0.9651250243186952,0.0,0.0,0.0,-1.7177062658956102,0.6401031065781012,0.133340924789409,0.579743072,0.1748969256877899,-0.14593186674633896,-0.06172516170993623,0.035541450650721,5.867188580527863,3.323550663275819,-7.103736387703488,0.008951702997079296,0.010984561366579717,-0.5295178524038364,0.030753904198654425,-0.0038348463050006387,0.008034203965512354,127.57738960332918,-73.11901716369182,-34.715009941087914,0.025737244777795997,0.020124565485106657,0.1272063806642657
7342,1724820332798137725,-1.2677339315414429,0.2682051956653595,0.1750833988189697,-0.0066636209376156,-0.0054557551629841,0.2615037262439728,-0.965164065361023,0.0,0.0,0.0,1.2659010134591462,-0.6608767829396676,-0.4702048934266039,0.592212152,0.1750833988189697,0.0845225386046544,0.243494506665314,0.030430306792676214,1.849826616206473,-37.1790407408207,20.08484481841755,0.01001072494146786,0.01401698007125822,-0.5291095707771479,0.043489186257474444,-0.018313534764104134,-0.00920205539141783,41.48104291029465,31.48405692849367,75.84357329161597,0.031777505584800386,0.03052164281740301,0.1272063806642657
7344,1724820332805753963,-1.2673685550689695,0.2679877579212188,0.174900934100151,-0.0064223138615489,-0.0042274752631783,0.2604875862598419,-0.9654465913772584,0.0,0.0,0.0,0.6616529783770311,0.21076044902956925,0.6854438914725678,0.59982839,0.174900934100151,0.021236835007237952,-0.3265035945978125,0.2787443573579321,12.182650641626152,-25.08513920285299,8.631073502864554,0.010199244678903756,0.011508923305925928,-0.5270116424343404,0.05426826381567196,-0.021019541001653153,-0.008540020655281921,-60.76777712267237,75.19063025135424,72.58066091843655,0.05609497063110606,0.026984827030975617,0.1272063806642657
7346,1724820332815316164,-1.26677405834198,0.2678771615028381,0.1750043630599975,-0.0082336533814668,-0.0038901555817574,0.2601547539234161,-0.9655240178108216,0.0,0.0,0.0,0.30350723806930024,0.45849040975845257,0.4292000459030893,0.609390591,0.1750043630599975,0.38374321092316854,0.030950522417045663,0.07348187626959168,14.955864641023776,21.43160813254883,-12.783675481146416,0.013876906102015401,0.011796399019246926,-0.5263054494844042,0.05154760806370717,-0.012208515064688896,0.005199777712888043,-28.364055337636536,-6.880373601045196,-55.944649003433895,0.05943614723412467,0.04797780146436414,0.1272063806642657
7348,1724820332829881491,-1.266258955001831,0.2676850855350494,0.1749554872512817,-0.0088645806536078,-0.0036347489804029,0.2595959901809692,-0.9656697511672974,0.0,0.0,0.0,0.09205379086237464,-0.3691558699338098,-1.0323142976842135,0.623955918,0.1749554872512817,0.09230785967728608,-0.010769238087204216,0.0799117484671633,12.3641818413276,0.7952206695908508,4.4630298422595285,0.015235000573968384,0.011622615143628369,-0.5251437789126906,0.06901441323469726,-0.015801610066084493,-0.010905502283709012,-150.71977300514234,-2.818358276123405,4.913981506650785,0.03724739182581337,0.02397699319274515,0.1272063806642657
7350,1724820332835538220,-1.2657946348190308,0.2675899565219879,0.1748772114515304,-0.0095044421032071,-0.0034653740003705,0.2592869400978088,-0.9657473564147948,0.0,0.0,0.0,-1.0597498460600852,-0.2664555957338933,-0.7732802084077162,0.629612647,0.1748772114515304,0.23336902122030564,0.0017687591395913846,0.11399291070646321,-1.4823031506783728,-5.228590126063607,1.200066715844176,0.016562603030247577,0.011622368635679297,-0.5244988700177513,0.06710283604397205,-0.018158874034664763,-0.016583743357493574,-123.22868966121926,27.06444226604553,59.09525259484898,0.0796258674872401,0.06259637317581118,0.1272063806642657
7352,1724820332845894614,-1.2653837203979492,0.2673764526844024,0.1746533960103988,-0.0078304335474967,-0.0028756114188581,0.2591162621974945,-0.9658101797103882,0.0,0.0,0.0,-0.8117537902444458,0.18275477032707532,0.09096710480235282,0.639969041,0.1746533960103988,-0.2829054524735964,-0.19354337390195867,0.03493982358984991,-13.001757294026001,-4.717723127749779,-7.4670180071583445,0.013636242098068838,0.009612722949242442,-0.5241673605915014,0.04244151767186821,-0.018069319292939312,-0.020221292217206255,77.25436473772604,26.966827823907863,54.57989836430175,0.0448739737351799,0.023997032648562858,0.1272063806642657
7354,1724820332856106071,-1.2649224996566772,0.2672175765037536,0.1744609028100967,-0.0074782259762287,-0.0024464363232254,0.2593149840831756,-0.9657608270645142,0.0,0.0,0.0,0.5138618891106654,0.29291717070486,0.35762131422664156,0.650180498,0.1744609028100967,-0.044656019519165,-0.09933519675264633,-0.03963545619349662,7.837698943381359,9.312823795198936,-4.203541929769135,0.013176429177087763,0.008603882986348038,-0.5245856855292064,0.04995502812022323,-0.014450117224145131,-0.01484003201617412,35.555662456711474,12.326590652337586,1.60113813464244,0.04704650682305121,0.03128258477656331,0.1272063806642657
7356,1724820332865535175,-1.2644097805023191,0.2670909762382507,0.1743558943271637,-0.0069834040477871,-0.0025284308940172,0.2595521509647369,-0.9657005667686462,0.0,0.0,0.0,0.028419867467676774,0.42254088444433907,0.15929932727087748,0.659609602,0.1743558943271637,-0.10565398406838852,-0.010765341129525027,-0.05228420550272034,3.546887195188977,1.8305157123191593,2.7695783886018432,0.012175976731795973,0.00850863204403792,-0.5250799036534345,0.05286800660993407,-0.012223705906158955,-0.012942559894204564,-22.471831317735628,0.9904622154107336,10.34949023515416,0.05387417388027634,0.04030397119741883,0.1272063806642657
7358,1724820332875533470,-1.263897180557251,0.2669815123081207,0.1742073446512222,-0.0070631690323352,-0.0021303670946508,0.2594634294509887,-0.965724766254425,0.0,0.0,0.0,0.1113156849222321,0.29719892883270316,0.5954884916726233,0.669607897,0.1742073446512222,0.03599695450671708,-0.07264215986751958,0.018991431098257197,-11.191213351085256,3.8611939123614603,-1.9050760326037781,0.01253735769177604,0.007780043135105537,-0.5248989833479677,0.05017818073287117,-0.006022624781591546,-0.011794440917896054,25.521454392770092,-36.02043236688152,20.099442921768468,0.04996719527510418,0.0388716939953784,0.1272063806642657
7360,1724820332885340440,-1.2634155750274658,0.2669698297977447,0.1741211414337158,-0.0056366198696196,-0.0028306620661169,0.2598676681518554,-0.965623676776886,0.0,0.0,0.0,0.5273488830445174,-0.2819531121812692,0.5662905579454939,0.679414867,0.1741211414337158,-0.3176882569731303,0.06189781573973513,-0.08659101079748407,-7.69321482159811,3.749078914877707,-7.908545029688799,0.00941498306406408,0.008396357802757472,-0.5257415185815113,0.05492849705942149,-0.006215183305956273,-0.0013309161617431897,1.0908992306962246,-29.990412848012575,-31.079876835458602,0.04314660927787812,0.04185480668315675,0.1272063806642657
7362,1724820332896015334,-1.2627615928649902,0.2668451070785522,0.1741936057806015,-0.0052536870352923,-0.0028603295795619,0.2605772018432617,-0.9654344916343688,0.0,0.0,0.0,0.058739751030928655,-0.2643761526931403,-0.09202579930774323,0.690089761,0.1741936057806015,-0.07014661206795937,-0.013925770466400237,-0.1378106071444896,18.52731399041812,-0.9555407247740622,9.052240657643726,0.008653911286703524,0.008260997761519163,-0.5272139383471227,0.06105715381356447,-0.012273043850676402,-0.0011032759782043655,-52.85253710710202,0.17182100170680137,-33.16880099932714,0.05876505478272501,0.0470829100525307,0.1272063806642657
7364,1724820332905829421,-1.2621642351150513,0.2667193412780761,0.1741115748882293,-0.0056256973184645,-0.0029217193368822,0.2602172791957855,-0.9655292630195618,0.0,0.0,0.0,-0.5407514685393906,-0.2759960949801211,-0.1603933780870331,0.699903848,0.1741115748882293,0.06961980077007918,0.032162957460312065,0.07599658531803043,2.718355756731766,1.947608683213459,4.8387088490486185,0.00934346610804616,0.008569923236354159,-0.526465242686879,0.05698352380008487,-0.012132780503403495,-0.003029153140504448,-21.734840893922886,-12.713834821533915,0.26271861536079033,0.05913390207717181,0.04616081968640261,0.1272063806642657
7366,1724820332915340237,-1.2616580724716189,0.2666102349758148,0.1741318851709365,-0.0056073130108416,-0.003052323590964,0.2603734135627746,-0.9654869437217712,0.0,0.0,0.0,-0.38478255378729465,-0.5031845046874917,-0.09126572580113418,0.709414664,0.1741318851709365,-0.010733424824860952,0.025352944500719756,-0.03418275920984168,2.47122442031859,-1.3817366460917662,-2.4886022829412835,0.009238577451859974,0.008814061732839109,-0.5267881751449995,0.0506822314973121,-0.017433290119665656,-0.0042242666050320565,26.702745926343972,-2.2746683303157926,14.081857754835,0.051751226994608227,0.04024093557543111,0.1272063806642657
7368,1724820332926598984,-1.2611212730407717,0.2663345038890838,0.1739995628595352,-0.0064935768023133,-0.0028171092271804,0.2600552141666412,-0.9655678272247314,0.0,0.0,0.0,0.053182934701800466,-0.24074204505260655,0.15808862895741818,0.720673411,0.1739995628595352,0.16262820357090316,0.0009238137216264191,0.05902990104929493,-1.5286996017215024,-1.8402108413264762,-0.0028333838070506157,0.011075426784503278,0.008817711348539911,-0.526123442267907,0.05005198555529944,-0.022377085440890454,-0.004793422190276786,26.490140123246682,13.229220029976648,21.066625502436956,0.053630670228668735,0.028904555284267833,0.1272063806642657
7370,1724820332935634302,-1.2606518268585205,0.266147643327713,0.1740067154169082,-0.0065916911698877,-0.0027284249663352,0.2600605189800262,-0.9655660390853882,0.0,0.0,0.0,0.20254595626946958,-0.19430807609287526,0.3405940794488012,0.729708729,0.1740067154169082,0.026081082442155457,-0.013313294786135984,-0.0010480859986747308,-13.368241529461336,-1.8948571032214885,-3.0673270176305243,0.011310984035084308,0.00869753588542326,-0.5261343075126876,0.051324036699384123,-0.023113925212285835,-0.0018521895251399911,-13.04948943666768,7.720408416083818,0.7275431807552621,0.05530685777066639,0.03454261230043542,0.1272063806642657
7372,1724820332945160331,-1.260169267654419,0.2659030258655548,0.1739625185728073,-0.0061637968756258,-0.0026729961391538,0.2600342333316803,-0.9655760526657104,0.0,0.0,0.0,-0.21885246994505048,-0.09483878216478092,0.15196404840193614,0.739234758,0.1739625185728073,-0.08374592899993032,-0.03456900241926412,0.005707007293150261,5.86096577127133,18.562424833167427,-6.179515092860587,0.010513650061240021,0.008367656158556247,-0.5260834916102887,0.05387376931443555,-0.026097372331282287,0.0015436522297171962,39.8046029449322,-48.4716262818864,-48.02399247626947,0.05673858082741719,0.030900609898524962,0.1272063806642657
7374,1724820332955747236,-1.2595610618591309,0.2656218111515045,0.1740516126155853,-0.007656390313059,-0.0045040673576295,0.2607422471046448,-0.9653676152229308,0.0,0.0,0.0,1.1913768258144846,-1.3011748303348452,-0.6885247167695052,0.749821663,0.1740516126155853,0.18291437643383712,0.40660740959940994,-0.14076610101304352,10.797088312999527,11.550931969693021,-3.2354977835106298,0.012434982766389477,0.012689190881016433,-0.5275243610671132,0.04583253434137191,-0.02453232935049865,0.0007461578822791637,44.06574411339377,-29.275510706081477,-22.91684248111433,0.0628986404390407,0.036300588014824546,0.1272063806642657
7376,1724820332972438366,-1.2591017484664917,0.2652657628059387,0.1738622486591339,-0.0071137188933789,-0.0029758079908788,0.2600755393505096,-0.9655575156211852,0.0,0.0,0.0,-0.41881223803806833,0.43828448598889835,0.415041332925453,0.766512793,0.1738622486591339,-0.015559459548040297,-0.19322600867930015,0.0841632475226213,-2.63087944030614,48.636515016473695,-7.581266875518708,0.012190385620836946,0.009446976613099727,-0.5261593153691645,0.11705637045173489,-0.08438084203402241,-0.026882325564898224,-594.3464448623577,458.3928579557232,214.02489875245962,0.03461503376142895,0.01305766498750923,0.1272063806642657
7378,1724820332975905143,-1.258631467819214,0.2649278342723846,0.173757866024971,-0.0071001495234668,-0.0030441291164606,0.2600035071372986,-0.9655768275260924,0.0,0.0,0.0,-2.83777776260792,2.2824583703470402,1.2635199103119261,0.76997957,0.173757866024971,-0.01801234644401555,0.036283766436536954,0.04271829529047782,2.3219348690080825,47.535389672006644,-5.715182596673983,0.012129364149651583,0.009570954745275568,-0.5260097202616654,0.11223027603566038,-0.0799639522449258,-0.02395272364763379,-534.1160478969251,398.7353690857197,181.29001331414324,0.16653764311231023,0.06829664389995335,0.1272063806642657
7380,1724820332985638407,-1.2581791877746582,0.2646280825138092,0.1736929714679718,-0.0074989395216107,-0.0028756796382367,0.2592644989490509,-0.9657730460166932,0.0,0.0,0.0,-3.5646816671385704,2.5229336442226398,1.294014810868143,0.779712834,0.1736929714679718,0.08737398254170427,-0.011160564521412085,0.15760317656495718,4.220844379237004,4.229634298557091,0.9119981510253004,0.01299436907699019,0.009443065704029285,-0.524477167214944,0.045103431576393405,-0.030191796629743806,-0.00021906199374122082,117.69958228161413,-122.2100785284988,-77.45094803719365,0.05570379170323114,0.024784967693444016,0.1272063806642657
7382,1724820332995996761,-1.257727026939392,0.2643220126628876,0.173761785030365,-0.0079696848988533,-0.0034609243739396,0.2590250670909881,-0.9658315181732178,0.0,0.0,0.0,-0.22476747024328914,-0.36250996263254565,-0.3965744753960777,0.790071188,0.173761785030365,0.05826659433126736,0.13301118947308618,0.04698846694297137,-5.940154015488886,-1.725568704387705,1.4329940704743267,0.013603028303778124,0.01081424679870587,-0.5239720591340961,0.044909364855826084,-0.03261695176550994,0.0005694899391599506,132.53874715247736,-119.30700245689759,-81.85264303541442,0.05250411509830964,0.023024190593757266,0.1272063806642657
7384,1724820333005434087,-1.25729238986969,0.2639878094196319,0.1737149357795715,-0.0078380405902862,-0.0034038815647363,0.2582748830318451,-0.9660337567329408,0.0,0.0,0.0,-0.6067358602696036,-0.11914407407016214,-0.46951639841312165,0.799508514,0.1737149357795715,-0.02470589927949984,-0.017783452784318754,0.16465156919894347,-7.888396475872657,-15.577461312987747,6.317149041661706,0.013386504813001548,0.010625466959934445,-0.5224205829256151,0.04101665657314868,-0.037141950518361,-0.007237492225131703,-4.570460544990503,29.434441632808852,18.190793308606278,0.057631805712011486,0.022224100610314396,0.1272063806642657
7386,1724820333015137519,-1.2569446563720703,0.2636101543903351,0.1736220270395279,-0.0072017731145024,-0.0027401528786867,0.2575080394744873,-0.9662454724311828,0.0,0.0,0.0,-0.2928717372450236,0.202855823944611,-0.034399542726693794,0.809211946,0.1736220270395279,-0.09223563210386108,-0.16493676220005093,0.1645838633158597,1.341858084401891,-5.561115021986936,-1.0287723872733903,0.012506971621685339,0.00900447125719436,-0.5208442934323086,0.03319113770061222,-0.03470298138190486,-0.008224338089463323,38.66047309099602,7.236764288860268,19.431064088858022,0.05053536425399682,0.011698550641051419,0.1272063806642657
7388,1724820333027348850,-1.2565799951553345,0.2632511854171753,0.1735423505306244,-0.0073751206509768,-0.0021498606074601,0.2567082941532135,-0.9664584398269652,0.0,0.0,0.0,0.2762660758462063,-0.10751734342749941,-0.18761358869922928,0.821423277,0.1735423505306244,0.05171854082842868,-0.08525734485257835,0.13631884388335477,5.714204062356859,14.190877876832477,3.0084556166822587,0.013152515095502082,0.007942094633513511,-0.5191930937809535,0.03750744579630805,-0.032971089808533804,-0.007610157846491106,-1.7199781864617831,-9.393016095138957,-6.05526955530936,0.040563671316323574,0.011336719885498775,0.1272063806642657
7390,1724820333036380353,-1.2561901807785034,0.2629295289516449,0.1734663695096969,-0.0077600129880011,-0.0024812235496938,0.255836933851242,-0.9666856527328492,0.0,0.0,0.0,-0.06208005988867393,-0.08531618784656159,-0.1989397857173268,0.83045478,0.1734663695096969,0.06275141714795195,0.09411312352317233,0.19904651056304506,0.9459150520832602,14.418099232984215,-0.4616186035383629,0.013734368873129836,0.008767834609753476,-0.517384069264601,0.03948686151547065,-0.03560767614903426,-0.010893755109789183,-32.28804168962825,19.74454369273157,22.897420822308504,0.055199551277836295,0.01988655522063137,0.1272063806642657
7392,1724820333046069489,-1.2558457851409912,0.2625845968723297,0.1733350306749344,-0.0083044739440083,-0.0032212638761848,0.2552803158760071,-0.9668261408805848,0.0,0.0,0.0,-0.3211326028311894,0.2856770554243291,0.27396291891040114,0.840143916,0.1733350306749344,0.06905087576646943,0.17723982156215703,0.11758011745787157,-5.067573607321338,-6.188173342578276,-6.551916713933846,0.01441460352035658,0.010468932936502893,-0.516220761049131,0.03596188370421771,-0.03428661439379077,-0.011110019706682905,-4.513172856248323,6.495710996026587,14.065707529342763,0.0486239778727287,0.013309247240795028,0.1272063806642657
7394,1724820333055350729,-1.255508303642273,0.2622780501842499,0.1732536554336547,-0.0081626735627651,-0.0032010464929044,0.254951536655426,-0.9669140577316284,0.0,0.0,0.0,-0.16544455977003736,0.06330114498514572,0.09563749122002402,0.849425156,0.1732536554336547,-0.028816064062125422,-0.011485190702217105,0.07327186988555194,-6.107709896140721,-9.324424256954735,-4.834955926301512,0.014154215268195262,0.01035263096924608,-0.5155421587791359,0.03336077446451924,-0.030307534888606824,-0.005933193329139996,42.8163638323149,-30.198084146967496,-6.01310804321065,0.04800712781293717,0.015330200931499954,0.1272063806642657
7396,1724820333068194934,-1.2551331520080566,0.261937141418457,0.1732278317213058,-0.0080920495092868,-0.0036471968051046,0.2548849284648895,-0.9669306874275208,0.0,0.0,0.0,0.8473907174066384,-0.4354558684246457,0.25304086009762705,0.862269361,0.1732278317213058,-0.02839927523589503,0.06444521342579691,0.010086464997179592,-7.506764077172997,-6.932674239287527,0.059008671739958274,0.013790969758224135,0.01117848875512079,-0.5154010981359793,0.03327651181210456,-0.03598983522641319,-0.012919245087816833,46.09685206729439,1.2895502367406735,37.58162013437541,0.03851572015907707,0.012321775175905037,0.1272063806642657
7398,1724820333078278654,-1.2547653913497925,0.2614994347095489,0.1730111986398697,-0.0071568288840353,-0.0033332814928144,0.2546419501304626,-0.9670032262802124,0.0,0.0,0.0,1.0528845399867102,-0.10483498258401669,0.8325035526356342,0.872353081,0.1730111986398697,-0.16377971977525482,-0.10714426057701337,0.05009293252667969,7.998452074240623,7.64643447031966,-2.800456907032164,0.012144683574530569,0.01009161693160235,-0.514910014233435,0.04858168356480519,-0.040325862097073895,-0.004058598800202873,-30.003610301005406,-6.1709630952709205,-48.621828117427974,0.053332115322295696,0.010300777618163465,0.1272063806642657
7400,1724820333086570664,-1.2542799711227417,0.2611860632896423,0.1730963587760925,-0.0074828811921179,-0.0037813717499375,0.254716157913208,-0.9669795036315918,0.0,0.0,0.0,0.46055411576051597,-0.4216496942552932,-0.2940400101435951,0.880645091,0.1730963587760925,0.04862709796765756,0.12442804621318429,-0.019276394506893182,10.109599410717742,11.826118528995929,0.4830942177486208,0.012546338077941803,0.011125268947676457,-0.5150570542439482,0.05414204489731844,-0.038977947597810925,0.0025294761188590087,-63.03594284624438,-28.422430675671656,-109.73843743965762,0.0694430962484703,0.03235985380833145,0.1272063806642657
7402,1724820333096295632,-1.2538036108016968,0.2607934772968292,0.17303267121315,-0.0074129165150225,-0.0040776254609227,0.2543075382709503,-0.967086374759674,0.0,0.0,0.0,-0.05668528208760959,-0.5864558546041674,-1.0633240643138415,0.890370059,0.17303267121315,-0.029914723109658262,0.05579528188252622,0.08634830021156199,-1.2672936996764224,-5.702623905997196,10.535320862746643,0.012265060190787665,0.011657417179669595,-0.514210590723635,0.05622558679487355,-0.049741667391424826,-0.012745560377729781,31.012047930115042,-34.967404619895476,1.2425755939463707,0.06257620889813126,0.022760054085409487,0.1272063806642657
7404,1724820333107617830,-1.2530715465545654,0.2601067423820495,0.1728066802024841,-0.0076796971261501,-0.004053431097418,0.2532057762145996,-0.9673734903335572,0.0,0.0,0.0,1.4043273214423222,-1.219908226046506,0.00985393029210968,0.901692257,0.1728066802024841,0.045491479004740897,0.009087069763619206,0.20133580245225666,-0.32927053259987416,-2.860360321097405,4.157908665633915,0.012806797858542213,0.011731720031528375,-0.5119298012235473,0.05201242573282627,-0.049522416760320986,-0.018096579888303488,127.31012377133881,-43.35054690947934,42.70126361494063,0.08630856643066798,0.026568177026731435,0.1272063806642657
7406,1724820333123642715,-1.2525248527526855,0.2595656216144562,0.1725589483976364,-0.0067506148479878,-0.0042228712700307,0.2521796226501465,-0.9676477313041688,0.0,0.0,0.0,3.4052300367124513,-1.6288788923471724,-0.4871729466453907,0.917717142,0.1725589483976364,-0.1183082845242273,-0.008058483605316259,0.13192555614492624,78.4401120745746,81.46713133211462,-11.264840486028934,0.010935540941949574,0.011577497254663926,-0.5098172740656775,0.11480781287866648,-0.09717905366062496,-0.006995914376407342,-399.9827000306539,311.9928336501745,-111.23161074349295,0.04643201447441763,0.013219384189065372,0.1272063806642657
7408,1724820333129129612,-1.2517433166503906,0.2589132785797119,0.1725364625453949,-0.0084328977391123,-0.0054675550200045,0.2520220577716827,-0.9676693677902222,0.0,0.0,0.0,0.22453715148291842,0.7170826776426029,-1.2481909546392145,0.923204039,0.1725364625453949,0.4786537486812046,0.5940061070002276,0.05709065125607211,22.434628386958565,34.77623781407122,-5.874377457214183,0.013566533164447475,0.014832667379828492,-0.5094641043971845,0.13252745642620312,-0.10358961876275252,-0.011885642575473199,-513.2242464042591,333.7637856500669,-39.86881366149906,0.18237321475225576,0.06630871640941528,0.1272063806642657
7410,1724820333136250237,-1.2508912086486816,0.2583170533180237,0.1723798662424087,-0.0080182366073131,-0.0061216177418828,0.2517146170139313,-0.967748999595642,0.0,0.0,0.0,-2.8157545635171743,2.226964807849295,-0.6188275113804151,0.930324664,0.1723798662424087,-0.15966171072486243,0.14902341692046295,0.08701122402904239,-20.55595118759014,-35.854397527053884,11.414189365104638,0.01243936987432811,0.01588566173197668,-0.5088307151212007,0.10635853905737491,-0.08106072752035764,-0.024072750585443004,-142.48949518337122,40.30434521499677,121.98102923600797,0.1456291303078074,0.06352053364310846,0.1272063806642657
7412,1724820333145309673,-1.2500810623168943,0.2576134800910949,0.1721377968788147,-0.0101499138399958,-0.0061733690090477,0.2505224347114563,-0.9680379033088684,0.0,0.0,0.0,-0.8276669977147049,0.6126086445421297,0.8734733005500326,0.9393841,0.1721377968788147,0.4504226038643714,0.13123271623805102,0.27354658222591116,17.3470840288074,1.1696968904252447,-0.4203898036034528,0.01656102852241961,0.01703849703515044,-0.5063351538404167,0.090754185625741,-0.07168484873439596,-0.017084417258237394,159.70392542383476,-111.42341850499038,76.37291506757263,0.11630780856569352,0.040332292922468746,0.1272063806642657
7414,1724820333156488273,-1.2490482330322266,0.256894588470459,0.1720797270536422,-0.0101668294519186,-0.0072526037693023,0.2506235241889953,-0.9680041670799256,0.0,0.0,0.0,0.133501981062925,0.2880780868146511,0.5085558610859346,0.9505627,0.1720797270536422,-0.04527062133012186,0.1875297642784497,-0.020961451632848706,-28.20450922204448,4.509907359746586,-12.335461938314603,0.016051348972631725,0.01913836289795071,-0.5065353806101743,0.09384408391684929,-0.07066201547334572,-0.005912087157206258,7.88861580051725,43.598912853177296,-4.884365081129708,0.11207040881205033,0.04951727924625478,0.1272063806642657
7416,1724820333165381459,-1.2482033967971802,0.2562212347984314,0.1720220744609832,-0.009632303379476,-0.0084205539897084,0.2507430613040924,-0.9679691195487976,0.0,0.0,0.0,-0.34886162263999276,1.1896719404452134,0.661520152477252,0.959455886,0.1720220744609832,-0.18191815357276464,0.22391407188437357,-0.03154037660004316,5.555643518336795,11.161992718724111,-3.5795936474201646,0.014428475980201458,0.021133712073129442,-0.5067854514380826,0.09402025197244512,-0.06670928518005326,-0.004862411445002657,18.644273486924813,-50.773918542179985,-78.45405822048039,0.11991807074130602,0.04619842785094714,0.1272063806642657
7418,1724820333176508915,-1.2471708059310913,0.2556043267250061,0.1719905287027359,-0.0111722834408283,-0.010592296719551,0.251289814710617,-0.9677894711494446,0.0,0.0,0.0,0.8733687331181663,-1.4937634425363382,-1.5432725395926292,0.970583342,0.1719905287027359,0.17118703828209345,0.4465648675462746,-0.10464878993408691,-23.190260016292786,5.713381874532134,-22.838936262170662,0.016307649290716236,0.026120158586025698,-0.5078737597142614,0.08500528535709861,-0.043095741109764774,0.010065645434540471,116.50412407487707,-201.05307172048583,-171.07042853411994,0.10808279874827129,0.054035321934015335,0.1272063806642657
7420,1724820333186540163,-1.246388554573059,0.2552836537361145,0.172208160161972,-0.0089096687734127,-0.0131409168243408,0.2535712122917175,-0.9671865105628968,0.0,0.0,0.0,2.102322027788098,-3.147938755175466,-3.0145326130976873,0.98061459,0.172208160161972,-0.5581110624725186,0.37460024911448847,-0.48087149369235166,-3.400494020163382,-28.757949912977523,29.435440742376752,0.010575243750326518,0.02994237992202235,-0.5126484983110429,0.10899042409435822,-0.09077839546286093,-0.03150286043794459,-78.54110428194993,172.70213240139785,134.1296629489629,0.08294942156044895,0.05269227914261574,0.1272063806642657
7422,1724820333195213823,-1.2452106475830078,0.2540552020072937,0.1715359389781952,-0.0086004333570599,-0.0130508532747626,0.2524088323116302,-0.9674944281578064,0.0,0.0,0.0,-0.0867791280990744,0.8819869394039266,0.2547872158692315,0.98928825,0.1715359389781952,-0.06785347413932367,-0.03671145711166795,0.2764821480726291,58.215548806577814,-11.967612003181046,53.2092878036222,0.010058016607680057,0.029599228196038392,-0.5102526423868587,0.1250599052497492,-0.1060418140343593,-0.04917984622420857,-195.6755855341651,302.09797878977014,267.4501157252614,0.18988764410257164,0.04762664511996356,0.1272063806642657
7424,1724820333205602233,-1.2440451383590698,0.2533963918685913,0.171377420425415,-0.0117990570142865,-0.0137086194008588,0.2503976225852966,-0.9679741263389589,0.0,0.0,0.0,-1.4139505006390989,1.9982230135173982,1.671063921302206,0.99967666,0.171377420425415,0.5579777792822442,0.28007803484728655,0.40487465476446755,20.054230738661264,23.63117559736559,-7.6144696845255115,0.01598625094345077,0.032453786108105384,-0.5060070819615928,0.10002739858302334,-0.06401053772475684,-0.018005691928584255,40.20198643334232,-86.02318298250924,-28.64005645979287,0.12929908695217862,0.06700472774321989,0.1272063806642657
7426,1724820333216190265,-1.243117332458496,0.2527122497558594,0.1711571365594864,-0.0141366263851523,-0.0155934328213334,0.2498353123664856,-0.968059539794922,0.0,0.0,0.0,0.8242155966189486,-1.0004585761785885,-0.41247634295172364,1.010264692,0.1711571365594864,0.3366135604813506,0.45622005427652645,0.10870667880751199,-24.10011129444329,11.687414274582869,-27.16620543151776,0.019593466031964747,0.03726302262902731,-0.5047695609033809,0.09580160393184656,-0.06495161369368674,-0.01466288449858233,115.23963949208388,-164.0774809760057,-172.70713412783357,0.10864754127218774,0.04488166999568449,0.1272063806642657
7428,1724820333227852465,-1.241895079612732,0.2519504427909851,0.1710650324821472,-0.0149712171405553,-0.0185743477195501,0.2509080171585083,-0.9677169322967528,0.0,0.0,0.0,0.9331249904594525,-1.3836101860589167,-2.117364096249761,1.021926892,0.1710650324821472,0.014536914504731683,0.528955316621253,-0.19776088627357502,-15.762581843062817,-24.11555047509129,10.22475698535657,0.0196747544862609,0.04347591314514248,-0.5069561545715764,0.12112781496554703,-0.08832868753297518,-0.028827142474755263,-110.59894965469215,119.93805700610494,58.41084802791989,0.12356510226231704,0.05955374230354994,0.1272063806642657
7430,1724820333235824891,-1.2408404350280762,0.2511208653450012,0.1707211434841156,-0.0149691822007298,-0.0192766282707452,0.2505752444267273,-0.9677894115447998,0.0,0.0,0.0,-0.6022829881107024,0.40531228070561154,-0.5366073541801497,1.029899318,0.1707211434841156,-0.046521148093960046,0.1712738270553562,0.08270095934619943,-16.857060084541157,-20.56030737819063,20.114287658154865,0.01933416715990102,0.04482825920575192,-0.5062696162879528,0.12181706394630254,-0.0959754460196276,-0.05062808458800738,-151.24611043513232,198.10150215776832,253.73253506827095,0.16791710449896227,0.06376240811560238,0.1272063806642657
7432,1724820333245430110,-1.2397915124893188,0.2502925097942352,0.1701481342315673,-0.013821929693222,-0.0208336748182773,0.250055193901062,-0.9679087996482848,0.0,0.0,0.0,-1.5765885454291988,2.003913964820504,2.5422920876753254,1.039504537,0.1701481342315673,-0.31488467078258986,0.25504955492997083,0.10156816244056922,2.347303484129278,13.02659672694362,-13.162991772192132,0.016356589168510544,0.0472602759286902,-0.5052494724873069,0.10806165159264225,-0.076292198518912,-0.030346889017456746,490.4762454812976,-399.5780943994131,-124.06190847919476,0.13996630284175604,0.0516633944326625,0.1272063806642657
7434,1724820333255295726,-1.2387369871139526,0.2496406435966491,0.1701457351446151,-0.0144025823101401,-0.0228668861091136,0.2508939206600189,-0.9676373600959778,0.0,0.0,0.0,9.260141401823654,-7.673576412910014,-3.186883248509661,1.049370153,0.1701457351446151,0.015169719325661442,0.4271847928662112,-0.18157845512932666,27.019658189961604,12.484417807366091,-22.51465289553428,0.016421139685490582,0.05150351408980687,-0.506973658591883,0.09104328756501712,-0.05698148503118272,-0.0009001274516660107,377.2242540867373,3260.7806194954996,1685.2880620543033,0.12537173700102655,0.0611853906821876,0.1272063806642657
7436,1724820333297144051,-1.2377398014068604,0.2488702088594436,0.169991448521614,-0.0148215452209115,-0.0242436658591032,0.2513956725597381,-0.9674672484397888,0.0,0.0,0.0,-102.97832250619012,881.746718890894,469.5874115114116,1.091218478,0.169991448521614,0.003531899844155613,0.06853331266381792,-0.025733057203424788,23114.90578286469,19225.209911556092,26938.776313417922,0.01651438327747888,0.05438886114620815,-0.5080045887064562,2.4285813053802485,-2.087733984208171,-1.2298220513015963,1420053.3559213923,-1335556.2747055842,1065353.2855744697,0.029931164004206676,0.011674598662780568,0.1272063806642657
7438,1724820333297502963,-1.236860752105713,0.24811452627182,0.1695462763309478,-0.0166342053562402,-0.0250602327287197,0.2497239559888839,-0.967849850654602,0.0,0.0,0.0,411.0753421693248,398.2230035597049,855.2000927904635,1.09157739,0.1695462763309478,8.370902294279029,7.027897416952211,9.725828704218435,-7449.098815466002,3834.579272880239,5262.948218927971,0.01971566911868163,0.05684761780957238,-0.5044632788075187,2.39113222044125,-1.7684009319479514,-1.0597456118819082,1240916.9498122912,-1944367.527524076,688558.3372539759,3.2271412215846786,1.071266018677493,0.1272063806642657
7440,1724820333297841557,-1.236069679260254,0.2476234287023544,0.1692451387643814,-0.0161435268819332,-0.0257657989859581,0.2489584237337112,-0.9680367708206176,0.0,0.0,0.0,770.123848577965,-450.8813826483547,965.0959883372652,1.091915984,0.1692451387643814,-3.9775871394672584,3.3574002188475722,4.510213833533202,-14237.247204104191,1199.4471652989705,-20275.039541147307,0.01845786551686186,0.05795505338500507,-0.502912114715356,2.6949572138973963,-1.790563693059994,-0.6483721095028727,156029.6973977543,-1645912.467972194,-339175.88274307013,2.7930344045552444,1.3061089831887094,0.1272063806642657
7442,1724820333298093736,-1.2353227138519287,0.2471079975366592,0.1691268980503082,-0.0159104112535715,-0.0265980996191501,0.2491205036640167,-0.967976450920105,0.0,0.0,0.0,639.6118035888294,-704.0794485595137,754.9000016436471,1.092168163,0.1691268980503082,-3.392216314440543,5.921184290855686,-1.5176454642594817,2257.651021268099,9797.890059484338,-23091.384048664102,0.017581512211819254,0.05945490900362072,-0.5032685076265923,2.8652776802192133,-1.9766566990334817,-0.45192168785111075,-504106.8210923414,-966179.3079387044,-808765.8935616565,3.6020772685397278,1.5822933996229789,0.1272063806642657
7444,1724820333305318797,-1.234651803970337,0.246748074889183,0.1693713366985321,-0.0153820244595408,-0.0282490905374288,0.2502204477787018,-0.9676544070243835,0.0,0.0,0.0,-222.45234606047794,152.6631301637895,35.45363715035219,1.099393224,0.1693713366985321,-0.24591664727666002,0.40347162126879144,-0.32809958751024754,259.45905060175164,-454.97477570281427,109.57799199060919,0.01566309962524359,0.06240901276640079,-0.5055945381546427,0.07930084522662639,-0.054450134841752984,0.011087202111995431,-58676.9873308473,61255.339089399866,-58735.51446785922,0.10305286773037153,0.05850506689566049,0.1272063806642657
7446,1724820333315025542,-1.234058856964111,0.2461591064929962,0.1691823452711105,-0.0152934463694691,-0.0283367745578289,0.2501343190670013,-0.9676755666732788,0.0,0.0,0.0,-1.2331696882047467,-0.2996103103354706,-2.075933780187604,1.109099969,0.1691823452711105,-0.02274951079538913,0.01306532159180205,0.017469583477705403,13.454826141892006,-27.625292058408945,22.797505939957254,0.015453006824734232,0.06253318733344541,-0.5054227263779653,0.04758379763411469,-0.05121087052601947,-0.018134034574486257,13970.473371214997,-9625.119121541544,-2294.55074765618,0.08388136753415347,0.02299940130838633,0.1272063806642657
7448,1724820333330240975,-1.233656883239746,0.2456056624650955,0.1689382940530777,-0.0147680481895804,-0.0276296325027942,0.2497026473283767,-0.967815637588501,0.0,0.0,0.0,0.978672486552572,-0.4690575866669171,0.49921523825903735,1.124315402,0.1689382940530777,-0.04546815549756997,-0.10687459425605675,0.058977130208292615,9.131434703649568,85.48672396676899,-21.279709780333537,0.01481511113117146,0.06089364791853042,-0.504548396839802,0.07734073995052881,-0.0708745560206907,-0.02743277980864889,-205.65674402057448,171.91191893586614,71.01338801653387,0.041611068164619035,0.00473411585693487,0.1272063806642657
7450,1724820333335662949,-1.233139157295227,0.2451547235250473,0.1687675416469574,-0.015188337303698,-0.0290261153131723,0.2499524056911468,-0.9677038192749025,0.0,0.0,0.0,-0.8146100648268699,0.8167130647992511,0.6944526128648816,1.129737376,0.1687675416469574,0.02457001537550141,0.5370318121483302,-0.10278628031205131,8.014680228516514,63.268335389063154,-19.889933005228944,0.014916241600101314,0.06381338897281288,-0.5050633933317248,0.0807593425237414,-0.07182708470452148,-0.022580727583154214,-261.26039336298396,176.85372765450998,-13.595686978506919,0.1255631017493433,0.041557332977492166,0.1272063806642657
7452,1724820333345280865,-1.2326136827468872,0.2446573972702026,0.1687024086713791,-0.0154937477782368,-0.0299387779086828,0.2505192160606384,-0.967524528503418,0.0,0.0,0.0,-2.1419395092486457,1.489121401231136,-0.2826073901740205,1.139355292,0.1687024086713791,0.01800808058292321,0.19882069457618903,-0.12441690418292915,3.018917761753559,-21.91025929111131,10.30868159385188,0.015013680758737387,0.06574331593448608,-0.5062336762586904,0.0482693149953235,-0.04704079885387458,-0.019321146395257394,-2.1894625603969757,-10.491109196176174,-24.241854742972507,0.07314266931885827,0.022225050015837695,0.1272063806642657
7454,1724820333356453891,-1.2321569919586182,0.2441923916339874,0.1683236509561538,-0.0162351783365011,-0.0304671358317136,0.2496937364339828,-0.9677092432975768,0.0,0.0,0.0,-0.4035617262101403,0.3283045783590066,0.45045167337776815,1.150528318,0.1683236509561538,0.09977828083160242,0.12605385336325212,0.15375560254118076,-17.104821123244207,-19.130946608606127,-1.2875062047536043,0.01624425344291676,0.0671246988228303,-0.5044901091830838,0.040381869662027725,-0.04452425059712262,-0.030545724726223966,107.2867830662075,-75.56561599490853,76.17726111007136,0.05804701121873671,0.013823794959086047,0.1272063806642657
7456,1724820333365550935,-1.2317932844161987,0.2437658309936523,0.1680706143379211,-0.015025358647108,-0.0301172230392694,0.249899610877037,-0.9676865935325624,0.0,0.0,0.0,0.21468137860228365,-0.14929260263487953,1.2217111112671921,1.159625362,0.1680706143379211,-0.23672360735697615,-0.1414416764573081,-0.05189838593265411,-8.053173618097993,-7.494005441415602,-10.271532135087806,0.014058037680959406,0.06584529803243645,-0.5049827587913864,0.038950275023658776,-0.04077422964824873,-0.015670586375107654,43.31353132141027,-46.6894094386037,15.295579243008957,0.05938078516274296,0.010781559777205026,0.1272063806642657
7458,1724820333379520691,-1.231271266937256,0.2433274239301681,0.1681122332811355,-0.0172661449760198,-0.0311492998152971,0.2494645416736602,-0.9677289128303528,0.0,0.0,0.0,0.29101430806170825,-0.6768751370797528,-0.05525438758841272,1.173595118,0.1681122332811355,0.2715472433264918,0.22390670565736523,0.06923029283504331,-18.47155542926755,-7.872336656914436,17.040148873686228,0.017920149974024583,0.06895737507932613,-0.5039635421747892,0.049930726401584025,-0.054905732691317155,-0.0074731184604637235,-74.4839214690293,106.27717887124503,-71.18288904173698,0.04755755975096754,0.01761199528072304,0.1272063806642657
7460,1724820333386483307,-1.2308800220489502,0.2428635060787201,0.1680239289999008,-0.0171742066740989,-0.0313493199646472,0.2487254589796066,-0.9679142832756042,0.0,0.0,0.0,-0.5050254520414548,0.5629526666000775,-0.480683595477103,1.180557734,0.1680239289999008,-0.047422356555598545,0.05102015813957031,0.21691779484746473,-21.92197598989113,-8.189121184286975,4.43889776597755,0.017694948401096706,0.06928565502148404,-0.5024434829415569,0.05023918631989943,-0.058457063006219556,-0.010085902439339378,-75.18030007154276,130.86590067911428,-40.21224920837489,0.08201703982624968,0.01631453784165413,0.1272063806642657
7462,1724820333395157595,-1.23050856590271,0.2424447536468505,0.1679645031690597,-0.0174431391060352,-0.0319925211369991,0.2484049201011657,-0.9679706692695618,0.0,0.0,0.0,-0.7340738731818199,1.1880062435735308,-0.6037467076517594,1.189232022,0.1679645031690597,0.02059096371313376,0.1598266699667325,0.07416474297506316,-2.9785202747059234,-2.9434836587659894,-6.29079477845364,0.01792037006967193,0.07066035250839649,-0.501773864926616,0.03992200066932128,-0.0419780999726207,-0.015394788487032685,19.729072693445428,9.102387740427519,46.62871682448282,0.061095443971661875,0.013816056143623573,0.1272063806642657
7464,1724820333406601202,-1.2300955057144165,0.2420594394207,0.1676593422889709,-0.0163391847163438,-0.031631976366043,0.2475209236145019,-0.9682282209396362,0.0,0.0,0.0,0.1881928796574246,0.3417234847906361,0.8479935108293022,1.200675629,0.1676593422889709,-0.17683378331729574,-0.10766614386062848,0.15565555882894766,-7.612147493929116,-0.1714910687787583,-5.023826926476568,0.016020213177677746,0.06939821610991698,-0.5000094630741476,0.03839560633892347,-0.03912822582819153,-0.022178842172911217,32.693562550849414,-29.388980790246077,76.47619399565878,0.049553312164105405,0.014008817888978085,0.1272063806642657
7466,1724820333415333135,-1.2297449111938477,0.2416814118623733,0.1674955785274505,-0.0156355518847703,-0.0320153534412384,0.2473623752593994,-0.9682677388191224,0.0,0.0,0.0,0.15453029351609882,0.3820190838659805,1.1800779918221684,1.209407562,0.1674955785274505,-0.1790741867140123,0.04543625731884928,0.030868566645480967,11.731036806758826,21.080113719630713,-8.110626976487096,0.014475757152622776,0.0697908041443012,-0.4997332176675474,0.04218150185364067,-0.03552676189571713,-0.005174311790477226,-23.384635974884638,-26.16632543301195,-64.74892717251964,0.05715777433969764,0.013355742754825125,0.1272063806642657
7468,1724820333425364892,-1.2292983531951904,0.2414145171642303,0.1676001846790313,-0.0163811650127172,-0.0333646759390831,0.2472503632307052,-0.9682384729385376,0.0,0.0,0.0,-0.3051378356098766,-0.2352290996814259,-0.6540139229255422,1.219439319,0.1676001846790313,0.07676681221030646,0.2977804198559562,0.020732563977787406,12.078504101590587,5.1273619440942,3.0450085543828673,0.015263885107049546,0.07277464431151476,-0.4994802027211665,0.040515771206813156,-0.032045128931187605,-0.002179449383711507,-34.26288037714377,-29.50123243620462,-101.89727334834842,0.050923800807947325,0.02679459758070252,0.1272063806642657
7470,1724820333436035839,-1.2289113998413086,0.2410108149051666,0.1674338281154632,-0.0168391689658164,-0.0339323282241821,0.2467360347509384,-0.9683420658111572,0.0,0.0,0.0,-0.5395571866762043,-0.18648759174375718,-0.8227140360289642,1.230110266,0.1674338281154632,0.05327501663627969,0.12516853143820203,0.09925798430888141,1.1953851702529876,-8.71289689014673,7.3020565033228735,0.01591182159978666,0.0740936366073574,-0.4983973984277545,0.035680846217459816,-0.041164743470798015,-0.019970686632694523,328.55335613790555,-226.24786663799892,75.41471291822545,0.05095238845073654,0.012747466117401405,0.1272063806642657
7472,1724820333445081232,-1.228593111038208,0.2406129091978073,0.1672195941209793,-0.017374787479639,-0.03427280113101,0.2460197955369949,-0.9685028195381165,0.0,0.0,0.0,5.119947980810826,-4.002759085981731,0.5588987294323313,1.239155659,0.1672195941209793,0.09013303897931928,0.10357908188341633,0.16487283628560426,3.074048954412934,-2.2523924956050863,5.185668996319691,0.016839626729930918,0.07500600198546385,-0.49688670711214,0.030137373517144184,-0.037728706749740715,-0.020936934264206508,2380.4632485552165,-292.2429502706597,-9918.107275296497,0.05353115011917522,0.008460483951044494,0.1272063806642657
7474,1724820333482689653,-1.228249430656433,0.2401730269193649,0.1668617874383926,-0.0184799637645483,-0.0347593426704406,0.245373785495758,-0.968629002571106,0.0,0.0,0.0,369.03440485611054,5.280768408716995,-1947.1854642125716,1.27676408,0.1668617874383926,0.04926207994303565,0.0398853085369958,0.03648810470101711,5886.861965643273,36587.86636500357,-6489.306701416417,0.018798451669782376,0.07648135200168789,-0.4954840111157038,1.1191061765202903,-0.8735603828708918,0.10417856709034368,-691099.6777695911,442162.22499718395,483266.67849634774,0.014287701429041351,0.0018865968133741145,0.1272063806642657
7476,1724820333483020604,-1.227875828742981,0.2398814111948013,0.1668965965509414,-0.019288195297122,-0.0366482995450496,0.2456887662410736,-0.9684637188911438,0.0,0.0,0.0,138.2733761347772,152.90180741876156,-1785.6896056113515,1.277095031,0.1668965965509414,2.0146726516003675,12.255237563062355,-2.1300435725826348,-15370.833320268735,-2232.5643234256113,22027.594997100397,0.01941585344860947,0.080549959824839,-0.49611322975673194,1.242228907884055,-0.8717326022938323,-0.5459249672317696,-764329.6855354,441705.90552296594,866442.2261272254,1.399168628971453,0.575460320349588,0.1272063806642657
7478,1724820333483279800,-1.227530837059021,0.2396573722362518,0.1666229218244552,-0.0186613965779542,-0.0372934974730014,0.2444719672203064,-0.9687592387199402,0.0,0.0,0.0,-73.45155935645691,266.50815461673744,-1484.2829831288896,1.277354227,0.1666229218244552,-6.295184807114099,3.730712963733059,9.379896264431927,-29260.07487605337,-30286.484989902507,40495.98601473754,0.017982986020730833,0.0814713158659787,-0.4936562748448315,1.2306171573896663,-0.8021833462929058,-0.9725008112175111,-756357.4449944169,400193.749257874,1116450.0941098982,1.662350384684765,0.6909220506327419,0.1272063806642657
7480,1724820333486181558,-1.227221131324768,0.2393495291471481,0.1665089577436447,-0.0184494648128747,-0.037901896983385,0.2446470856666565,-0.9686954617500304,0.0,0.0,0.0,-302.98084288383143,189.76725032695654,247.9757231334275,1.280255985,0.1665089577436447,-0.2387011831406254,0.369908022986114,-0.14094666430190397,1593.9772297597299,-896.9240377497954,-2508.7157178731686,0.017258274551207032,0.08255173696824113,-0.4940475940333503,0.086679702000648,-0.08792424853530445,-0.03363462500594405,-52995.0749550468,-24876.958626546155,450339.28964558686,0.1470212385780868,0.04068636903043203,0.1272063806642657
7482,1724820333495612445,-1.2270182371139526,0.2390770763158798,0.1663646101951599,-0.0168576445430517,-0.037917323410511,0.2451773583889007,-0.9685898423194884,0.0,0.0,0.0,-2.6283575348855104,3.2587600087304827,0.7443876375165146,1.289686872,0.1663646101951599,-0.32313315548768784,-0.080643687306138,-0.1272690220139382,7.282033069557249,-15.79976980031614,7.038629627814755,0.014111010309915984,0.08181012135985158,-0.49526378310609454,0.025935923560908236,-0.026344206413295268,-0.011451924416427062,16235.845690224915,-10168.904539825127,-13291.657939954588,0.03380041203820801,0.004109696730518624,0.1272063806642657
7484,1724820333505218795,-1.2267258167266846,0.2388489097356796,0.1662923097610473,-0.0165126640349626,-0.0384030677378177,0.2451767474412918,-0.9685767889022828,0.0,0.0,0.0,0.5752127331161814,-0.417730575006217,-0.4833702578468681,1.299293222,0.1662923097610473,-0.09432120265980831,0.08044904911939778,-0.00497127158688789,29.721494846572543,13.45552690883757,21.465764348940382,0.013201862933679247,0.08258352103942829,-0.4953010943203119,0.037993417274265084,-0.027044967016957244,-0.020032989289445524,126.70425122225289,-185.11173315909565,-14.666076782742806,0.038562343372237164,0.014881091216372842,0.1272063806642657
7486,1724820333515548561,-1.2262494564056396,0.2385329604148864,0.1659464538097381,-0.0181981436908245,-0.0389374680817127,0.2436459213495254,-0.9689114689826964,0.0,0.0,0.0,-0.4128082787223224,-0.13498587022038633,0.6218624441398991,1.309622988,0.1659464538097381,0.27825975087202515,0.1826321068902129,0.31378863953665226,-0.0951926769182041,-1.8566302974407756,-9.106439685676635,0.016349824090214266,0.08442197024071428,-0.49202076590267263,0.03638262194849062,-0.035189757530426746,-0.020473063442617345,-31.647717606244505,39.30779942943086,38.35168730303252,0.05772132317025525,0.02378651058916948,0.1272063806642657
7488,1724820333525362668,-1.2259831428527832,0.2381446808576584,0.1658668220043182,-0.0179507434368133,-0.0392831228673458,0.2443342208862304,-0.96872878074646,0.0,0.0,0.0,-0.12665200428288026,0.3620782251709096,0.35820729961373743,1.319437095,0.1658668220043182,-0.05987322009845081,0.054863568692306415,-0.14822254817414304,-17.096566292664416,-5.627214228696599,-18.782182123842873,0.01563945816996988,0.08498360327379638,-0.49347183606112544,0.02993616318889991,-0.030421241273360877,-0.00817444151877833,25.602509128227176,11.009732705878179,-48.73031677221338,0.043173813207104304,0.004481083965368665,0.1272063806642657
7490,1724820333536605870,-1.2256104946136477,0.2379204034805297,0.1657741367816925,-0.0179157368838787,-0.0397945009171962,0.2442916482686996,-0.968719244003296,0.0,0.0,0.0,0.1154105824415319,-0.024692687850892403,-0.4713125514091405,1.330680297,0.1657741367816925,-0.028525718290301077,0.08680306181158667,0.0050441830131438365,-2.6294375106878447,-0.39557980883945065,12.27003917598535,0.015324889331093865,0.08595854447833441,-0.49339971218649775,0.035341431752328845,-0.02794498842159321,-0.01567435825242569,9.817425269381033,19.8343794329762,18.218307984320404,0.03920394338997417,0.019050170942474354,0.1272063806642657
7492,1724820333545661165,-1.2252744436264038,0.2376090288162231,0.165578007698059,-0.0175979696214199,-0.040148951113224,0.2438043355941772,-0.9688332676887512,0.0,0.0,0.0,0.11889099505933953,0.5504560666258821,0.3646148038725479,1.339735592,0.165578007698059,-0.09184718286820463,0.05961769056060029,0.10622040997012885,2.877244636764117,4.1081260041545615,6.000106562642987,0.014577014682400856,0.08648397042131323,-0.49242633350626586,0.03372196881152689,-0.029954951481755643,-0.018514599653681074,2.0881401101796477,50.55352947995579,40.16487753337192,0.05064609633501239,0.014787543278877149,0.1272063806642657
7494,1724820333555739162,-1.2249726057052612,0.2373568415641784,0.1654266864061355,-0.018075643107295,-0.0409630089998245,0.2432673275470733,-0.9689253568649292,0.0,0.0,0.0,0.15904530756111113,0.9145538089646817,0.18448509337114882,1.349813589,0.1654266864061355,0.04785360219404549,0.18076968998594836,0.10866749115688223,-0.39496988026560054,18.76487701606049,-17.801685326820245,0.015157590910883093,0.08828928076256075,-0.4912999003380991,0.03825958039065824,-0.01574382011938269,-0.0072323976730590545,-30.908251431200142,-27.911752204657656,-53.817408872878715,0.03938821682223903,0.013411436032819022,0.1272063806642657
7496,1724820333565216637,-1.2245359420776367,0.2372903376817703,0.1654275059700012,-0.0181345082819461,-0.042999979108572,0.2442288547754287,-0.9685940146446228,0.0,0.0,0.0,-0.4448754772701904,0.07925155194323075,-0.6459260865796973,1.359291064,0.1654275059700012,-0.08295796972573592,0.41871585303027775,-0.22087340759726967,-0.4612418662716644,8.057667028297082,-5.647974565591513,0.014187128407142913,0.0922879330747621,-0.4933430590360181,0.03717150341685027,-0.011492962620092584,-0.013817384073303351,-33.65990331304304,-61.42801792917671,-20.76346695283674,0.043708028103993185,0.037082663682623626,0.1272063806642657
7498,1724820333576212564,-1.224240779876709,0.2371068596839904,0.1650981903076172,-0.018982158973813,-0.0444240942597389,0.2437473982572555,-0.9686347842216492,0.0,0.0,0.0,-0.43147915958156413,-0.2554811050001474,-0.021313659734799595,1.370286991,0.1650981903076172,0.08217177465046104,0.2898142294988047,0.08856303665155084,-5.432355384126938,-9.856635864856827,7.080434622619036,0.015186768369772334,0.0954600655466309,-0.4923180179658322,0.02806877878596481,-0.015332547394471874,-0.0202963738664117,32.71619976694899,2.7195567638825544,69.81801575906951,0.034252939894225475,0.013339650167009946,0.1272063806642657
7500,1724820333585173416,-1.2239803075790403,0.2369793504476547,0.1649868041276931,-0.0187139920890331,-0.0454843156039714,0.2437136620283126,-0.9685993790626526,0.0,0.0,0.0,0.0916967462906697,0.011044475040891788,0.6993491848742264,1.379247843,0.1649868041276931,-0.11583911928589376,0.21511693779017751,-0.0017833553367931601,-9.34522431294786,-14.21896594159801,-1.7468722545590638,0.014149942569553379,0.09738774139958299,-0.49230575093560297,0.027096655561706484,-0.016937629233813922,-0.016340292379239507,51.032140190310216,40.40674148077635,52.706357244730874,0.033397011056615133,0.017770290236363555,0.1272063806642657
7502,1724820333595375995,-1.223726749420166,0.2367750853300094,0.1647746711969375,-0.0184224862605333,-0.0455637611448764,0.2433172613382339,-0.9687008261680604,0.0,0.0,0.0,0.5269470673803232,0.5471676324857673,0.9151175371044417,1.389450422,0.1647746711969375,-0.06305127803569197,0.0017075948821045422,0.07722200857322267,10.950165608823474,5.27955049633421,-6.783763383730647,0.013583645756027432,0.09739422527314087,-0.49151391337805633,0.030357591851988275,-0.01461590704101745,-0.006209679635239773,5.476030363335228,23.962500487217305,-39.274973588620114,0.03323263660165694,0.010685917332499005,0.1272063806642657
7504,1724820333606308369,-1.2233303785324097,0.2366786152124405,0.1648776084184646,-0.0195263158529996,-0.047354731708765,0.2441956102848053,-0.9683722257614136,0.0,0.0,0.0,0.15121671198583497,0.4742757421123932,-0.22207316197479088,1.400382796,0.1648776084184646,0.12432452521440936,0.36630403558183544,-0.16712033524245784,1.1253363987412899,14.452216252682273,-9.286968789364906,0.014766266896780676,0.10142429576346813,-0.49329276530193533,0.038547094361788936,-0.0048900900520472135,0.0028830128603267724,-30.791378789194113,-45.634779323531184,-100.76068257788214,0.03497364528926396,0.028353998896446218,0.1272063806642657
7506,1724820333615526258,-1.2229572534561155,0.2366641163825988,0.1648534089326858,-0.019935842603445,-0.0489306561648845,0.244840532541275,-0.968122661113739,0.0,0.0,0.0,-0.10481165700368655,-0.24924501088256332,-1.1255379548616866,1.409600685,0.1648534089326858,0.010230909718519806,0.3526428272701907,-0.15119434865852488,-8.396116240140834,-9.333938209855758,6.063621969925352,0.01472140244897276,0.10469511565833815,-0.49464556386860986,0.03529403311603829,-0.0037465536310765657,-0.007354422050781295,14.280369209880899,-53.452269503930026,-12.553480771671168,0.036448384077994105,0.034459603059022334,0.1272063806642657
7508,1724820333630158400,-1.222561240196228,0.2365588098764419,0.164635956287384,-0.0198671612888574,-0.0491998232901096,0.2445575445890426,-0.9681819081306458,0.0,0.0,0.0,1.0809448311281593,-0.449804814837097,0.6756852920160346,1.424232827,0.164635956287384,-0.020150554132582276,0.033694783959767105,0.03823724856111312,4.171709443628732,-0.06544684361376518,4.010596379630261,0.014486235571271508,0.105179909660353,-0.494075751912135,0.039522817409064714,-0.01606403431504333,-0.02417029069219012,3.4185198232415956,17.874896969261762,67.53462759113046,0.02865048850377755,0.01900260637521284,0.1272063806642657
7510,1724820333637682749,-1.2222156524658203,0.2364036291837692,0.1644180715084076,-0.020110335201025,-0.0495919361710548,0.2444320619106292,-0.9681886434555054,0.0,0.0,0.0,0.8063364084214282,-0.19310949108123687,0.9688397796950711,1.431757176,0.1644180715084076,0.035414327946535346,0.11729073703573319,0.03383978526024149,6.964995849152577,16.012596603722653,-21.348855949839784,0.014781067124694324,0.10605864070815997,-0.4938068108879266,0.05072045323989016,-0.017931746344803656,-0.0120250483007176,-83.61080758465172,20.231171105516758,-67.53666034657233,0.05300085427563466,0.02791637652195264,0.1272063806642657
7512,1724820333645603124,-1.221773982048035,0.2362840473651886,0.164463996887207,-0.0206595007330179,-0.050624843686819,0.2456084787845611,-0.9678258895874025,0.0,0.0,0.0,-0.24870047178215993,-0.14862630125743703,-0.45397111492915987,1.439677551,0.164463996887207,0.08708072787389613,0.28499017251579145,-0.30836925464274567,0.11236118440901996,-4.810118755534482,-11.094916414818751,0.015211607251727897,0.10835225448462246,-0.49622904124492806,0.05142218742859228,-0.01900175604347787,-0.009731377665361585,-86.4513019083193,30.947097597879466,-87.30865047194145,0.055269409477067495,0.04205024598397302,0.1272063806642657
7514,1724820333656290818,-1.2212870121002195,0.2360246628522873,0.1641360223293304,-0.0204624254256486,-0.0498963110148906,0.2454358339309692,-0.9679116010665894,0.0,0.0,0.0,-0.4983826274407277,0.5474448902468287,-0.05551598146652603,1.450365245,0.1641360223293304,-0.0041752053280594975,-0.1411471027348329,0.036156693795192776,-10.997142704656635,-8.3475619311339,8.152040561783124,0.015206237371416074,0.10683799332460539,-0.495863387664046,0.04389966157461345,-0.020785363367471277,-0.025306857901046698,45.52276492185681,32.943723457493356,30.283610475407666,0.054601020156518076,0.025611029391833393,0.1272063806642657
7516,1724820333665908577,-1.2208791971206665,0.2358549088239669,0.1639391928911209,-0.0198897793889045,-0.0502996928989887,0.2458361834287643,-0.967801034450531,0.0,0.0,0.0,0.5356344234504395,0.5857344123836514,0.17517669844140693,1.459983004,0.1639391928911209,-0.1312232271973929,0.05140800309572792,-0.09388195929768717,-17.32929619211736,18.342099928120376,-11.91146081721814,0.013847877443317296,0.10734548375056727,-0.49676418801781863,0.04088463803267217,-0.009337699033899582,-0.013708202812821924,80.08823715543656,-27.165602659781186,-54.43179277398127,0.04761846409408607,0.026836225083666173,0.1272063806642657
7518,1724820333676157555,-1.220476746559143,0.235849991440773,0.1638724952936172,-0.0183622986078262,-0.0518618710339069,0.2467056810855865,-0.9675275683403016,0.0,0.0,0.0,1.0569534358070096,-0.03285813236787871,-1.2391444797237616,1.470231982,0.1638724952936172,-0.353823131406402,0.22106179060550216,-0.19838695901733253,32.941387740028645,14.878109461932526,14.843290568404901,0.010003047179182932,0.1096352486466938,-0.4987822408579601,0.05564810716238355,-0.009936955894415789,-0.023170674087344523,-48.01993953818305,13.795151233823852,-53.13384906340325,0.03521641893369999,0.03345214915783461,0.1272063806642657
7520,1724820333685429706,-1.2198233604431152,0.2356785237789154,0.163517877459526,-0.0206323359161615,-0.0529272444546222,0.2461044788360595,-0.9675772786140442,0.0,0.0,0.0,-0.21778748685604876,0.7170682495572928,-1.0199471283005432,1.479504133,0.163517877459526,0.41013088186047975,0.34496216525922047,0.14928774019172308,17.92141823660763,6.999200627046903,8.06303043434269,0.013964720999953365,0.11281698286462626,-0.49735098334145234,0.06223113773319966,-0.0100267789491717,-0.03730998223417448,-78.90921553902864,54.678343725705474,62.989181171582075,0.07460909050420314,0.04916034293884594,0.1272063806642657
7522,1724820333695316914,-1.2192949056625366,0.2356686443090438,0.1631588488817215,-0.0205913260579109,-0.0547080300748348,0.2464334219694137,-0.9673953056335448,0.0,0.0,0.0,-0.38045740976066433,0.9814445687653623,0.01769673660442539,1.489391341,0.1631588488817215,-0.09239715453171557,0.3470746155247869,-0.08131204951312458,-29.649980950858282,-6.282817941428336,-6.747065583059937,0.012964004116255796,0.11625908424978809,-0.4981136006707419,0.05029632822811436,0.004725255380781945,-0.042070427965620105,39.0866418573095,-19.498055521296735,78.15799418879695,0.05132293910725218,0.04268285222687623,0.1272063806642657
7524,1724820333705881788,-1.218799114227295,0.235783189535141,0.1626493781805038,-0.0200199149549007,-0.0559807233512401,0.2461860030889511,-0.9673974514007568,0.0,0.0,0.0,0.6594694103565679,0.2534779644207586,0.5409927456704036,1.499956215,0.1626493781805038,-0.1665887471268839,0.2073588383132717,0.03453206052559833,-6.216995876803674,-10.0004942905729,-4.6787316752421155,0.011250147454889198,0.11844521967530952,-0.49771953680508935,0.05560875625175754,0.009330074597064808,-0.036248318344969555,33.94784565430216,-23.302764669380164,9.893324321300028,0.04150419274672194,0.041386581088454354,0.1272063806642657
7526,1724820333716772844,-1.2180960178375244,0.235867828130722,0.1623890399932861,-0.0189551953226327,-0.0570128411054611,0.2471140623092651,-0.9671220183372498,0.0,0.0,0.0,0.3052083323423349,0.5116702014339038,0.20370938894305124,1.510847271,0.1623890399932861,-0.2252550038064417,0.13464044070045222,-0.19206155479278744,0.23902797816980836,-3.883236739176083,-8.45592880295223,0.008548130729946687,0.11993224428801248,-0.499811565025167,0.0645496153046281,0.01004304383998722,-0.030469608812715876,-34.3003922336212,27.700893234031703,-25.961056484881915,0.05541533831095401,0.05757237691249717,0.1272063806642657
7528,1724820333725608711,-1.2175257205963137,0.2359728515148162,0.1620727479457855,-0.0182605665177106,-0.0577415451407432,0.2478193342685699,-0.9669116139411926,0.0,0.0,0.0,-0.010572867633722893,0.7850631719589557,0.010219238520281504,1.519683138,0.1620727479457855,-0.18281533925650723,0.12035499317662673,-0.17824926853253137,1.8602232777307623,1.42979098324495,4.785601052873372,0.006743124963040082,0.12100768436773143,-0.5013897678506467,0.06354940183339153,0.017762725155249015,-0.031012919608908618,-13.823081163276676,-1.8964501196674348,-19.247997312512705,0.0548351476297008,0.058233454761201245,0.1272063806642657
7530,1724820333735827504,-1.2168880701065063,0.236223816871643,0.1618123650550842,-0.0174690280109643,-0.0588461048901081,0.2481954246759414,-0.966763198375702,0.0,0.0,0.0,0.10717271253669347,0.3776021279869125,-0.15515077087172435,1.529901931,0.1618123650550842,-0.19858565356240981,0.17097033364644507,-0.09126341488831174,2.5408160560519235,4.286434096275947,9.211695123740041,0.0046007984820849055,0.12276006359591995,-0.5023193684767695,0.06465421530238302,0.024737887060371833,-0.030061028658841416,1.750659485533157,-41.1423079243159,-9.663181327981421,0.04566473939223596,0.06343785075342646,0.1272063806642657
7532,1724820333745985087,-1.216208577156067,0.2364768981933593,0.1614607721567154,-0.017087860032916,-0.0600312314927578,0.2480915039777755,-0.96672385931015,0.0,0.0,0.0,0.026291908695623256,-0.053113125453401855,-0.18747713474857552,1.540059514,0.1614607721567154,-0.13154119185287316,0.20777836243880185,0.00936633642473519,-10.47382616391357,-6.914357792266006,-1.1790215855480515,0.003277532189652401,0.12487020835321432,-0.5022151553236102,0.06573330843380631,0.025494111883279658,-0.03414402398661487,-25.019614903765017,-42.14569168817441,23.298497755023853,0.05058914333393072,0.06645661693566787,0.1272063806642657
7534,1724820333756018609,-1.2155605554580688,0.2367384284734726,0.1611228436231613,-0.0151279428973793,-0.0607105605304241,0.2485106140375137,-0.9666064381599426,0.0,0.0,0.0,-0.3937945846016291,-0.47342949133966783,0.3087412539652392,1.550093036,0.1611228436231613,-0.4058531492028004,0.03396056567537293,-0.11233531016557101,4.206763677151207,-3.815521435444351,4.876223773483305,-0.0009362330853890182,0.12521227174312735,-0.5033507406452891,0.06520479255446077,0.0236969321215188,-0.03389929339023556,1090.1935999130887,331.37772221932346,-368.3155095396822,0.04786371592197208,0.06500304790433369,0.1272063806642657
7536,1724820333766621976,-1.2148622274398804,0.236963152885437,0.1607609391212463,-0.0153208933770656,-0.0614527240395545,0.2478305101394653,-0.9667310118675232,0.0,0.0,0.0,23.851333716308556,7.222983429974807,-8.278014186359396,1.560696403,0.1607609391212463,-0.007752700866365259,0.14487019106249907,0.12992805391433837,19.686254577804345,5.0838920282070905,9.396225876950163,-0.0008441260444070755,0.12674958700689348,-0.5019633516227847,0.05720680279537049,0.015379050565847763,-0.027439291537004085,-85.36021180195894,9.844889623067843,56.61931392874595,0.05147057186275172,0.06367069002074936,0.1272063806642657
7538,1724820333785815337,-1.2140648365020752,0.2370563149452209,0.1604667752981186,-0.0130380066111683,-0.0625874996185302,0.2491308152675628,-0.9663574695587158,0.0,0.0,0.0,-60.192574001511275,-17.46357306787411,22.91056766985048,1.579889764,0.1604667752981186,-0.25035106146515546,0.055674158175608314,-0.1570642952282566,-12215.704126656072,4398.8596580131225,-4197.095861936593,-0.006035462874433874,0.1278078030895352,-0.5050062786622477,1.3698493614538165,0.4322090744350362,-0.4950856684841938,-13351.142984411796,-4189.240409848371,4827.36732714744,0.035686852535134976,0.03665325459748508,0.1272063806642657
7540,1724820333786346958,-1.2133170366287231,0.2372923791408538,0.1601965129375457,-0.0113814668729901,-0.0636860355734825,0.2496358752250671,-0.9661762714385986,0.0,0.0,0.0,-67.42243908969647,-19.733408266535633,25.52405263196041,1.580421385,0.1601965129375457,-6.924165168350904,2.4590416569712064,-2.4499103578440873,-11848.91876034758,4268.790486739477,-4070.5374383145186,-0.009886067884604725,0.1291046720217618,-0.5063299741398631,1.3359563491354205,0.42234813509443137,-0.48220980008337555,-12880.538465310949,-4052.299979278793,4647.768023226032,1.071806312853197,1.375083193914528,0.1272063806642657
7542,1724820333795810460,-1.2125818729400637,0.237634003162384,0.1600408107042312,-0.0103173600509762,-0.0658980458974838,0.25014129281044,-0.9659090638160706,0.0,0.0,0.0,-68.17280315931177,-21.46729336139984,24.309905282294743,1.589884887,0.1600408107042312,-0.32653506871328963,0.3979113968655012,-0.13694121986084248,370.2471060550091,-115.88401119600408,137.96853422578832,-0.013152662270973774,0.13285511657543064,-0.5076807200854409,0.07992675724010212,0.03604210889432835,-0.020982191933878624,3249.25721547371,896.4568369945539,-1283.7542966422864,0.05207235242760303,0.08277150567075149,0.1272063806642657
7544,1724820333805812523,-1.211758732795715,0.2379938960075378,0.1597830653190612,-0.0103689087554812,-0.0675183832645416,0.2495294064283371,-0.9659549593925476,0.0,0.0,0.0,-0.4865427529023503,-1.0873367007303063,-0.7449313027177327,1.59988695,0.1597830653190612,-0.07924716350110378,0.3161910962124218,0.11781296242755118,6.442421275387208,-5.523623275719428,5.827813045701223,-0.013791691034360915,0.13603329223242377,-0.5065348005650505,0.08044167202696428,0.02591419784371496,-0.036063963480359895,3442.2418588267938,1042.0541507164935,-1251.030368310763,0.05749759334965788,0.08546637931309313,0.1272063806642657
7546,1724820333815802690,-1.210973620414734,0.2381523251533508,0.159320056438446,-0.0097684171050786,-0.0691520348191261,0.2495439052581787,-0.965841829776764,0.0,0.0,0.0,0.724348871107007,-0.6106357534913442,-0.73079749413639,1.609877117,0.159320056438446,-0.19730201152646903,0.2874189165593463,-0.01996318815763903,-2.4812258861145375,-4.822704856050266,-9.62843043621959,-0.015796234733054023,0.13890137397874194,-0.5067789326415029,0.07021247566473932,0.014305600987077227,-0.035893170821846176,85.90181071265438,57.11446428958392,-0.3718563645640778,0.06684303748167145,0.06974999741234084,0.1272063806642657
7548,1724820333830428840,-1.2101260423660278,0.2383283078670501,0.1590189188718795,-0.0098141664639115,-0.0704566165804863,0.2500202059745788,-0.9656239151954652,0.0,0.0,0.0,1.224725760681661,0.42596108492256946,-0.7744942559653882,1.624503267,0.1590189188718795,-0.033679121130831796,0.17528230488543828,-0.07165117937660043,-80.27848301004514,-10.128373904427336,-18.237737948761552,-0.01644251407727725,0.14144786579354887,-0.5078789265771081,0.11824357375968475,0.017181028248653973,-0.06259693029577562,-357.13690237629044,-14.986286948547775,234.2396073869554,0.04723881488358856,0.053255146057285124,0.1272063806642657
7550,1724820333835864966,-1.2093614339828491,0.2384321093559265,0.1585937589406967,-0.0081352433189749,-0.0712093636393547,0.2504175007343292,-0.9654812812805176,0.0,0.0,0.0,-1.5074161755823559,0.1710193021047992,0.9781684217356992,1.629939393,0.1585937589406967,-0.6548849079985039,0.11524980759212264,-0.20050216327689233,-70.84421373861484,-4.328965173833774,-11.662147860544978,-0.020159707057141343,0.14205431050858996,-0.5089912640845736,0.12074083086649523,0.01996003013853276,-0.06468315546378989,-367.43633392824097,-55.43371722055225,239.72419563283427,0.12344798480101514,0.12040621471491025,0.1272063806642657
7552,1724820333845468470,-1.2085397243499756,0.2386384755373001,0.1582020670175552,-0.0055494410917162,-0.0728025063872337,0.250706136226654,-0.9653059840202332,0.0,0.0,0.0,-2.7431276828515267,-0.5061575852735823,1.8775400935317397,1.639542897,0.1582020670175552,-0.5984304972749159,0.18758862530459583,-0.10822374869733298,12.131191372463027,2.252998101042961,2.6772674714984666,-0.026062289427722145,0.14383135280503212,-0.5100831914365288,0.0728963924070598,0.01583086626868635,-0.03218316143902378,29.011692402127604,-35.406101958621086,-18.83537265421268,0.06936323304824693,0.07869960855914127,0.1272063806642657
7554,1724820333857191463,-1.2078664302825928,0.2387430965900421,0.1579478979110717,-0.0036026965826749,-0.0741302892565727,0.251540333032608,-0.9649970531463624,0.0,0.0,0.0,-0.14651633190650148,-0.4188270382617863,0.0470338443810312,1.65126589,0.1579478979110717,-0.36673935143975994,0.13844887070306108,-0.17603053533462018,-1.1267858588206465,7.245330572373824,-4.316821701095847,-0.030668682476301997,0.14539519717892266,-0.5122142034736465,0.07277722789113739,0.008806839298841851,-0.03173318091032584,125.60282618711392,13.285478317919452,-40.66919588809368,0.04834792277044198,0.05080911862066844,0.1272063806642657
7556,1724820333865451684,-1.2071759700775146,0.2388151586055755,0.1576272696256637,-0.0018323012627661,-0.075705699622631,0.2521929144859314,-0.9647093415260316,0.0,0.0,0.0,0.3328568349648877,-0.275119004010578,0.3832099670014137,1.659526111,0.1576272696256637,-0.4976363042072916,0.26486400909589575,-0.2031485353469033,-1.421232634131097,10.012228769058488,1.0145721705012098,-0.035037283200491876,0.14752672797299132,-0.5139821216636065,0.0707733660882397,0.006396864994907325,-0.03129432889940276,45.45447197856088,14.947137603662906,10.837625309857595,0.07346085089404189,0.07061124634602733,0.1272063806642657
7558,1724820333881826784,-1.2064330577850342,0.2388443648815155,0.1573589891195297,-0.0019181732786819,-0.0778450816869735,0.2525272965431213,-0.9644514322280884,0.0,0.0,0.0,0.6688227573185568,-0.10990527368307162,-0.40865898625757646,1.675901211,0.1573589891195297,-0.05262969593623249,0.2570305758994288,-0.04702791227488522,-57.31345110935829,35.60426267198442,-65.47635059639533,-0.03603765772976508,0.15170562127549825,-0.5149116720621881,0.09490418553920676,0.002431855870952404,-0.01430409409266531,-262.7098511917631,-3.496981865266129,-18.435733300290153,0.04063995713278193,0.037457390324960115,0.1272063806642657
7560,1724820333887358145,-1.2058155536651611,0.2388590276241302,0.157283753156662,-0.0007569639128632,-0.0796068981289863,0.2538754642009735,-0.9639551639556884,0.0,0.0,0.0,-1.313513500941943,-0.15463359678292155,-0.45472539485260344,1.681432572,0.157283753156662,-0.5275145227710843,0.5213889868980232,-0.5493539188085147,-41.59008301350386,4.908735922981544,-31.823740245590557,-0.039440852332755655,0.15447291337328742,-0.518094221123999,0.09709995071683863,0.0020709967133338836,-0.01926672322761025,-271.2127179356471,-17.96345362249442,2.0205042483001225,0.09662698168158028,0.09504683900867066,0.1272063806642657
7562,1724820333895707597,-1.2051880359649658,0.2388690114021301,0.1570514887571334,0.0005189410876482,-0.080031044781208,0.2540579438209533,-0.9638721346855164,0.0,0.0,0.0,-2.4793803219912403,-0.42910304627507273,-0.30742727579713913,1.689782024,0.1570514887571334,-0.31690850022308836,0.021895797129580327,-0.07159108636371751,17.6408447863966,-31.125432110396673,28.023428916169753,-0.04218107677884468,0.15463119553613505,-0.5187062372015122,0.06457515633641009,-0.00034677810748462434,-0.017487041140423543,-7.092117972844857,-26.574107623630297,-1.49327932650559,0.0681906199057772,0.06077840504995063,0.1272063806642657
7564,1724820333906797952,-1.2046277523040771,0.2388424426317215,0.1570097357034683,0.0017087490996345,-0.0808901488780975,0.2549748122692108,-0.9635568261146544,0.0,0.0,0.0,-0.6055578299204085,-0.6310338822402223,-0.6058653843386721,1.700872379,0.1570097357034683,-0.23297192839991532,0.09945517484036469,-0.1909093711615081,12.032433351587269,-8.573234950695706,29.226741338023388,-0.04510314894372292,0.15564074830660588,-0.5208958321624659,0.05793796581325239,-0.00716110546009574,-0.028565148510903526,47.267550166018864,1.1033764055716588,63.50684020538756,0.045051365710979424,0.041523321785599664,0.1272063806642657
7566,1724820333915262594,-1.2040894031524658,0.2387510389089584,0.1566077172756195,0.0020975973457098,-0.0807022303342819,0.2536551654338836,-0.9639200568199158,0.0,0.0,0.0,-0.9916569040122405,-0.4969328045219533,0.51584087746899,1.709337021,0.1566077172756195,-0.10228161928946891,-0.07368378612083185,0.3148140934881748,5.89093210887302,-5.663725731369817,13.287339836589332,-0.045547483679018806,0.1551384257969432,-0.518172719865341,0.0527663124625235,-0.012609805218284365,-0.031154377249682064,-5.055062086724973,26.051183536945835,76.89008392100634,0.06720988128878708,0.04187072324835865,0.1272063806642657
7568,1724820333925530343,-1.203682541847229,0.2385990023612976,0.1564913392066955,0.0028775236569344,-0.0811693146824836,0.2542193830013275,-0.9637301564216614,0.0,0.0,0.0,-0.5384120367939214,-0.10229715658162586,0.6125026306979873,1.71960477,0.1564913392066955,-0.16072260635324864,0.052379254870906104,-0.12738758700231814,-5.084028635903603,0.5035918773687476,-19.95014442634232,-0.0474063169328247,0.15561488961094588,-0.5195205038296073,0.037842809199737815,-0.01588419457177359,-0.015623268185263939,58.57721133354622,24.766880842165307,-70.28776629452285,0.0430003712321198,0.024942860977022228,0.1272063806642657
7570,1724820333935857360,-1.203310251235962,0.2384237796068191,0.1562854498624801,0.004031223244965,-0.0811174511909484,0.2545958161354065,-0.9636309742927552,0.0,0.0,0.0,0.2164430187668529,0.011510531991924089,-0.9411940308190192,1.729931787,0.1562854498624801,-0.20691376009611664,-0.06471209790149397,-0.093306368361208,-8.66413351144763,-0.7724313167711787,-5.212633984183368,-0.04968867897437432,0.15490062198313168,-0.5204618012227635,0.041786618724302116,-0.014690841835385271,-0.018647032065690183,-3.425822814170786,6.39630717585969,-77.77104009209998,0.04231472151378394,0.0194301521270123,0.1272063806642657
7572,1724820333945189458,-1.2028719186782837,0.2383058816194534,0.1561223119497299,0.0055445367470383,-0.0815744027495384,0.2554344832897186,-0.9633629322052002,0.0,0.0,0.0,-0.46083098327457606,0.03220651837008026,-1.054059574010198,1.739263885,0.1561223119497299,-0.32311356244768424,0.017182231682782153,-0.21374016892085926,-2.976367527847737,-1.1246073816258488,3.6731136367821335,-0.05301641307019564,0.15495838179724603,-0.5224863275233451,0.04241124627099424,-0.0154608462993302,-0.03289826300838339,594.4239616101063,-252.84009916558975,-737.7888648272123,0.0491431039762251,0.0312126474470608,0.1272063806642657
7574,1724820333955453866,-1.2024880647659302,0.2381152659654617,0.1556105762720108,0.0068986834958195,-0.0813733041286468,0.2552729249000549,-0.9634140729904176,0.0,0.0,0.0,13.17089974276557,-5.442614267943323,-16.820014468044505,1.749528293,0.1556105762720108,-0.24668986996763032,-0.10613262403374164,0.011130456442384001,6.589243962129719,-5.386557809995688,11.766087324810965,-0.055521590457889576,0.15387681103723538,-0.5223111269863039,0.031722705327482004,-0.013835116327536312,-0.03837677806501105,124.56972959476803,-49.1347866802121,-72.78575581257883,0.04882393227926045,0.014921576083787177,0.1272063806642657
7576,1724820333974908081,-1.2020801305770874,0.2380207180976867,0.1552872210741043,0.0083280131220817,-0.0820501297712326,0.2564108073711395,-0.9630431532859802,0.0,0.0,0.0,-28.78039424970234,11.456432950497515,35.714604972996085,1.768982508,0.1552872210741043,-0.15007309619786108,0.03343512422635959,-0.13391214319310665,2951.164528015055,3887.229491800254,277.38937634449553,-0.0588510005499439,0.15437731178831424,-0.5249808729545181,0.8119813782600431,-0.326235443821588,-0.9661001082887992,-7108.089349697497,2881.677924468582,8538.974656914805,0.022891966768195823,0.012838008425293448,0.1272063806642657
7578,1724820333975450781,-1.201627492904663,0.2378388047218322,0.1547485440969467,0.0077833803370594,-0.0825214236974716,0.2564435303211212,-0.962998628616333,0.0,0.0,0.0,-32.712919299074706,13.050795291809274,40.437098124636734,1.769525208,0.1547485440969467,1.4961272850346594,2.201775909554101,0.02093942606770648,2877.4559459917914,3789.318163367077,270.41338558270587,-0.058048173638394325,0.15557080966526288,-0.5250399443746222,0.795319344451312,-0.31960148473787586,-0.9454551419320099,-6904.740452340177,2800.580281559931,8286.32388877078,1.032773694276011,0.38614043795265557,0.1272063806642657
7580,1724820333985975976,-1.2011620998382568,0.237659141421318,0.154418334364891,0.0080620301887393,-0.0825905054807663,0.2573325932025909,-0.9627532958984376,0.0,0.0,0.0,-35.68091161250875,14.510321468468666,42.832486321040676,1.780050403,0.154418334364891,-0.04077792089132912,0.004224687637091893,-0.1789111207097458,-100.72299411526194,-114.71473531818845,-19.274474109922398,-0.05877255657374999,0.1555052946003938,-0.5269454822387875,0.04054850993590975,-0.013465916280859247,-0.030781948893737976,1589.416315412523,-665.1214253485372,-2003.8302968186047,0.05109753845927046,0.02420299608406287,0.1272063806642657
7582,1724820333996310608,-1.2007802724838257,0.2375565469264984,0.1541062146425247,0.0116205792874097,-0.0822734162211418,0.2589511573314667,-0.962309956550598,0.0,0.0,0.0,-0.2647544987244208,-0.5199501166528048,-0.5197032760311187,1.790385035,0.1541062146425247,-0.6220451115346436,-0.2266834201140552,-0.3810145084541774,-0.6017465410234202,12.795715975422848,6.194530455185436,-0.06578943588766921,0.1529220513721381,-0.5307751048817843,0.03741406044287032,-0.01141381754830384,-0.03533244380848366,1615.6759686397722,-709.363239286985,-1985.5092974063427,0.04105830652264086,0.021598703236428252,0.1272063806642657
7584,1724820334005636612,-1.2004274129867554,0.2374375909566879,0.1537335216999054,0.012149148620665,-0.0833052918314933,0.259378045797348,-0.9620996117591858,0.0,0.0,0.0,-0.4402114535184951,-0.8657227414864045,-0.44320213807646525,1.799711039,0.1537335216999054,-0.15937708616345375,0.18837157029421053,-0.10653314337864438,24.30213784825264,5.4803299888060115,17.16809372395801,-0.06744755100578423,0.15460875508957778,-0.5318965561944127,0.035269314584830624,-0.02230976674468721,-0.0408473145197954,-15.384558791471632,18.660115067647308,22.10964914662193,0.044765877927877805,0.019221922898851253,0.1272063806642657
7586,1724820334015366039,-1.2001103162765503,0.2371235489845276,0.1533271223306656,0.0132115306332707,-0.0828056037425994,0.2595953047275543,-0.9620701670646667,0.0,0.0,0.0,-0.5550872379917184,-0.11843030670351673,-0.0869311636583574,1.809440466,0.1533271223306656,-0.17981903995956477,-0.15442140153646577,-0.06397804684258193,-0.18466879127616487,-17.628470391848456,8.015649419639027,-0.06927747297404149,0.15306731735036389,-0.5324211546175579,0.028852343972467054,-0.02766109044759979,-0.04365573915766241,3.460418827763286,53.89554111765738,51.59268798272046,0.05031378466225744,0.004758230057551416,0.1272063806642657
7588,1724820334026452366,-1.1998376846313477,0.2368752062320709,0.1528193205595016,0.0142031880095601,-0.0823578014969825,0.259135365486145,-0.962218463420868,0.0,0.0,0.0,-0.32385819771647695,0.1896394541078712,0.6742110050091981,1.820526793,0.1528193205595016,-0.15765779630821122,-0.12747288632586212,0.07089091270088609,-6.009397369579361,9.030031483529191,-5.428735468717646,-0.07088971567073515,0.15171261612463302,-0.5315278531604363,0.024017992789978848,-0.023522078211900777,-0.04207124716508126,16.729267286811897,2.375502451117215,48.58567426872645,0.03910130700915564,0.002239922431057045,0.1272063806642657
7590,1724820334035772039,-1.1996183395385742,0.2366472035646438,0.1524564772844314,0.0154774999246001,-0.0827213153243064,0.2595566511154175,-0.9620541334152222,0.0,0.0,0.0,-0.2002868689960422,0.012681003413369307,0.9697722662567763,1.829846466,0.1524564772844314,-0.2764053187377252,0.00838610743013629,-0.11754468197409247,1.7172261677452427,6.322338194659951,-8.31801717983098,-0.0736336434404502,0.15171149603909292,-0.5326389446313075,0.02187882364449223,-0.02319394065127689,-0.031625423002511255,12.011087774883308,-27.320556806629284,-8.459661444009706,0.038207046613028775,0.0013774636102607135,0.1272063806642657
7592,1724820334047155602,-1.199392318725586,0.2364008426666259,0.1521980762481689,0.0158560015261173,-0.0826111063361167,0.2597832977771759,-0.9619961380958556,0.0,0.0,0.0,-0.08091216758405928,-0.4141896358260293,0.31488026259827673,1.841230029,0.1521980762481689,-0.05581427658865032,-0.034429334289820736,-0.046754313843717775,1.9664855380932273,-2.414174554958019,0.20589774197792376,-0.07434559904293464,0.15128125948294624,-0.5331464373643819,0.020005493628623583,-0.02336282823388558,-0.02268642557770928,-4.328362983518105,-18.297183346012947,-41.96672738744766,0.031198737004605348,0.002348817886274139,0.1272063806642657
7594,1724820334057606719,-1.1991817951202393,0.2361401617527008,0.1519611030817031,0.0169806852936744,-0.0826422944664955,0.2602061331272125,-0.9618600010871888,0.0,0.0,0.0,-0.2682985500239148,-0.4211746050135181,0.025607762055967598,1.851681146,0.1519611030817031,-0.2023269453175162,-0.046735729828471705,-0.10229508407950082,-19.9505832901887,-0.8154774745162121,-7.049524628860057,-0.07661674765630036,0.15071359652908362,-0.5341875279268807,0.019962519055539474,-0.031523389465959895,-0.02390884186778308,5.7190127431503415,45.27557556793152,25.491059559067864,0.033100681395959265,0.0009200907836766148,0.1272063806642657
7596,1724820334065162656,-1.199031949043274,0.2358660250902176,0.1517737060785293,0.0184830222278833,-0.0828255116939544,0.2606819272041321,-0.9616877436637878,0.0,0.0,0.0,-0.0958977473843029,0.17190646748776173,0.5086710244406991,1.859237083,0.1517737060785293,-0.38547605315844613,-0.05091966846954007,-0.1650397949622088,-6.598350084627156,-0.25271754605441554,-0.4760501768605856,-0.07971333014578859,0.15023266333936328,-0.5354146167735666,0.016492078108882424,-0.032741030755900624,-0.02293650644802625,30.449351007327586,41.026004792265155,39.30387477167628,0.03887809500332972,-0.005405589452272136,0.1272063806642657
7598,1724820334076977522,-1.1988987922668457,0.2355445921421051,0.1515371650457382,0.0193515494465827,-0.0827597826719284,0.2607572376728058,-0.9616559147834778,0.0,0.0,0.0,0.4048673767159534,-0.03553799809197278,0.5180594175782915,1.871051949,0.1515371650457382,-0.13753321940766597,-0.048344506949193844,-0.026047430556903808,-2.6233586440258243,11.65936712954037,-12.646898190737534,-0.08137766706595329,0.14963857473141745,-0.5356783832300399,0.022072678865839634,-0.024556970640720266,-0.009906629127229394,-22.8969541649887,-36.9321077890753,-55.19079587463354,0.02629927885134277,-0.007362576298043414,0.1272063806642657
7600,1724820334085685657,-1.1986372470855713,0.2353477478027343,0.1515158116817474,0.0206192750483751,-0.0836192518472671,0.2618812322616577,-0.9612496495246888,0.0,0.0,0.0,-0.2135186679567601,-0.4814975590987156,-0.3218819487890686,1.879760084,0.1515158116817474,-0.31190810561811816,0.12662147552292768,-0.29285657290472683,-9.63807763036698,2.515275320082457,-8.394301048108531,-0.08449193293915358,0.15052614704649847,-0.5383410775034314,0.02516527556620929,-0.029540453339389927,-0.00914859187315109,-61.81540367767808,3.5593888610682063,-51.07688615138547,0.03732126339731352,0.013771501990164896,0.1272063806642657
7602,1724820334095771615,-1.1984403133392334,0.2349687814712524,0.1513453125953674,0.0221343766897916,-0.0837284177541732,0.2623243927955627,-0.9610856771469116,0.0,0.0,0.0,-0.7295482699404094,0.19422785725331537,-0.3069463783877104,1.889846042,0.1513453125953674,-0.2877869733924664,-0.05333992043388615,-0.11766258398377881,1.2417348578107728,-9.093342915727302,13.727823394964156,-0.0875665036535037,0.1498882054247411,-0.5394902154315623,0.016368801640432196,-0.03333632847058077,-0.017172126317829495,45.209660220734186,-38.65664478811458,-181.18904200893218,0.0381739553780301,-0.005159022230880633,0.1272063806642657
7604,1724820334106612286,-1.1982996463775637,0.2346567660570144,0.1511560380458831,0.023709388449788,-0.0838757455348968,0.2622462511062622,-0.9610565304756165,0.0,0.0,0.0,0.8834773107643252,-1.4558932920451186,-4.399600510904584,1.900686713,0.1511560380458831,-0.28772328537563685,-0.0499708176003955,-0.011282928609869783,1.0631193956433425,0.19869176781530679,7.537616723579169,-0.09069670366174361,0.1493377332237847,-0.539564594647616,0.010121590472923714,-0.02458244745789062,-0.014806894828100159,-145.51701230063242,257.5145702893377,633.094944444483,0.02822869993991557,-0.006416986859978222,0.1272063806642657
7606,1724820334140819184,-1.1982614994049072,0.2342691570520401,0.150935873389244,0.0262117441743612,-0.0835828855633735,0.262010395526886,-0.961081326007843,0.0,0.0,0.0,-35.86130808148124,51.57803513032309,126.34041594472183,1.934893611,0.150935873389244,-0.13724124044784305,-0.05527306984409469,0.0009555147245965163,-22199.21569340911,1505.6669333750212,43.453037061602956,-0.09536017440749997,0.14745820803444787,-0.5393540430274658,0.19790424708025967,-0.3186888064595905,-0.6637341014970275,-1841.4340485513094,-26109.318563129083,6041.285292422981,0.00764853320407156,-0.005833065675098554,0.1272063806642657
7608,1724820334141247548,-1.1981756687164309,0.2341309934854507,0.1506480276584625,0.028188019990921,-0.0842538997530937,0.2618342936038971,-0.9610148668289183,0.0,0.0,0.0,-36.65422784356014,40.24536831517264,128.94018977095845,1.935321975,0.1506480276584625,-9.765692698087985,0.5977781057792213,0.01980040695922404,-19785.359218607235,1363.7535953996705,18.231050033221003,-0.09954591139273196,0.14771390557730932,-0.5393707696088221,0.1823207353742191,-0.29627183203676033,-0.6088349248635678,-708.365223525534,-27053.056967977427,2017.235238018055,0.4327987063052359,-0.10947177176661725,0.1272063806642657
