seq,stamp,px,py,pz,ox,oy,oz,ow,lx,ly,lz,ax,ay,az,timestamp,lyap_z,wx,wy,wz,aa_x,aa_y,aa_z,roll,pitch,yaw,vx,vy,vz,jx,jy,jz,forward_velocity,forward_velocity_1
16408,1724813451415468249,0.937506914138794,-0.6539183259010315,0.1267955601215362,0.0052909362129867,-0.0002285658702021,0.9719902276992798,-0.2349615395069122,0.0,0.0,0.0,-0.19233525502174656,-0.3205309317969772,0.2790134482773169,0.0,0.1267955601215362,0.0,0.0,0.0,-11.079350447148038,1.6151073481683385,1.3265258773973727,-0.002930816626182132,-0.010178243949075952,-2.6672129409257908,0.008915586629708825,0.03008703476967854,-0.01064405607616811,-10.136605016982344,26.9067981069231,-24.66622150791372,0.0,0.0
16410,1724813451425175512,0.9375934600830078,-0.6536262631416321,0.1266922354698181,0.0053396080620586,-0.000754163833335,0.9719756841659546,-0.2350194752216339,0.0,0.0,0.0,-0.29073394584871365,-0.059339566085172546,0.039571948883741825,0.009707263,0.1266922354698181,-0.10755016865963361,0.01567827180190263,0.012876935568202054,-3.3742100621226,1.0421440211292508,0.8186525119564272,-0.003976091883941519,-0.010025619972017777,-2.667088456754676,0.00704853772504066,0.02697555671509022,-0.007935599153203299,0.48195498416602334,18.806363117946145,-20.56254500200461,-0.02178289926894571,0.005701068583361021
16412,1724813451436042280,0.9376473426818848,-0.6533709764480591,0.1266389489173889,0.0052982149645686,-0.0010468180989846,0.9719561338424684,-0.2351002842187881,0.0,0.0,0.0,-0.15632428531202947,0.04648486940418306,-0.13395616570777624,0.020574031,0.1266389489173889,-0.05048564610989565,0.02003304053219276,0.01559487849840061,-2.561855673982145,-1.2268213133111705,5.087745667370159,-0.004526379362924186,-0.009807207812214579,-2.6669199425088195,0.0026922016897330536,0.02950806098087355,-0.010418331351628396,16.751723249987858,-26.860648369490647,12.685716083243076,-0.015194788815566488,0.006273128760029829
16414,1724813451444991114,0.9376547336578368,-0.6530625820159912,0.1265050768852234,0.0054483376443386,-0.0016156845958903,0.9718533754348756,-0.235517993569374,0.0,0.0,0.0,0.025883118738833727,-0.4635995386042213,0.1907322102423803,0.029522865,0.1265050768852234,-0.13098949452305456,-0.0029397541997975593,0.09677473560125388,-2.3047480025296787,1.1661413523507895,0.9048852897441421,-0.005707086817212944,-0.009829083337088066,-2.6660537412619023,0.0030955568787760512,0.02854916938650831,-0.01092057082177611,9.463330741726338,-32.22574580905127,27.44746506357727,-0.016657813483107242,0.014871272021448865
16416,1724813451454637999,0.9377081990242004,-0.6528486609458923,0.1264417320489883,0.0053222430869936,-0.0020618375856429,0.9718304872512816,-0.2356118559837341,0.0,0.0,0.0,0.0038454727990280824,-0.516839528266636,0.36363311938973264,0.03916975,0.1264417320489883,-0.0836380526699814,0.04713358219610063,0.020575678980723464,4.796412023885302,2.9627283645969866,-4.0535425081526375,-0.006515812724554811,-0.009373186673251672,-2.6658580311643423,0.0031456802357432423,0.020370049091052778,-0.006513451480149257,-2.894947297356117,7.8591098645834165,2.446785813765798,-0.015143726206745823,0.005153709341472267
16418,1724813451467560252,0.9377073645591736,-0.6526166796684265,0.1263584792613983,0.0050634969957172,-0.0022825303021818,0.9717788100242616,-0.2358286380767822,0.0,0.0,0.0,-0.04413161357365833,-0.18371323780206938,0.127362958660889,0.052092003,0.1263584792613983,-0.023597285474215954,0.04685454653669558,0.03475543888293311,0.13920834445548858,-0.20612994946654517,-3.393166698223345,-0.006824779481034894,-0.00876473836342257,-2.665412957126647,0.0031719985291971398,0.019421023634542678,-0.0034279401582519853,-9.29592062489284,13.713448236934077,-25.524063207944682,-0.008227763722398475,0.008214907616461422
16420,1724813451475167379,0.937745988368988,-0.652462363243103,0.1263459026813507,0.0049375803209841,-0.0024801052641123,0.9717892408370972,-0.2357861399650573,0.0,0.0,0.0,-0.1398493974215927,-0.1334264240801174,-0.09922436204714977,0.05969913,0.1263459026813507,-0.04272198529000883,0.04446009909963108,-0.011166060451883583,0.3834426028574919,-0.2783417873480172,-2.728987887160918,-0.007149019974049823,-0.008427125713273238,-2.6655002225958384,0.0026295331437928837,0.017529673801075063,-0.002957999035565262,-4.750816373591967,10.000269452829086,-20.16673666804605,-0.01382328936108529,0.004765518094199729
16422,1724813451487454872,0.9377297163009644,-0.6523016691207886,0.126283660531044,0.0046596745960414,-0.0024248301051557,0.9717604517936708,-0.2359111756086349,0.0,0.0,0.0,-0.042782755758144955,0.05673053900012004,-0.15610088306802372,0.071986623,0.126283660531044,0.019497564978147204,0.04176286038623132,0.020950190651082078,1.9948542775359177,-5.0440365820914295,3.766491862982677,-0.006911517982813512,-0.007912168493015657,-2.665246443043045,-0.00044919829454670435,0.018176674504452706,-0.0073726815002093105,14.809684590658836,-17.19689325112723,18.48951245132957,-0.004859732080712954,0.007121029896573666
16424,1724813451494687992,0.9377301931381226,-0.6521484851837158,0.1262205094099044,0.0046950527466833,-0.0023393908049911,0.9717150330543518,-0.2360982745885849,0.0,0.0,0.0,0.09375929244495967,-0.2067707125237832,0.07606982458163164,0.079219743,0.1262205094099044,0.020860187431558246,-0.015263259335230952,0.053101917881229706,-1.0686410216972921,-3.5757254128178015,0.406719227787101,-0.0067636992182549495,-0.008019940377317694,-2.6648615769028043,0.00012602064897748733,0.018604365286314817,-0.007636665217595429,16.603003096998414,-32.30491956052532,18.66948522333642,-0.009846438829154279,0.009569036030324224
16426,1724813451504874242,0.9377323389053344,-0.6519958972930908,0.1261584162712097,0.0046546827070415,-0.002391415880993,0.9717159867286682,-0.2360945641994476,0.0,0.0,0.0,0.2302561209651017,-0.4766646864054803,0.07360473232399606,0.089405993,0.1261584162712097,-0.008057418814210023,0.01011645358905884,-0.0006856105020592386,-1.7606100373503715,1.6814784726503131,-3.2370253935244007,-0.0068457126594325905,-0.00791694132137395,-2.6648692482533294,0.0012852582473783514,0.012683787122249157,-0.0052470256690257955,10.935802936543158,-4.481815031757213,-5.422317723445566,-0.007108986415395173,0.006623713316281486
16428,1724813451515818710,0.9377590417861938,-0.6518840789794922,0.1261109709739685,0.0045727672986686,-0.002493530511856,0.9717319011688232,-0.2360296845436096,0.0,0.0,0.0,0.32096462165712136,-0.2668492764425829,-0.046655627651371046,0.100350461,0.1261109709739685,-0.01464677366037316,0.018993422440642508,-0.0120847731638042,-0.13101228980926427,0.3736553710236721,-0.6134267761428085,-0.007004969422920954,-0.007709989666383585,-2.6650029687729373,0.005174662108409223,0.00869657002844093,-0.006334561246263526,-8.196629024966064,15.231998583590375,4.103191833663466,-0.006888194972124191,0.0024748739359903506
16430,1724813451525598405,0.9378335475921632,-0.6518123149871826,0.1260315477848053,0.0044971252791583,-0.002571060322225,0.97174870967865,-0.2359610348939895,0.0,0.0,0.0,0.09674623316325437,-0.1523066644401047,0.12535454169676255,0.110130156,0.1260315477848053,-0.011811500126456903,0.018824951393912565,-0.014342619140330313,0.5650987656439941,0.048501572562218986,0.10115757277150883,-0.007119403581717709,-0.007526882336834076,-2.6651445229506097,0.008012879099794645,0.006938593741267596,-0.0063301872208967325,20.117136517571154,57.24592350581443,-28.717747612108372,-0.010196214691746088,-0.0034856050641546648
16432,1724813451535388642,0.937915861606598,-0.6517482995986938,0.1259871274232864,0.0044065196998417,-0.002610913477838,0.9717607498168944,-0.2359126657247543,0.0,0.0,0.0,0.7155636455926205,0.8544101024297042,-0.6096368427578922,0.119920393,0.1259871274232864,-0.0035820241272659084,0.019943981477615065,-0.01009812208415888,0.6125759854620197,0.00025042036665068844,0.401965214749559,-0.007153727412919228,-0.007332336359549843,-2.665244768552296,0.0070638980126096484,0.005716518053522357,-0.0038787464247389547,-211.22167978126487,645.2860899374621,-143.89656392685694,-0.010502993667111058,-0.004518169924385924
16434,1724813451575790661,0.9379771947860718,-0.6516544222831726,0.125940203666687,0.0044683399610221,-0.0029461944941431,0.9717557430267334,-0.235928326845169,0.0,0.0,0.0,-53.5737267571821,117.36903099101812,-17.898127798195446,0.160322412,0.125940203666687,-0.01684773108369492,0.000938546294681536,0.0008769879733466195,127.15977320258497,968.026381887391,-1952.088050678435,-0.007834667349476836,-0.007294153243043394,-2.665209653077379,0.17144115274777505,0.20350413153823865,-0.171902389959655,127497.53066910274,-129331.27659097259,-122118.80768895922,-0.0024229754266155623,-0.00029534541146919284
16436,1724813451576171963,0.938043177127838,-0.6515761017799377,0.1258740425109863,0.0043981145136058,-0.002956410171464,0.9717898368835448,-0.2357891052961349,0.0,0.0,0.0,-4.495013542352268,67.57896542993132,-64.90019180143017,0.160703714,0.1258740425109863,0.032097325099924495,0.3735341865260021,-0.7504838761635813,-1545.6902238592709,189.3856690447076,-80.63597774734876,-0.00782035351845052,-0.007153968375424443,-2.6654969401873143,0.15080595139738762,0.24866192650245011,-0.17877642442800834,152912.87280244374,-225322.3043666262,-93617.91348658656,-0.24917435553661074,-0.06139628802546836
16438,1724813451576553003,0.9380921721458436,-0.6514648795127869,0.125803917646408,0.0044248197227716,-0.0031840268056839,0.9717919826507568,-0.2357766032218933,0.0,0.0,0.0,62.98550240350792,-54.35399677269868,-89.28252613675625,0.161084754,0.125803917646408,-1.194315405220709,0.14572785147713652,-0.06158516034294288,1018.0018842595197,-355.28109304199154,-76.60737183488811,-0.008275264315170958,-0.007098630230070295,-2.66552081124862,0.1679884217601284,0.25504905226318897,-0.2213539792804795,104013.89888953499,-245716.0362033702,5037.833208567114,-0.2493556592782633,0.01761105480850358
16440,1724813451576915832,0.9381667375564576,-0.6513850688934326,0.1257107108831405,0.0043801860883831,-0.003075128654018,0.9718241095542908,-0.235646516084671,0.0,0.0,0.0,75.47587681303219,-117.8425088604119,-63.60671804504813,0.161447583,0.1257107108831405,0.6387394514305608,0.1006277251639742,-0.7404708509344127,4827.699782719329,-119.59974819660106,-1785.0783894697358,-0.008041606839626547,-0.007064312939094962,-2.665789790309747,0.1970228280116304,0.21075797629920645,-0.24598934152687513,32423.321137247327,-166747.06937732693,68114.01828760312,-0.2852483758286993,-0.08449655812031832
16442,1724813451584835954,0.9382596611976624,-0.6513080596923828,0.1256468445062637,0.0044395364820957,-0.0027517441194504,0.9718320965766908,-0.2356164753437042,0.0,0.0,0.0,-13.784619017869229,-14.804359468429723,17.443035374024983,0.169367705,0.1256468445062637,0.07580190076085544,-0.03377605008110323,-0.008251242816385293,-44.758052401917965,-7.63868950762376,53.57742909924889,-0.007440791066640693,-0.0073323212945118075,-2.665853072787118,0.008786881795444401,0.008565478294976003,-0.007857018105481117,-5892.639048066456,8036.15180569444,5247.780186826627,-0.014941674988703474,-0.006056897191639228
16444,1724813451595537510,0.9383111000061036,-0.6512331366539001,0.1255657523870468,0.0043670921586453,-0.0028938760515302,0.9718284010887146,-0.2356313169002533,0.0,0.0,0.0,0.9118004235264505,-0.7210153404722774,1.511475539728895,0.180069261,0.1255657523870468,-0.0226142024204931,0.01940560740787006,0.0030134995337079205,-3.8143327605487225,1.5939183235319052,-0.45767096908092086,-0.007683019793062875,-0.007124412999078544,-2.6658223830163976,0.005610233048301438,0.005211304829686014,-0.0037256520139941074,670.7543350538967,599.8822135384053,-663.3008727270643,-0.007533317510051437,-0.001141136447156291
16446,1724813451604741180,0.93836909532547,-0.6511993408203125,0.1255619525909423,0.0043507628142833,-0.0029692004900425,0.9718425869941713,-0.2355720847845077,0.0,0.0,0.0,1.5242630737695415,-0.8683572466373748,1.9401852544899958,0.189272931,0.1255619525909423,-0.015118391594292397,0.007356082697727624,-0.01315342511388568,-4.835986562886204,4.114962022172776,-19.1308569507439,-0.007821302034175468,-0.007057650269113969,-2.665943949491443,0.02356906509111667,-0.004650911651747691,0.019093687709637486,-38.047361554072225,58.246086033712814,-56.63544027724316,-0.007286047174738419,-0.003924550511306926
16448,1724813451615236170,0.938823103904724,-0.6513477563858032,0.12599578499794,0.0039335461333394,-0.0037830651272088,0.9723618626594543,-0.233415201306343,0.0,0.0,0.0,-0.12675725225159662,0.6315821929336547,0.11056368133122196,0.199767921,0.12599578499794,-0.13349340322985706,0.11545626867495853,-0.4218581129358677,-7.940416729719017,7.437629427262371,-27.911958687916623,-0.009193604068767377,-0.0058836446195942626,-2.6703816211445353,0.034456007375915476,-0.011332574259817818,0.03300317792245122,-6487.055616753539,1981.8239573227497,-7590.257369094698,-0.031881539785925575,-0.04457403761989952
16450,1724813451651504416,0.9389693737030028,-0.6514067053794861,0.1261482238769531,0.0034837962593883,-0.0039444039575755,0.9725815057754515,-0.232502743601799,0.0,0.0,0.0,-1028.7365603227092,302.98725860858974,-1204.6468982801118,0.236036167,0.1261482238769531,-0.003014181524623376,0.026430526802221327,-0.05162483173451205,2119.6464485022725,274.1789024604934,2091.5566106031033,-0.009292740299623695,-0.004942402261120245,-2.672262759428253,-0.1160437802409433,0.17052753937514353,-0.11524112785929219,320753.43079249095,-149554.97024418192,370802.73270909116,-0.0028409763664610337,-0.004295715673371179
16452,1724813451651891031,0.9389240145683287,-0.6513400673866272,0.1261031776666641,0.0034210118465125,-0.0037957802414894,0.9725477695465088,-0.2326471209526062,0.0,0.0,0.0,-903.2896778872393,244.5163501202038,-1059.623922223775,0.236422782,0.1261031776666641,0.8251937343027961,0.13357228414600766,0.7655801217042626,6203.613667844899,-644.5182412921109,11591.103404828722,-0.008975160045727758,-0.004888059657081849,-2.6719672333493865,-0.5179913627439419,0.2888949847249478,-0.5859235155988074,508647.53047323064,-205038.52229009967,590744.0706421181,0.026049095621620413,0.18163295440670107
16454,1724813451652230607,0.938628613948822,-0.6512072086334229,0.1257642060518264,0.003311974927783,-0.0031017763540148,0.9722518920898438,-0.2338926643133163,0.0,0.0,0.0,-675.6338366635483,158.8436578368107,-794.7062205724818,0.236762358,0.1257642060518264,4.143149049570028,-0.3601809515698974,7.528359721776962,8611.863754200689,-1299.23048218871,17601.75736985835,-0.007580876100611329,-0.004989203007729555,-2.6694098954752326,-0.7840534599802922,0.35353994498012753,-0.8986747110130002,631903.379735863,-234910.4036699729,735569.7543929948,0.5917825512916229,0.944769802127035
16456,1724813451655169965,0.9385084509849548,-0.6511274576187134,0.1256554126739502,0.0036649634130299,-0.0030671199783682,0.9721124172210692,-0.2344667911529541,0.0,0.0,0.0,201.98116180469358,-89.37372647837438,233.3307336375983,0.239701716,0.1256554126739502,-0.03225045512838637,-0.2405575265255091,0.40118174269066076,-1108.9479009784955,37.74683000292999,-1905.8540552994452,-0.007681995046100309,-0.005687267985196822,-2.668225280592855,-0.02522424908125842,0.018323426970983547,-0.021183336004620745,228579.54057597482,-63977.38374765595,267818.0039092388,0.023805329305178945,0.048435545655296654
16458,1724813451665580856,0.9388231635093688,-0.6512615084648132,0.1260185688734054,0.0035572280175983,-0.0035629170015454,0.9724850654602052,-0.2329109013080597,0.0,0.0,0.0,0.7149436003574281,-0.6657163694891515,0.41703237822769,0.250112607,0.1260185688734054,-0.08861285603478951,0.04363059717955081,-0.3069335678521817,6.481329488908403,12.913692533482337,-12.092097015586932,-0.008587025790493608,-0.005259042064850093,-2.6714243578087253,0.005969443896951532,-0.0024339200700715935,0.003762184499170651,-9961.240504643665,4409.750749002249,-11491.997631057162,-0.020932015139101576,-0.03248202376464186
16460,1724813451676532309,0.9386090636253356,-0.6511678695678711,0.1257012635469436,0.0032978826202452,-0.0029557778034359,0.9722256064414978,-0.2340037375688552,0.0,0.0,0.0,-0.4200119726534879,0.2690635045221638,-0.09713433905787322,0.26106406,0.1257012635469436,0.11939990243873093,0.019355157363381476,0.20489739034190851,1.5647865875181453,-4.406020622559101,13.270610518590736,-0.007290956254615152,-0.005029266955316434,-2.669182135725631,-0.012481790007747406,0.0055752758946852055,-0.014469710145343484,-1.7923946063210998,23.568087824096512,14.255581578356736,0.013372089639741853,0.021072910865947012
16462,1724813451685993960,0.938548743724823,-0.6511394381523132,0.125682920217514,0.0034912787377834,-0.0029501696117222,0.972161829471588,-0.2342658340930938,0.0,0.0,0.0,0.39554443262594036,-0.01303552893815707,0.538070084378665,0.270525711,0.125682920217514,-0.008270677860612061,-0.04023019312979422,0.05689300322835736,-7.910710087889483,-3.1747087387857897,-6.134800506230898,-0.007372033719588286,-0.0054059542910959825,-2.668641052486796,-0.006116596759532911,0.0043422033740370125,-0.0025739145654828377,32.13202409557312,-13.005506634042456,0.7014087287440836,0.004296049958309613,0.007028095525741717
16464,1724813451695254630,0.9384944438934326,-0.6510871052742004,0.125653326511383,0.0037096680607646,-0.0030459542758762,0.9720670580863952,-0.2346541583538055,0.0,0.0,0.0,0.20307494991433545,0.018885223332906875,-0.057582324329616866,0.279786381,0.125653326511383,-0.03092717798396019,-0.04132469578996386,0.08625852054748244,1.0814847476315086,1.2751474429082563,-0.555620957334364,-0.007662924810039961,-0.005782632789999343,-2.667839366018984,-0.004966043070432136,0.005284576076078906,-0.004109770938133472,-11.527426005704887,0.7031198976734868,-28.536832939595968,0.002620980185667696,0.007767888941469879
16466,1724813451705106181,0.9384549260139464,-0.6510388851165771,0.1256032586097717,0.0037575392052531,-0.0029503812547773,0.9720187783241272,-0.2348544746637344,0.0,0.0,0.0,0.18651720863425153,-0.002943305116543782,0.03630489481844387,0.289637932,0.1256032586097717,0.016701181651768118,-0.014160171455292631,0.04172938363892926,1.4248967407201814,2.1808473586846775,-4.214500459130753,-0.007500803485362645,-0.005919011418027253,-2.6674272023546157,-0.0021392481598354607,0.004602078266284337,-0.0035424155947314517,-7.762180458067076,-0.2866602727684515,-1.0575973024914687,0.001303786061421114,0.00575918549804781
16468,1724813451716136123,0.9384544491767884,-0.6509917378425598,0.1255832016468048,0.0037552318535745,-0.003005898091942,0.9720199704170228,-0.2348489612340927,0.0,0.0,0.0,0.025799167345414,0.017717672139775986,-0.10611203838876526,0.300667874,0.1255832016468048,-0.009689754700506972,0.0027746134734634854,-0.0009834523583355532,2.118352840218085,0.2487438317904448,-0.5565146769110734,-0.007607615824251651,-0.005888490651349495,-2.667438299629888,-0.0013221124858517896,0.005388802480055688,-0.0034048362289382794,-5.244471968585656,-0.5177831944383859,-17.96500400156615,-0.0019238817382769531,0.0019740611638210106
16470,1724813451725202445,0.9384329319000244,-0.6509345769882202,0.1255405098199844,0.0037291424814611,-0.0028113040607422,0.972000539302826,-0.2349320650100708,0.0,0.0,0.0,0.04775548690502138,-0.004794779078925615,-0.30664607383741666,0.309734196,0.1255405098199844,0.04313326007786987,-0.004558317077286697,0.018682235892767685,4.413188433612169,-0.4135091612910973,-0.02257740236300282,-0.007217557917501742,-0.005928560798795069,-2.667268587873723,-0.0014480365008111562,0.005149930699150929,-0.005250612773970431,6.4328910929942955,-4.814287950009786,-9.211251953852754,-0.0007962063489988619,0.004950212213100709
16472,1724813451736206470,0.938429355621338,-0.6508933305740356,0.1254754960536956,0.0036556564737111,-0.00241667823866,0.9720155596733092,-0.2348756492137909,0.0,0.0,0.0,0.1721155047692905,-0.0889065497594167,-0.23561859489314396,0.320738221,0.1254754960536956,0.07282291265655506,-0.003828999855058204,-0.010837848054601177,-2.1323785194858575,-1.0772006219928891,0.40544159667131163,-0.006415505469248976,-0.0059715076955499085,-2.667387600825753,-9.921577512983504e-05,0.00538501942323677,-0.010001409732991462,3.5564629461906225,-6.103633186446242,21.860848051090937,-0.0014577118185813865,0.001951865243316932
16474,1724813451744772434,0.9384300112724304,-0.6508362889289856,0.1253625303506851,0.0037191368173807,-0.0023030466400086,0.9720021486282348,-0.2349312752485275,0.0,0.0,0.0,0.15093669158320158,-0.13092057566306467,0.05437022047239076,0.329304185,0.1253625303506851,0.022347195136753737,-0.020681066062408125,0.013226880138897978,-2.975771851398699,1.5779355336997276,-0.3959558311376543,-0.006224773513243964,-0.006147941315954767,-2.667273177661463,0.0017054581517967904,0.0038881568356607943,-0.010712005513937584,-2.740379004924244,3.7732794725073067,21.385517878629514,-0.0031905432920349562,0.002863439455928014
16476,1724813451754899913,0.9384667873382568,-0.650830090045929,0.1252836883068084,0.0035013956949114,-0.0022138468921184,0.9720377922058104,-0.2347877919673919,0.0,0.0,0.0,0.11997532729836957,0.011201055598502707,0.1216630521820054,0.339431664,0.1252836883068084,0.02713508486172182,0.0377491852397568,-0.02916226768700965,0.4340621912598721,1.3327111650541796,-0.6568234751903435,-0.005948189621600791,-0.005767441408778921,-2.667570808355575,0.002518725737047589,0.0030870041356294564,-0.008517079787135451,7.237800103507024,8.759846925363226,1.5384093882229557,-0.003555163219366079,-0.0030125821633388335
16478,1724813451766027622,0.9384812116622924,-0.6507654786109924,0.1251799613237381,0.0034691952168941,-0.0020414805039763,0.972029447555542,-0.2348245233297348,0.0,0.0,0.0,0.3263891627464178,0.044201405000905275,0.07635029215613665,0.350559373,0.1251799613237381,0.03149202765277677,-0.0016679044457869221,0.0066736573299272985,1.5660615465167047,0.10812382350913863,0.518888569947433,-0.005598185492950748,-0.005785572724362432,-2.667496470184564,0.0043388381578779445,0.004315815895111541,-0.008325602862240267,7.572835250985245,6.465074908527192,-10.122320769625025,-0.003857951439480019,0.0014255241027719527
16480,1724813451774945592,0.9385416507720948,-0.6507376432418823,0.1251128315925598,0.0033028519246727,-0.0018345265416428,0.9720386862754822,-0.234790414571762,0.0,0.0,0.0,0.31547255560602594,0.12686762860558332,-0.05716168127396015,0.359477343,0.1251128315925598,0.0538524710686575,0.02538568669188547,-0.008006883244379929,0.34511991177244994,0.45666919901818326,-1.772526603740127,-0.005117518909040922,-0.005559569837042146,-2.6675690948498536,0.008413272248084525,0.004236677817232248,-0.007222015296855844,-5.645692089706344,12.941105747209763,-13.342173615207507,-0.007496461148320507,-0.004660020873025961
16482,1724813451785887680,0.93865567445755,-0.6506763100624084,0.1250379085540771,0.0032888185232877,-0.0016764927422627,0.9720762372016908,-0.2346362173557281,0.0,0.0,0.0,0.19433445485048978,0.3177622785399232,-0.18128334000522517,0.370419431,0.1250379085540771,0.028599563897608524,-0.004214352542620723,-0.02909837216154095,-0.8405989647709613,-1.8251596815908622,0.9512807898139688,-0.004802803356147642,-0.005607262222282276,-2.6678872511810594,0.009966729995880996,0.007447290319930744,-0.010276318307519183,-2.3636672894256385,-1.0472085489313434,9.699614068286635,-0.011868422240024584,-0.006765314751401008
16484,1724813451796250056,0.9387544989585876,-0.6505810618400574,0.1248977705836296,0.0033200439065694,-0.0014863378601148,0.9720653295516968,-0.2346823066473007,0.0,0.0,0.0,0.2552880111203274,0.1254307919539862,0.1257317977022413,0.380781807,0.1248977705836296,0.03428783692561621,-0.014491621803479404,0.00901026962057171,-1.938275169081738,1.0613958128573708,-1.7861113012866525,-0.0044480345055260846,-0.005756996554038776,-2.667793201724622,0.012494360298568097,0.010978955904079157,-0.011194604192955815,-11.00567863965371,-21.226253619680023,19.739769101331216,-0.01275785112804226,-0.0043892054116149975
16486,1724813451804870998,0.9388834238052368,-0.6504735946655273,0.1248179674148559,0.003281278302893,-0.0014962706482037,0.9721115231513976,-0.2344912737607956,0.0,0.0,0.0,0.039286098058343155,-0.07667830658642538,0.22498813316944521,0.389402749,0.1248179674148559,-0.0002605970234613261,0.00938436962551433,-0.04557429344239127,-0.9356442222889065,3.2718717592305095,-3.4625748340774365,-0.004448032499908861,-0.005677842584342547,-2.668186436785862,0.01477668928176712,0.010515508433314835,-0.008573331100131476,-21.86345691280758,-8.75245111367697,11.545060089490402,-0.019045797331860955,-0.007692363805618994
16488,1724813451815330073,0.939035713672638,-0.6503883600234985,0.1247369721531868,0.0029920740053057,-0.0014096959494054,0.9721682071685792,-0.2342606484889984,0.0,0.0,0.0,-0.14888133533888714,0.018201726753280356,0.34614054822509455,0.399861824,0.1247369721531868,0.02893261887197774,0.04997935146147694,-0.04538388708631962,1.0354297915023276,1.2838225276560693,1.1715323393308594,-0.004142840503456688,-0.00515714872839562,-2.6686633754455458,0.012326741146523545,0.009422689759734482,-0.00722350100138236,-7.2656886330143085,4.716650878498317,13.96943540051754,-0.016714061531325188,-0.009300536490934451
16490,1724813451826319731,0.9391453862190248,-0.6502701044082642,0.1246635988354682,0.0027843005955219,-0.0013462284114211,0.9721935987472534,-0.2341581881046295,0.0,0.0,0.0,-0.10488388303527363,0.01974938944267879,0.5272109461726018,0.410851482,0.1246635988354682,0.02003765388937237,0.034094449190673795,-0.019191494057507974,-5.122740990532602,-0.4781589768584893,-3.4292995312177617,-0.003921577767608353,-0.0047833158611675815,-2.6688757955489404,0.011676252011938004,0.011039405882570463,-0.0009128515400131931,-5.587885963074484,-7.8842253286985216,-7.34211126508016,-0.013816361495982546,-0.004026278274740785
16492,1724813451834751970,0.9392548203468324,-0.6501752138137817,0.1246931925415992,0.0026863261591643,-0.0015903917374089,0.9722782373428344,-0.2338060140609741,0.0,0.0,0.0,-0.2140583723936812,-0.09865406847102853,0.3111954455123471,0.419283721,0.1246931925415992,-0.0510657066512259,0.03632077503449467,-0.08571589372831762,-0.5401828974635838,0.3779882610421368,-3.3310967271727456,-0.004348822323313674,-0.004480041606383419,-2.6695998193969754,0.010496215058310554,0.01038190310843845,0.0032284715010044707,-7.871457303517128,-10.095955825402754,-23.176100967775717,-0.01665965651633689,-0.006421824137058507
16494,1724813451845188631,0.9393323063850404,-0.6500781178474426,0.1247232556343078,0.0024198724422603,-0.0014108998002484,0.972354292869568,-0.2334937453269958,0.0,0.0,0.0,-0.23064300320307946,-0.1530520311435955,0.1008552481056377,0.429720382,0.1247232556343078,0.04524372079791481,0.041737830784514644,-0.06160068663703575,-0.5167754010007668,0.20696749975696882,1.6960705265952463,-0.00387388052867893,-0.004047085205365612,-2.670244551516571,0.007304777481152769,0.009085159453171343,0.004152002583863279,-1.26466376456451,-4.284850802589274,-14.398511158907489,-0.01082762228225997,-0.0023749423946103107
16496,1724813451854857682,0.9394018650054932,-0.6499922275543213,0.1247747913002967,0.0022808548528701,-0.001677680411376,0.9724116921424866,-0.2332545518875122,0.0,0.0,0.0,-0.23996506418530655,-0.1861753738723415,0.013192162406887725,0.439389433,0.1247747913002967,-0.04704564447144217,0.0409434867590372,-0.050706408308907616,-1.7807362166388474,-0.6067854200748666,0.9684935053761126,-0.004326874022861863,-0.00365321479483853,-2.670736527632712,0.005747847120979088,0.007347276045955198,0.005237951522581774,-6.5304119644439105,7.751772427032229,-21.968765266507653,-0.01042133346492826,-0.0023536340900934473
16498,1724813451864572161,0.939443588256836,-0.6499358415603638,0.1248247772455215,0.0021268904674798,-0.0016571088926866,0.9724605083465576,-0.2330520451068878,0.0,0.0,0.0,-0.35773235909351553,-0.0017773909610300231,-0.3261519873526892,0.449103912,0.1248247772455215,0.011433837766400496,0.02992840943677918,-0.04284227299015825,3.4899335981853112,-1.2889325424453557,1.2063557980157078,-0.004214334582791891,-0.0033642550838167994,-2.671153851220184,0.0026462181644504312,0.005475837142903117,0.004398686486434933,1.9292022811423424,12.70218962793181,-14.967210712941368,-0.006442014308317152,-0.0011722377911751445
16500,1724813451876998517,0.9394502639770508,-0.6498730182647705,0.1248675659298896,0.0020368252880871,-0.0015852600336074,0.9724920392036438,-0.2329219579696655,0.0,0.0,0.0,-0.11039795596726643,0.05624891495934414,-0.1947973656774332,0.461530268,0.1248675659298896,0.01458764278864014,0.011447110934344331,-0.021543966898133083,-0.42925183138059275,-1.3931467824557853,5.1408553518804805,-0.004032180063971207,-0.003223114594523032,-2.671422195601734,-0.002410318533748068,0.008487632649988086,-0.0034652261024614717,28.794131047901708,-18.260292946621583,30.249437384757858,-0.0027582188865478557,0.0018275826691979333
16502,1724813451884646066,0.9394179582595824,-0.649791955947876,0.1248085498809814,0.0020248184446245,-0.0015565409557893,0.9724618792533876,-0.233048066496849,0.0,0.0,0.0,0.15164815152884592,-0.1913178512108874,0.12915548830419255,0.469177817,0.1248085498809814,0.00809011664081406,0.0012359281357876646,0.03389974791994858,-2.2335079510051754,-0.15923040489402562,1.817741493148454,-0.003971144463473866,-0.0032126253055006354,-2.671162967922058,-0.0018590012096453279,0.008041807261815137,-0.002893281498420386,17.45301898629448,-19.695103043813056,10.697068032910265,-0.0010638903895330179,0.008533837222471134
16504,1724813451894929390,0.9394315481185912,-0.6497446298599243,0.1248454973101615,0.0019864563364535,-0.00174538011197,0.9724887013435364,-0.2329349666833877,0.0,0.0,0.0,0.0986498055655789,-0.21855817856128099,-0.198668242204162,0.479461141,0.1248454973101615,-0.03401350039474722,0.015859588278168104,-0.022520736717301995,-0.2506559046096515,-0.9814037859804349,-1.2759922595961006,-0.004320188697411905,-0.0030504973004455253,-2.6713952016231266,0.000800529027280561,0.004235066489943762,-0.0008133648857375775,38.20818340406975,-16.629506803326876,35.19414101387785,-0.003252243630674831,0.0009236982918707753
16506,1724813451905497635,0.9394343495368958,-0.649703860282898,0.1247890442609787,0.0020860517397522,-0.001693980069831,0.9724766612052916,-0.2329852133989334,0.0,0.0,0.0,0.9734005258626193,-0.5461462175997418,0.9017592309353356,0.490029386,0.1247890442609787,0.00508419450309902,-0.020616457764524598,0.009725928301845458,5.498598536266895,-0.588477769667773,2.1177608199135984,-0.004266786314118546,-0.0032679344624162616,-2.671291581261557,0.00010557822307077913,0.003572127120968105,-0.00726745751711011,66.76546631691718,-27.90938019325582,102.69111934264622,-0.0020019001464343634,0.0014859026842543948
16508,1724813451914989505,0.9394339919090272,-0.6496723890304565,0.1247036457061767,0.0020138681866228,-0.0013570786686614,0.9724528789520264,-0.2330868393182754,0.0,0.0,0.0,1.4706752436376327,-0.7847327386252331,1.8642587460674322,0.499521256,0.1247036457061767,0.07261333342267509,-0.0017947964726503633,0.0218690799246248,-7.644285672559438,6.206510020594786,-19.072045912761265,-0.0035782293899833764,-0.0032841553802898343,-2.671083839647469,0.01820392781436908,-0.005733010195548616,0.0141858786993323,-59.91244727402318,13.369886904610123,-5.396651005047218,-0.0014990505199401407,0.0014957015024225858
16510,1724813451925125283,0.9398159384727478,-0.6498284339904785,0.1250983476638794,0.0016845290083438,-0.0022904938086867,0.9729132056236268,-0.2311533987522125,0.0,0.0,0.0,-0.3520696984055176,-0.2324564555795231,0.6536328566543389,0.509657034,0.1250983476638794,-0.16460632957556146,0.10682642911440111,-0.3917112666553593,-17.138948459751628,7.863653151421772,-29.424886633343775,-0.005235709368527562,-0.0022188919983284266,-2.675058938213606,0.028390880223738257,-0.011569897487175851,0.028796388631254,126.5605783885774,9.396309584643426,655.9359415070342,-0.026644680788877297,-0.04041148224982405
16512,1724813451962249689,0.9396064281463624,-0.6497377753257751,0.1247879117727279,0.0012673238525167,-0.0014171279035508,0.9726434350013732,-0.2322954982519149,0.0,0.0,0.0,46.008526216544055,-6.014980485947419,130.43742030876183,0.54678144,0.1247879117727279,0.05104208826894931,0.010825897117935034,0.06319327922651792,-1245.7050150774758,-4979.936733295751,3912.877335455172,-0.0033455192577165572,-0.0018069245687188347,-2.672714657783713,-0.16921491741823047,0.0264962172173,-0.054065950919664374,89339.62268335438,-14379.328333778223,-19915.18446206377,0.00391576861122139,0.006111767194598702
16514,1724813451962604293,0.9395458698272704,-0.6497282981872559,0.1247685849666595,0.0015887952176854,-0.0014125829329714,0.9725825190544128,-0.2325482815504074,0.0,0.0,0.0,77.9870860502719,-11.162124446130317,123.29612055065206,0.547136044,0.1247685849666595,-0.39492889270144754,-1.7719383626574596,1.4639270285497596,-1511.6318250491008,-1645.1344187171899,2059.129130484889,-0.0034866675180644873,-0.0024334838447206937,-2.672193360287504,-0.15272624576073213,0.02433943473340605,-0.007362955555663575,78673.16284353155,-13007.190356819614,-49871.576548111174,0.14008351258280655,0.16419061178359462
16516,1724813451962990920,0.9394944310188292,-0.6497198939323425,0.1247856095433235,0.0018219008343294,-0.001573140732944,0.9725161194801332,-0.2328232526779174,0.0,0.0,0.0,103.55320003490397,-15.55537099042071,91.48081283397266,0.547522671,0.1247856095433235,-1.086426670742269,-0.9821917363045237,1.4629036834181832,-1361.3742118555363,1792.601313524477,-144.0941132997426,-0.0039081965897047825,-0.0028111320767076667,-2.671626398312189,-0.10930071460809643,0.01788246706880159,0.03676210673458158,50109.072810628386,-8777.912240487858,-77979.38445221394,0.10890023104979515,0.12865222299348356
16518,1724813451964870321,0.939505934715271,-0.6497215032577515,0.1247882694005966,0.0016721674473956,-0.0013600357342511,0.9725385308265686,-0.2327320128679275,0.0,0.0,0.0,51.400348315158304,-8.435642264104837,-15.6981758979729,0.549402072,0.1247882694005966,0.25750596798347114,0.10235888750958341,-0.10014123969531005,600.0434907124028,485.8227151043082,-701.2088444976457,-0.0034237265362000047,-0.0026194498327288753,-2.6718152930505985,0.005235285889618524,-0.0008881951503774133,0.0017887274393941777,-24225.838244180897,3322.285574830543,-47920.45360058306,-0.005066491199164901,-0.005839959239578553
16520,1724813451975088652,0.9395102262496948,-0.6497323513031006,0.1248272955417633,0.0016897727036848,-0.001368690165691,0.9725589752197266,-0.2326467484235763,0.0,0.0,0.0,-0.3702176816366535,-0.377713149092493,0.6397274520414847,0.559620403,0.1248272955417633,-0.002471802116010044,-0.002927577448252397,-0.017163369307901234,-21.050801890824353,-8.535505473626852,6.799771040533994,-0.0034485230034906425,-0.002649967686294855,-2.6719906472203445,0.0003077844380956485,-0.0008652052131772336,0.0030852105861728374,-5098.208357374178,2375.1938799020445,-2599.7998892961423,0.0001160195431223827,-0.0008399409464606609
16522,1724813452024144353,0.9394989013671876,-0.649728536605835,0.1248057782649993,0.0018195619340986,-0.0013609802117571,0.9725279808044434,-0.2327749282121658,0.0,0.0,0.0,-257.9478728965512,489.79459622728297,-1115.7032425917391,0.608676104,0.1248057782649993,-0.0009182412695597061,-0.005228716987328944,0.005368692395464545,-12676.500434253858,91.33872131123036,-1521.963719568366,-0.0034943013324545743,-0.0029055497334681286,-2.671726304303988,0.008523946124569193,-0.10887714772161416,0.1552457458955132,14291.306246011285,-652039.0005518706,1835608.5331028756,0.0001693557948231184,0.00023921556035929266
16524,1724813452024387853,0.9395009875297546,-0.6497551798820496,0.1248437687754631,0.0019055344164371,-0.0017287918599322,0.9725378155708312,-0.2327307611703872,0.0,0.0,0.0,-254.44431992893738,330.2229210988255,-666.4864109145497,0.608919604,0.1248437687754631,-3.1029678658418547,0.01712271689998631,-0.36706958334495277,4245.908645627078,-557.3526968803661,3339.755892221919,-0.004249614550041354,-0.0029017265388752086,-2.671815713351882,-0.05459833772147249,0.010982498732573731,-0.11778026194210156,364457.9893784473,-1137627.3293612832,2851124.418389004,0.042345393609934535,-0.056465930539868155
16526,1724813452024642987,0.9394701719284058,-0.6497201919555664,0.1247405260801315,0.0018673446029424,-0.0014076094375923,0.9724851846694946,-0.2329530864953994,0.0,0.0,0.0,-67.87671954761737,-88.95536514195597,329.9380688169458,0.609174738,0.1247405260801315,2.52089220935217,-0.29860885682445265,1.7866894552788561,4223.264505986581,-2981.2053454871893,3166.6957684815143,-0.0036077898294900337,-0.002976120389326579,-2.6713595765311577,-0.11823665120277838,0.05192343505223107,-0.16625265893864594,716879.1412618527,-1155790.8404993422,2543322.5961735286,0.04433287392539634,0.16807067549959034
16528,1724813452024893798,0.9394411444664,-0.6497281789779663,0.1247576102614402,0.0020709193777292,-0.0014639886794611,0.9724472165107728,-0.2331092804670334,0.0,0.0,0.0,108.3803239830172,-258.7201674391245,631.9725020022128,0.609425549,0.1247576102614402,-0.8134661233206819,-1.4762549791660748,1.280325414836837,-9954.440775558716,-3231.027577062186,-1862.4221052135035,-0.003812835056365291,-0.0033451871125446545,-2.671037044790174,-0.09049664370584765,-0.03188577595415154,0.044693057644003886,541546.1857375072,-457556.43118212937,748547.7106238849,0.11782102854199761,0.0890388816868995
16530,1724813452025761045,0.9394383430480956,-0.6497559547424316,0.1247261315584182,0.0019657656084746,-0.0012355885701254,0.972434103488922,-0.2331663966178894,0.0,0.0,0.0,94.63068183441472,2.110495241309266,-85.32876062282162,0.610292796,0.1247261315584182,0.5689692917742035,0.11277878542583189,0.13440266664888084,1495.0496607993077,1720.9062910794219,-1241.9273067491638,-0.003319781491662286,-0.003246965270434881,-2.6709208730960334,-0.003164084642119036,-0.03005694143793125,-0.03421351084543511,-15319.177519367768,282569.5549244604,-776714.2750521805,0.017285051601936434,-0.01180431388992414
16532,1724813452039240132,0.9394095540046692,-0.6497482657432556,0.1247015073895454,0.0021410370245575,-0.0013290251372382,0.9723867774009703,-0.2333615124225616,0.0,0.0,0.0,0.2604009497763721,0.6582620558276351,1.2449264515979348,0.623771883,0.1247015073895454,-0.019497349119629536,-0.022106504625120944,0.029785285460130186,-13.716726860841732,-1.8065685494600512,-6.840559983355196,-0.003583954390826991,-0.0035435529689881295,-2.6705183414925684,0.0006762597821676763,-0.0012503894656745729,0.0006230089515160131,-2568.71827959484,-94.40178839810314,2242.882321183967,0.0016378242325686264,0.002153328769526147
16534,1724813452046941861,0.939427137374878,-0.6497659087181091,0.1247170865535736,0.0021349338348954,-0.0013041417114436,0.9724037647247314,-0.2332910001277923,0.0,0.0,0.0,-0.01724587124893149,-0.010099439026139669,0.1246114673361163,0.631473612,0.1247170865535736,0.006619856641479364,6.697461078347345e-05,-0.018846307286639902,1.097197503005862,2.3186692119545946,-4.61617853663401,-0.0035324558435062227,-0.0035435537645677776,-2.67066351081433,0.002573935991165399,-0.0026885981311615126,0.00431617110901783,-26.53098793802041,-46.349742434232155,-100.41322841260305,-0.000987991483550149,-0.0030642122851571
16536,1724813452058034669,0.9394603371620178,-0.6498020887374878,0.1248016059398651,0.0020675563719123,-0.0014217334100976,0.972459316253662,-0.2330591678619384,0.0,0.0,0.0,-0.1594649943069329,0.12171659470786195,-0.2694971478332736,0.64256642,0.1248016059398651,-0.01785851774023389,0.016834713918195954,-0.04292065987039805,2.3332490971759716,-0.9161610358437791,7.067448566828942,-0.0037289114070501767,-0.0033585392144639304,-2.671140282144323,-0.0018295727605988077,2.152855431347689e-05,2.8034481790228938e-05,14.300390003894439,-10.425302198848048,4.053966442842247,-0.0011637370848564656,-0.004110458811675253
16538,1724813452065679997,0.9394209384918212,-0.6497846245765686,0.1247618198394775,0.0020569481421262,-0.0013307136250659,0.9724061489105223,-0.2332816272974014,0.0,0.0,0.0,0.09277536188079669,-0.07553690093561564,-0.02993345126367708,0.650211748,0.1247618198394775,0.023902111396433032,-0.002962103905779609,0.059788351995436716,2.4353271741123055,-0.7122910793712772,5.070003376162559,-0.003547712344150381,-0.0033795223959566653,-2.6706831187189266,-0.001797257631778848,0.0003060933379934738,-0.0014154755472990388,16.695247593366393,-17.6232158023811,17.95197845956217,0.00353841076236923,0.005604664836805243
16540,1724813452076901435,0.939456045627594,-0.6498137712478638,0.1248083338141441,0.001946396776475,-0.0013490908313542,0.9724339246749878,-0.2331664711236953,0.0,0.0,0.0,0.011695751154582434,-0.138612133997585,-0.04890278892564748,0.661433186,0.1248083338141441,0.001375863841191034,0.019961481855404226,-0.021079871182624027,-2.506457129575234,-1.7015486406968003,2.225863521988861,-0.0035314972512592523,-0.003156364256848671,-2.670920417786717,0.0007022350010146283,-0.002398688944232674,0.0008653594973839773,-8.166557315150145,-1.4893950065362764,-4.564670163108136,-0.0015974080323837038,-0.003947928804249665
16542,1724813452085157505,0.9394471049308776,-0.6498323678970337,0.1247955560684204,0.0020351686980575,-0.0014230428496375,0.9723811149597168,-0.2333855330944061,0.0,0.0,0.0,-0.061444689751530814,-0.12581221509342402,-0.10404794922958673,0.669689256,0.1247955560684204,-0.02234887801488265,-0.01683125751733527,0.05459278457199654,-1.6082256771865828,-2.92994767337913,5.452445139176144,-0.0037174665750880874,-0.003293689942543035,-2.670469218789109,-0.0004831719750573171,-0.002920917935659517,-0.0010700861240255932,-5.054625959622324,-0.5225224207733841,2.676502553848179,0.001982214499341705,-6.455175290519399e-05
16544,1724813452103571979,0.9394628405570984,-0.6499136090278625,0.1247954666614532,0.002107533160597,-0.0014056338695809,0.9723756313323976,-0.2334078997373581,0.0,0.0,0.0,0.0017296591428947738,-0.22057169346755578,0.32950139495843445,0.68810373,0.1247954666614532,8.369636389966283e-06,-0.008088401510328625,0.0024861196203028323,-0.3694084539789278,-1.4365428134579306,1.5934552124577712,-0.003717468609240038,-0.0034424624757555086,-2.6704228967416226,0.0017588155416916607,-0.007807073557174249,0.002368846318564266,-4.833597481140373,15.692847774872696,-7.169518933812533,0.001241209164087791,-0.0027640157944320595
16546,1724813452110598115,0.9394776225090028,-0.6499775648117065,0.1248184740543365,0.0021926222834736,-0.0014100521802902,0.9723544716835022,-0.2334952056407928,0.0,0.0,0.0,-0.05438723363468573,-0.05444582675026843,0.19678895187817333,0.695129866,0.1248184740543365,-0.006832339641319495,-0.02330573611162804,0.025539690595943357,0.4584085090039663,1.003038975868601,0.16405739320919524,-0.0037661080498238037,-0.0036055391284384067,-2.6702428351717726,0.0014492072053400307,-0.009236814204811594,0.005066659845298638,-0.2911086994019543,19.631887472215425,-17.400575543338164,0.002270724401430421,-0.005991542292063399
16548,1724813452118964735,0.9394832253456116,-0.6500561833381653,0.1248787194490432,0.0021138826850801,-0.0013804421760141,0.9723587036132812,-0.2334783524274826,0.0,0.0,0.0,0.019848958470086497,0.06983477703556001,0.06602788431263526,0.703496486,0.1248787194490432,0.011269964046211514,0.01665715653220028,-0.0041424922492457545,1.76353055037093,1.5187095831804553,-1.1136737866722077,-0.003671691930421787,-0.003466304666181509,-2.6702779840132758,0.0008913333808919788,-0.008207448206896117,0.00484827864817472,4.608146706188403,5.95745492874063,-11.42943447173875,0.0036949263358590266,-0.0048289133753585955
16550,1724813452130632747,0.9394972324371338,-0.6501325964927673,0.1248970106244087,0.0021848916076123,-0.0012116122525185,0.9723280668258668,-0.2336062788963318,0.0,0.0,0.0,0.004220345348583038,-0.005424571459437755,0.0010032426637134328,0.715164498,0.1248970106244087,0.025336334678919024,-0.01863310286346406,0.022469728638205493,-9.161609676586133,1.6353204404453376,2.779067209735174,-0.003377007314638912,-0.0036827907314659794,-2.6700150593552436,0.0025309152970578452,-0.008258253683536054,0.007117831381300732,-9.134595813883433,15.563320781189866,-33.37949764706463,0.0019114533364147025,-0.00403693101554543
16552,1724813452136592357,0.9395163655281068,-0.6501870155334473,0.1249563246965408,0.0022117346525192,-0.001391781726852,0.9722996354103088,-0.2337233424186706,0.0,0.0,0.0,-0.07394641581283644,0.15433457397659278,-0.28256769721613556,0.721124108,0.1249563246965408,-0.06082049572324485,0.005297165199896446,0.04054863756993683,-3.1669567028203893,1.9500460933161667,1.8015259935143704,-0.0037403594040072933,-0.00365036194523005,-2.669773520180232,0.0021411781948614816,-0.008293840019369725,0.0065347816469074615,-1.7330757646019284,18.02162930572303,-25.639889166009933,0.0013268750398462911,-0.006960502493475015
16554,1724813452144877271,0.9395217895507812,-0.6502460837364197,0.1249710991978645,0.0021792948246002,-0.0012168200919404,0.9722598791122437,-0.233890026807785,0.0,0.0,0.0,0.04279901275833026,0.2024569596030771,-0.24227224118707358,0.729409022,0.1249710991978645,0.0429721801323031,-0.0023346781673690416,0.041284031694097785,1.186709670799209,-1.2949412840189716,-0.4822701049569418,-0.0033855906098181256,-0.003668485905862319,-2.6694314331089077,0.001430063825218042,-0.005168869211075844,0.002066057157103174,10.77953603061108,-9.290767955996717,18.270191084292186,0.0026661011622591156,-0.003817014967203239
16556,1724813452155004238,0.9395458698272704,-0.6502741575241089,0.1249955222010612,0.0023790812119841,-0.0016137848142534,0.972224235534668,-0.2340335696935653,0.0,0.0,0.0,0.11096775863670194,-0.07853701592824941,0.10870250802723086,0.739535989,0.1249955222010612,-0.0853980201539454,-0.020075219566573918,0.029331519529093533,-2.5020051637557836,0.8066576543923949,-0.8965944879102612,-0.004251535808098954,-0.003870650848566212,-2.6691335688665774,0.003455762565202747,-0.005281517206562114,0.0032903572837534867,2.471323065174348,-26.397227042984802,14.210794640003217,-0.0008464514063449578,-0.003365860355645339
16558,1724813452164882718,0.9395903944969176,-0.6503505110740662,0.1250364929437637,0.0023326040245592,-0.0016865496290847,0.9721974730491638,-0.234144777059555,0.0,0.0,0.0,0.09433011232917968,-0.32629398877684607,0.0520578422757256,0.749414469,0.1250364929437637,-0.012075767107582113,0.012546975342789347,0.023208010541029004,4.871208760753266,1.9468018593235692,-0.7575969595017349,-0.004371697267057728,-0.003745718661785255,-2.6689048659267507,0.0036937421046978614,-0.0067069456203014965,0.0042466844539488235,-4.417678602180784,-4.947484684646954,-6.1897692826228665,-0.00047847676887005945,-0.007509744126077262
16560,1724813452179995735,0.9396274089813232,-0.6504282355308533,0.1251029670238495,0.002249902812764,-0.0016867293743416,0.9721825122833252,-0.2342076748609542,0.0,0.0,0.0,-0.03563518738724891,0.06443547093342605,-0.05202280307232898,0.764527486,0.1251029670238495,0.0025555178697139066,0.01062700025180624,0.00857432605748415,10.124917363158835,-6.002097040121381,16.517242298360454,-0.004333548018753783,-0.0035845500843526747,-2.6687759771029325,0.006743381004099547,-0.01584625436957765,0.003998727365669197,0.24794492906414645,34.79457108752278,19.535369575908433,0.00017733439121917134,-0.00449969986011992
16562,1724813452184632048,0.9396647810935974,-0.650516927242279,0.1251209378242492,0.0022731241770088,-0.0015325244748964,0.972122848033905,-0.2344560474157333,0.0,0.0,0.0,-0.02190174027767028,0.23847049221567512,0.07612983625357614,0.769163799,0.1251209378242492,0.06252160347658753,-0.02555675219852558,0.11002327289906043,6.520218651750084,-5.660438547362547,14.050618360736484,-0.004045538274308879,-0.003700901084203182,-2.6682653822921494,0.006240474436939536,-0.01459574916756523,0.0037068764421750444,4.052422726561842,19.900308114526187,20.642503118415295,0.0015601423276050508,-0.015874543796664684
16564,1724813452196065301,0.939684808254242,-0.6505559682846069,0.1251585483551025,0.0024970914237201,-0.0017364148516207,0.9720551371574402,-0.2347329258918762,0.0,0.0,0.0,0.05517054940300842,-0.03127538501969951,0.11481865312220435,0.780597052,0.1251585483551025,-0.043765559729962086,-0.029825034778468967,0.04988175283236094,-2.1218750312114447,4.121183377535965,-6.597706451212992,-0.00454813389182773,-0.00403944460072824,-2.667693607899259,0.008430863690271906,-0.012750318046307996,0.008498566697290322,-16.984395440982574,0.01614166625031821,-23.294212504711947,1.2995334354118745e-05,-0.0030982086889063455
16566,1724813452204910704,0.9398050904273988,-0.6507326364517212,0.1252693682909011,0.0023504516575485,-0.0018328017322346,0.97207373380661,-0.2346566915512085,0.0,0.0,0.0,-0.2574236552647828,0.1304324618171983,-0.2737942101025862,0.789442455,0.1252693682909011,-0.01343754574217301,0.03738573007860738,-0.017630381345994903,3.824988885851115,-0.05891303386859592,0.37783563462409964,-0.004666384305807704,-0.0037094747634410087,-2.6678510805954945,0.007985374974197157,-0.014345558755174181,0.007431887774131063,-13.211180619420439,11.8949974490059,-17.81306482132653,-0.0029421573190258673,-0.02114414784668871
16568,1724813452215048940,0.9398208260536194,-0.6508126854896545,0.1252854913473129,0.0025712605565786,-0.0016241045668721,0.9719789624214172,-0.235048159956932,0.0,0.0,0.0,-0.13422729529765048,0.17681461184647257,-0.15086267943561416,0.799580691,0.1252854913473129,0.029946270231128204,-0.05218954398566709,0.07927999762308889,0.5062934002207872,-3.1905405312121933,4.2677818902388225,-0.004365984090652965,-0.004234949414569562,-2.667044933224944,0.00296951271997159,-0.009411939232126798,0.0028758757378613,28.038209950246355,-18.542725097289036,23.645924806013024,0.002233973335031046,-0.004979115061771048
16570,1724813452226749099,0.9398747086524964,-0.6509432792663574,0.1253364980220794,0.002667058026418,-0.0016924053197726,0.971899151802063,-0.2353765368461609,0.0,0.0,0.0,0.40833583925470174,-0.35228992227925404,0.2813549576993496,0.81128085,0.1253364980220794,-0.015074870726033964,-0.013298569933477711,0.05776926642172172,-1.3595252663931054,0.6480542900007784,-0.6241873992106526,-0.0045452797528905435,-0.004387531938119507,-2.666368359508806,0.006267027721868601,-0.01152659557806146,0.005141674899665105,14.550684369108936,-22.15408126687725,14.980832976049985,0.001031046354729128,-0.009175517651968806
16572,1724813452236488123,0.9399492144584656,-0.6510584950447083,0.1253929138183593,0.0028116158209741,-0.0016988705610856,0.9718281030654908,-0.2356678694486618,0.0,0.0,0.0,0.2920800809740818,-0.3810465435659687,0.24922978060497458,0.821019874,0.1253929138183593,-0.008142975704529445,-0.02867974773545268,0.06153423743853373,-2.744395011982226,0.7186680444897887,0.4426546049344342,-0.004627302173514078,-0.004664093038736887,-2.6657677701437588,0.011269312345561389,-0.01634826440933068,0.008592743283680093,-30.70664037002801,23.5243402798981,-19.618376970225352,-0.0013542385682513173,-0.012182891669794863
16574,1724813452244887865,0.94007009267807,-0.6512285470962524,0.1254853755235672,0.0028912746347486,-0.0019232333870604,0.9717625975608826,-0.2359352260828018,0.0,0.0,0.0,-0.10182618776480856,0.008368467772861599,-0.0337903134448268,0.829419616,0.1254853755235672,-0.056233799495632945,-0.005994933018210807,0.06565861793467508,-0.5455625494460107,1.1140870719221558,0.8449792776536174,-0.005102238387043892,-0.004711765524767985,-2.665216027282762,0.012117639451226125,-0.0187227722187302,0.009924617964998994,77.13411961017346,-35.66791698746624,75.23449317411684,-0.0034530207980314268,-0.021999490880404152
16576,1724813452255696567,0.9401694536209106,-0.6514097452163696,0.1255775839090347,0.0029619403649121,-0.0018519992008805,0.9716606736183168,-0.2363541573286056,0.0,0.0,0.0,2.456956500530154,-1.5180478426867965,2.294430452562476,0.840228318,0.1255775839090347,0.009911533231334613,-0.01601993652744333,0.07971490004387652,2.022991085439889,-0.28447465389383475,-0.007595232157426635,-0.0049992437844464666,-0.004880565895142089,-2.664353502499007,0.008196094563285072,-0.014584150630867043,0.006884059805752241,94.93998725311523,-59.0045670236524,75.76044105636575,-0.0004236801505383265,-0.015808648303804698
16578,1724813452270767308,0.9402720332145692,-0.651583731174469,0.1256467252969741,0.0030923313461244,-0.0021755560301244,0.9715669751167296,-0.2367347776889801,0.0,0.0,0.0,0.9082115549443017,-0.6796450396586184,0.5018477405903923,0.855299059,0.1256467252969741,-0.045684820923613347,-0.006795183447432882,0.05211379296874541,-39.46883062004306,78.88957801901857,-165.5908482639508,-0.005691622801875457,-0.004978775046863194,-2.663567601097789,0.10447711839910312,-0.07740751421873426,0.09558773578464397,-603.5212625874487,377.19070578240826,-588.2161157128985,-0.000709880506004117,-0.01132164803070687
16580,1724813452275079725,0.940843105316162,-0.6519988179206848,0.1261712312698364,0.0023283041082322,-0.0029340470209717,0.97200745344162,-0.2349203675985336,0.0,0.0,0.0,-2.3123452427528406,1.3437554983230628,-2.6138555085407886,0.859611476,0.1261712312698364,-0.26004231559314894,0.430002146948122,-0.8640582633751849,-29.789486102886727,67.86650111529654,-138.11515777840484,-0.006797849292639873,-0.0031477282827722703,-2.66730534816959,0.10163102754572861,-0.0760331817547435,0.09110821662571489,-565.1722621222896,355.1635075340238,-537.4984377244567,-0.07346499515911939,-0.16104573712627537
16582,1724813452287263811,0.9410213232040404,-0.6522291302680969,0.1262307167053222,0.0016085481038317,-0.0027154793497174,0.9719924926757812,-0.2349906414747238,0.0,0.0,0.0,-2.945694820324966,1.745355790006398,-2.794376722841216,0.871795562,0.1262307167053222,0.06264802694921387,0.10637173493207094,0.012052479932121553,11.711525065676378,-15.650649054737723,32.354637694069815,-0.006034885552672805,-0.0018507699500504135,-2.667166758929158,0.01657554699487207,-0.024373649549538356,0.00503883430804386,164.5872581409053,-102.45923664435294,185.64078896676125,-0.004367283991342441,-0.021625038011263732
16584,1724813452295798950,0.9411744475364684,-0.6524698734283447,0.1262746602296829,0.0013757138513028,-0.0024458558764308,0.9719416499137878,-0.2352052479982376,0.0,0.0,0.0,-0.24605478944633274,0.061174640768485,-0.011375625148650342,0.880330701,0.1262746602296829,0.07427951781195113,0.03802858042271882,0.0517254744809252,-4.890611191939337,-7.0375339902360246,6.246445641793663,-0.005401641165145928,-0.0015236714944741115,-2.666727130840971,0.015559907710326115,-0.024391775261772608,0.006716989895938497,169.48522310360465,-109.76515269160458,165.27095959999738,-0.003051206666739639,-0.02883168998781606
16586,1724813452305909269,0.941303253173828,-0.6526708006858826,0.1263613551855087,0.0015392579371109,-0.0026671634986996,0.971781313419342,-0.235863596200943,0.0,0.0,0.0,-0.29075428285071603,2.7102553956215303e-05,-0.2661228100535332,0.89044102,0.1263613551855087,-0.05005796236563409,-0.021509389836450524,0.13401999956530886,-1.7925169255296136,-2.1355932659276577,6.430125485846923,-0.005909952403502722,-0.0017334715188732901,-2.665370975030297,0.011550522158700005,-0.023015206910905306,0.004111013931308527,-20.268550556293533,2.355103485683977,-39.5218334854033,-0.0021971178688794395,-0.020396171572755275
16588,1724813452315391217,0.9414021968841552,-0.6529169678688049,0.1263606399297714,0.0015461202710866,-0.0025376202538609,0.9715801477432252,-0.2366921156644821,0.0,0.0,0.0,-0.6238644877482817,0.0970840606080593,-0.7682544598546117,0.899922968,0.1263606399297714,0.02636755511755343,-0.008382806201842332,0.17978788511350527,1.3875040034307324,-0.5760842776742905,3.6211223199947957,-0.005662951351362667,-0.0018030910865594809,-2.663665769678218,0.009734529324809671,-0.024225483234058487,0.001513231248250868,-18.222775228969358,9.871430869415946,-38.2261132457475,0.0026749292439617574,-0.02120639037937609
16590,1724813452326181823,0.941498637199402,-0.6531570553779602,0.1263964772224426,0.001797896111384,-0.0027027537580579,0.9713180661201476,-0.2377618104219436,0.0,0.0,0.0,-0.6128684573737484,0.19912625571089393,-0.999848886634185,0.910713574,0.1263964772224426,-0.04059919852597217,-0.03867332352435982,0.2040558702864582,8.49678521456552,-2.3960281095291878,17.747879412159122,-0.006105461982720366,-0.002207436487431194,-2.661461474796716,-0.0023064715766381028,-0.02041830240406739,-0.012846436147983198,72.54815946254362,-14.85449608176882,56.91676127048203,0.0023574362587083456,-0.018187597827290323
16592,1724813452335504080,0.941386580467224,-0.6533326506614685,0.1261465102434158,0.0018788734450936,-0.0019320356659591,0.9707688689231871,-0.2400012016296386,0.0,0.0,0.0,0.6395193612670486,-0.1351456501781778,0.16198887593792943,0.920035831,0.1261465102434158,0.15702226128961302,-0.05769890244130562,0.4943298010597589,5.833911111029323,0.6723019771072696,5.980208974597938,-0.004653017934475415,-0.0027205252913272706,-2.656850377044291,-0.003968692079986624,-0.01979983130474494,-0.019502249760816603,88.62327038192225,-18.138243850863585,87.54208440919687,0.019339789121463533,0.0017358574748219584
16594,1724813452344921083,0.9414258003234864,-0.6535282731056213,0.1260324120521545,0.0019185076234862,-0.0016051535494625,0.9704163074493408,-0.2414247840642929,0.0,0.0,0.0,1.0391583395484418,-0.13739631071682434,0.6335613176432124,0.929452834,0.1260324120521545,0.06579764325322031,-0.025558143648773457,0.31132918668606563,-6.859875654131005,3.8743640585126915,-15.88713333444351,-0.004041713510100788,-0.002948458741480154,-2.6539175375702655,0.009833407017531215,-0.022989206484105296,-0.009644053750244908,-13.517438246788362,15.448015766546288,8.469343508742764,0.006018794475393782,-0.013467295062034233
16596,1724813452354829054,0.9415823221206664,-0.653779149055481,0.1259626299142837,0.0017995401285588,-0.0014968002215027,0.9701879620552064,-0.2423424571752548,0.0,0.0,0.0,0.3219182309492074,0.17919204282806822,0.2837379222511074,0.939360805,0.1259626299142837,0.02730399021786902,0.017637865451536425,0.19088394054992763,-5.659436418022679,0.4449573560522976,-7.0012688706940445,-0.0037765884935096403,-0.002766311380955643,-2.652026970477177,0.015683303931012915,-0.0222522087908672,-0.007675096554807581,-63.018721087058616,20.076280226886745,-34.282998096867026,-0.0020545780467153686,-0.025878101412489942
16598,1724813452365068731,0.941741704940796,-0.6539745330810547,0.1258773505687713,0.0019550689030438,-0.0017200325382873,0.9699714183807372,-0.2432050853967666,0.0,0.0,0.0,-0.22419944043781098,0.25908253709205953,-0.05646957230492877,0.949600482,0.1258773505687713,-0.04942349653715358,-0.01923387578199328,0.17374730910055672,-5.845557245879601,-0.010351973895578959,-3.703553590766485,-0.004287762073124002,-0.002956084898375023,-2.650247076426038,0.016138190964120724,-0.019308213681540565,-0.003870059004321469,-39.808420206555276,6.019623879968029,-34.21634465071126,-0.004745741075266928,-0.02276472697090536
16600,1724813452375959271,0.9419240951538086,-0.6541874408721924,0.1258868426084518,0.0019610517192631,-0.0022471472620964,0.9698249101638794,-0.2437842637300491,0.0,0.0,0.0,-0.5010768549639608,0.30399402809506093,-0.44059309421971654,0.960491022,0.1258868426084518,-0.09400101978109729,0.02224153833440825,0.10990056099843239,4.139676636570144,-1.2320419154721431,7.794857883723834,-0.005314870393724743,-0.002708118643536094,-2.6490513588084372,0.010585133895425258,-0.01681591750087108,-0.009443246237332836,10.152978082080748,-10.423343034237053,32.58230468797856,-0.005510039342769858,-0.02399660567402126
16602,1724813452384703824,0.9419733881950378,-0.6543152928352356,0.1257318407297134,0.0020597954280674,-0.0022239722311496,0.969532072544098,-0.2449460178613662,0.0,0.0,0.0,-0.16249456767519976,0.11070405098638103,0.3207542106959359,0.969235575,0.1257318407297134,5.436673148239294e-06,-0.02392317107800034,0.27395796228321745,5.216068515553833,-2.779839440319235,3.1416720101628144,-0.005321549752828494,-0.002904573261165899,-2.646654707028297,0.006265373034231914,-0.013630004267970008,-0.012796442439977795,25.542441448825773,-15.406065606779128,63.01449179259379,0.0019324800352968758,-0.01199486321019737
16604,1724813452395137624,0.942046582698822,-0.6544451713562012,0.1256596893072128,0.0021873018704354,-0.0022704885341227,0.9693880081176758,-0.2455140054225921,0.0,0.0,0.0,-0.060032466319352995,0.033345849828955165,0.6788171380955791,0.979669375,0.1256596893072128,-0.014468688309217697,-0.021811331243377325,0.11228553513836233,-0.47512014719734785,1.485421968300932,-10.02634546681516,-0.0054760493224812155,-0.0031258200283754397,-2.6454819239337484,0.008696902457508315,-0.015632438390912995,-0.000682719244457175,-12.696813254772753,15.590951917116463,-26.978728920272783,-0.00026571514283195376,-0.01213141355543465
16606,1724813452405468547,0.9421536326408386,-0.6546392440795898,0.1257163882255554,0.0021659436170011,-0.0023299718741327,0.9693058729171752,-0.2458374798297882,0.0,0.0,0.0,-0.4215302508739842,0.42973578398160067,-0.22690183512145196,0.990000298,0.1257163882255554,-0.010047047489189671,0.006658519941541175,0.0646440119668583,1.0772543894431776,0.3045516074366944,-1.0850533602281827,-0.005581906089229107,-0.0030533396538303293,-2.6448144244763614,0.005078819769600784,-0.012983707373415143,0.0013977309407851024,-10.081385102987584,18.892874905045563,-50.057567944825365,-0.00013964607592375217,-0.018032893177028154
16608,1724813452417023627,0.9421440362930298,-0.6547142863273621,0.1256796717643737,0.0022697206586599,-0.0022402158938348,0.9691668152809144,-0.2463849037885666,0.0,0.0,0.0,-0.21607172460340157,0.3963258817007606,-0.3191982528891935,1.001555378,0.1256796717643737,0.010791859769822647,-0.02150288070299261,0.09768355270375244,1.1364926715379067,-3.0658477201645122,1.2711626457551226,-0.005460792413371282,-0.0032955710951389438,-2.6436842966315988,-0.0007136470340185497,-0.005777686413964034,-0.006759388905269503,20.02135348061817,-11.135911766997463,22.33666464867956,0.003820769303528904,-0.0023892991067626396
16610,1724813452425577176,0.942138671875,-0.6547591686248779,0.1255991756916046,0.002465934259817,-0.002119165379554,0.969062566757202,-0.2467938065528869,0.0,0.0,0.0,-0.030631581364224746,0.24887236072322064,0.06386287326557377,1.010108927,0.1255991756916046,0.016289993316778786,-0.05170751363262702,0.09850085401041432,-2.3440152715209237,-1.521631988961398,-3.590719896691239,-0.005324424551511118,-0.0037333040572601144,-2.642839389633766,-0.0007559016502511895,-0.003826872773380785,-0.007040977594702014,8.54614453396438,1.9495676345219728,20.810251814425225,0.0030255068419105416,-0.00201384613387324
16612,1724813452434947149,0.9421302676200868,-0.6547804474830627,0.1255575269460678,0.0027135086711496,-0.0022320004645735,0.9690303802490234,-0.2469164878129959,0.0,0.0,0.0,-0.08536362024732597,0.4640960902602501,0.012781278694226073,1.0194789,0.1255575269460678,-0.036330899373692944,-0.04533789927827109,0.02701882715516779,-1.2655966435465806,1.983107087636283,-4.542178536877773,-0.005665851841199017,-0.004156721217998013,-2.642583873110611,-0.001306625341957357,-0.0012814301771300052,-0.005449166448245002,-3.5255884959655033,12.526569493486438,-7.5750043721701825,0.0018558492494284904,-0.00032743858876502484
16614,1724813452449652616,0.9421015977859496,-0.6547764539718628,0.1254542171955108,0.0025313938967883,-0.0019339728169143,0.968974232673645,-0.2471413165330886,0.0,0.0,0.0,-0.08376638687375282,0.40729113476715084,-0.1476183936873554,1.034184367,0.1254542171955108,0.045459248382554725,0.013904030967091063,0.03146141525308973,-6.8606352614962525,-5.785013525349067,-8.689483526041183,-0.004999223512665334,-0.003949792011262906,-2.6421223436663843,-0.0031755705891356456,0.009984586281007068,-0.008887011345500184,3.2662012014296042,-19.29938646038191,6.734554342583172,0.0015536029307321602,0.001800303535338005
16616,1724813452455205935,0.9420813918113708,-0.6547006368637085,0.125400960445404,0.002648810390383,-0.0019573853351175,0.9689983129501344,-0.2470454722642898,0.0,0.0,0.0,-0.059006244502871744,0.2677429736318793,-0.07322152240673893,1.039737686,0.125400960445404,-0.01869175628755362,-0.038802395229449546,-0.03565063417057085,-7.580754286583188,-6.131535234411788,-8.180859400139914,-0.0051022258216250095,-0.004166271283062108,-2.642319234373318,-0.0035498926704278233,0.011493910631338977,-0.009526090724497838,1.9509783869664177,-23.047829146064732,14.049470509120587,-0.00338222605207481,0.009672200489823663
16618,1724813452471061762,0.9420291185379028,-0.654616117477417,0.1252528131008148,0.002445149468258,-0.0016749961068853,0.96897691488266,-0.2471335083246231,0.0,0.0,0.0,-0.1415966683784644,-0.0034913459802643487,0.17909048034598252,1.055593513,0.1252528131008148,0.04088585237569873,0.016064139673711605,0.011383037542847231,-5.50116211542938,-3.880412065520165,-3.151446962652863,-0.004454670650037095,-0.003910701415810091,-2.642139951913562,-0.004105255954272025,0.015556081449403791,-0.008792053226674312,8.544974061225838,-66.23165330084682,11.032554280804142,0.0003045108148237212,0.005394942144729378
16620,1724813452475414481,0.9420102834701538,-0.6545361876487732,0.1252152025699615,0.0024622632190585,-0.0016573874745517,0.9689820408821106,-0.2471132278442382,0.0,0.0,0.0,-0.0879683378044009,-0.3504791309472173,0.2212805671775618,1.059946232,0.1252152025699615,0.005877693543409875,-0.009597683184979163,-0.00964447498106321,-3.976497440176077,-4.13670803848003,-2.9220939171318316,-0.004428922095684817,-0.003952663233562716,-2.6421817151679465,-0.004848928209518988,0.015230585776325967,-0.007853844473593163,17.59683659410538,-63.76245468879606,5.38067627107163,-0.005029711983696859,0.012544275972950842
16622,1724813452485186488,0.9419514536857604,-0.6544560790061951,0.1251557171344757,0.0024484794121235,-0.00137741479557,0.9689778685569764,-0.2471313923597335,0.0,0.0,0.0,0.19973966987399341,-0.6235370044449238,0.17925878922742117,1.069718239,0.1251557171344757,0.05622846351902685,-0.011434512897819969,0.003676952893496658,0.8228597125740678,1.1265213933650673,-0.41588612488648846,-0.003879602931993217,-0.004064251040324259,-2.6421453076021497,-0.00389020469003043,0.005757272891106169,-0.005565669247132199,11.875420116071258,7.345436091271145,-10.366178691765137,0.0013338538327428576,0.009177875106246928
16624,1724813452496081149,0.9419349431991576,-0.6544229984283447,0.1251014173030853,0.002342979889363,-0.0013332120142877,0.969008445739746,-0.2470128685235977,0.0,0.0,0.0,0.11574884146980038,-0.11488900155644169,-0.007356113952321497,1.0806129,0.1251014173030853,0.012603544990639355,0.01680473250187282,-0.02246356611934687,-2.6497644564829175,0.48605355358945446,-1.3058556979582683,-0.0037413166905641555,-0.003882103304995489,-2.642390769456137,-0.00047967512640667564,0.003165410421544834,-0.004279504427127101,-13.840507718830237,26.523807157160043,-14.55520311354434,-0.00014242367302266025,0.002758154629168797
16626,1724813452506327359,0.9419400095939636,-0.6543893218040466,0.1250643581151962,0.0023376415483653,-0.0013422128977254,0.9690404534339904,-0.24688720703125,0.0,0.0,0.0,-0.08514585342212205,-0.03742811393450046,-0.13168953606800793,1.09085911,0.1250643581151962,-0.001494219317030012,0.0014910407546700746,-0.02530597239956386,0.19871784353857636,0.32628069949151794,0.8835014352815247,-0.0037556216961957684,-0.003867797708477521,-2.64265010154216,-0.0011949131919948286,0.0031736312217134355,-0.005563378833649324,-14.946386806743376,5.538458508074312,-12.60414213231612,-0.002020854727430063,0.0011196782171839085
16628,1724813452516510637,0.9419107437133788,-0.6543581485748291,0.1249880045652389,0.0022022982593625,-0.0012901335721835,0.9690465927124025,-0.2468647509813308,0.0,0.0,0.0,-0.19018295679738634,-0.0014874776422290625,-0.2647933645229836,1.101042388,0.1249880045652389,0.016465669674018184,0.023242004224874706,-0.004559752445818637,3.1336866235379435,-1.763529834220961,2.1030318798369816,-0.003587770058891212,-0.0036312902232067327,-2.642697432127853,-0.0022172364024797275,0.002405570276046376,-0.00696905277861859,-16.440548650922118,26.071517185925416,-19.293181276545205,0.0010317276781350547,0.003951435584139805
16630,1724813452526270391,0.9418952465057372,-0.6543408036231995,0.1249249354004859,0.0022740445565432,-0.0009705462143756,0.9690266251564026,-0.2469439804553985,0.0,0.0,0.0,-0.40793922786305165,0.4638197803966797,-0.5112930351114167,1.110802142,0.1249249354004859,0.059864651196912665,-0.030444732406767618,0.01658032541370438,4.298084712346095,1.0108852032804672,2.694993177565672,-0.0030041211671561815,-0.0039278884534811875,-2.642534644250051,-0.0049132626413026514,0.003082641186303192,-0.01073902578197572,-9.304148476099115,59.2322675989241,-39.77130156815662,0.0005182541009828229,0.0022131530132731866
16632,1724813452536035247,0.9418147802352904,-0.654297947883606,0.1247782856225967,0.0019491290440782,-0.0005480488762259,0.968969464302063,-0.2471722513437271,0.0,0.0,0.0,-0.3717100638789607,1.1551173963363972,-1.0414606620259077,1.120566998,0.1247782856225967,0.10038258026637924,0.043045606471667185,0.04806433708474847,4.247106001241763,-0.17133815098944982,1.8507878986376314,-0.0020256403175235864,-0.0035063752871745016,-2.642066358800261,-0.010183434948967118,0.011465496577720558,-0.016953125877225972,16.217577715472853,20.753983612668137,-10.975667586619085,0.0050785416832147484,0.00927489012027793
16634,1724813452549038227,0.9416487216949464,-0.6540263295173645,0.1245243400335311,0.0022786566987633,0.0005908726016059,0.9688904285430908,-0.2474789768457412,0.0,0.0,0.0,0.05573146605635659,0.5585354313194775,-0.4341342164438027,1.133569978,0.1245243400335311,0.15730003031519046,-0.09246098544677749,0.048349315259114393,-15.325156963971642,1.5846461294771927,-0.3398456295109602,1.7142549569353017e-05,-0.004708011816973442,-2.6414364631447698,-0.012107903798806774,0.03162184998024031,-0.037509253073837456,135.30593968761244,-104.88382365161432,221.15421935033885,0.0010969705728763237,0.021143385573426415
16636,1724813452555100305,0.9415771961212158,-0.6538043022155762,0.1242461428046226,0.0024158777669072,0.0006528528174385,0.9688560962677002,-0.2476118803024292,0.0,0.0,0.0,1.1654619502541683,-0.2440329009669211,1.3995403379404157,1.139632056,0.1242461428046226,0.008715109137843157,-0.0489240430017893,0.04526673923604701,-14.180048489081413,8.086278027360573,-1.512032754177127,6.864165104610431e-05,-0.005004604922906386,-2.641162058941379,-0.011194267031939376,0.03220529891646251,-0.03690010129681287,135.50673468325286,-52.526621107973455,184.77439809232533,-0.007450636130123201,0.02772501117068116
16638,1724813452565531474,0.94147127866745,-0.6535477042198181,0.1240226179361343,0.0020951793994754,0.0008195741684176,0.9688416719436646,-0.2476706355810165,0.0,0.0,0.0,1.7253946119855064,0.6415637339837714,1.214184170491446,1.150063225,0.1240226179361343,0.046224749225251244,0.051659002417145196,0.011481914751063043,5.071288780477336,13.156863233899058,-32.35391932700178,0.0005502519028168173,-0.004465777978830514,-2.6410420967235972,0.019176759678657618,0.023552031023903908,0.0010156980197786325,-101.07787252647543,67.07090602485526,-155.18087714064,-0.002992776725379346,0.020635253609355423
16640,1724813452575498397,0.941941738128662,-0.6533229351043701,0.1242464855313301,0.0009118398884311,0.0010938523337244,0.96956467628479,-0.2448312044143676,0.0,0.0,0.0,-0.7558409740688806,1.1402705680294267,-1.641107198629155,1.160030148,0.1242464855313301,0.11082033877330565,0.21626046116614137,-0.5882599233518506,12.287696621276792,-7.843054561065184,-0.45908000940585225,0.0016746326782200165,-0.002303795899024465,-2.6469028870184754,0.025077332583052225,0.0439564451990222,-0.009935501157075421,-185.8660257907557,-29.23485845696743,-138.72903989165138,-0.052197941960966165,-0.03080892640927022
16642,1724813452584533942,0.9419870972633362,-0.6527504324913025,0.1238913461565971,0.0008504214929416,0.002334235003218,0.9696764945983888,-0.2443794459104538,0.0,0.0,0.0,-1.9185328460733482,0.22679258276907555,-1.684368713170302,1.169065693,0.1238913461565971,0.2694102274983101,-0.05412567207872996,-0.1032774255565617,-1.3567096846756446,-7.98680269710674,33.10418610729522,0.004111282149391118,-0.002790149198021689,-2.6478374600497934,0.007207333635641078,0.04683046325880724,-0.029206321181508343,-10.070690158393624,-48.77212812093972,49.45504220014726,-0.034559135743199285,0.025589073264796758
16644,1724813452595493360,0.942095160484314,-0.6524569392204285,0.1237054988741874,4.91345017508138e-05,0.0021504422184079,0.9696954488754272,-0.2443073242902755,0.0,0.0,0.0,-0.4522398435235058,0.3878460697791639,-0.42132240933467635,1.180025111,0.1237054988741874,0.0031923136981354336,0.14996272795027607,-0.013920587090950528,-4.436613956961017,-17.157803607889576,35.335932752339815,0.0041465548327885085,-0.0011460288251634765,-2.647983220222563,-0.013031574267010626,0.04810251287850065,-0.04170533751725358,171.87343849898173,-42.61781160195567,150.04902877218564,-0.02139125454854118,0.004021513048196924
16646,1724813452605023014,0.9417812824249268,-0.6518218517303467,0.123102992773056,0.001341218361631,0.0030907795298844,0.9690515995025636,-0.2468353360891342,0.0,0.0,0.0,1.5012052521789843,-0.4932084326992916,1.29697230219417,1.189554765,0.123102992773056,0.125436670471854,-0.31003317075427456,0.5480641799300734,-1.0212630732958967,-17.161003453243435,3.9362751956705515,0.005328200071868663,-0.004125258505746009,-2.6427744266960285,-0.005786071511913349,0.0540506090992281,-0.03976114017532861,78.2520782725446,-63.14816279012881,91.46221846795198,-0.0032185838830035038,0.06073763078685178
16648,1724813452614752023,0.9419946670532228,-0.651421070098877,0.1229492053389549,0.0021602518390864,0.0031882766634225,0.9690027832984924,-0.2470197826623916,0.0,0.0,0.0,1.0037319722415607,-0.8164963746405529,1.3043224857805618,1.199283774,0.1229492053389549,-0.022055357790065355,-0.16800207063127895,0.03971391082834688,1.9015051996595407,18.526103685480766,-24.589531460269143,0.005111755152408514,-0.005761746785762171,-2.6423965638848275,0.01617812346284353,0.03815380920089595,-0.016287054170535775,-79.96604109340493,38.105554225015865,-44.498921905735585,-0.039067363577095976,0.0004241630478930097
16650,1724813452625099224,0.9420987367630004,-0.6510597467422485,0.1227753981947898,0.0015893826493993,0.0040310970507562,0.9688852429389954,-0.2474724203348159,0.0,0.0,0.0,-0.14099108962392348,0.362805996218031,0.34587314789124224,1.209630975,0.1227753981947898,0.1853764794675802,0.06691079880515602,0.08968631521796044,12.049207570079544,3.5559554234474984,0.5294796306386265,0.007024832390940343,-0.005075051261881117,-2.641464358744994,0.012765549349850858,0.03870126430236098,-0.014989324798913017,-40.56701508371152,62.961487617344844,-36.03417573322665,-0.025656247929281974,0.007902102415224484
16652,1724813452634763955,0.9422465562820436,-0.6506515741348267,0.1226468533277511,0.0016509447013959,0.0051913764327764,0.9688125848770142,-0.2477347403764724,0.0,0.0,0.0,0.09942808688554283,0.5108161794837485,0.5085082084981631,1.219295706,0.1226468533277511,0.22962925290720237,-0.07156779729398553,0.05598560755213053,-5.84343082075088,-4.050078673988432,-2.6582813201491438,0.009241234351965387,-0.005771112627981239,-2.640928914828983,0.013107396933833115,0.04500521628357035,-0.009656448287522323,22.897727728833438,21.993531323213503,-20.822045870997666,-0.0337659961535646,0.006847748121252089
16654,1724813452644831096,0.9423555731773376,-0.6501694321632385,0.1225878521800041,0.0015974703710526,0.0054967165924608,0.9687635898590088,-0.2479200065135955,0.0,0.0,0.0,0.3091987008292576,0.8022668960035391,-0.09591687948209582,1.229362847,0.1225878521800041,0.061512013081814663,-0.004560552551868338,0.03791428532979729,-11.20240543302213,3.854951138457786,-4.854134689668903,0.009858274743914378,-0.005820667156993901,-2.6405476692084617,0.014780079650265066,0.0486644141103838,-0.0049910630014897706,14.168383903293341,15.968771704609416,-53.320940057510626,-0.032536321867361204,0.013506254165651389
16656,1724813452656028000,0.9425702691078186,-0.6496149301528931,0.1225427985191345,0.0015693177701905,0.0055166576057672,0.9688391089439392,-0.2476243823766708,0.0,0.0,0.0,0.3847914679999076,0.8193979535776399,-0.6092783282707858,1.240559751,0.1225427985191345,0.004538819448367337,0.00371979896019207,-0.054532787672411216,0.6507154486512179,5.893498071182932,0.5973430542968818,0.009912632104228124,-0.0057729827913631316,-2.641157817882345,0.02002356428165797,0.06311173930505021,-0.01303079776975924,-10.872997855372205,-57.10901136534275,12.388784180855758,-0.04060722047295011,0.006938468893000037
16658,1724813452664739281,0.9427504539489746,-0.6489730477333069,0.1223682388663292,0.0011368609266355,0.0056267352774739,0.968826949596405,-0.2476719170808792,0.0,0.0,0.0,0.1706265335885907,-0.07551732388387444,-0.1066559577560734,1.249271032,0.1223682388663292,0.049103246278907345,0.08999051650475921,0.010677182428384004,4.371428254593566,3.0904111824477303,3.3458160382296334,0.010339841472231081,-0.004990032342452426,-2.64105688997296,0.02280963172877648,0.06705825598607618,-0.017601320680022958,-19.039788898754804,-58.522075709220466,64.24940478677746,-0.05360665096356519,0.01722735906737027
16660,1724813452675030887,0.9430110454559326,-0.648363471031189,0.1222167238593101,0.0008340936619788,0.0060010831803083,0.9688312411308287,-0.2476474642753601,0.0,0.0,0.0,0.042095977253719274,-0.14028861420492156,0.6342312064006637,1.259562638,0.1222167238593101,0.08504276959114927,0.0389600830267209,-0.005224180228177287,-0.2995086801610938,-1.391191042227418,2.3158267765095943,0.011215304548564634,-0.004588514161959009,-2.641106311967828,0.022751630472150453,0.0598545925830507,-0.013616542687044486,-2.073030472580931,2.124478836422184,48.091835799910456,-0.050704067887283544,0.006227794188875653
16662,1724813452685690577,0.9432252049446106,-0.6477185487747192,0.1220837831497192,0.0004553192702587,0.0061234515160322,0.9687482118606568,-0.2479702681303024,0.0,0.0,0.0,0.1349987895803182,-0.024698794428856363,0.8830230577648407,1.270222328,0.1220837831497192,0.039986959925212825,0.06351632638201737,0.062089858965831295,-6.1582265142960475,-1.4370371364124015,2.9366812396636934,0.01163870626781505,-0.003919057318537013,-2.640436805078775,0.023727363976959737,0.0645384041936623,-0.004128236783170536,-7.0570766941597505,-9.02210325962104,-15.067818287025588,-0.04673561643603014,0.011474540161680931
16664,1724813452694793533,0.9434694647789,-0.6470996737480164,0.1221110597252845,0.0003979810862801,0.0059621538966894,0.9686784148216248,-0.2482466250658035,0.0,0.0,0.0,-0.05184938987229171,-0.26125426220878056,0.4472995201096741,1.279325284,0.1221110597252845,-0.031085591545814775,0.02135652539166432,0.06256214177244936,3.4160257775316127,-1.8161501306951977,-2.435141059866024,0.01135354759419293,-0.003731209199120337,-2.6398650590150905,0.025294121561735494,0.06070591032941053,0.0038547857058821577,-32.16009921925921,16.0752402392552,-55.69054488262584,-0.056211689466246176,0.009165414906607779
16666,1724813452705680846,0.943724811077118,-0.6465335488319397,0.1221642047166824,-9.310826499131508e-06,0.0067133223637938,0.9686682820320128,-0.2482674419879913,0.0,0.0,0.0,-0.5534778730494306,0.4614684338485162,-0.2609056373104172,1.290212597,0.1221642047166824,0.15225395296986372,0.03824266440420244,0.003665375672144437,12.295487191129377,-0.23497952626081164,3.981513913664701,0.01301102663222452,-0.0033153666099393774,-2.639820116356992,0.02181327912310138,0.05994188644505272,0.0031297432039405493,-20.483462284300455,40.361120546699006,-15.98420507842077,-0.04555634086605121,0.004431425559483204
16668,1724813452714931117,0.9439136981964112,-0.6459166407585144,0.1221793889999389,-0.0003688903525471,0.0077197086066007,0.9685291647911072,-0.2487800419330597,0.0,0.0,0.0,-0.5418250912093578,0.6303110137039858,-0.023147718696879205,1.299462868,0.1221793889999389,0.23027552125964892,0.022032411281485007,0.11430432399420183,-1.1080591440897196,-3.094657802494642,8.854264922254353,0.015137723084007914,-0.0031264618250200563,-2.6387599772252828,0.014856231636358075,0.06838898631555423,-0.0008108641229664926,78.04944508358395,-36.59657867663207,88.93727037700971,-0.05002566908202132,0.014238520231470297
16670,1724813452725237116,0.94400292634964,-0.6451923251152039,0.1221428737044334,-0.000376098731067,0.0082978541031479,0.9683065414428712,-0.2496265769004821,0.0,0.0,0.0,1.1442686313381203,-0.3766447851792716,1.619511521421606,1.309768867,0.1221428737044334,0.10928593810340548,-0.0252731266843378,0.1698885623000436,-15.943260930903612,-0.4396752223408734,-1.4596466184215435,0.016258312316841578,-0.0034143787418596766,-2.6370134004146046,0.01168650388345327,0.07163708572358019,0.0035762025917653872,81.33205429618201,-52.528465245187206,55.53351858315976,-0.041567352453441016,0.026413881561072845
16672,1724813452735030406,0.9441455602645874,-0.6444781422615051,0.1222441494464874,-0.0003101719194091,0.0078793447464704,0.9681975841522216,-0.2500624060630798,0.0,0.0,0.0,1.1751551660875437,-0.4706471165242636,1.1968824524782238,1.319562157,0.1222441494464874,-0.08596952303867825,0.009045197400934209,0.0918188912642776,-10.652684463652331,15.935321317836515,-29.299655855743307,0.01541334602832741,-0.0033400466151254703,-2.6361128803402045,0.036403516058690855,0.06151044334646372,0.03054644106095772,-111.42449598104369,23.336865807965694,-129.55584463163666,-0.04802087577951661,0.0225217714277044
16674,1724813452744848615,0.9447179436683656,-0.6439865827560425,0.1227429434657096,-0.0015723395626991,0.0070539945736527,0.9686962366104126,-0.2481442540884018,0.0,0.0,0.0,-1.046650380601152,0.08266966367216133,-0.9255843215104884,1.329380366,0.1227429434657096,-0.09916583837494279,0.28786273839009874,-0.40578590165296896,2.4691139992134574,-1.7108815020605173,-0.7523946534501453,0.01444719410928403,-0.0004545776251805211,-2.6400544617700374,0.034665755372323304,0.06243510430856958,0.026971161713207792,-172.91384564483948,94.91506636034586,-142.9411697144241,-0.07516581005589731,-0.027382688120387372
16676,1724813452754938643,0.9448226690292358,-0.6432283520698547,0.1227679625153541,-0.001321816118434,0.0069372709840536,0.96856689453125,-0.2486529946327209,0.0,0.0,0.0,-2.2378332572651645,1.440196763369054,-1.6084595602576215,1.339470394,0.1227679625153541,-0.03471213156941795,-0.041610351697632976,0.10435931522641712,6.182538817120639,-6.719081960599182,20.97562982014698,0.014096241500081597,-0.0008894118608433297,-2.6390074823465506,0.015087229301030902,0.06314990753620364,0.011810245792449159,-38.84683950582432,104.83849725766856,-27.2698042206711,-0.045290929973689775,0.02708424537368989
16678,1724813452767313114,0.945080816745758,-0.6426289677619934,0.1230557113885879,-0.0029959767125546,0.0067547676153481,0.968692421913147,-0.2481541931629181,0.0,0.0,0.0,-1.516462401154652,2.2867418115227887,-1.3326656110603976,1.351844865,0.1230557113885879,0.03867750476188458,0.26882608422989596,-0.08504455529747856,-6.450579849094977,-53.46360655141626,66.11706181478162,0.014574072501694823,0.0024519145169509056,-2.6400121189062733,-0.017118904981060723,0.10175307232026398,-0.00970067007064479,182.03556796620603,-167.79659988047175,96.65575575848146,-0.041637754834090136,0.004780612848859815
16680,1724813452775147838,0.9447582960128784,-0.6415672898292542,0.1228162422776222,-0.0008545971941202,0.0070111085660755,0.9678797721862792,-0.2513145208358764,0.0,0.0,0.0,0.5235440586818987,-0.19959141659546864,-0.20649386386383645,1.359679589,0.1228162422776222,-0.07327782786262722,-0.5396918219642288,0.8368591969274719,-12.992109492796327,-37.460202434603204,41.217020980640186,0.014001847674566081,-0.0018696931938415897,-2.6335166356899338,-0.02361210729311125,0.11553780904926114,-0.01812946018149031,188.45528978753157,-221.1252620106078,107.8947383614217,-0.030016381104597673,0.10204534861549953
16682,1724813452785050023,0.9447441697120668,-0.6406731605529785,0.1227923557162284,-0.000192211009562,0.0062318826094269,0.9675264358520508,-0.252692848443985,0.0,0.0,0.0,1.4895082390980903,-1.1849674826349448,0.41327497384618933,1.369581774,0.1227923557162284,-0.18568930867077893,-0.08792278204287747,0.2881853045567526,11.506756458427194,27.53908203111162,-27.679829080585854,0.01215650934051912,-0.00277756944090314,-2.6306745086968437,-0.0015033449106667263,0.08904369956526992,-0.00929433610017849,12.491612180033837,20.36491050032045,18.848028291756716,-0.04291499788901437,0.04540515725371222
16684,1724813452795758421,0.9447271823883056,-0.639734148979187,0.1226131319999694,-0.0004427490930538,0.0072831758297979,0.9670944809913636,-0.2543129622936249,0.0,0.0,0.0,0.6382688574055544,0.42130090592987646,0.1085745840953386,1.380290172,0.1226131319999694,0.2022419511803625,-0.0024415741056044104,0.3128937921374643,8.530310575949168,3.1876906071778013,-4.25619889880265,0.014312778681910674,-0.0028480554819440944,-2.627324593894035,0.005840374988082431,0.09361628819401346,-0.010415356707781598,-51.301982939206155,35.341411977655824,-9.466429523120848,-0.041800482952306345,0.044590336018749024
16686,1724813452805030927,0.944840967655182,-0.6388185024261475,0.1225673109292984,-0.0004537746426649,0.0075614033266901,0.9668316841125488,-0.2553019821643829,0.0,0.0,0.0,0.3889184314608476,-0.1716135171954729,0.173253894891927,1.389562678,0.1225673109292984,0.058959751573553265,-0.01138301815059638,0.2207280740048542,-12.991648822255417,-2.9803181117925552,-3.5091275062112377,0.014853520034504129,-0.0029834395364326926,-2.6252796046665026,0.011377166542075656,0.0974769674814695,-0.007696295394331365,-13.992360269737699,-38.06047361359419,19.679221704862258,-0.0594360208257391,0.03810015879107309
16688,1724813452815302935,0.9449476599693298,-0.6378316879272461,0.1224569082260131,-6.034394391463138e-05,0.0074162953533232,0.966494619846344,-0.2565797567367553,0.0,0.0,0.0,0.391969874187309,-0.2680441553298918,0.519959116047805,1.399834686,0.1224569082260131,-0.04648940428004705,-0.06493768145558876,0.2578571120422693,-0.08189739201104818,-0.9599457236298283,-0.8864555785971238,0.014367177210430935,-0.0036891066888351605,-2.622640926078252,0.013002971302825017,0.08902348155287854,-0.007281971443100055,-1.1011355941020575,31.25503899689908,15.960590329261898,-0.056705468160480485,0.038669552879008424
16690,1724813452826014318,0.94511616230011,-0.6369568109512329,0.1224176213145256,-2.714536435632908e-07,0.0077980379574,0.9662191867828368,-0.2576038241386413,0.0,0.0,0.0,0.3645579274169213,0.5207018359830276,0.49219224726710853,1.410546069,0.1224176213145256,0.06638165860546877,-0.027708047804173526,0.19808734948596202,17.35379913045182,16.381738071748124,-3.0956618530558586,0.015070059642799708,-0.004017095033775106,-2.6205237334384885,0.01981177482977614,0.09235055644896306,0.0036446934894653893,-21.486862969905843,12.664823941694989,-38.78138564980862,-0.05431730023522871,0.027030668979812923
16692,1724813452834611521,0.945314645767212,-0.6360892057418823,0.1224994137883186,-0.001124499249272,0.0086648650467395,0.966000199317932,-0.25839364528656,0.0,0.0,0.0,0.0492237962340073,0.2088620062333102,-0.0909353903163672,1.419143272,0.1224994137883186,0.2626104799115466,0.20218473568809062,0.18861618596748084,-0.7626336184174645,6.387424345130143,-0.16978933571151344,0.017322561994927693,-0.0023053611748731807,-2.61887418908809,0.021075260336210988,0.0982768274682968,0.004233452090121048,-20.680512372102775,-55.321859210726984,-17.95369944483754,-0.07036356494565896,0.0303102664901849
16694,1724813452845337930,0.9455137848854064,-0.6350703835487366,0.122474156320095,-0.0010216489899903,0.0083511294797062,0.9657263159751892,-0.2594261467456817,0.0,0.0,0.0,0.04149879051228855,-0.6394827591565875,0.38394528073845335,1.429869681,0.122474156320095,-0.06123808230955854,-0.001683998200532769,0.1992660766206701,-15.982939721112055,-10.847197039435438,-1.8160866314296893,0.016660713086815018,-0.0023597382431225517,-2.616737400315909,0.020295194049531062,0.09408715313690408,0.00112456086894408,-6.449410322847308,-2.813149617679457,38.88155308493052,-0.06366634993570384,0.03153978125611533
16696,1724813452856047734,0.9457496404647828,-0.6340723037719727,0.1225234046578407,-0.0007448652177117,0.0079783024266362,0.9655215740203856,-0.2601996660232544,0.0,0.0,0.0,-0.08883701689088785,0.14602755976516324,0.7427167449394998,1.440579485,0.1225234046578407,-0.08047472812673809,-0.030608842681049662,0.14977937923342646,2.643477980172894,-0.09881102429121455,-7.388737517201447,0.015794788471011338,-0.002713539708909357,-2.6151387958773693,0.021961046849483523,0.08457699802079333,0.01244142597736797,-25.30016646826997,135.64865244564126,-28.074903188043482,-0.06585450493130732,0.027758318125715085
16698,1724813452868447890,0.9460210800170898,-0.6331472396850586,0.1227902844548225,-0.0008029042510315,0.0080655347555875,0.9654910564422609,-0.2603101134300232,0.0,0.0,0.0,-0.591080127974373,2.722604582157012,-0.48945644744479977,1.452979641,0.1227902844548225,0.01604619210864235,0.005523161199247713,0.01841621041429161,17.788258787472294,-3.037677958508701,12.602889181822496,0.015993149416596172,-0.002648689884105992,-2.6149093958905425,0.01735079296449271,0.10123340420512505,0.017143525404145876,16.548626560970405,-25.33746090841045,-63.0212622938255,-0.056365853561223866,0.018450406066588942
16700,1724813452876939267,0.9461420178413392,-0.6321327686309814,0.1229103952646255,-0.0008180005243048,0.0090504679828882,0.965194821357727,-0.2613742649555206,0.0,0.0,0.0,-0.11882023601093539,1.1519069318770754,-0.8132500837762716,1.461471018,0.1229103952646255,0.2252658944117919,-0.0548773099500538,0.2603136844783839,-12.6146474069645,-5.8504428529725825,20.20202797662113,0.01789958295068408,-0.0031520643127661467,-2.612707227436895,0.011056597160695958,0.13237268064755625,0.007936387414614998,58.75018520041202,-284.207089376951,7.829915232553393,-0.07253305027366827,0.04789199330698793
16702,1724813452884786028,0.9462056756019592,-0.6310005187988281,0.122927650809288,-0.0003107681986875,0.0086008422076702,0.9648310542106628,-0.262729674577713,0.0,0.0,0.0,0.3649016930858467,-1.7977336096531662,-0.4185366799186695,1.469317779,0.122927650809288,-0.1438479925470206,-0.09162831754452891,0.3587560815578469,-20.92433255276964,6.194303020759008,1.6271683222712703,0.01676092887768576,-0.003919725368385003,-2.609904910204843,0.014637499556663158,0.12317308379936875,0.003520360114174892,6.20734606062998,-212.3101288484624,29.762937891318064,-0.08013950081503843,0.06615004625116168
16704,1724813452895034381,0.9464430212974548,-0.6300209164619446,0.1229814141988754,-0.000869600335136,0.0083999326452612,0.9645217657089232,-0.2638682425022125,0.0,0.0,0.0,-0.31352936238301005,-1.783842110099069,-0.3884401291694839,1.479566132,0.1229814141988754,-0.008726414605404017,0.1174534607423398,0.2292887637592238,7.368727789544591,7.453207345073273,-4.854087819874017,0.016663589981470734,-0.00275545751389289,-2.607535319650837,0.017153050842203754,0.09637928983869415,0.001161788735951852,0.6550295809497726,171.78726436334642,38.62465995274418,-0.06857600164653503,0.028686907349112088
16706,1724813452905740905,0.946559488773346,-0.6289801597595215,0.1229481697082519,-0.0011356123723089,0.0083535118028521,0.9641469717025756,-0.2652351260185241,0.0,0.0,0.0,0.44125833810680415,1.961712196675577,0.4242716849290878,1.490272656,0.1229481697082519,0.0051142308918224405,0.05242243633139165,0.26432673903340814,1.0878684509845749,-5.091992933196868,0.6553987069811216,0.016711254579362008,-0.0022414969288690706,-2.604696381769098,0.00754385578659722,0.08657102518083803,-0.004767653179867715,56.76898851069239,195.3593384304884,45.47093178034068,-0.05907340025797892,0.04038811429598613
16708,1724813452920016090,0.9466037154197692,-0.6279467940330505,0.1228484660387039,-0.0011431133607402,0.0084735304117202,0.9637208580970764,-0.2667751312255859,0.0,0.0,0.0,0.9903386866644412,1.8102485388795202,0.4940568331224471,1.504547841,0.1228484660387039,0.016744553568490656,-0.0015765461548591132,0.22386894287805748,-47.53332990730638,11.068603820956236,12.09335632088623,0.01694300055283291,-0.0023177720724358083,-2.601501353193493,0.039324101811217815,0.16934923846766026,0.019905174407504944,-140.79524537945787,-628.3219571516581,-114.18217977656995,-0.03989668054745951,0.034610340126071296
16710,1724813452924887270,0.9468554854393004,-0.6269606947898865,0.1229901239275932,-0.0011257799342274,0.0077315173111855,0.9635263681411744,-0.2674993872642517,0.0,0.0,0.0,0.006532741854120783,-2.2771890473340712,-0.2600660256105556,1.509419021,0.1229901239275932,-0.2951636027810043,0.07702667001843294,0.30759052418528016,-32.08868377834546,8.51023014134861,8.937875914074374,0.015501983337446063,-0.0019669162522795705,-2.5999971610267467,0.04209385882598227,0.17153754877359262,0.02026012004394495,-62.27765076662749,-27.494935450306627,-164.7701949870526,-0.14858749040850688,0.0598769125738244
16712,1724813452935975245,0.947080135345459,-0.6258385181427002,0.122992143034935,-0.0012348404852673,0.0085932528600096,0.9632245302200316,-0.2685575485229492,0.0,0.0,0.0,2.8415437651591833,17.902118738115547,-2.338337900212429,1.520506996,0.122992143034935,0.15523501137669887,-0.021087713397381205,0.19849154683529655,27.078571002641805,-1.4035248467077253,-14.189609964530817,0.017218609252144135,-0.0022367104162035315,-2.597800402784056,0.02798031738501905,0.07747617957955732,0.008973667187341716,-206.58467925231673,-275.18325667018075,-120.74011725924882,-0.06970033964932755,0.03501899867495763
16714,1724813452957790880,0.9480218887329102,-0.6251668930053711,0.1235652640461921,-0.004559576511383,0.0095351645722985,0.9640671014785768,-0.2654487192630768,0.0,0.0,0.0,-21.50686345223005,-78.02824244349404,-2.109669735387797,1.542322631,0.1235652640461921,0.1647216689857895,0.2678587535456188,-0.29778520420561505,238.3938545588332,138.17143874898676,4556.80987096223,0.02080739049811117,0.00372928961947839,-2.6041845623834203,0.2665706657539886,1.6005415786033836,-0.09871494305789952,-2136.9317572583714,-14107.281299345806,1122.9306278603704,-0.05294111469125748,-0.021692850189686336
16716,1724813452958446077,0.9482009410858154,-0.6240873336791992,0.1234981268644332,-0.0046931761316955,0.0096107628196477,0.9638234972953796,-0.2663265764713287,0.0,0.0,0.0,-22.927062444918505,-87.46236121139171,-1.3520384424697982,1.542977828,0.1234981268644332,0.3255991104201902,0.3608465412368617,2.7779384653312427,224.4844057180801,124.89369441698928,4362.112590668125,0.02102770488620588,0.00392759384511018,-2.6023598353710917,0.25184101690821237,1.5465084763346812,-0.10004157046914874,-1937.3487954115406,-13333.835955745246,1132.1334174426252,-1.0801422486590593,0.6126976079075532
16718,1724813452967441375,0.947818636894226,-0.6226713061332703,0.1228979676961898,-0.0016618730733171,0.0092651797458529,0.9626528024673462,-0.2705753147602081,0.0,0.0,0.0,-11.919711221104277,-75.8706199555712,5.842229755122059,1.551973126,0.1228979676961898,-0.2554860237819222,-0.618828918209627,0.9859222440031298,-19.114725363852678,-11.578280384325685,-139.50878854331805,0.018738753630348243,-0.0018142453046009984,-2.59360359197403,-0.009451353813886954,0.1430254427727604,-0.029121905650947966,1780.4726895742947,6706.896429121185,-29.82601686486949,-0.04585436752612537,0.118826048799389
16720,1724813452975478206,0.9479799866676332,-0.6216251850128174,0.1229338869452476,-0.001510969013907,0.008962083607912,0.9623361825942992,-0.2717103362083435,0.0,0.0,0.0,6.387703545661342,16.937280128513283,-0.3544620833790004,1.560009957,0.1229338869452476,-0.08251012906125041,-0.012994057731213527,0.2934478890104175,17.454832018036175,57.40910702956628,-67.40377704605767,0.018071184795944696,-0.0019620624536311926,-2.5912475242595954,0.017739026569447702,0.10880720799019805,0.003169608529705048,997.3740742955741,5215.284669349575,-17.64201438997179,-0.08517731037986491,0.05092051230853661
16722,1724813453000969356,0.9482432007789612,-0.6205784678459167,0.1229095980525016,-0.0015828181058168,0.0093845091760158,0.9620131850242616,-0.2728369534015655,0.0,0.0,0.0,-71.72513559097308,-362.12132316152656,60.10974804052114,1.585501107,0.1229095980525016,0.03351986843407617,-0.0027499375666832967,0.0919488231558713,-1429.9945246200784,164.9315730617995,15082.313611032832,0.018920915345725636,-0.0020754995010285123,-2.588905287135575,0.4234891285482263,2.2542255120060872,-0.35938623432855366,-7271.659175722016,-39411.17425006698,6551.70483260983,-0.030346865080329077,0.012773503765058706
16724,1724813453001422172,0.948438286781311,-0.6195399165153503,0.1227439790964126,-0.0015451667131856,0.0092462487518787,0.9615783095359802,-0.2743709981441498,0.0,0.0,0.0,-75.05170171248487,-380.1647328399887,63.11008522282047,1.585953923,0.1227439790964126,-0.625543545401587,0.07325713981690797,7.0428424386607835,-1281.3039189502554,150.56927651656906,13602.838737243337,0.018631001349276314,-0.0021022089546270926,-2.585716225187069,0.3903058730134319,2.086661418220558,-0.33156967227408884,-6486.49628349376,-35444.820684570615,5892.195497536144,-1.5770007149803844,0.8471206927553142
16726,1724813453005379509,0.9485813975334167,-0.6184371113777161,0.1226140782237052,-0.0018507521599531,0.0098322480916976,0.961334764957428,-0.2752005457878113,0.0,0.0,0.0,-70.98152364358405,-368.1798199535936,61.050715012791365,1.58991126,0.1226140782237052,0.32764362649410034,0.07131544995250423,0.43593787317057403,184.39403152512642,-0.10191333243593759,-1313.3291077958552,0.019924172239287326,-0.0018532963578683603,-2.5839858426106423,0.032095850260134284,0.2323705477069069,-0.02372225575282072,1886.5091095427365,7947.855855500723,-1334.079411987399,-0.17820810519346275,0.11705052116499375
16728,1724813453019659108,0.9488301277160645,-0.6175047755241394,0.1227443814277648,-0.0025652907788753,0.0100056985393166,0.9612590074539183,-0.2754531502723694,0.0,0.0,0.0,0.16636609476640452,-1.212935808546316,0.07433946881067843,1.604190859,0.1227443814277648,0.05093458457500632,0.08989062448423013,0.03599281351268922,-32.2056414626759,-6.861639449479174,38.59993625117775,0.02065084177645526,-0.0005803846633794938,-2.583445968492347,0.025147861884150302,0.1476644232651836,-0.014536359526367448,1464.1391011786923,7485.34932742482,-1242.9392698484955,-0.04934912954268221,0.019702235703245006
16730,1724813453025605582,0.9489988088607788,-0.616422712802887,0.1225993484258651,-0.0024938646238297,0.0094927651807665,0.960910439491272,-0.276685357093811,0.0,0.0,0.0,0.1603553388712119,-1.8031552235049064,0.17957151818827666,1.610137333,0.1225993484258651,-0.1723406756309848,0.028875378168928705,0.430467835195185,-22.723869057018824,-3.0479053956189794,31.809807541544224,0.01962468769656253,-0.0004602571605141725,-2.5808832521768705,0.027754012108978543,0.15213746551370377,-0.015503188607583596,62.87514857209199,-134.46200458695756,56.84375172267829,-0.12080201556355326,0.07297250449054894
16732,1724813453035240695,0.9492566585540771,-0.6154225468635559,0.1225887089967727,-0.0027907250914722,0.00860564596951,0.9606517553329468,-0.2776083648204803,0.0,0.0,0.0,1.7635418851684033,-3.6483523521467514,1.338427417300675,1.619772446,0.1225887089967727,-0.15986348992876812,0.11211414688373984,0.19791599685017072,1.6539521412572435,-1.214955016211416,-14.199795407931628,0.018084503891094568,0.0005838313370770419,-2.5789563099926096,0.024960323317621658,0.09486978911357369,-0.008431247089631277,84.56106372238482,42.671121388639975,10.457618963459893,-0.07800664113112629,0.03273606096112878
16734,1724813453046579300,0.9495156407356262,-0.6144660711288452,0.1223953440785408,-0.0023873799946159,0.0079180598258972,0.960391402244568,-0.2785317599773407,0.0,0.0,0.0,1.6304802469889408,-0.03981058975502627,-0.008311164629921416,1.631111051,0.1223953440785408,-0.13631998718163743,-0.033147203662547864,0.16948990720608773,-11.166965057235364,39.97573686775714,-45.488735548399596,0.016539549788228726,0.00017477616450334695,-2.577041291391716,0.07235671835985613,0.08412926361404516,0.014810014511020597,-320.6122377126373,193.04614340723882,-279.42511429531237,-0.06442693268668058,0.02598392455365471
16736,1724813453055084165,0.9504469037055968,-0.613752007484436,0.1227245703339576,-0.0046583046205341,0.0058610928244888,0.9609712362289428,-0.2765471339225769,0.0,0.0,0.0,-3.0667123303431523,0.8032865128177251,-3.40962687430166,1.639615916,0.1227245703339576,-0.31577735652664235,0.6435865714756843,-0.4915803034487029,4.204895336800703,23.559187760975036,-7.476566091270554,0.013841832565124395,0.005711287704499668,-2.5811385642793843,0.06995892180718499,0.08957955538211237,0.0016102979499965642,-319.223380832431,55.02453020988922,-192.60418708648936,-0.1375952796502081,-0.0485961039015398
16738,1724813453065529586,0.9506704211235046,-0.6127442121505737,0.1222654432058334,-0.0055832141079008,0.0058869002386927,0.960484743118286,-0.2782146632671356,0.0,0.0,0.0,-3.411119269683441,0.8122078441730105,-2.7617795862630445,1.650061337,0.1222654432058334,0.05278193616702547,0.17112076658736125,0.33156830146931787,11.341849411084292,-32.03582879341815,54.25532954864475,0.014416119132215993,0.007449608905772944,-2.5776502530903267,0.0022005634181994083,0.10005415611516355,-0.05783547765928443,190.88321891571718,-60.028371585169616,217.0704457853932,-0.06932753702403457,0.034088457546240625
16740,1724813453076348765,0.9504790902137756,-0.6116216778755188,0.1214841604232788,-0.005279584787786,0.0054655885323882,0.9595141410827636,-0.2815581560134887,0.0,0.0,0.0,1.1626721586302575,-0.5195176421525645,1.324264008088361,1.660880516,0.1214841604232788,-0.09281502664349653,-0.02760178897292927,0.6434581870089584,-15.865676775026714,4.905621232919605,-4.587017655207248,0.013462380849464037,0.007053968967418133,-2.5706931862653852,-0.00023683794852047413,0.10670581558972714,-0.05488896184006009,195.47049652626578,-139.39506387014845,176.28086895456664,-0.040677240720207404,0.07188767845587077
16742,1724813453084608464,0.9505871534347534,-0.6107217073440552,0.121140033006668,-0.0056254207156598,0.0043412619270384,0.959054946899414,-0.2831311225891113,0.0,0.0,0.0,1.3440501288961906,-1.7736981792493833,1.5104098808203468,1.669140215,0.121140033006668,-0.23904725700901083,0.15967151629888207,0.39486847299225714,-6.173589947930711,13.418595620759778,-26.848202681846264,0.011513134785760413,0.008331978809034656,-2.567415372073643,0.01811854385082512,0.09526205934641041,-0.03731782183808807,-18.183573116976653,-33.30964431718131,-20.417835686847635,-0.06981617134733613,0.04873507484440549
16744,1724813453095299737,0.950850546360016,-0.6098927855491638,0.1208011955022811,-0.0062991855666041,0.0033350456506013,0.9588207602500916,-0.2839225232601166,0.0,0.0,0.0,0.5941189956910099,-0.4894705581242582,0.6976840328937988,1.679831488,0.1208011955022811,-0.1454809347966896,0.17506273262139144,0.1527819704620908,2.957329647323591,0.9442373314332997,-15.123026126141053,0.009973066015473911,0.010185966773324383,-2.565761820153302,0.02033457993389831,0.07092672309080328,-0.029707034454793835,-53.25904355103286,81.84102541666212,-49.129630661295955,-0.06255628571447254,0.02199075492575334
16746,1724813453108797397,0.9510517120361328,-0.6090480089187622,0.1204340606927871,-0.007066635414958,0.0016725833993405,0.9586688280105592,-0.2844317555427551,0.0,0.0,0.0,0.1629820423850834,-0.03709602583009719,0.49274041424586246,1.693329148,0.1204340606927871,-0.20430327477665725,0.17936630297916817,0.07680854765922081,-62.26085627414632,22.47806741866943,-42.8282749129198,0.007227494613975511,0.012597987750988027,-2.564704248561535,0.034945886471575704,0.0947669225136849,-0.020531656919159147,-118.42128998742498,-118.38384678904592,-71.35670299918185,-0.04628147861192412,0.022034012362761535
16748,1724813453114863253,0.9513183236122132,-0.608385443687439,0.1203276962041854,-0.0075234458781778,-0.0008090399205684,0.9589064717292786,-0.2836216390132904,0.0,0.0,0.0,-0.7910879875714528,-1.169271605199357,-0.09322678827509256,1.699395004,0.1203276962041854,-0.7398118908323197,0.37612106185765637,-0.2843877813121217,-51.70491384088213,17.04931448031472,-35.08368612524791,0.0027163412483729656,0.014888034332732307,-2.5664181184956947,0.03342788885312942,0.0896259923132039,-0.018052621786428524,-119.5094933058038,-122.70101113170095,-85.81338748554153,-0.09602732078944917,0.022782744034440035
16750,1724813453127502681,0.9514636397361756,-0.6077688932418823,0.1200858876109123,-0.0078816413879394,-0.003752848599106,0.9590408205986024,-0.2831333875656128,0.0,0.0,0.0,-1.3067261426766161,-1.0360028768711746,-0.8937502992675022,1.712034432,0.1200858876109123,-0.42999780826737316,0.1863673076453219,-0.08357174238081438,-10.322906147910622,-0.19999045806675753,8.009267256299992,-0.002735568449245129,0.017243599650062388,-2.567474523397366,0.009185130334174119,0.06637314777026404,-0.03244974427139802,19.48695906855322,-27.825292250811216,39.677457687948234,-0.03581060963459281,0.017090200609449595
16752,1724813453134725976,0.9515204429626464,-0.6072168350219727,0.1197965145111084,-0.0080701457336544,-0.0062518627382814,0.959081530570984,-0.2829458713531494,0.0,0.0,0.0,-0.9171159573790069,-1.3953824632965801,-0.18190762880864275,1.719257727,0.1197965145111084,-0.6483617193663798,0.24607068097095422,-0.058242383749564045,-5.144777193418866,2.215980791908061,5.033076943231877,-0.007426674732289649,0.019018879501522205,-2.5679042928835725,0.002269730902646927,0.06220751157417581,-0.03789290134494472,98.84005928135905,-70.06285436490376,147.7884663804545,-0.04731411629280618,0.03536236323755044
16754,1724813453145471078,0.9514554142951964,-0.60677570104599,0.119424007833004,-0.0085030943155288,-0.0080738281831145,0.9590314626693726,-0.2830569744110107,0.0,0.0,0.0,0.8626452898065828,-2.472850122360769,2.193151520237496,1.730002829,0.119424007833004,-0.3026722369401933,0.173187754405923,0.020237426369366113,13.38986880840022,-2.493101569014881,-0.5708801275798248,-0.010674920188351127,0.020881694239306456,-2.567703719122434,-0.006941278475082413,0.03412807212750124,-0.030710284761481077,109.72626684191326,-7.43423287236034,115.14681066560527,-0.01647852353029578,0.027783184128671222
16756,1724813453154756071,0.9513838291168212,-0.6065143942832947,0.1191706135869026,-0.0088901445269584,-0.0097831012681126,0.9590737819671632,-0.2828478217124939,0.0,0.0,0.0,1.4328835761969572,-1.7969863944384274,2.412705353507335,1.739287822,0.1191706135869026,-0.32904048094676563,0.18445761159904558,-0.048243854167482246,-3.3911732638152348,5.895181651531826,-26.325843833090353,-0.01374025342524754,0.022588787785668554,-2.5681726837684127,0.014867428551646356,0.012293997209734897,0.0018861981546383078,-77.27634923235858,106.0061655044181,-117.16871763166628,-0.008172508080371826,0.022062946286447952
16758,1724813453165072461,0.9517959952354432,-0.606569230556488,0.1195245087146759,-0.0098015116527676,-0.0120759280398488,0.9598183035850524,-0.2801909446716308,0.0,0.0,0.0,-0.954059654725764,-0.3226611267124001,-0.4101224664885621,1.749604212,0.1195245087146759,-0.3703442940372319,0.29893460142962347,-0.5370473574829719,8.460063444359967,3.681476272641806,-6.069219265728132,-0.017695518576771624,0.025585263229940786,-2.5737624262501466,0.01915091095553123,0.00011212847044461682,0.014191423347513776,-138.8972873356808,95.66445863263628,-172.4765705834626,-0.03169161925549735,-0.03694532603383394
16760,1724813453175047308,0.9517863988876344,-0.6065157651901245,0.1194720864295959,-0.0108223259449005,-0.0132482014596462,0.960072100162506,-0.2792293429374695,0.0,0.0,0.0,-1.4476379982834238,0.17590300086328978,-1.1550073318083602,1.759579059,0.1194720864295959,-0.16574822340071435,0.264140649433566,-0.19914836180422293,11.003428369635728,-8.950361361858887,23.842608557148175,-0.019403557617292466,0.028182730191713055,-2.575798198780937,-0.0035717750535511072,0.005170306556895099,-0.005358895744058678,24.253933033398397,10.942515351454011,-6.1492011536397655,-0.001912391697286335,0.003757503331601538
16762,1724813453187148864,0.9517048597335817,-0.6064559817314148,0.1194057166576385,-0.0109661351889371,-0.0143799940124154,0.9601504802703856,-0.2788979411125183,0.0,0.0,0.0,-0.07155485443276077,-0.26484327886609543,-0.22332800301450617,1.771680615,0.1194057166576385,-0.17217980205797725,0.07563310980211876,-0.05790975741837835,-5.8662584514437945,-1.6383943137942136,2.976497798621227,-0.021507804257249324,0.02908348124823211,-2.5765178374356705,-0.008899348767698712,0.00243657173030698,-0.007518185942631206,36.74761863549369,3.9124500933141966,-3.0336256434742594,0.0032033396620809664,0.008406925892911272
16764,1724813453194847205,0.9516257643699646,-0.6064494848251343,0.1193378791213035,-0.0111856563016772,-0.0154239917173981,0.960214138031006,-0.2786140739917755,0.0,0.0,0.0,-0.16557002640922552,-0.03720236959951259,-0.6385704311857894,1.779378956,0.1193378791213035,-0.24346611510923039,0.13128180218584246,-0.07757543563477955,-0.4077856089647405,2.130500374826852,-0.8196806694184766,-0.0234004278156188,0.030080469090332088,-2.577137832865719,-0.007644661977778355,0.00020699983398486665,-0.009457314345119983,-31.14344942390875,24.289129002099614,-60.649488128053065,0.008490424671086726,0.009242062404539909
16766,1724813453205246489,0.951583206653595,-0.6064562797546387,0.1192304641008377,-0.0114105064421892,-0.0161619801074266,0.9602885842323304,-0.2783063948154449,0.0,0.0,0.0,-0.755380152856612,0.14120055668639508,-1.363546642189836,1.78977824,0.1192304641008377,-0.1233528425634293,0.08181931510067626,-0.06172856752737268,9.33259913343832,-5.039291352857113,8.576150940421279,-0.024703412009488793,0.030915647497175406,-2.577800357571416,-0.01398191222089551,0.0033660063307650034,-0.021530028953723246,5.5618171564276775,-3.4351491621689076,-0.5157759194525917,0.004125648037871122,0.0032413079441829147
16768,1724813453219527569,0.9511895775794984,-0.6063293814659119,0.1187033206224441,-0.0113962767645716,-0.0163844414055347,0.9598878026008606,-0.2796732783317566,0.0,0.0,0.0,0.5454402745671012,-0.3116741476022475,-0.013805976280146126,1.80405932,0.1187033206224441,-0.03356349984842735,0.0043035095492698445,0.19905698333884264,-44.84453446723078,15.182606169305256,-18.270794589262877,-0.02509470956974902,0.031047862965722834,-2.574958675811005,-0.02763263662347981,0.002194184322021897,-0.044976873698576725,111.07172417772753,-14.781856283592006,147.46339356383467,0.019622342901786924,0.028487484198759475
16770,1724813453224876287,0.9510416388511658,-0.6063310503959656,0.1184465959668159,-0.0114418882876634,-0.0174432639032602,0.9598458409309388,-0.2797512710094452,0.0,0.0,0.0,1.1795663415729256,-0.3568235367024837,0.8810087771353553,1.809408038,0.1184465959668159,-0.375854857614834,0.12679922333929583,0.0281489743507215,-33.661284135464,14.402540864273167,-21.199282454517085,-0.027100879800149084,0.03172977213934499,-2.5748257636622043,-0.021707726899144575,6.713756809872962e-05,-0.041789391411451327,59.653101936373034,-4.352149414379522,101.39991882139196,0.02501243323424516,0.023740430074819945
16772,1724813453234908560,0.9509358406066896,-0.6063232421875,0.1181441694498062,-0.0117792608216404,-0.0182858761399984,0.9598015546798706,-0.279835432767868,0.0,0.0,0.0,0.6696381347649903,-0.32354280765766164,0.6583332748485091,1.819440311,0.1181441694498062,-0.14276583621071173,0.11135784091051952,0.01782552206732179,11.255348665356987,0.957993777562443,-2.909907077694326,-0.02852837588844626,0.03285148650446918,-2.5746780067385386,-0.00852216497221292,-0.0027439305155922966,-0.027586633886945044,-58.93015035641656,1.8735916998200448,-41.37841715272799,0.009463617523590087,0.009682770986153975
16774,1724813453245309348,0.9508690237998962,-0.6063897609710693,0.117884837090969,-0.0122907329350709,-0.0192765891551971,0.9598247408866882,-0.279667317867279,0.0,0.0,0.0,-0.030637633039245937,-0.3196239726172027,0.02112331087124053,1.829841099,0.117884837090969,-0.1548643473265105,0.1482482571272024,-0.0327210623770697,-8.070056827034858,2.4609426136521977,-1.9171592780378715,-0.030152048321661823,0.03438273707066537,-2.5750636215421348,-0.008508842623420776,-0.0065763621380270365,-0.028906086784295404,-29.75931241728685,-5.638096881089147,-17.209071312839477,0.009704975694590497,0.0023002238263903595
16776,1724813453254917313,0.950768768787384,-0.6064545512199402,0.1175718531012535,-0.0126419570297002,-0.0208502933382987,0.9598203301429749,-0.2795538902282715,0.0,0.0,0.0,0.016889527272191007,-0.42718013340961153,0.24680578251995122,1.839449064,0.1175718531012535,-0.29370323987199726,0.1622545279659712,-0.025022715760391886,-1.57871847898934,3.7432442353687634,-1.470233921405285,-0.03298412331149729,0.03593330833463637,-2.575353306147791,-0.009086503299350568,-0.009213715961834623,-0.02738968990765578,8.69770415480054,-10.007185094933561,14.129236773328547,0.013585836517614728,0.005588749796335346
16778,1724813453265807538,0.9506864547729492,-0.6065853834152222,0.1173375844955444,-0.0136111909523606,-0.0220014713704586,0.959891140460968,-0.2791767716407776,0.0,0.0,0.0,0.15791114535479578,-0.5215051364656805,0.2851417948174879,1.850339289,0.1173375844955444,-0.15201284314702312,0.23123022215694222,-0.06907216676054861,-4.319027241117126,3.020915910702703,-1.183951690083458,-0.03467071028934277,0.038424577327672745,-2.5761908339613417,-0.007951958443555895,-0.015750470033765396,-0.02360360050954302,12.049835523904587,-10.73083174863612,-3.6392900991000214,0.013635549382097023,0.00022929952516880268
16780,1724813453275154858,0.9506089687347412,-0.6067625880241394,0.1171001717448234,-0.0142176430672407,-0.0237957630306482,0.9599151611328124,-0.2789168655872345,0.0,0.0,0.0,0.26332779124511746,-0.6384124268921174,0.19368334188580805,1.859686609,0.1171001717448234,-0.33142145628559805,0.23288898441600497,-0.05718583280219074,-11.238545135726365,-3.0090475060097965,-0.3221799277565962,-0.03779284925679439,0.04058067861805445,-2.5768044121216196,-0.006044827780137041,-0.01999345078561987,-0.021439868547813212,2.2946240487013423,-6.805976757504688,-16.352362422041395,0.018165508051610976,-0.002811565268748847
16782,1724813453287202501,0.9505710005760192,-0.6070195436477661,0.1169033497571945,-0.0144794359803199,-0.026035338640213,0.9599950313568116,-0.2784282267093658,0.0,0.0,0.0,0.151482279306742,-0.6318820042721445,-0.10531087750746493,1.871734252,0.1169033497571945,-0.3432930835181113,0.1471568113723298,-0.08581611261770175,-12.24704253296472,9.040435646289701,-9.3061392822754,-0.041974503600400566,0.04231094269155226,-2.577909173211157,-0.0019515641338898604,-0.030549549215493244,-0.019693373189362262,-9.461120246918327,33.87497744571894,3.1994330224903633,0.014738162568302791,-0.008538862721447084
16784,1724813453294897025,0.9505618810653688,-0.6072999238967896,0.1167353242635726,-0.0150259230285882,-0.028183476999402,0.9601316452026368,-0.2777180671691894,0.0,0.0,0.0,0.07781108068727591,-0.20742226071093928,0.05699152549300868,1.879428776,0.1167353242635726,-0.4928713548447333,0.29611665589611713,-0.19147711732697545,-5.698696523764896,8.081248070256724,-4.518686787974652,-0.04583520811460792,0.044522557655602,-2.5794825420866476,-0.0017112150365576895,-0.034210948106579764,-0.021733623921271317,4.665681343648108,22.211436475277285,41.835811205895595,0.021375472167392447,-0.018173362598168073
16786,1724813453305379990,0.9505364298820496,-0.607626736164093,0.1165089681744575,-0.015597247518599,-0.0303051583468914,0.960215389728546,-0.2771731615066528,0.0,0.0,0.0,0.33009830700213066,-0.4452045196220953,0.7917986273238522,1.889911741,0.1165089681744575,-0.3563645108431847,0.21976129137488695,-0.10726294480962877,8.626066575257534,-2.3290648912144984,2.105235316859707,-0.049627296546108576,0.04677003652205342,-2.5807169236598226,-0.00023034821943213046,-0.03255176054286579,-0.016535296614036632,5.035581163074607,-23.849471672500222,28.143149951967747,0.019628180984674757,-0.014286292224039092
16788,1724813453316700991,0.9505606889724731,-0.6080120801925659,0.1163836047053337,-0.0164606422185897,-0.0324155576527118,0.960381031036377,-0.276308923959732,0.0,0.0,0.0,0.15443473273992459,-0.729469039832793,0.5974983221267891,1.901232742,0.1163836047053337,-0.3124509114167354,0.2539701627458623,-0.1559078786653321,-5.469455895319864,6.281926718976884,-8.218050916640273,-0.053256635530265835,0.049550667010359026,-2.5826295921230824,0.005815387832960539,-0.04497007682292775,-0.003953473388981443,-47.81379993540207,54.18929533894167,-78.74449235507387,0.016762432356964535,-0.019763820087664124
16790,1724813453325396980,0.95063579082489,-0.6084761619567871,0.1163967847824096,-0.0172968693077564,-0.0345945730805397,0.9605992436408995,-0.2752328515052795,0.0,0.0,0.0,-0.47708717604319417,0.27144788559293165,-0.4986063912799556,1.909928731,0.1163967847824096,-0.4224572384098992,0.33037475353393686,-0.2535640027036941,-6.595675653711989,1.2282942755230852,0.49082634597325203,-0.057050608875160926,0.052297681320190685,-2.584992627276563,0.004622801070397031,-0.04885904151607434,-0.0021901143653506594,-45.92013821148226,77.00855412313524,-90.83455879242106,0.020753574555821802,-0.035627533187365716
16792,1724813453334939261,0.9506378769874572,-0.6088951826095581,0.1163370832800865,-0.017927011474967,-0.0368842706084251,0.9606706500053406,-0.2746452689170837,0.0,0.0,0.0,-0.6356744444362353,0.6074217884291737,-0.9966664575238517,1.919471012,0.1163370832800865,-0.42199811051245134,0.26295728057640044,-0.12615219919379583,10.037181523653768,-9.736176047628412,12.883999429754319,-0.06114974494966702,0.054731409184116085,-2.5863444244889555,-0.0034892405861555176,-0.03874375237061756,-0.014292110847778261,17.78173413372983,-2.2418191010379065,15.315832867991276,0.023270492335955444,-0.02332663897907252
16794,1724813453345685877,0.9505555033683776,-0.6092489957809448,0.1160862371325492,-0.0182935502380132,-0.0380670242011547,0.96060973405838,-0.2746729850769043,0.0,0.0,0.0,-0.02822538962328175,0.13006474735325524,-0.014991908703573253,1.930217628,0.1160862371325492,-0.19323519771536346,0.12599881875871202,0.00663886298730983,11.02702746527428,-0.45799105571706455,5.19106524875596,-0.06322709535714091,0.056087292996151984,-2.586357449574045,-0.007725219388014182,-0.03769415314756941,-0.021715942121824483,26.4800313019326,-60.53745847837283,19.798551402034484,0.02513981283403966,-0.01058406189750136
16796,1724813453354807159,0.950484573841095,-0.60962975025177,0.1159007474780082,-0.0190281197428703,-0.0390927754342556,0.960562825202942,-0.2746429443359375,0.0,0.0,0.0,-0.019292211140844506,-0.5468975784572361,-0.38831753958168147,1.93933891,0.1159007474780082,-0.17208465856547184,0.21693934272995483,-0.001485446768785777,2.303706382445072,4.0628029538687676,-1.4696910929179186,-0.06480473037274605,0.05806113491801597,-2.5864977538985703,-0.005149624300393896,-0.03625698696089508,-0.016620689845870285,6.229311681753675,-58.703762027499444,-29.11380396375845,0.02974035796053868,-0.015182731873544037
16798,1724813453370873207,0.9504761695861816,-0.61005699634552,0.1157388538122177,-0.0196038354188203,-0.0403984412550926,0.9605932235717772,-0.2743071615695953,0.0,0.0,0.0,0.2293530683199514,-1.0510096104804472,-0.5217077843101263,1.955404958,0.1157388538122177,-0.13550066948621867,0.1150440031095089,-0.041482159416076546,-44.210015594755674,20.155715611318058,24.91480175648378,-0.06702814065990827,0.05986153134988086,-2.5872859295183512,-0.013996196793499394,-0.06497856112824252,-0.04965601448853363,163.29674819204868,144.20758728035403,310.3450682611604,0.015019146801372087,-0.013456390272026173
