seq,stamp,px,py,pz,ox,oy,oz,ow,lx,ly,lz,ax,ay,az,timestamp,wx,wy,wz,aa_x,aa_y,aa_z,roll,pitch,yaw,vx,vy,vz,jx,jy,jz,fw
562,1724814821285280146,-1.9043477773666384,-0.3219644725322723,0.1887866854667663,-0.0138713642954826,0.1049891784787178,-0.3585275411605835,0.9274927377700806,0.0,0.0,0.0,5.796599366852977,2.0175216547794066,21.654442980298132,0.0,0.0,0.0,0.0,-588.9434662678614,-440.206438979851,204.89493841172353,-0.1029665315663318,0.1858753425805321,-0.7473313754744536,-0.0963512596149888,-0.0400436069820213,-0.358873213086464,-99.76607196766956,-93.17499494243656,-238.46572651349553,0.0
564,1724814821287310451,-1.904543399810791,-0.3220457732677459,0.1880580633878708,-0.0152781419456005,0.1045886054635047,-0.3579954206943512,0.9277215003967284,0.0,0.0,0.0,5.594043812106658,1.828347996672803,21.17028482342915,0.002030305,-1.1957348642809702,-0.8937533340929863,0.4159992179320143,-482.5925970227578,-362.1295541388371,168.88469139003203,-0.1052017558768393,0.1841583561893424,-0.7462850788271149,-0.0845823949374704,-0.0359474226787144,-0.3149080892313498,-135.33149583990672,-100.07801757618604,-373.8364759568755,-0.0007486600383456
566,1724814821298288569,-1.9047733545303345,-0.3221972584724426,0.187210738658905,-0.0165832471102476,0.1037599518895149,-0.3571968972682953,0.9280998706817628,0.0,0.0,0.0,1.997192142281784,0.3199157089026532,9.030644854485958,0.013008423,-0.1806968358929913,-0.2346038882347374,0.1324640096254823,31.282657740476303,10.41464230760632,-3.0850512229473956,-0.1068674861953113,0.1817512222946312,-0.7445373051811226,-0.0351940365631548,-0.0271049668131766,-0.1112378730822811,-260.25284917964467,-80.74100335684787,-939.9885617973029,-0.0008690613179758
568,1724814821307180642,-1.9051889181137085,-0.3225341141223907,0.1859763264656067,-0.0186682939529418,0.1022634357213974,-0.3558908998966217,0.9287278056144714,0.0,0.0,0.0,0.1683426303572208,0.0100679272007737,1.866465070847667,0.021900496,-0.3431545821544453,-0.4994337991871682,0.2688306638744672,-5.8555023476025845,-8.6606343725762,2.636134923047583,-0.1094001351841043,0.1775941128110811,-0.7416346971028368,-0.0354524770395414,-0.0277573582213985,-0.0995162078148341,-137.10878416572962,-39.602474178168734,-540.220386599178,-0.0012793525971314
570,1724814821321936901,-1.905435800552368,-0.3226957619190216,0.1854703426361084,-0.0198199301958084,0.1018388569355011,-0.3558030724525451,0.9287843108177184,0.0,0.0,0.0,-0.1759113016694051,-0.690806814677634,0.3953909832944946,0.036656755,-0.1255575081667726,-0.1099998295945612,-0.0032554271967894,16.1957377748224,-12.170327583269554,5.719310317269427,-0.1112295139016124,0.1759755260507221,-0.7415017533763729,-0.0281343148008943,-0.0255656382284215,-0.0585487389337089,13.559810686380509,2.1075745165897075,-35.609080756065836,-0.0005395133492229
572,1724814821329527633,-1.9056938886642456,-0.3229468762874603,0.1849311888217926,-0.0202338397502899,0.1006005778908729,-0.3553032577037811,0.9291016459465028,0.0,0.0,0.0,0.0710598126526338,-0.4811171650590495,0.3753166920865727,0.044247487,0.003040493522863,-0.3529535176526407,0.1344888030971039,11.061138524851769,-16.641985118542735,10.571332212878904,-0.1109749382345879,0.1734260646273053,-0.740169891739722,-0.0320929934692628,-0.0340867443663839,-0.0648441515187734,62.09546111327254,63.80597738801052,68.87974026876849,-0.0005712462943507
574,1724814821337993217,-1.9059475660324097,-0.3232449293136596,0.1844406276941299,-0.0205315463244915,0.0991799682378768,-0.3546908497810364,0.9294817447662354,0.0,0.0,0.0,0.8758140324485717,0.4006372677076253,1.63370397333401,0.052713071,0.0411619179987647,-0.3487760341616561,0.1524633661281002,0.281298258249649,3.9612497630245938,-3.9607322975727888,-0.1103469373895481,0.170634061752281,-0.7385368971368667,-0.0258967772107183,-0.0321035831506435,-0.0502932505331479,51.50247458259196,54.36578676907312,52.2236311193073,-0.0005213682452011
576,1724814821347579638,-1.9061516523361208,-0.3235189914703369,0.1840415894985199,-0.0209816768765449,0.0979710295796394,-0.3544468581676483,0.9296929240226746,0.0,0.0,0.0,0.896672658105963,0.3812884071095568,1.0875981288044856,0.062299492,-0.0019719339786133,-0.2731567658990314,0.048448484897994,-1.0919414569280248,5.779948438998405,-5.166416952585596,-0.1102376124488106,0.1680824864222165,-0.737776120053121,-0.0159389013662121,-0.0264567885742383,-0.0355559769046642,-11.346190122345892,-26.05661932428532,-64.22249760220916,-0.0004228978639201
578,1724814821358913434,-1.90626060962677,-0.3237902820110321,0.1837199330329895,-0.0212538428604602,0.0966730713844299,-0.3540878295898437,0.9299593567848206,0.0,0.0,0.0,0.5868862863951446,-0.2361368615632266,0.2624868156710063,0.073633288,0.0313120549598495,-0.2358974241803034,0.0660546321198297,-0.692687166646846,-0.7115716293684553,1.4873610656363194,-0.1097080386554268,0.1655071788678192,-0.7367239196913424,-0.0076799601602175,-0.0249191602958891,-0.0292553167058233,-19.423121394290124,-26.72513952079128,-25.460347535175305,-0.0003287358615058
580,1724814821369658073,-1.9063234329223633,-0.3240680396556854,0.1833966821432113,-0.0218177810311317,0.0952868983149528,-0.3536416292190552,0.930259108543396,0.0,0.0,0.0,0.458762487929936,-0.2406107318366248,0.4711412273686945,0.084377927,-0.0130999744859028,-0.2842775182449036,0.0813629047564146,-1.4024756931864752,-2.1889095297343495,3.7285754415995136,-0.1096496192533681,0.1625667644443144,-0.7355042563501899,-0.0028186122952433,-0.0312436053736497,-0.029423911385102,-11.183298241828975,49.56285568630221,45.22531337016733,-0.0003217355379457
582,1724814821377501650,-1.906328201293945,-0.3243439793586731,0.1831696778535843,-0.022202081978321,0.0942577272653579,-0.353161871433258,0.9305370450019836,0.0,0.0,0.0,0.3752890572620369,0.4343106748461722,0.9736290812632696,0.092221504,-0.0084635885841134,-0.2881979764067408,0.1237996078284019,0.9284352887623312,3.6458310006055754,-0.4981766112402723,-0.109518473649628,0.1604260054558899,-0.7342757987012746,0.0008159048065294,-0.0311382554944206,-0.0229409725386027,-18.757912115946677,56.76219669596206,17.253765483434833,-0.0002166887535204
584,1724814821387535898,-1.906301736831665,-0.3246045410633087,0.1830165088176727,-0.0225090943276882,0.0933270379900932,-0.3529415130615234,0.9307070970535278,0.0,0.0,0.0,0.0828888921222438,0.6279461702849787,0.5458708059200478,0.102255752,0.0051827764475101,-0.1983979344350899,0.0429540914197605,-0.5378974254918738,12.486782065926834,-6.661121134036998,-0.1093626021049718,0.158494226206861,-0.7336216674177974,0.003450910615939,-0.02137754674035,-0.0112830399154244,-19.252202099923107,-4.405794332881932,-42.51515100941817,-0.0001390796724426
586,1724814821397193447,-1.9062608480453491,-0.3247683346271515,0.1829445511102676,-0.0226687807589769,0.0931543037295341,-0.3529664278030395,0.9307110905647278,0.0,0.0,0.0,-0.0111311748749555,0.365075445105489,0.1363445818203763,0.111913301,-0.0176527386557317,-0.0449258641474386,-0.0084017185455514,-0.4521079611815077,5.30043848330687,1.0930487133052045,-0.1095383957656567,0.1580540893379967,-0.7336553660311166,0.0025809895029453,-0.0185179764152323,-0.0117364553957957,-6.525487513467486,-10.808860399012982,-17.76691960933266,-5.903075629919764e-05
588,1724814821408032708,-1.9062529802322388,-0.3249880075454712,0.1827652007341385,-0.0228465776890516,0.0925761982798576,-0.3525416254997253,0.93092542886734,0.0,0.0,0.0,-0.042812270014798,0.447556464342462,0.2434978734668311,0.122752562,0.0007123854622788,-0.1163182225125493,0.0814363534720194,-1.3152960961341065,9.089444562071725,-5.159962191731497,-0.1093694818647903,0.1568972598292986,-0.7326275218339012,0.0034207542494328,-0.0137216651347493,-0.0080287061183952,-7.708044696960308,-0.7778010135184452,-12.596872556206511,-0.0001696113887959
590,1724814821417014700,-1.90620219707489,-0.3250625431537628,0.1827564835548401,-0.0228838399052619,0.0929653719067573,-0.3528078198432922,0.9307848215103148,0.0,0.0,0.0,-0.1476621773555429,0.3781441520122499,-0.0369837429704489,0.131734554,-0.0335020080645506,0.0819982176709196,-0.0650045866138972,0.7430321576974489,7.606327007074229,-4.008613183880675,-0.1097751662474647,0.1575654866507549,-0.7332966183151272,0.0021409263137144,-0.0096640391177373,-0.0065752532861402,1.482536851152582,2.121841230082495,-9.770759990478425,2.76541056017971e-06
592,1724814821427648156,-1.9062236547470093,-0.3251824975013733,0.1826160103082656,-0.022739864885807,0.0928160548210144,-0.3525878190994262,0.930886685848236,0.0,0.0,0.0,0.033716003873471,0.5247012885843514,0.1292239085731631,0.14236801,0.0317053260011333,-0.0193146766463174,0.0471492299468413,3.566636028125939,1.8672094653189952,1.29363522886122,-0.1093553368418822,0.1574161805659998,-0.7327693770396163,0.0005056341883857,-0.0065696674882751,-0.0094711536717184,3.636028279679917,6.163828464275809,5.368930675125878,-0.0001391869278706
594,1724814821437772353,-1.9061942100524905,-0.3252035975456238,0.1825561672449112,-0.0223551299422979,0.093251459300518,-0.3527570068836212,0.9307883381843568,0.0,0.0,0.0,-0.0588442830129835,0.5136648458630858,0.0846641079596676,0.152492207,0.0430835651861263,0.1094290514313043,-0.0289524641594894,2.877878012779342,5.01029688090297,-4.5841824955677115,-0.1089847758476164,0.1584855156633311,-0.7331865928427141,0.00265438889231,0.0009952024085091,-0.0042920729523547,-14.90944884865084,-15.649250392076429,-22.916912543884138,-5.265655614663601e-05
596,1724814821448126903,-1.9061694145202637,-0.3251606822013855,0.182528868317604,-0.02179073728621,0.0934632197022438,-0.3530288934707641,0.9306773543357848,0.0,0.0,0.0,-0.2742979289041228,0.1974404568913859,-0.3487130345241785,0.162846757,0.0914579387058309,0.0796992708147753,-0.0453626328058979,-4.328515061916199,0.4925719606851135,-1.839902690298784,-0.1081269010284891,0.1592550062722474,-0.7337499918544159,-0.0008257337227632,0.0038407266749089,-0.0079362472898623,-8.776359895186255,-16.08631309958055,-13.905020564108746,-2.3192286604098656e-05
598,1724814821457207017,-1.9062025547027588,-0.3251282274723053,0.1824146062135696,-0.0217225365340709,0.0939569622278213,-0.353302389383316,0.9305254817008972,0.0,0.0,0.0,-0.2581888634041765,0.1664601489984648,-0.2524291566423923,0.171926871,-0.0195107880858882,0.1109558770979298,-0.0641002095381946,0.1535788187499873,0.6616790234328547,-0.8241064248341781,-0.108414823944549,0.1601937176271209,-0.7344464098963985,-0.0028243210329463,0.0050174582078224,-0.0110769111758557,-1.7537777797911076,-4.484991862722845,3.014728616417157,-0.000119283049764
600,1724814821468609169,-1.906222939491272,-0.3250503540039062,0.1823098808526992,-0.0207481700927019,0.094046339392662,-0.3536930978298187,0.9303902983665466,0.0,0.0,0.0,-0.3286979130775149,0.0999568511875157,-0.3267153453576115,0.183329023,0.1594205883493686,0.0786873066031364,-0.0557499585623979,-4.891917986661847,-3.357847609869226,2.476282612370171,-0.1067150830237807,0.1610175067844319,-0.7351842805552755,-0.0063135005409122,0.0074433065340642,-0.0126170639339573,1.6513695364199243,-8.705782044410435,-2.091961668128018,-0.0001088233519554
602,1724814821477782352,-1.906314253807068,-0.3249775469303131,0.1821688115596771,-0.0208449643105268,0.0942927524447441,-0.3537671864032745,0.9303349852561952,0.0,0.0,0.0,-0.2557261828610939,-0.0011073927151085,-0.3132627443856282,0.192502206,-0.0373678108539794,0.0439899790872001,-0.0201643589268737,-6.644959249708743,-3.2845902962336817,2.124537604224124,-0.107094767069475,0.1613989827122774,-0.7354141851756887,-0.0094961377489113,0.0075277952681389,-0.0170283747469746,2.7389616504286387,-4.463553932485339,8.35837118712979,-0.000157839293481
604,1724814821487758796,-1.9064040184020996,-0.3249068856239319,0.1819810271263122,-0.0205595660954713,0.0942674279212951,-0.3538792729377746,0.9303012490272522,0.0,0.0,0.0,-0.2849942160183666,0.0254712741775243,-0.1550989714222633,0.20247865,0.0570024042564838,0.0166235093567698,-0.0180083606466817,4.774023898753589,-1.7036192467687954,-0.5727063788903008,-0.1065580591277925,0.1615447175828752,-0.7356130599144319,-0.011057591688484,0.0074047988682117,-0.0183348376687781,5.138749882434667,-1.3682295348861988,14.923090324745637,-0.0002033500223059
606,1724814821498383122,-1.906544804573059,-0.324824571609497,0.181791752576828,-0.0202863793820142,0.0942117869853973,-0.3540709316730499,0.9302399158477784,0.0,0.0,0.0,-0.1390643277821426,-0.0346886358803928,-0.0070806279732551,0.213102976,0.0547126108787876,0.0102847794547315,-0.033017858535605,-0.6148131026431476,-1.6465861017122618,-0.3833574583869827,-0.1060355132104582,0.1616161397355499,-0.7359781718670633,-0.0155391236827142,0.0081030933543573,-0.0202558340209257,19.8200609135599,-11.935671358215748,12.157161980208745,-0.000214843050413
608,1724814821507263345,-1.906699776649475,-0.3247499763965606,0.1815937608480453,-0.0201262980699539,0.0940863192081451,-0.3542080819606781,0.930203914642334,0.0,0.0,0.0,0.0821048642811388,-0.1872424954346883,0.0877038998503795,0.221983199,0.0462892336414439,-0.012130545501465,-0.0287815729024369,3.5884388631148623,0.3240239426350102,0.0112752151754467,-0.1056640266529585,0.1614820284250855,-0.7362241960313038,-0.0146753253666105,0.0070497294810323,-0.0190292083846488,5.5333115826838375,-12.307394439270375,-17.9984062229246,-0.0002258405580821
610,1724814821518403938,-1.9068244695663452,-0.3246903121471405,0.1814274191856384,-0.0193074364215135,0.0939491316676139,-0.3544721007347107,0.9301345348358154,0.0,0.0,0.0,-0.1270070151971468,-0.2562662632372112,-0.5135389810595579,0.233123792,0.1496770311086211,0.0312867434988261,-0.0351657374482083,-5.198537115632615,-1.528342497929854,1.600850139829479,-0.1040660085957212,0.1617876507153693,-0.7366558871516954,-0.013972611178417,0.0040046344194735,-0.0187569067786537,-7.195723799138026,0.0117696873688704,-28.68103126894833,-0.0001886116406373
612,1724814821528482868,-1.906990647315979,-0.3246622681617737,0.1812034845352172,-0.0195299182087183,0.0938538238406181,-0.3544486761093139,0.9301484823226928,0.0,0.0,0.0,-0.0939904538209294,-0.1995452003441229,-0.5720293555313918,0.243202722,-0.0347428667525349,-0.0335899369399872,0.0007917363233133,-2.2507215742647064,-9.404781354330606,5.005520607286183,-0.104409150854919,0.1614517812789371,-0.7366122103922915,-0.0169859748849745,0.001577369453912,-0.0288383802168201,15.344748292285274,13.066321301218984,28.00577522751202,-0.0002519803644803
614,1724814821537502914,-1.9071478843688965,-0.3246577680110931,0.1808899194002151,-0.019420662894845,0.0931425020098686,-0.354226142168045,0.9303070306777954,0.0,0.0,0.0,0.1418453480200945,-0.0216386936875903,-0.0464958878471331,0.252222768,0.0744921967507995,-0.1423797526123553,0.0575493371340536,1.5476465172150116,-4.778947061014387,1.7637122499317577,-0.1036318285432356,0.1602283501514452,-0.7359540727885172,-0.0161790418175797,0.0001106952556746,-0.0305413208006548,14.907244239745436,17.993651829553556,36.41175007688995,-0.0003374351604398
616,1724814821548822603,-1.9073132276535032,-0.3246620297431946,0.1806041747331619,-0.0199058149009943,0.0927704423666,-0.3541158437728882,0.9303759336471558,0.0,0.0,0.0,0.1509408617468275,0.1574708643935129,0.0552655329597409,0.263542457,-0.0580373537345147,-0.0930313700985807,0.0131814025792935,-1.2250921816861973,-0.7452078625353895,-1.4723701172852446,-0.1042472862725548,0.1591964258985334,-0.7356930774150897,-0.0138292297774995,0.0018682181115003,-0.0290461908953325,-0.9525536614510806,1.7774856623923143,7.576941182579061,-0.0003113506386585
618,1724814821557799854,-1.9074318408966064,-0.3246292769908905,0.1803163439035415,-0.0200914703309535,0.0921948626637458,-0.354033350944519,0.9304605722427368,0.0,0.0,0.0,0.1298871549989166,0.07343131063024,0.113226924667406,0.272519708,0.0055973598570518,-0.1360646103329107,0.0173862779401496,4.027553964899735,0.7304051531999449,-0.9279877046069702,-0.1041518936909976,0.1579978061568162,-0.7354072375531786,-0.0128774853244948,0.0032975963609551,-0.0290969583552493,-2.923523762002708,-9.052069026271608,-0.6980871730858503,-0.0003056564797951
620,1724814821568489963,-1.9075652360916135,-0.324598491191864,0.1800430417060852,-0.0201580040156841,0.0918872728943824,-0.3540831506252289,0.9304705858230592,0.0,0.0,0.0,0.0912727984707914,-0.0193986974417871,0.014688301087401,0.283209817,0.0096879327744607,-0.0579372853969706,-0.0103096222247785,4.798454384598367,3.531971846651248,1.7504779891341835,-0.104055519351992,0.1573703435215929,-0.735453028749834,-0.0111851202430841,0.0029904850819271,-0.0263732078715968,1.5787601854026274,16.513126993610186,-21.344027911242648,-0.0002940277706152
622,1724814821578944416,-1.907668948173523,-0.3245660960674286,0.179759070277214,-0.0197324976325035,0.0914084389805793,-0.3538724780082702,0.93060702085495,0.0,0.0,0.0,0.1608497720182864,0.410849462079682,-0.3324309253913289,0.29366427,0.1050002941579035,-0.0596223664665991,0.0523758257764871,-2.342689530265938,-3.365423675842491,-0.8961051274224483,-0.1028613388280212,0.15680691028066,-0.7348364497548288,-0.0109163141832908,0.0028830705983633,-0.0286744643800513,79.91696645236485,90.94957130824088,166.89246744961682,-0.000299003854143
624,1724814821589438711,-1.9077939987182615,-0.3245381116867065,0.1794422268867492,-0.0201824698597192,0.0908517614006996,-0.3539844155311584,0.9306092858314514,0.0,0.0,0.0,1.7712821003334829,1.88985638100448,3.526851334324163,0.304158565,-0.0403033669853924,-0.1286945111280474,-0.029632143893628,2.065518364463079,-2.345378171016975,-17.008631661836972,-0.1033111008941276,0.1554315142836713,-0.7350088543536318,-0.0078047300748096,0.0116308877150288,-0.0333461858214878,75.07317938885475,37.68288777007734,266.3874324443632,-0.000335035760625
626,1724814821598156946,-1.9078322649002075,-0.3243717849254608,0.1791286617517471,-0.0200850218534469,0.0902062132954597,-0.3550024032592773,0.9302863478660583,0.0,0.0,0.0,1.8580663888824416,1.4705592812857868,5.115131554330903,0.3128768,0.0929473180486997,-0.1184581503074254,-0.2445080390112406,27.421561426939785,80.74876863034476,-30.12397200209917,-0.1028150788470374,0.1541849359165756,-0.7370473370926713,0.0183191932198383,0.0357574641494196,0.0261700991040445,-137.54610251288136,-156.25846232195315,-213.85178619782596,-0.0003196143248129
628,1724814821608116749,-1.9073914289474487,-0.323825865983963,0.1800963133573532,-0.0152081549167633,0.0966222956776619,-0.3581855893135071,0.9285128116607666,0.0,0.0,0.0,-1.1901527830647192,-1.316456289250966,-1.5209021376429803,0.322836603,0.504162524718744,1.5911984758191682,-0.6068580453146335,-0.3393541349331217,16.305682415865412,1.1965349459387191,-0.099035500707771,0.1693436204623857,-0.7447583083605653,0.0238722117371423,0.0356486020935378,0.0576419016485996,-188.18722822957653,-143.75666984117174,-474.87058853949566,0.0010106689552177
630,1724814821617467496,-1.9073472023010256,-0.3236607611179352,0.1802884191274643,-0.0141036016866564,0.0980251803994178,-0.3594266772270202,0.9279033541679382,0.0,0.0,0.0,-1.9151153369500604,-1.4661413540831736,-4.2809117315457295,0.33218735,0.13554997774826,0.3798612723489442,-0.2657766619831727,-25.39055120369685,-88.10494702610647,29.41839252050377,-0.098255447423467,0.1726335701476363,-0.747622967687097,-0.0025995146794599,0.0118776223772165,0.0023280276064774,-1.4762905283238297,62.75377801585079,-63.74153136263401,0.0001895185424241
632,1724814821627444153,-1.9074511528015137,-0.3236037790775299,0.1801177412271499,-0.0140846539288759,0.0976966172456741,-0.3596574664115906,0.9278489351272584,0.0,0.0,0.0,-1.120293828804982,-0.0016934935293873,-2.453464616244394,0.342164007,0.031580056843818,-0.0580304861201995,-0.0474079202908607,-4.6610138547046915,-25.602849413523913,13.782246818928144,-0.0980124481551893,0.1720110873477052,-0.7480432525737941,-0.011957133985291,0.0087039429214641,-0.0229823801082034,-21.750900582844636,16.537924011645188,-25.065437944891386,-0.0001897660303185
634,1724814821637330392,-1.9075844287872312,-0.3234884142875671,0.1798329800367355,-0.0141224069520831,0.0970173850655555,-0.3596251308917999,0.92793208360672,0.0,0.0,0.0,-2.3288941113630335,-1.114203222887584,-4.7412976820661745,0.352050246,0.041931794140026,-0.1319777463364324,0.009437837019953,-9.05786906646419,-32.5147358925541,13.103233179544818,-0.0975597698699771,0.1707216413173673,-0.7478196356838469,-0.0248189698345839,0.0117870243928983,-0.0464199159609481,-9.51204961288542,-15.873933284297443,-25.614584498713796,-0.0003096637923377
636,1724814821647317878,-1.9079467058181765,-0.3233695030212402,0.1791916191577911,-0.0159895773977041,0.0940152257680893,-0.3585056960582733,0.928643763065338,0.0,0.0,0.0,-1.2863878757355702,-0.297494951180067,-2.920634895890292,0.362037732,-0.1504902124740237,-0.7093147850172221,0.2144987450405703,-23.20169151869399,-90.29197093088864,42.22816774370791,-0.0985856068964622,0.1638811730081605,-0.7449540230795776,-0.0584501466296671,-0.0137296725985383,-0.1176921115281892,219.88705327272777,242.8427131024139,489.806895196524,-0.0007015913882594
638,1724814821657825917,-1.908806085586548,-0.323797196149826,0.1773636937141418,-0.0214806292206048,0.0850662961602211,-0.3537129461765289,0.931230127811432,0.0,0.0,0.0,2.301194120104148,4.0350462125157875,5.626048159179071,0.372545771,-0.4378029759607535,-2.0172617808181403,0.8981031950390109,16.379550667988774,75.11421994266716,-26.160131736131273,-0.1014024301938475,0.1437310118080024,-0.7333102470228584,-0.0489612226349436,0.0081011184961248,-0.1017766904744856,78.7029451479353,144.0375403179792,204.41880705722116,-0.0019403695695376
640,1724814821667244649,-1.9089901447296145,-0.3233088850975036,0.1770144402980804,-0.0205276980996131,0.0865569859743118,-0.354303628206253,0.93088960647583,0.0,0.0,0.0,0.8245858962222017,3.1268707971870935,2.4106301096100826,0.381964503,0.0855857037963263,0.375187329008435,-0.11836506883299,43.68250193155099,170.4097144804756,-74.07428634711627,-0.1008110091828203,0.1471342190536961,-0.7347916741287875,-0.0154829842600321,0.0626321487328347,-0.0140761341961397,-204.42973745125263,-185.00426477033423,-438.86958683407585,-0.0003873524735534
642,1724814821677414660,-1.9091030359268188,-0.3225534558296203,0.1771239042282104,-0.0167127810418605,0.091417372226715,-0.3569622337818146,0.9294846057891846,0.0,0.0,0.0,-1.777789435892846,0.2726373130856188,-3.123172723631032,0.392134514,0.3993100126457902,1.1902267712467145,-0.5000358160914083,-7.996958775827869,-48.67727450706097,-3.5195970240556163,-0.0977146621573031,0.1586754314916386,-0.7411255560512109,-0.0370739596506837,0.0651920607708973,-0.0653376443338764,-97.04757522094827,-157.0254586474777,-146.47763202019124,6.120814786648648e-05
644,1724814821687751629,-1.9097591638565063,-0.3219750523567199,0.1756489425897598,-0.0184662733227014,0.0883686691522598,-0.3577194809913635,0.9294551014900208,0.0,0.0,0.0,-1.1120923425043912,-0.0516274293991014,-0.4593115214232557,0.402471483,-0.0914851869412596,-0.6664042785674785,-0.1790918610798904,22.701082777495376,-21.224782017375183,21.610196487325258,-0.0988427851041838,0.151638395531452,-0.7423061010957192,-0.0518238577564886,0.0682301613691684,-0.0774775075652449,46.795523055750245,-48.16642419427883,40.80870694334226,-0.0015840829827197
646,1724814821697303892,-1.9101513624191284,-0.3212149441242218,0.1754844784736633,-0.0142794512212276,0.0894383788108825,-0.3583255708217621,0.9291930198669434,0.0,0.0,0.0,-0.820482967937266,-0.6599950370753906,-1.9840435476338407,0.412023746,0.7448552993497922,0.5289441786033863,-0.0559757492006265,5.273310358556161,-12.823723818828997,22.030797691997257,-0.0918851287127858,0.1566171398786053,-0.7433316112958078,-0.0596679436285256,0.0646869325543662,-0.0755526875622187,70.35788494839315,19.520845464460898,-2.0110515681605747,-0.00025951632056
648,1724814821707006537,-1.9109137058258057,-0.3207340240478515,0.1741764992475509,-0.0158992335200309,0.0851747989654541,-0.3571314513683319,0.9300267100334167,0.0,0.0,0.0,0.2547160180018006,0.3494679719737719,-0.4502579074574462,0.421726391,-0.0148900003762537,-0.9551443583168652,0.2478803836567414,-34.73196102553679,-44.34860201046809,8.910271975009803,-0.0915323539364555,0.1476088862781897,-0.7400500691576226,-0.0676219718429678,0.0554343931894081,-0.1163425918205707,64.0780682759575,64.48248902458323,167.7018120718895,-0.0014328103778447
650,1724814821718170417,-1.9115279912948608,-0.3200397789478302,0.1731148362159729,-0.0151655953377485,0.0845806673169136,-0.3568919599056244,0.930185079574585,0.0,0.0,0.0,0.369731102143918,0.5612196464718933,1.545550129902599,0.432890271,0.1570431642220375,-0.055151051090482,0.0595372662730892,9.869599503204183,48.24343801278384,-19.126351526466784,-0.0896726334293725,0.1470558427079332,-0.7393245273719982,-0.0509762666406743,0.0760740822335357,-0.0731517463753625,7.749765836698691,25.788076594493667,118.48915531568431,-0.0011716189177516
652,1724814821727838649,-1.9119869470596311,-0.3191879987716675,0.1725913435220718,-0.014055666513741,0.0848448574542999,-0.3576349020004272,0.9298930764198304,0.0,0.0,0.0,0.4232842897725763,0.8676525768475152,2.1863708218321545,0.442558503,0.2061518656225677,0.1402190965587508,-0.1442667301421324,-13.153814895707423,-29.7073452960123,1.5331307077631546,-0.087904054952132,0.1482824986100944,-0.7408506771733127,-0.0567902292192599,0.0707192956386713,-0.0776615050378479,-13.375706160934811,21.30529546492661,-48.51105458377624,-0.0006222092279637
654,1724814821739678585,-1.9127944707870483,-0.3186027109622955,0.1713308691978454,-0.0171120278537273,0.0801647156476974,-0.356332927942276,0.9307565689086914,0.0,0.0,0.0,-0.0093374013544456,0.9692633931368456,-0.052419976809042,0.454398439,-0.2139599460082533,-0.93525099480736,0.201759985745585,51.26440120093805,182.193436067063,-40.055694030101186,-0.0899536122871131,0.1374650423761735,-0.7374532888059746,-0.0369219757305643,0.1016033121870734,-0.0133105433745406,-163.61043534549216,-240.68284700923857,-558.6363444121757,-0.0013886822837602
656,1724814821747791797,-1.9129201173782349,-0.3174883425235748,0.1717407405376434,-0.0117142768576741,0.0869181528687477,-0.3586034178733825,0.9293608665466307,0.0,0.0,0.0,-2.0431970375489117,-2.36923749889416,-6.639261276082198,0.462511651,0.6842296294665422,2.0608215939280456,-0.5083890197018898,26.604736465462345,39.504722174222834,-11.282293188773007,-0.085219170243129,0.1537602567083688,-0.7430842202836815,-0.0463788912503275,0.1003540182835447,-0.0442436154685417,-41.69757284916454,-167.93869288878864,-128.644538004521,0.0003370071814246
658,1724814821757203512,-1.913693904876709,-0.3169477880001068,0.1702897101640701,-0.0135241542011499,0.081793375313282,-0.3575871586799621,0.9301926493644714,0.0,0.0,0.0,-0.1539106932361078,-1.2907318612044008,-0.3905868014767737,0.471923366,0.0163935973923285,-1.167905674741303,0.2179002290882403,-44.44101778769471,-146.59645515170942,33.75175299724445,-0.084620085155324,0.1429817487154707,-0.7400754082424181,-0.075190310266322,0.053869187488134,-0.1375911921265089,210.1639721520632,204.68604435318412,670.8816733126437,-0.0015743337149965
660,1724814821768507868,-1.9144484996795657,-0.3163872361183166,0.1689594686031341,-0.0145003879442811,0.0812197178602218,-0.3574643731117248,0.9302754402160645,0.0,0.0,0.0,2.3498433172973585,2.246374913886228,7.287751069301836,0.483227722,-0.1259472513160984,-0.1576618624995372,0.0099451032166643,44.77289623768424,138.66080926077856,-27.73832798692547,-0.0860060935103198,0.1412155551414616,-0.7398088933133612,-0.0374557719841561,0.0888135405280614,-0.0126440009581347,-15.863031491794017,-0.389869295173451,-149.57642500536227,-0.0014514102110392
662,1724814821778499518,-1.91456401348114,-0.315153419971466,0.1697607040405273,-0.0078234001994133,0.0874413773417472,-0.3595301508903503,0.9289945363998412,0.0,0.0,0.0,0.095227855654939,-0.524282100314736,-1.5263317722796388,0.493219372,0.8280162722840396,1.66311499648223,-0.3497120646036264,34.77300052723125,32.051490338342106,-14.70737790075082,-0.0784619383995103,0.1574898584769013,-0.7447107583246224,-0.022704214855949,0.103797304533538,0.0269201981035909,-171.1862979346575,-133.416052869253,-594.9697577415353,0.0007098256233245
664,1724814821789225136,-1.914935827255249,-0.3142668008804321,0.1694361120462417,-0.0049094036221504,0.0878458842635154,-0.3610822856426239,0.9283742904663086,0.0,0.0,0.0,-1.1137834602222718,-0.2986753406608811,-4.601358849292628,0.50394499,0.5020732293736845,0.2778082306166486,-0.2623538009414779,-32.03130186852825,-84.74183766175862,13.50537548895461,-0.0735626882322037,0.1602472802852065,-0.7477816652206535,-0.0375848329548489,0.0748717553729836,-0.052614393330435,-11.186364281509425,36.6838373207361,41.415981692309906,-0.0004296949747661
666,1724814821801097633,-1.915420413017273,-0.3134802877902984,0.1685177087783813,-0.0046835099346935,0.0868334397673606,-0.3613040447235107,0.9283843636512756,0.0,0.0,0.0,0.0877866591855163,0.3425186984690178,0.2024466486868474,0.515817487,0.100201287135506,-0.1445622457989915,-0.0315628378214962,41.936350219371505,32.34713423547093,-1.975168220401585,-0.0724129951982265,0.158508188918944,-0.7480333458010252,-0.0472124801053723,0.1028427736976169,-0.0702620454391116,84.5918964243337,-157.4785322275618,171.9920068409701,-0.001026794257747
668,1724814821807013197,-1.9157185554504397,-0.312764048576355,0.1681229770183563,-0.0028771348297595,0.0868991389870643,-0.3617457449436188,0.928213596343994,0.0,0.0,0.0,0.5392252251528684,-1.212403153286043,0.5342219780426201,0.521733051,0.571653883745772,0.2469897308312809,-0.1063651850532976,42.45068949319521,32.16720923548808,-5.94868982312938,-0.0691487170520195,0.1599211285507075,-0.7487737307215514,-0.0440442559195517,0.0989344227309763,-0.0640865322333437,64.47143531493086,-173.0232049071257,85.60471155611586,-0.0004786860929657
670,1724814821820154929,-1.9161118268966677,-0.3121103346347809,0.1673578768968582,-0.0033830981701612,0.0848254635930061,-0.3616960048675537,0.9284230470657348,0.0,0.0,0.0,1.0407562254661569,-0.8636527363221651,2.521040724389411,0.534874783,0.0421225218359017,-0.3235780454115745,0.0109579619961856,-0.5796381673590147,-5.523206594475198,-3.5783462851893235,-0.0685257450342824,0.1556887186296819,-0.7483320567334079,-0.0368513142999802,0.066894043680957,-0.0719472629182806,28.068789791269,-15.67752418191614,129.87123472442187,-0.0008529847283975
672,1724814821827513094,-1.916411519050598,-0.3115474581718445,0.1667719185352325,-0.0029927054420113,0.0838456451892852,-0.3619845509529114,0.9284008741378784,0.0,0.0,0.0,1.2057029319225163,-1.1529326636139292,3.3888485553965304,0.542232948,0.2014760611129408,-0.208102288881664,-0.06689501333785,18.813539424736867,57.16334090994704,-10.463821443584274,-0.0671037280145442,0.154127615087405,-0.7487240050357177,-0.0271604169480212,0.0670255563218695,-0.0405462812762831,-24.23229267846728,-68.62111612079791,-83.38851799962488,-0.0006560557062487
674,1724814821837248186,-1.9165011644363403,-0.3110169470310211,0.1668806374073028,6.669248978141695e-05,0.087217204272747,-0.362891286611557,0.9277408123016356,0.0,0.0,0.0,0.3689659653916075,-2.198434821355435,-0.0160014473827838,0.55196804,0.3480081911993707,0.8825124796117777,-0.1672586327469776,-13.338470946913164,-13.359921069804075,9.720605811167289,-0.0640651911243238,0.1625937859990402,-0.7509394909557547,-0.0168566165020251,0.0407218563652804,-0.0188724441116594,-61.49107221793772,-14.461698621841444,-239.70072706078437,5.891450062596031e-05
676,1724814821847181955,-1.9167461395263672,-0.3107520341873169,0.1663886606693267,-0.001148457522504,0.0849453955888748,-0.3622490465641022,0.9282018542289734,0.0,0.0,0.0,0.0060618448381077,-1.4000734905577676,-1.2816169298989646,0.561901809,-0.0722726314021115,-0.5212090074816381,0.1323384764122814,-19.397146505147504,-62.033093034984304,11.001982137114188,-0.0645176569682629,0.1575113899847332,-0.749273753246123,-0.0201800288411533,0.0239869614452192,-0.0417611155702664,-6.2751175711646905,62.975441428787,-11.92679170695362,-0.0005394488609604
678,1724814821857983068,-1.916911482810974,-0.310524433851242,0.1660287827253341,-0.0017092322232201,0.0836659222841262,-0.3621099591255188,0.9283713698387146,0.0,0.0,0.0,0.2936304206301707,-0.92413504028388,-0.0542375602456128,0.572702922,-0.0127105953385906,-0.2602155724357094,0.026183123326143,-4.327098726633853,-1.725597209465512,-2.256216169922924,-0.0645819779561235,0.1547248415596525,-0.748804418042948,-0.0161142622626613,0.0122066949292882,-0.0435954480430362,9.0521441805715,14.254356203098672,71.69888881951634,-0.0003937962314672
680,1724814821871167027,-1.9171369075775144,-0.3105061650276184,0.1652886420488357,-0.0047100349329411,0.0799294784665107,-0.3612480163574219,0.9290258884429932,0.0,0.0,0.0,0.1301990323952062,-1.2159148385701064,0.2161889168430688,0.585886881,-0.2281336458233368,-0.6995868501834377,0.1182890991860707,17.19866859065158,-19.599097281116116,1.218871991055284,-0.0672623272904944,0.1456242776512844,-0.7466162169712619,-0.0135753584162614,0.0027026249436765,-0.0424503745470232,-0.323861754765069,-26.251563552142382,12.088541695302292,-0.0007657915019474
682,1724814821877755737,-1.9172147512435913,-0.3104840219020843,0.1650540232658386,-0.0056276246905326,0.0775380879640579,-0.3609049618244171,0.9293566346168518,0.0,0.0,0.0,0.1678161424279155,-1.4024452452267804,0.2681014355949609,0.592475591,-0.0043838348633981,-0.7835200923794877,0.1073296405390534,19.049154912764784,-3.3994310132012835,3.4604331663595183,-0.0671396193017268,0.1405209993996262,-0.7455530172371562,-0.0129229021465135,-0.0069386925500971,-0.0406001031459073,60.36602856113413,80.37544417783445,133.72256910636196,-0.0002443255937086
684,1724814821888126544,-1.917366862297058,-0.3107241094112396,0.1645514965057373,-0.0070253876037895,0.0744271427392959,-0.3597696721553802,0.9300414323806764,0.0,0.0,0.0,1.686072694319155,1.2052964832260984,3.709173767077796,0.602846398,-0.0502254212029691,-0.6663172979368268,0.2268577172563751,-0.8244272265135093,22.84316703192843,-1.84251786522385,-0.0672724692761912,0.1337843373276536,-0.7427149634105782,-0.0100595945067709,-0.0204896487149497,-0.0380273658274674,34.32781812357063,138.18746229510649,116.0223028363527,-0.000509016990881
686,1724814821897463785,-1.91742205619812,-0.3108930587768554,0.1642840951681137,-0.007709767203778,0.0729310065507888,-0.359325498342514,0.930326282978058,0.0,0.0,0.0,1.0644686754546795,1.5434221906111738,2.978496369443308,0.612183639,-0.0276943391183523,-0.3559956902436053,0.0972735522985448,18.669024012294273,107.1110956606205,-49.12223961922032,-0.0673808770942997,0.1305289716515962,-0.7415752852914894,0.0175369222003922,0.0118815809403809,0.0257024384115727,-158.45516693536106,-119.80279318055337,-297.6871779280877,-0.0002658891981403
688,1724814821907354823,-1.9170029163360596,-0.3104614615440368,0.1651076823472976,-0.0038514335174113,0.0791158303618431,-0.3629742264747619,0.9284265041351318,0.0,0.0,0.0,-1.4655340679155555,-1.276231237619842,-2.2650886057547255,0.622074677,0.3272867623309551,1.477496183790974,-0.757872115992584,-9.723643123238883,-29.444181597643492,9.80196989939573,-0.0653132678219128,0.1446140563175024,-0.7501044483595397,0.0082516616323005,0.0069940989770618,0.014856903889556,-47.7274554689369,-68.91102897934718,-122.3702591966156,0.0008542970339947
690,1724814821917504903,-1.9172745943069456,-0.3107721209526062,0.164545938372612,-0.0068251420743763,0.0745862871408462,-0.3612264692783355,0.929465353488922,0.0,0.0,0.0,0.2171611487152206,0.2758239048275314,0.7400822856646592,0.632224757,-0.2465077310877979,-1.0588386182409282,0.344239057870011,-14.92857310240142,-65.88499124599551,35.370353764960655,-0.0672264692060695,0.1341216444713589,-0.7458651825049901,-0.0121105086106751,-0.0141060187156867,-0.0203058240096751,125.58822915729276,123.1741017921729,190.8275859660423,-0.0005816510734504
692,1724814821927516847,-1.9172511100769043,-0.3107503950595855,0.1646886616945266,-0.0065867444500327,0.0750174522399902,-0.3613499999046325,0.9293842911720276,0.0,0.0,0.0,1.0776075294810008,1.2153674264943346,1.6112604372913233,0.642236701,0.0148811289147447,0.0986337527922996,-0.0246456302670047,21.007685431645484,90.531388670949,-32.56852369271992,-0.0671197897311988,0.1350903547888755,-0.746180434417091,0.012020022159362,0.0119091735133398,0.0286248168352498,-55.67907917633059,-48.32094824047046,-140.57767426797176,0.0001435791100811
694,1724814821938155024,-1.9170138835906985,-0.3105136156082153,0.165155604481697,-0.0043262615799903,0.0785052925348281,-0.3630412518978119,0.9284499287605286,0.0,0.0,0.0,-1.1155414423366157,-0.9056326487236576,-2.4568291483864924,0.652874878,0.180716148804382,0.7782541684110988,-0.3227819416302255,-3.6225283770351786,-26.064892480677436,9.65024970261072,-0.0657539544021944,0.1431233738215624,-0.7501951156463345,0.0084210259769292,0.0092050708036133,0.0087355429437359,-88.83108538771927,-88.38637304976584,-126.2050709872066,0.0004849023268274
696,1724814821947759149,-1.9170533418655396,-0.3105383813381195,0.1649346649646759,-0.0048212236724793,0.0774197205901146,-0.3625974059104919,0.9287121295928956,0.0,0.0,0.0,-0.9513903167539676,-0.7921590769464304,-1.4475172156136504,0.662479003,-0.0206473846111532,-0.2519948874724307,0.0965678563487871,-19.547740468001017,-65.91151743347623,25.960802924353235,-0.0657972777704557,0.1407693952693161,-0.7490996729191922,-0.0090318291622395,-0.0051411397963327,-0.0199516588799077,75.18710069581833,54.87746942315004,169.60527663723707,-0.0002229241360503
698,1724814821957183678,-1.9171839952468872,-0.3106105327606201,0.164774864912033,-0.0064340196549892,0.0756037905812263,-0.3617381751537323,0.9291868805885316,0.0,0.0,0.0,0.2944955990853827,0.1232886877689472,0.747574810595024,0.671903532,-0.1917558331774005,-0.490670567911431,0.1775164119738538,-2.2089593859257315,0.8319078398807331,3.5552606456055345,-0.0673288878225443,0.1362665609035449,-0.7471036267174213,-0.0099907441972959,-0.0061183016027008,-0.019356549136285,79.63631880421828,59.02047034590652,150.13150626362426,-0.0001738411905468
700,1724814821968497002,-1.9172444343566897,-0.3106588721275329,0.1645232737064361,-0.0066289687529206,0.0749471113085746,-0.3609481453895569,0.9295458197593688,0.0,0.0,0.0,0.4816507818536613,0.2733915823078045,1.32183882496071,0.683216856,-0.000179965780819,-0.1260316640396851,0.1493748989553835,9.853075278322436,29.06427950417479,-15.187520055869458,-0.0670877827972143,0.1349574217950813,-0.7453051869561033,-0.0012777886921213,-0.0016410743456347,-0.0016039832031449,-17.046926537220653,-12.377447189476946,-35.5371778714793,-0.0002554334786476
702,1724814821978014990,-1.9172240495681765,-0.310653418302536,0.164673238992691,-0.0062851309776306,0.0754346847534179,-0.3613936901092529,0.929335594177246,0.0,0.0,0.0,0.050425866373889,-0.0497725919210406,0.2925669754623234,0.692734844,0.0369033764118718,0.1252446981260599,-0.0968761483083523,1.800713373439221,10.043159263583082,-9.650211126163862,-0.0668728599936905,0.1360851032353415,-0.7463141773951081,0.000996384201116,-1.8713982258944384e-05,0.0089967177874088,-32.46527498958882,-26.568550305651115,-104.5353925710817,0.0001509637874759
704,1724814821989072549,-1.9172277450561523,-0.3106612265110016,0.1646858900785446,-0.0060772188007831,0.0755095928907394,-0.3613823652267456,0.9293352961540222,0.0,0.0,0.0,-0.1436028168793007,-0.2486941687092611,-0.817038478493922,0.703792403,0.0298967785176868,0.0261729103202681,0.0048060353415355,-7.302107455084804,-10.90814810699392,2.28365138754933,-0.0665376501421498,0.136377410032918,-0.7462801260558151,-0.0008676373654168,-0.0033981183971079,0.0016826881314422,-1.2660086194838014,10.889577410457926,-21.76353186392196,1.23089418414193e-05
706,1724814821997351963,-1.9172382354736328,-0.3107060492038727,0.1647031605243683,-0.0064738374203443,0.0753234401345253,-0.3614315688610077,0.9293286204338074,0.0,0.0,0.0,-0.0531535580882211,0.0204950020342104,-0.5100612726483531,0.712071817,-0.0718999152250388,-0.0762194521228764,-0.019136369580136,-2.608427948909529,-8.654171670250392,4.488187394455379,-0.0671488149166004,0.1357371920794022,-0.7463971805501524,-0.0019017790642408,-0.0051042660772129,-0.0060464412320797,18.387667341853348,36.8013742441964,65.421539301037,1.745646561112309e-05
708,1724814822007322689,-1.9172648191452024,-0.3107532262802124,0.1645452231168747,-0.0065581500530242,0.0747475922107696,-0.3609053492546081,0.9295790791511536,0.0,0.0,0.0,0.2197979380567765,0.438923391049227,0.482585107472586,0.722042543,0.0184059282927201,-0.1179246678826148,0.1142295886234194,2.5185583335108115,2.9116232947660152,-0.1506039572063753,-0.0668000303839618,0.1346402777003076,-0.7451710084834583,-0.001570198307931,-0.0021794153741456,-0.0060472360222112,12.789890929643136,17.09543375723795,40.77654558717789,-0.0001580089136525
710,1724814822018367308,-1.9172687530517576,-0.3107460737228393,0.1645982414484024,-0.0067513072863221,0.0748182460665702,-0.3611630499362945,0.9294718503952026,0.0,0.0,0.0,0.1826171067598042,0.3234688801957985,0.2138274134910205,0.733087162,-0.0337711956145774,0.0010271062372593,-0.0529175833977052,2.977200772298324,9.92215666171116,-4.9735524049625965,-0.0672520987101938,0.1346124345298577,-0.7457601545102197,0.0031395799323092,0.0044493724133829,0.005187738598483,-23.58995129004945,-31.74376901944156,-54.034864510909586,5.1556825930310946e-05
712,1724814822027566969,-1.9172130823135376,-0.3106760084629059,0.1646489351987838,-0.0063908868469297,0.0750970244407653,-0.361272782087326,0.9294092655181884,0.0,0.0,0.0,-0.1893732539055423,-0.1317084299202158,-0.5108710792003508,0.742286823,0.0526331659792268,0.0858097972659911,-0.0208155815608062,3.2523055147675115,1.5402158650919688,3.181544277784376,-0.0668010241495455,0.135387256325163,-0.7460063284872569,0.0029512678366927,0.0053047483545771,0.0009984487240428,-22.9777394234938,-32.794399589227226,-31.984835205337617,5.517660213510516e-05
714,1724814822038385030,-1.9172205924987793,-0.3106480240821838,0.1646023392677307,-0.0063286963850259,0.0751026570796966,-0.361228197813034,0.9294265508651732,0.0,0.0,0.0,-0.2158682159761545,-0.2742502051466263,-0.2616660170777083,0.753104884,0.0097111293315045,0.0048289128386717,0.0096852992811918,-2.054792505440146,-4.352018020264055,2.5433699662040583,-0.0666821974243742,0.1354463636113667,-0.7459043176297331,-0.0012460373061173,0.00102163080712,-0.0052341687409045,15.159549906931616,-12.2896273502728,49.138883802127275,-4.833853041565141e-05
716,1724814822050091473,-1.917242169380188,-0.3106558918952942,0.1645293235778808,-0.0062726708129048,0.0750481560826301,-0.3610366880893707,0.9295058250427246,0.0,0.0,0.0,0.1846592049083545,-0.4068861371915935,0.6442408480901356,0.764811327,0.0098881896581717,-0.0064208001595756,0.0359619124748847,-0.1418844523861772,-0.5929661497063525,1.0764397174412417,-0.0665085356857774,0.1353994016450024,-0.7454754414738558,-0.0015926789005114,-0.0006475413863773,-0.0043137774190602,-44.07185524039846,138.77196297804147,38.96869141137916,-7.496088553527223e-05
718,1724814822077686801,-1.917269825935364,-0.3106721639633178,0.1645354032516479,-0.0063319895416498,0.075083203613758,-0.361164778470993,0.9294527769088744,0.0,0.0,0.0,-6.124017344243018,13.186689617961058,-0.7794006438633119,0.792406655,-0.0042405986256039,0.0011556507243741,-0.0103238488770504,-1091.6692668465173,-3083.9556593967895,397.9929751918769,-0.066664566168595,0.1354122523849438,-0.7457644006443519,0.0174413045660912,-0.0290683917396563,0.0502576291266905,-625.6182036644313,1479.6992913797294,-3118.7490378155085,2.7150272256013547e-06
720,1724814822078176556,-1.9172611236572263,-0.3106866478919983,0.1645604521036148,-0.0065891915000975,0.0747823864221572,-0.3611094951629638,0.9294967651367188,0.0,0.0,0.0,-6.433867768369324,13.919959623512655,-2.3334834778682296,0.79289641,-0.5483754735137634,-1.5360353352857337,0.1880691545853934,-641.7760289658017,-1856.2400119397064,176.60091963308588,-0.0669138334770831,0.1346678072054762,-0.7456210427407985,0.0143828108144816,-0.0224865731306067,0.0498519501289038,-383.6043325767225,951.4959536119622,-3095.7133078032193,2.66225621518515e-05
722,1724814822079471161,-1.917254090309143,-0.3106915056705475,0.1646205633878708,-0.0063654193654656,0.0749983415007591,-0.3613420724868774,0.9293904900550842,0.0,0.0,0.0,-6.078170442012393,13.28424276287324,-6.076094399320127,0.794191015,0.2266397338209572,0.4495823672725861,-0.3652073453885914,517.664453774615,1328.8023653445398,-367.34172111481496,-0.0666897415025987,0.1352169693645797,-0.746136268529676,0.0054069813655068,-0.0028198286946548,0.0416801912960989,324.48512103051746,-624.5177029074819,-2467.585759635904,6.0648848294142293e-05
724,1724814822088149091,-1.917208671569824,-0.3106617331504822,0.1647058427333831,-0.0062614767812192,0.075219452381134,-0.3615926802158355,0.9292758107185364,0.0,0.0,0.0,-0.3694531272943877,0.1010264496507429,-2.863994465677626,0.802868945,0.0080138391334657,0.0583671824077696,-0.0611085648900073,-12.724115329880668,-26.71584188091755,24.0196668816608,-0.0666969048220193,0.1356869984220905,-0.7467042927666964,0.0024009761366698,0.0015269006277485,0.0026842988740272,361.63426040066446,-811.3688262082952,332.35762664880815,8.958973110711792e-05
726,1724814822097960547,-1.9172165393829343,-0.310667872428894,0.164652943611145,-0.006144240964204,0.0751828327775001,-0.3613622784614563,0.9293692111968994,0.0,0.0,0.0,-0.1071537132122215,-0.0080569833772603,-0.0222689027240559,0.812680401,0.021493226013151,-2.166582274297641e-05,0.0522794634260034,-0.8636199338767834,-5.989486544997812,5.271273107847534,-0.0664161444249785,0.135720909504807,-0.7461877728758206,-0.0014796643418293,-0.001917639568802,-0.0073374152890313,27.520887450749687,8.253367818211478,190.6051731338524,-5.316806209801202e-05
728,1724814822107494047,-1.917236924171448,-0.3106981217861175,0.1645649671554565,-0.0062604467384517,0.0749423578381538,-0.3611616194248199,0.9294658899307252,0.0,0.0,0.0,0.1625059828005077,0.2500712681300865,0.8775254229690976,0.822213901,-0.0074666374603326,-0.0574781279900414,0.0443086301706882,-1.5013443460075768,6.193819671786382,-4.526787773456676,-0.0664249284009585,0.1352021959374535,-0.7457257325838574,0.0001700559591881,0.0011830528093881,0.0017059301769553,5.852778293007931,-4.335679194260724,1.8146168221579384,-8.862794467593346e-05
730,1724814822117790109,-1.917209506034851,-0.310637503862381,0.1647041141986847,-0.0060407575219869,0.0756321251392364,-0.3613711893558502,0.9293299317359924,0.0,0.0,0.0,-0.0266766413261988,-0.1438541481615008,-0.1331093665319307,0.832509963,-0.0058409393162214,0.1421824228732012,-0.0433386482924774,0.1759442736945927,4.6536507953277315,-4.632393347452421,-0.0665592504347941,0.1366332132049389,-0.746273186249892,0.0017260426784133,0.002921934752555,0.0099508187849561,-17.353925467429782,-27.132075872929512,-88.09486066693408,0.0001388860491899
732,1724814822128203030,-1.9172013998031616,-0.3106383085250854,0.1647702008485794,-0.0060125431045889,0.0758091434836387,-0.3616161644458771,0.92922043800354,0.0,0.0,0.0,-0.1966363384629103,-0.309190918087993,-0.9444644035178946,0.842922884,-0.0038187681406642,0.0354300973346631,-0.0507114810094385,1.1730696999641017,-9.145153980922233,5.938144195928423,-0.0666749317566318,0.136966185547327,-0.7468298852472236,-0.0004241812920611,-0.0018695285838106,-0.0012701350211248,2.5198246563912496,9.91736231263574,13.199488189905036,6.653470556054331e-05
734,1724814822137415163,-1.91721510887146,-0.3106701374053955,0.1646964251995086,-0.0059944693930447,0.0756154954433441,-0.3613713681697845,0.929331600666046,0.0,0.0,0.0,-0.0198659664209136,-0.0076030693390669,-0.0802773341178962,0.852135017,0.0149653284473027,-0.0397964217340203,0.058156727424521,-1.1471875507899465,-6.5845325758441255,5.818370779768849,-0.0664601291154177,0.1366360352002041,-0.7462657193784293,-0.0021552689702701,-0.0034875807178593,-0.0088856437713626,42.873759510247666,51.32300481437747,120.83243433873425,-7.352797208423626e-05
736,1724814822147330834,-1.9172435998916624,-0.3107050657272339,0.1645989567041397,-0.0062732193619012,0.0752651020884513,-0.3611185252666473,0.9294564127922058,0.0,0.0,0.0,0.6580435612818154,0.6996543761255949,1.4062697410663871,0.862050688,-0.0304164362871093,-0.0882072962665341,0.0518170055143511,-1.7524968488752823,1.7780994041885383,-3.6701518110836697,-0.0666834768945454,0.1357975002086955,-0.7456894511394524,-0.0005586882398489,-0.0017694840394781,-0.0017153112279677,2.646901390716698,9.066222670975604,0.5889811330256123,-9.89804731182316e-05
738,1724814822159593810,-1.917215347290039,-0.3107001781463623,0.1647009849548339,-0.0062663741409778,0.0754809156060218,-0.3613387942314148,0.9293533563613892,0.0,0.0,0.0,-0.3062127604394832,-0.1334142904213529,-0.8512387241133546,0.874313664,-0.0090744455816359,0.0346081640017916,-0.0391547592312671,14.956477618117,60.06801341159024,-29.932825519040662,-0.0668641896638743,0.1361889183346109,-0.7462015946568354,0.0150487812470885,0.0147934676382135,0.0258901842315051,-109.73640616633138,-109.12442336172676,-204.62684659902337,0.0001047396664253
740,1724814822167492334,-1.9170316457748413,-0.3105100989341736,0.164994865655899,-0.0046457690186798,0.0780221968889236,-0.362839937210083,0.9285678267478944,0.0,0.0,0.0,-1.3312114900704357,-1.204890187746067,-2.571960824237883,0.882212188,0.1762953481450332,0.7636958521731996,-0.3901197771112371,-1.4952404283055714,-10.644397029449124,4.689402030138115,-0.0659581986381525,0.1420032287969961,-0.749710402540809,0.0045974317898469,0.00618967619185,0.0033836836604272,-23.914362916544576,-32.296209017684355,-10.95861524599272,0.0003084051543516
742,1724814822177619586,-1.9172273874282837,-0.3106795251369476,0.1645899415016174,-0.0065465499646961,0.0751264691352844,-0.3613686859607696,0.9293686151504515,0.0,0.0,0.0,-0.1988656268436771,-0.1898598726455947,0.0035614016737986,0.89233944,-0.1630034154485555,-0.6809099309539153,0.2952347984191996,-8.157599901301742,-35.72958735037981,19.357708569555445,-0.0671286572188975,0.1353215504836245,-0.7462352986270271,-0.0089880735273055,-0.0075135891511806,-0.0190599690433597,88.2920498001072,81.94278047277452,178.40409959028617,-0.000421440594481
744,1724814822187593245,-1.9172154664993288,-0.3106639385223388,0.164605364203453,-0.0064968666993081,0.0751784369349479,-0.3613072037696838,0.9293885231018066,0.0,0.0,0.0,0.4507092827441535,0.4478086014323482,1.0372663447943968,0.902313099,0.0045932832755535,0.0129046136436552,0.0137174264947265,9.27731395857754,35.360788302052924,-15.23380091031462,-0.0670654077608131,0.1354591038904685,-0.7461060605095196,0.0002517180556083,0.0020186959756536,0.0027785731826295,5.840209263491822,-2.160362993274944,-17.43935717751616,1.6310347817831802e-05
746,1724814822197279284,-1.9172219038009644,-0.3106400966644287,0.1646438688039779,-0.0063357297331094,0.075288213789463,-0.3613692224025726,0.9293567538261414,0.0,0.0,0.0,-0.0504353290631029,-0.1948593327645422,-0.2706436966278887,0.911999138,0.0236529590313084,0.0336642432778879,-0.0116230469317848,0.8857366504019505,2.842151860963823,-0.7572476946540683,-0.0668546240697345,0.1357769433256823,-0.7462415998133445,0.000142436649682,0.0015781656254194,0.0019856969849403,-20.05816011883824,-26.04278773178251,-44.57639183582768,3.6118134564061786e-05
748,1724814822207223675,-1.9172122478485107,-0.3106334209442138,0.1646433025598526,-0.0061127482913434,0.0755688622593879,-0.3613801896572113,0.9293311834335328,0.0,0.0,0.0,0.0735468280256901,-0.0423179091374557,0.209573882056919,0.921943529,0.021414139378284,0.0690632168311865,-0.0001743410428438,-0.0019335134329708,-3.7802098352773856,2.1816781267000853,-0.0666481822743003,0.1364620845024742,-0.7462895572155084,-0.0007588494354848,-0.0018846902738332,-0.0026331263850636,6.550708241159863,15.686549572398093,24.897807075078273,5.50402802717234e-07
750,1724814822218917990,-1.9172449111938477,-0.3106906116008758,0.1645770817995071,-0.0061231371946632,0.0751051381230354,-0.3611735105514526,0.9294489622116088,0.0,0.0,0.0,0.0687834798304721,0.1458990065659303,0.1790390927176207,0.933637844,0.0244610191663884,-0.0760833669835771,0.0395092057257334,-1.6667683662015442,11.507003918605236,-10.726834607751732,-0.0662909248223317,0.1356049735709878,-0.7457644905749673,0.002359054633132,0.0018272775404,0.0090871996310735,-17.565081663990682,-14.5573470998286,-63.11658152487063,-6.772166715676131e-05
752,1724814822227654818,-1.917190670967102,-0.3106307983398437,0.1647527515888214,-0.0058971415273845,0.0758385956287384,-0.3617716133594513,0.9291582703590392,0.0,0.0,0.0,-0.1966732604836535,-0.1813610111122679,-0.7673364674772998,0.942374672,-0.0026813703661544,0.1805757612055078,-0.1463761755024717,-2.838248687924804,1.2458985245730805,-0.4766122017831575,-0.0665037950476922,0.1370943210848191,-0.7471582203723081,0.0016686871828284,0.0019824283704874,0.0052782667182675,-11.786153925153474,-16.990899097675612,-36.05310274480498,0.0001788858436996
754,1724814822237845594,-1.9172276258468628,-0.310668408870697,0.1646302789449691,-0.0062546846456825,0.075225755572319,-0.3613017201423645,0.9293885231018066,0.0,0.0,0.0,-0.0957207298823308,-0.1112310511126322,-0.2757285758225913,0.952565448,-0.0284147582289251,-0.1411094560486253,0.0960033863090461,0.1204836148407841,-8.566765077992466,8.283686748737786,-0.0666462354610189,0.1357245680886992,-0.746076278655061,-0.0017340958326741,-0.0022326489207973,-0.0064804202364792,12.188136758578592,14.454660770661118,52.35447971582553,-0.0001248040983812
756,1724814822248615512,-1.9172247648239136,-0.3106758594512939,0.1646235138177871,-0.0061808619648218,0.075362391769886,-0.3612598776817322,0.9293941855430604,0.0,0.0,0.0,0.0615167021909371,0.1306395843702353,0.3349503480526355,0.963335366,0.0029955372343907,0.0284074034030291,0.0087914756135275,1.5957524340457865,3.8178380051835927,-4.433666164631002,-0.0666038385332502,0.1360361314031035,-0.7460014496179915,-5.395770551785972e-05,1.1149368663865287e-05,0.0005448267344707,2.009702254956368,1.8853910669162597,1.758089754039176,-5.9541175575612656e-06
758,1724814822257966488,-1.917227864265442,-0.3106700479984283,0.1646381318569183,-0.0062058381736278,0.0752081200480461,-0.3612741529941559,0.9294009804725648,0.0,0.0,0.0,-0.0219084586634597,-0.0187586378820775,-0.0947006089211683,0.972686342,0.0071943849132471,-0.0326866397290914,-0.0029191511158798,-1.166760904596466,0.2260633658661412,-0.7832701325731917,-0.0665375096695241,0.1357293440788193,-0.7460084352539681,-0.0002458478426348,0.0006019136871806,0.0011003616173388,-1.942794165655583,-9.833167571700182,-13.57468296552192,1.3755590212720688e-05
760,1724814822268075759,-1.917229413986206,-0.3106641769409179,0.1646441966295242,-0.0062331929802894,0.0754528194665908,-0.3612938821315765,0.9293733239173888,0.0,0.0,0.0,0.0347224910408771,-0.0510212050299861,0.1218701197832439,0.982795613,-0.0222597653332507,0.0434737041405785,-0.0057109195705968,-0.7457993209980063,1.0102987062621922,1.6616587145432682,-0.0667744274417261,0.1361640177188808,-0.7460961599572931,-0.0004824914556991,-0.0004831991359228,-0.0015412685880686,24.98686278258766,21.005424128196776,48.912923354596735,5.518845610525335e-06
762,1724814822280084743,-1.9172399044036863,-0.3106851577758789,0.164595142006874,-0.0062970938161015,0.0752460062503814,-0.3610585927963257,0.9294811487197876,0.0,0.0,0.0,0.6113293872296407,0.5464166923901808,1.101427537774906,0.994804597,-0.0002912042106247,-0.0374546183761781,0.0418882177072265,-1.0171356082629683,10.218238138497664,-8.197104184492519,-0.0667051657375326,0.1357487887627594,-0.7455593645868073,0.0007637699598888,-0.0002925087033851,0.0053885623949998,-21.19222169962365,-15.935629941984148,-66.04079698709458,-4.9115917277200255e-05
764,1724814822287525751,-1.9172266721725464,-0.310680627822876,0.1646789163351059,-0.0062338537536561,0.0756762027740478,-0.361315369606018,0.9293468594551086,0.0,0.0,0.0,0.13455292037091,0.1249929721860252,-0.0705507211834073,1.002245605,-0.0209836915227387,0.1167623003381861,-0.0751747470146914,3.6978632117733254,24.89687359862648,-15.271929574769738,-0.0669457244460121,0.1365783263717279,-0.7461812662812939,0.0076527949941151,0.0062194784935911,0.0160019696938382,-76.53127211827666,-67.53796374843671,-148.1874420475254,8.453388672472166e-05
766,1724814822298914067,-1.9170371294021609,-0.3105120062828064,0.1649438291788101,-0.0046551767736673,0.0778945535421371,-0.3626638948917389,0.92864727973938,0.0,0.0,0.0,-0.9541314813657203,-0.8341796936827726,-1.595796369320822,1.013633921,0.1340504533049391,0.4730050732426368,-0.2410750613563747,-15.295495908584602,-69.70137137677159,30.215966597820447,-0.0658529093563925,0.1417710343486538,-0.7493082862838316,-0.0046063159577727,-0.0054319681003285,-0.0108916802008547,44.869137277628866,46.13386960821634,103.96542262475675,0.0002816792994134
768,1724814822307333834,-1.917208194732666,-0.3106837272644043,0.1646395176649093,-0.0063759214244782,0.0752637907862663,-0.3614478707313537,0.9293277859687804,0.0,0.0,0.0,0.2980580567386446,0.365738588435132,0.7604762805712467,1.022053688,-0.174692709144475,-0.742484007076626,0.2921147975421287,-13.757793194084314,-51.296245368972066,24.523663964762527,-0.066923201131602,0.135696395621841,-0.7464115311414213,-0.0118783592214555,-0.0112795013123943,-0.019561317207164,104.07939030446428,97.56632540800383,173.7605102226495,-0.000318249872224
770,1724814822318354441,-1.9172173738479616,-0.3106765449047088,0.1646631211042404,-0.0062844189815223,0.075433000922203,-0.3614371716976166,0.9293188452720642,0.0,0.0,0.0,0.8011394651007206,0.7926438562647703,1.1450973613032458,1.033074295,0.0041763333663758,0.0346495866689318,0.0026635565169892,14.793689139257236,59.467919226700786,-25.684337205256497,-0.0668766604268154,0.1360793617355476,-0.7464077277247863,0.0081644061691577,0.0080449388962851,0.0146422590053632,-68.6064100429202,-65.55818217486646,-137.28570711210082,2.1696575382228273e-05
772,1724814822328496220,-1.91705060005188,-0.3105259537696838,0.1649282872676849,-0.0047375136055052,0.077686034142971,-0.3626958131790161,0.9286518096923828,0.0,0.0,0.0,-0.9610024739959117,-0.8456230570030266,-1.8542403151361957,1.043216074,0.1408016356300081,0.5346442001919106,-0.2524062064561207,-0.7096429259688763,-8.731826062379225,2.2834111022192274,-0.0658554331284053,0.1413199210938621,-0.7493498001541868,0.0067928096009239,0.0071162207040842,0.0079767977425166,-74.31304426578798,-69.28775204024811,-97.41396170886463,0.0002794288041318
774,1724814822338078687,-1.917072892189026,-0.3105277717113495,0.1648402214050293,-0.004835307598114,0.0773454308509826,-0.3626167476177215,0.9287106990814208,0.0,0.0,0.0,-0.7727955078588384,-0.6743509381093834,-0.9920552043069284,1.052798541,0.0056051367843992,-0.0744528089531266,0.0178602172585892,-16.035554986764783,-59.66013288631488,27.549874132523648,-0.0657708397528539,0.1406193026976147,-0.7491300372381254,-0.0098923989051513,-0.0078140995306217,-0.0206291490642698,79.83998781317811,72.16291343704388,172.8593180997897,-9.020315053952204e-05
776,1724814822347744905,-1.9172422885894775,-0.3106776475906372,0.1645292788743972,-0.0065608122386038,0.074894405901432,-0.3612906634807586,0.9294175505638124,0.0,0.0,0.0,0.5859398573078501,0.5525514586834175,1.4870181610847095,1.062464759,-0.1681858675184207,-0.613078192991976,0.2777825519882672,3.2053452886984135,13.20491960247362,-3.440146855374186,-0.0669706638478772,0.1348842670321781,-0.7460284118247965,-0.0079195653425188,-0.0057154735907154,-0.0107836392632485,69.73400210770444,47.94816491010182,158.69361424270917,-0.0003255302395737
778,1724814822357088746,-1.9172295331954956,-0.3106426298618316,0.1646216660737991,-0.0061158323660492,0.0753808319568634,-0.361436128616333,0.9293246269226074,0.0,0.0,0.0,0.5977592370553557,0.287219171298999,2.086708817998459,1.0718086,0.0531078774231062,0.1328733690362084,-0.0283079390523132,16.71297706624939,57.14548525742769,-23.8058012123194,-0.0665216920484959,0.1361053905489138,-0.7463782511694416,0.0010042622277808,0.0024772651602829,0.0073421428701478,14.736447617755346,50.0711110026872,-131.21289852554665,9.166376741809394e-05
780,1724814822383328347,-1.9172297716140747,-0.3106712400913238,0.1646267622709274,-0.0065642204135656,0.0750044956803321,-0.3613290786743164,0.929393708705902,0.0,0.0,0.0,1.9771086155268696,7.383082476719807,-15.754143284069698,1.098048201,-0.0219762144410156,-0.0394567243301477,0.0067341973756911,5015.36978584601,10685.601552775235,-883.6102537170068,-0.0670648656358253,0.1350841807942182,-0.7461306508944436,-0.0096382841729791,-0.0334309396816934,0.0729170466906907,184.4917954158709,603.9578677353929,-1399.4992699950744,6.205709854786279e-06
782,1724814822383609802,-1.9172325134277344,-0.3106807470321655,0.1646475046873092,-0.0062305051833391,0.0753252431750297,-0.3613786101341247,0.929350733757019,0.0,0.0,0.0,2.02943303114688,7.554076366328957,-16.15021174630106,1.098329656,1.4047746449848664,3.000338740614033,-0.2446339629318187,4691.042133940324,9996.220211802804,-825.6589905591978,-0.0666865359066336,0.1359221339598931,-0.7462568476447923,-0.0090746237372201,-0.031326513401213,0.0684278581117356,167.92534346932942,540.2214797067275,-1261.7705971570672,2.0516684264393412e-05
784,1724814822387386054,-1.9172329902648928,-0.3106748461723327,0.1646389365196228,-0.0062863291241228,0.0753707215189933,-0.3612773418426513,0.9293860793113708,0.0,0.0,0.0,1.7525175255028036,6.183587942183982,-13.545813709842662,1.102105908,-0.0401047171019623,0.0099561094483899,0.0545330605248197,-275.90877785459463,-572.6218908620871,56.79502504735411,-0.0668102222094675,0.1359733916578304,-0.7460520398310228,-5.482000580059321e-05,0.0011069969175672,-0.002706615402193,-99.69075642356462,-435.6881281001594,885.9886471433858,-8.791519680134833e-06
786,1724814822397284546,-1.9172316789627075,-0.310675710439682,0.1646007895469665,-0.0062284902669489,0.0755191594362258,-0.3611173927783966,0.9294365048408508,0.0,0.0,0.0,0.0817828923276522,-0.0170625353803041,0.3176915950070704,1.1120044,-0.0023460366226113,0.0311251252194717,0.0347860100241461,2.671267335374718,0.8731170365895631,-4.6597522592392675,-0.0667891890853663,0.1363037610944057,-0.7457259313183954,0.000789453535205,-9.165598829241615e-05,0.0005058358630982,-92.36885049611556,-314.7003164078013,693.235487564771,-3.748178463046649e-05
788,1724814822407513746,-1.917216658592224,-0.3106766939163208,0.1646520495414734,-0.0061337817460298,0.0756208673119545,-0.3613183796405792,0.9293508529663086,0.0,0.0,0.0,-0.0552658669553638,0.0590199792818092,-0.0682392470544522,1.1222336,0.0128928852258905,0.0266789404772106,-0.0410489801591249,0.8333510491280769,-0.090611894557637,-2.6400644354570013,-0.0667173318260964,0.1365480752180767,-0.7461673302242526,0.0015889203381362,0.0008335253065929,0.0036831782228787,-11.873306813175644,-0.0147777141611824,-31.224573661178457,5.289019659649176e-05
790,1724814822418411902,-1.9171979427337649,-0.3106568157672882,0.1646767705678939,-0.0060085779987275,0.0757424533367157,-0.3613981604576111,0.92931067943573,0.0,0.0,0.0,-0.166962359312578,-0.0276716434100817,-0.33301508361453,1.133131756,0.0143535517029824,0.0296860874932116,-0.0143961982616248,-1.0436778323453466,-4.453909905489009,3.168112319468392,-0.0665853946538786,0.1368604137358542,-0.7463470115328996,-0.0005625108182272,0.0011118612703597,-0.0014593264988658,61.620781014354534,57.1237443264375,89.15989808277483,2.628536894295777e-05
792,1724814822427800879,-1.9172216653823853,-0.3106521368026733,0.1646329164505005,-0.0061082234606146,0.0755316540598869,-0.3613025248050689,0.9293644428253174,0.0,0.0,0.0,0.9929342202522728,1.0350677564883013,1.4218217421163766,1.142520733,-0.0049717362067145,-0.0503902631997263,0.021193198725492,-1.6057534196408605,-6.421070684735924,2.810120263654462,-0.066600457547502,0.136401608485815,-0.7461149137503551,-0.0018838125838627,0.0004216372502985,-0.0034628353280564,-3227.6282717917984,-2986.2629712535986,-5083.827305906044,-4.6987918222615146e-05
794,1724814822463625733,-1.917201280593872,-0.3106475174427032,0.1646739840507507,-0.0060855443589389,0.0756623819470405,-0.3615047931671142,0.9292752146720886,0.0,0.0,0.0,-572.7219091962091,-529.6251108394274,-901.1847628049196,1.178345587,-0.0006376872630406,0.0076853302491303,-0.0121540132685113,1965.374188804342,8602.089131515617,-4809.562819174032,-0.0666854953615234,0.1366473061808243,-0.7465718456430946,0.1886532807893672,0.1890396979907791,0.2709978645414708,36107.7891811413,30431.754380865255,61498.361046601785,4.335014523813314e-05
796,1724814822464293253,-1.9170730113983152,-0.3105189800262451,0.1648582369089126,-0.0050474884919822,0.0773108452558517,-0.3625675439834595,0.9287315607070924,0.0,0.0,0.0,-547.9709510997739,-508.7485648615053,-859.0551009587816,1.179013107,1.3357323495124926,5.856722908186092,-3.2824422671813287,-8273.327670231305,-31977.72716316924,14538.237886627672,-0.0661348416494374,0.1404027703280361,-0.7490412119544548,-0.2008396093237934,-0.171148520967904,-0.341865047156773,104127.64260691288,93376.51886814006,168608.48483038158,0.0001949293158166
798,1724814822464642735,-1.91721510887146,-0.3106453418731689,0.1646257042884826,-0.00634196260944,0.0754600688815116,-0.3616397082805633,0.9292374849319458,0.0,0.0,0.0,-499.3121657131812,-464.7522557519708,-780.8268485835302,1.179362589,-3.435745695866337,-12.773220947975354,5.3549158093668625,-12929.090137440237,-50486.783952491016,23411.659599795243,-0.0670344676696721,0.1360731693369287,-0.7468560818535537,-0.3858461402650839,-0.3433035565435212,-0.6312822525960566,136275.37006776605,123319.99301704628,218925.97302117353,-0.0002450380564604
800,1724814822471140616,-1.9172155857086184,-0.3106693625450134,0.1646412312984466,-0.006378382910043,0.0752343013882637,-0.361490786075592,0.9293134808540344,0.0,0.0,0.0,29.086600762146567,26.06557823802787,47.97320399620287,1.18586047,0.011402999013321,-0.0706820457505403,0.0497661163385184,260.51587029012217,979.6674336457668,-410.1290180154479,-0.0669120651220577,0.135636555815415,-0.7464994049170295,0.0015322370303465,0.0012700123260174,0.0101335318113608,37357.1273073316,34789.469983160554,58359.74399206943,1.6302889190150964e-05
802,1724814822477356947,-1.91719651222229,-0.3106319308280945,0.1647502779960632,-0.0060780909843742,0.075838916003704,-0.3617418110370636,0.9291686415672302,0.0,0.0,0.0,-0.1273134582222262,0.0152102454940765,-0.7121351258235858,1.192076801,0.0252446561429891,0.2197203762131509,-0.0833900999150043,0.6470351585952195,20.658509078758954,-8.621839838120192,-0.0668385896427121,0.1369647121170145,-0.7471135754488903,0.0007857914752662,0.0029536784010755,0.0066110071493481,-3056.1138371039224,-2731.712901805195,-5081.671943511699,0.0001089252344768
804,1724814822488972423,-1.917236924171448,-0.3106642067432403,0.1645898222923278,-0.0062672346830368,0.0752740874886512,-0.361228734254837,0.9294129610061646,0.0,0.0,0.0,0.0434631822511815,-0.0505039285661844,-0.0484083340588259,1.203692277,-0.0015239142672065,-0.1058741935194478,0.0942428671700211,-1.3187657550976462,-5.631948991012524,1.0612229630857586,-0.0666951409088497,0.1358107244008863,-0.745928373392759,-0.000850050012616,-0.002417959130863,-0.0048182491909827,7.564314337203827,11.309235722601104,48.09386049114002,-0.0001630829947159
806,1724814822499304007,-1.9172215461730957,-0.3106858730316162,0.1646227091550827,-0.0062284576706588,0.0754851996898651,-0.3613504767417907,0.9293487071990968,0.0,0.0,0.0,0.0560173469778776,0.2222556757171362,0.3653323522848856,1.214023861,-0.006089787279698,0.0417781866876473,-0.0255754340759985,2.9729583927289456,9.495106938326124,-2.717617156390687,-0.0667980732358294,0.1362237578341887,-0.7462234515357158,0.0012926018232519,0.0008459246573728,0.0032790388728596,-5.067355939401586,-1.9237719027021776,-7.778308861407945,3.566748878457477e-05
808,1724814822507115720,-1.9172126054763792,-0.3106618821620941,0.1646488904953003,-0.0059677152894437,0.07575074583292,-0.361343115568161,0.9293317198753356,0.0,0.0,0.0,-0.0206744665029934,0.0399318118329758,0.0220979368586028,1.221835574,0.0373039575355777,0.0876224693038793,0.0056425148445112,1.385328504069404,0.3609585474861795,1.379610560575669,-0.0665068922849618,0.136909667127791,-0.7462251345040672,0.0008361288627014,0.0020289398366912,0.003661604442299,-6.045344451106758,-19.711231991516765,-40.918243344471456,2.612912453032647e-05
810,1724814822519558803,-1.9172083139419556,-0.3106572926044464,0.1647005975246429,-0.0061822179704904,0.0757142528891563,-0.3614971935749054,0.9292733073234558,0.0,0.0,0.0,-0.0211312071490733,-0.1334173475879864,-0.4271901986736413,1.234278657,-0.0281015142390002,-0.0170502485936735,-0.0290543862896517,1.6634245603901048,1.7430364002689331,-0.2391358343151277,-0.0669042614440113,0.1366738677803572,-0.7465749054446656,0.0013272876002474,0.0003156677668663,0.0034038932455384,21.71536365399269,21.90383770583346,18.70121684904873,5.153481740981569e-05
812,1724814822527491512,-1.917192816734314,-0.3106550574302673,0.1647237986326217,-0.0060445806011557,0.0758624225854873,-0.3615709841251373,0.9292334914207458,0.0,0.0,0.0,0.2611362681124514,0.2215672742067425,-0.0016573018784027,1.242211366,0.020089139739853,0.0481339948541246,-0.0180588492038207,3.2052170765558934,2.507760437574196,4.707220486706367,-0.0667681063852932,0.1370452991175222,-0.7467450239687562,0.0008531716919577,-0.0007210918390487,-0.0020405511565604,8.224491813833417,18.154667530537484,33.66311993340239,2.5087508923439963e-05
814,1724814822537626940,-1.9171984195709229,-0.3106753528118133,0.1646388173103332,-0.0059447679668664,0.0758345872163772,-0.3612346947193146,0.9293671250343324,0.0,0.0,0.0,-0.0097884284912079,0.0611753822338717,0.0807999181739008,1.252346794,0.0154132089111528,-0.0003841382720891,0.0726586368107686,4.699309787181597,19.865578804202627,-13.081151315719802,-0.0665104912371645,0.1370904364806594,-0.7460029314999367,0.0076555316216939,0.0060862996653128,0.0068089985424393,-48.3445430920941,-46.305309899580834,-51.76819999917368,-8.392401127954783e-05
816,1724814822547674060,-1.9170397520065308,-0.3105336427688598,0.1648585498332977,-0.0047113155014812,0.0776954442262649,-0.3625889420509338,0.9286929368972778,0.0,0.0,0.0,-0.7107790313420044,-0.7076319851546676,-1.0359376141507588,1.262393914,0.1140257015104613,0.4447369234963749,-0.2781956169206358,-9.62373334203368,-30.448814775941997,7.010215323857627,-0.06579708568298,0.1413642421381797,-0.7491174758687705,0.0007753563994015,0.0006209319367975,-0.0002704743269816,-0.9158579842520712,-18.994694124086113,-28.60754748325821,0.0002337650735965
818,1724814822557629881,-1.9171801805496216,-0.3106604814529419,0.1646374315023422,-0.0065097385086119,0.0752584561705589,-0.3615569770336151,0.9292848110198976,0.0,0.0,0.0,-0.0406238410934149,-0.3292306756359313,-0.5064387750025494,1.272349735,-0.1735564145004949,-0.5958624056858476,0.2052618142908484,-4.336908751641721,-21.92016989653055,16.0685031804313,-0.0671858776337554,0.1355807938634197,-0.7466606513070667,-0.0065574155659504,-0.008038673261856,-0.0138525786618917,57.51564142681375,40.6882863312534,75.47002879009361,-0.000233530024002
820,1724814822567603704,-1.917170166969299,-0.3106936812400818,0.1645827740430832,-0.0063428599387407,0.075258731842041,-0.3613786101341247,0.9293553829193116,0.0,0.0,0.0,0.435134167292917,0.103367662989417,0.4689562733144083,1.282323558,0.0284773123489295,0.0108524152679021,0.0408730395930481,8.714642936143914,22.551658483214133,-6.090764068010949,-0.0668473318539133,0.1357161064586003,-0.7462575304854794,-9.18419344486665e-06,-0.0059210378523104,-0.0103327067131306,45.3876989959722,53.716734406718786,122.75912731913463,-5.117281548951308e-05
822,1724814822577662854,-1.9171805381774905,-0.3107795417308807,0.1644296050071716,-0.0065889456309378,0.0745589956641197,-0.3609758913516998,0.9295666217803956,0.0,0.0,0.0,0.8682303017831282,0.7486479009455613,1.9570698731979084,1.292382708,-0.0009542797572027,-0.1506460578929996,0.0850265973932842,-0.571283681483627,2.2666772370562116,-3.800369913318991,-0.0667273013046988,0.1342612100527018,-0.7452943288872297,0.0021216697431043,-0.0059865842303707,-0.0044381020012558,11.329698382843368,30.27468146400413,34.23727314888486,-0.0001493697995671
824,1724814822587377192,-1.9171303510665896,-0.3108137845993042,0.1644877046346664,-0.0064531406387686,0.0747260376811027,-0.3611125648021698,0.9295009970664978,0.0,0.0,0.0,0.6806653324263934,0.7249635938001915,1.2230122929521383,1.302097046,0.0155851040692823,0.0432540968234507,-0.0287224724205024,9.587963174956606,47.19335348618976,-24.06135876630534,-0.0666173408761201,0.1346618527195641,-0.7456034144364777,0.0167138478896333,0.0083704889679818,0.027436069918858,-68.9401113571145,-69.24440853761185,-174.8440252801547,6.608888552872822e-05
826,1724814822597403013,-1.916843295097351,-0.3106067776679992,0.1649847775697708,-0.0042564566247165,0.0780816599726677,-0.3630604147911072,0.928478479385376,0.0,0.0,0.0,-0.524073240375999,-0.6605330326103465,-1.5572184046759456,1.312122867,0.193304721948589,0.798195561012605,-0.3977666655435361,1.859753888603566,-0.2456491068470399,-0.6236597033713154,-0.0653076018663106,0.1423841911579324,-0.7501537588536774,0.0150381640479366,0.0078477221804007,0.0184016515551483,-46.69256907295775,-70.0314816791873,-98.97306741611035,0.0005234021282481
828,1724814822609023946,-1.9168516397476196,-0.3106879889965057,0.1647786647081375,-0.0046814326196908,0.0768821239471435,-0.3626105785369873,0.928752303123474,0.0,0.0,0.0,-0.0770425427086862,-0.5562424890064763,-0.3052499277671407,1.3237438,0.0011986195637014,-0.2222421670399156,0.0824011698428291,-5.74110765622172,-26.698950038799524,11.502884941736369,-0.0651340057756232,0.1398694344799256,-0.7490186306100033,0.0041400718702675,-0.0080232098867547,-0.0085322782568049,43.15459021361881,40.66641262073278,107.69999049522328,-0.0002010653724779
830,1724814822617304109,-1.9167886972427368,-0.3107605278491974,0.1647623181343078,-0.0047385399229824,0.0765378922224044,-0.3626077771186828,0.928781509399414,0.0,0.0,0.0,0.3079361129124336,-0.0325414677811124,0.5863234676504664,1.332023963,0.0173196768287672,-0.0827694514281303,0.0017367532312854,2.8024475348383584,14.876062079138558,-6.627114421464378,-0.0649823196823742,0.1391864671079438,-0.7489591093552873,0.0085804283509816,-0.0078532429410262,0.0008132888755936,13.489936577761068,34.38774909807821,21.19167235286111,-3.6013582918770496e-06
832,1724814822627380909,-1.916690230369568,-0.3108285367488861,0.1648046970367431,-0.004408043809235,0.0766360536217689,-0.3627560138702392,0.9287171363830566,0.0,0.0,0.0,0.0391325491053718,-0.0399400888693117,-0.2607110704754055,1.342100763,0.0560505888695974,0.042997847446041,-0.0268460409223265,2.863038513549386,0.1374300700085853,-0.97403092834832,-0.0644593143627868,0.1396013396640765,-0.7492599828260299,0.0088833871266018,-0.0088319499635041,7.06162575720981e-05,-11.731072521143169,2.0004125618196205,-31.66356963639124,5.9435267096040275e-05
834,1724814822637360016,-1.9166103601455688,-0.3109372556209564,0.1647645384073257,-0.0042082443833351,0.0761403739452362,-0.3628670871257782,0.9287155270576476,0.0,0.0,0.0,0.0697530378634844,0.0070469009867396,-0.0589056331699995,1.35207987,0.0749311649386543,-0.0776131207561803,-0.018160455939796,0.8455716954856438,-3.014947517194615,2.6225079685758113,-0.0637299678713821,0.1388168349379786,-0.7493926189142028,0.0093635040282293,-0.0086653965771112,-0.0043791461247195,-4.066872348263701,-7.486763133888984,10.266006458205652,-2.299421621300551e-05
836,1724814822647303067,-1.9165037870407104,-0.3110013306140899,0.1647174805402755,-0.0038937237113714,0.0759274438023567,-0.3627776205539703,0.9287692904472352,0.0,0.0,0.0,-0.0413747108704327,-0.1882147282329725,-0.0554733609626749,1.362022921,0.0729715262630066,-0.0177193884614618,0.025273855773915,1.3341677221244246,4.158646882436571,-0.3599763234098565,-0.0629678323075226,0.1386569146283,-0.7491281395288292,0.0102714604238656,-0.0086908663466616,-0.0011307681621017,-4.78978124294295,-3.388865724876938,23.610397395260808,-2.8115485012762707e-05
838,1724814822657916271,-1.9163998365402224,-0.311119019985199,0.1647462844848632,-0.0033815468195825,0.0757516995072364,-0.3629780113697052,0.9287073016166688,0.0,0.0,0.0,-0.0198584017076132,-0.0401027392208032,0.4586690457680277,1.372636125,0.1044781690054642,0.0052891341289263,-0.0321111351024491,0.6887151943037035,-0.1666883480984979,-0.6819021472945371,-0.06190694032665,0.1386916622404824,-0.7494750483892719,0.0083291558796787,-0.0127916041062459,-0.0060489594895134,2.1722943173928737,19.11231333163822,40.610409078168104,4.908679453892117e-05
840,1724814822669477931,-1.9163219928741455,-0.3112883567810058,0.1645659804344177,-0.0029781467746943,0.0754365772008895,-0.3629093468189239,0.9287611842155457,0.0,0.0,0.0,0.0070829212730866,0.2458174382925967,0.8295340153718487,1.384197785,0.0837256562413138,-0.0260420963008385,0.0195162470457252,-3.3338728764075127,-8.310900802108975,-16.28872187207645,-0.0609049539917124,0.1384049915670201,-0.7492290221197435,0.0101544125766963,-0.0088939298980008,0.0108673994898076,-10.575228848523476,-20.589914949518988,-69.98206173182557,-0.0001588376495613
842,1724814822677330745,-1.9162240028381348,-0.3113275170326233,0.164792463183403,-0.0030357951764017,0.0749217718839645,-0.3637213408946991,0.9284850358963012,0.0,0.0,0.0,-0.1447965200989503,-0.1575953408325839,-0.2643775660513096,1.392050599,0.0493371438630409,-0.1211801064064661,-0.2190927607492739,-2.1019493913430156,-8.479142206864548,-12.214798280331648,-0.0607477881993294,0.1373505711536253,-0.7509044465951118,0.0094057689418818,-0.0074505572265408,0.0140020825780311,-8.146337254471751,-36.081954425304176,-77.40839975143857,0.0002396989841811
844,1724814822689584138,-1.9161674976348877,-0.3114659190177917,0.1646803170442581,-0.0030104198958724,0.0738868564367294,-0.3638704717159271,0.928509533405304,0.0,0.0,0.0,-0.0305795395147685,-0.3073811808874365,-0.0294914762799212,1.404303992,0.0671208239583428,-0.1555579978981334,-0.0213485520984204,8.209262730992688,4.331887140126283,-2.608229499692012,-0.0599453795293951,0.1354321287432237,-0.7510518650968687,0.0066858063590871,-0.015909168659725,-0.0019246386704807,1.1721564906863753,27.63261298726798,43.468916707290866,-9.637458432964364e-05
846,1724814822697653014,-1.9161025285720823,-0.3116188049316406,0.1647031903266906,-0.0025400440208613,0.0733268857002258,-0.3644516766071319,0.9283273220062256,0.0,0.0,0.0,-0.06442068710793,0.1273558710243546,0.4503678234378748,1.412372868,0.1692677319136092,-0.0826805561256842,-0.1419991538792013,3.786171602767936,6.337509178583636,-8.033637831860334,-0.0587296258071134,0.1346982054508815,-0.7521661537007299,0.0074560247456361,-0.0163547606495182,0.0045869085678873,-6.3923234661651875,25.53830433355374,12.872190420686806,3.904283754106349e-05
848,1724814822707902653,-1.9160338640213013,-0.3117526769638061,0.164773017168045,-0.0022488252725452,0.0729010477662086,-0.3651244044303894,0.928097367286682,0.0,0.0,0.0,-0.1585609582097759,0.0201338140489882,-0.0243959662667529,1.422622507,0.0925473786639121,-0.0528040462869574,-0.1342577011564448,-2.9173113165837856,0.1707236295149594,1.586587085442032,-0.0579625310192911,0.134077693377084,-0.7535207282293905,0.0047141813434876,-0.0126722625600894,0.0045597964609234,5.740285747760643,-13.9623317537048,-4.642566996434141,8.50562667745927e-05
850,1724814822719441668,-1.916005253791809,-0.3118938505649566,0.1647963672876358,-0.0018421849235892,0.0721875056624412,-0.3657358288764953,0.9279131889343262,0.0,0.0,0.0,0.1015611911421877,-0.1864613705182753,0.4634485135677276,1.434161522,0.1182237428047795,-0.0864823299242698,-0.1051510122747153,13.490778310056156,-0.4877652616787564,-0.8516815441697325,-0.0567533873571485,0.1330118351463768,-0.7546851217011149,0.0042998089375316,-0.0168456574089361,0.0039957354319994,-22.226252158624472,-12.567940800826952,-30.28295757894405,3.3949762185518776e-05
852,1724814822727645948,-1.915959358215332,-0.3120589554309845,0.1648406535387039,-0.0008742427453398,0.0714539811015129,-0.3663239479064941,0.927739441394806,0.0,0.0,0.0,-0.3419394759692344,-0.2584452587935789,-0.2082681250409754,1.442365802,0.2946211726869893,-0.0763041130051099,-0.1318207231822217,9.424754766800936,5.241015439695387,-2.957983852687809,-0.054475700738381,0.1323266840709957,-0.7557395000250947,0.0059349554275627,-0.0173533590666075,0.0107865654276837,-46.213686945557825,-19.77248822901302,-80.4211659030657,5.832377272974943e-05
854,1724814822737509967,-1.915896773338318,-0.3121972680091858,0.1650109589099884,0.0002296587772434,0.0711162090301513,-0.3671305775642395,0.9274469017982484,0.0,0.0,0.0,-0.7047714369929449,-0.5839189853160421,-0.9843149514252298,1.452229821,0.2443726295114413,0.02283641180724,-0.1575267736750238,-13.366639196574903,-34.44309787843665,12.132070138724494,-0.0522734475782117,0.1324687313044575,-0.7573169870627222,-0.0038568340276299,-0.0222338086965798,-0.0035540992134563,20.010809522285513,11.74649378703879,26.189027497054074,0.0001841092235039
856,1724814822747706983,-1.9160436391830444,-0.3125105500221252,0.1647552549839019,-0.0011201768647879,0.0673058107495307,-0.3665612339973449,0.9279556274414062,0.0,0.0,0.0,0.0979611193401163,0.0075028103610395,0.3881281867572997,1.462426837,0.020870114934181,-0.7974011030844901,0.121542334366118,3.8191476844329113,-12.33045812778546,4.0013532368784315,-0.0518461314327537,0.1244130936769343,-0.7556423396809843,-0.0080085088302013,-0.029127751143978,-0.0086418349999615,25.63646656471077,-296.85604375787494,181.16334446416124,-0.0002570456198596
858,1724814822757190757,-1.9160631895065308,-0.3127727210521698,0.1648182570934295,-0.0004299969587009,0.0654316991567611,-0.3668546080589294,0.9279743432998656,0.0,0.0,0.0,-0.127147803928509,-5.937787913684544,2.5170137435998035,1.471910611,0.2841062492704364,-0.313594620896547,-0.0466109423372079,15.083530878671825,34.71884422284091,-11.371833000310945,-0.0491877194655477,0.1214205127714783,-0.7559359068319262,-0.0026242100525308,-0.0230271568832423,0.0028634311326003,6.935412367738316,-92.2927103292238,75.60834512270384,7.245934445089716e-05
860,1724814822778055382,-1.916143774986267,-0.3130412399768829,0.1647045016288757,-0.0015495554544031,0.0621015056967735,-0.3667849600315094,0.9282294511795044,0.0,0.0,0.0,1.425473241960347,16.67615357433135,-2.738929737807865,1.492775236,0.017093790425134,-0.3371995780136378,0.0080070929591102,4228.526348224138,-5560.758078208932,-5582.727399108953,-0.0487704870724697,0.1144015651562765,-0.7554209698984414,-0.0371743631376375,-0.4490062521402933,0.1152309605791401,293.14042592194755,3524.876233755509,-1021.059425524736,-0.000110799564188
862,1724814822778539171,-1.916162133216858,-0.3132633566856384,0.1647616028785705,-0.001391232246533,0.0612194277346134,-0.3674339652061462,0.92803156375885,0.0,0.0,0.0,1.569744948747518,18.40883256763704,-3.2415351300578807,1.493259025,2.110385955297476,-3.0897990444318006,-2.7555093888584508,4136.579912351786,-5435.681530199086,-5458.43259078001,-0.0478932072600025,0.1128440868893726,-0.7566884088450148,-0.0364501689097371,-0.440522422435939,0.1138147590069709,284.62084618381414,3420.3061860389334,-1001.8939523344632,6.398733309905331e-05
864,1724814822789418781,-1.9161925315856936,-0.313506156206131,0.164968729019165,0.0012363628484308,0.0596696399152278,-0.3678430020809173,0.9279707074165344,0.0,0.0,0.0,1.341027265980372,16.18777257584538,-5.089207666081952,1.504138635,0.5575369350003181,-0.0861225123105118,-0.0447177912538069,-90.17884442227457,100.44463578722504,104.96642624476638,-0.0418775136662819,0.1118862265005836,-0.7571352382378405,-0.0015546920223528,-0.0267440101174507,0.0016690427721588,-101.66534890301536,-1231.0809253856523,288.2084010702368,0.0002135273824393
866,1724814822797494095,-1.916197657585144,-0.3137486577033996,0.164878100156784,0.0012754574418067,0.0582275427877903,-0.3681089580059051,0.9279568195343018,0.0,0.0,0.0,0.0366875083653399,0.0911359069788602,-0.0164295490022319,1.512213949,0.1442991910553684,-0.3277503146037326,-0.061370282944791,-30.110347937236252,-14.333754013593849,0.5000492819363043,-0.0407550835877739,0.1092213316189051,-0.7575234734881108,-0.0019123435558014,-0.0269563786705671,-0.0081479929211498,-85.0554229730445,-1175.918238069367,425.8407306643608,-7.959352425598444e-05
868,1724814822809143878,-1.9162414073944092,-0.3140110373497009,0.1648348569869995,0.0015694661997258,0.0566531717777252,-0.3682277202606201,0.9280067086219788,0.0,0.0,0.0,0.3309404661475704,0.1294734636275827,1.5438587038465776,1.523863732,0.1475081736378194,-0.2327558295178114,-0.0124833524079833,24.33728139413047,5.374631970754427,-4.716172402287048,-0.03904066750217,0.1065061344230367,-0.7575608556198584,-0.0001240053491642,-0.023921008626683,0.0118158404856227,0.1385387845426215,-8.648999475573286,-13.035708554750734,-3.580361134567732e-05
870,1724814822817710839,-1.9162195920944216,-0.3142247796058655,0.1650339066982269,0.0032386125531047,0.0550413131713867,-0.368784636259079,0.927878201007843,0.0,0.0,0.0,0.1738749869092006,-0.0198423256791282,0.5062908324225692,1.532430693,0.5075925476222525,-0.2042225569705381,-0.109035083926858,21.08011695069619,24.031651180852595,-7.713732827114675,-0.0347842455188104,0.1047232815688265,-0.7584345854101111,0.0038289590910522,-0.0236375978746146,0.0239722456245292,-32.37314168233003,-11.993066269216843,-124.10374755683094,0.0002099775056773
872,1724814822827940694,-1.916164755821228,-0.3144505620002746,0.1652881503105163,0.0059712566435337,0.0555596612393856,-0.3695955574512481,0.9275110363960266,0.0,0.0,0.0,-0.328794744024491,-0.0761236916773635,-0.7998095947906225,1.542660548,0.4673038572151405,0.2944917582071295,-0.1445008114303858,-5.825094463532899,7.691474047407073,1.1433358043064628,-0.0301717177891511,0.1076863050083727,-0.7600188027236664,0.0020951653187211,-0.0244870783861692,0.0180024654635531,-10.525989321169558,13.183439034250364,-48.457274754033264,0.0002698391236108
874,1724814822837420207,-1.9161735773086548,-0.3147039115428924,0.1653986275196075,0.0076972357928752,0.0548989214003086,-0.3701083958148956,0.927333116531372,0.0,0.0,0.0,-0.0894042853683775,0.2129828291384937,-0.5632928737030024,1.552140061,0.3955111933885669,0.0067289555574496,-0.0931654125547589,-11.594206848597787,-25.33923974751127,4.183809573950545,-0.0265181083494242,0.1077250305333818,-0.7609085342796964,-0.0024210698807252,-0.0251479453333693,0.0085211182281916,30.8730098421658,31.45017736642845,57.12571587963079,0.0001228624101424
876,1724814822847569718,-1.9162143468856812,-0.3149420022964477,0.1654510647058487,0.0084132431074976,0.0535395331680774,-0.3704824149608612,0.9272570610046388,0.0,0.0,0.0,0.2850085986348155,0.5425335495845487,0.3661510275105069,1.562289572,0.2341427005632039,-0.1959323862081162,-0.0640853669142755,-12.397709954762014,1.0256471628545152,-2.513557571514708,-0.0242059303965112,0.1057205644997487,-0.7615118098798863,0.0008771737112738,-0.0199142319602003,0.0075517104087454,-2.863544201532287,-19.64296744420743,10.597701859233862,6.149537553014946e-05
878,1724814822858430002,-1.9161479473114016,-0.3151170909404754,0.1655607968568802,0.0091933980584144,0.0535623989999294,-0.3712950348854065,0.9269231557846068,0.0,0.0,0.0,-0.2080566377426668,-0.2763862604078265,-0.459781332556012,1.573149856,0.1401895780082636,0.0591654057893042,-0.1538885758723456,-3.656948138717488,11.956237209918216,-3.722635352393782,-0.0228628461947357,0.1063235949078136,-0.7632071558022456,0.0035081125089675,-0.0137098894377203,0.0168931321710763,-34.5277788865426,-104.57043902289284,-209.3387788255949,0.0001251721075916
880,1724814822869823764,-1.9161391258239744,-0.3152444660663605,0.1658344268798828,0.0101072657853364,0.0535389371216297,-0.3720896244049072,0.9265962839126588,0.0,0.0,0.0,-0.4714882480824116,-1.8164643351187997,-4.438189161309072,1.584543618,0.15822019460255,0.0575350363041234,-0.1419592029143579,0.8535092053459845,-36.84798349193628,11.286003857903156,-0.0212347567822849,0.1069433107721892,-0.7648479484267843,-0.0042451896616739,-0.0269915886030105,-0.0041231773973127,4.287042798528272,-49.3470474882604,-146.6142640939839,0.0002802751173508
882,1724814822878326835,-1.9162070751190183,-0.3155743181705475,0.1656208038330078,0.0099721206352114,0.051358301192522,-0.372071623802185,0.9267285466194152,0.0,0.0,0.0,-0.261112010108783,-1.6914622108386386,-4.399461424766285,1.593046689,0.1608516411218799,-0.4887068506172379,0.0189808156822388,2.877039007223611,-51.63226355429824,28.578250306449803,-0.0198410602228295,0.1027920184208536,-0.7646000758198627,-0.0069280319189459,-0.0465667210645897,-0.058320087989097,25.215880617975376,74.6481125615643,227.28886777227183,-0.0001997146259048
884,1724814822888292271,-1.9162636995315552,-0.3161291778087616,0.1646519005298614,0.0095052570104599,0.0469774007797241,-0.3702426850795746,0.927697777748108,0.0,0.0,0.0,-0.0042809077422522,-0.2474188369892753,0.4669519912888229,1.603012125,0.219509995619402,-0.8559890096225204,0.4164920970652048,-4.959470740620913,-28.714508031068352,19.033298213285764,-0.0172275207396372,0.0943400405183383,-0.7602710354540707,-0.0088947438745776,-0.0562907655499564,-0.0791036969586524,48.06252471587704,123.42198560118636,352.2619144045798,-0.0009399017480848
886,1724814822897537673,-1.9163734912872312,-0.3166548609733581,0.1640760004520416,0.0081408219411969,0.0423106737434864,-0.368527740240097,0.928617775440216,0.0,0.0,0.0,0.6312694155746986,0.7093971745780223,2.556652432293358,1.612257527,0.0806302854632936,-1.051636805706453,0.4135750417618231,-10.21920751810703,11.989439397391624,-10.762737272764268,-0.0161243663461892,0.0846822993595331,-0.756269814526022,-0.0072782646201119,-0.0523308370907997,-0.0528925591915774,54.08001551027229,70.79298008248593,111.80105193138188,-0.0005573889354514
888,1724814822907811825,-1.9163957834243777,-0.3171408176422119,0.1636398732662201,0.0072848969139158,0.0396216176450252,-0.3676792979240417,0.9290796518325806,0.0,0.0,0.0,1.0194907952689405,1.0634093965591205,2.4011656205329395,1.622531679,0.0304660380873301,-0.5499573476877891,0.183717204414007,7.963828442303262,37.24194177693845,-16.005706970468363,-0.0156491199357388,0.0790626320437184,-0.7542860204004793,0.0044187017417272,-0.0418331431436378,-0.0298036438721744,5.1754944772111955,12.834524492703054,-47.521005628783826,-0.0004154963356006
890,1724814822917521112,-1.916292428970337,-0.3174968361854553,0.163466528058052,0.0077933808788657,0.0378865636885166,-0.3673413395881653,0.9292816519737244,0.0,0.0,0.0,0.7705221563480944,0.9896307141762624,1.642602316897414,1.632240966,0.2256609614153224,-0.2946840235135549,0.0867310090962192,8.601427087603442,23.559503438932325,-13.827666040394098,-0.0133893770656553,0.0762139999428795,-0.7533999187655281,0.0132254031868512,-0.031126021921942,-0.0050780806057701,-23.377699235923476,-74.62578670363148,-173.2039668995507,-0.0001510742450443
892,1724814822927589350,-1.9161323308944704,-0.3177523612976074,0.1635487824678421,0.0085156699642539,0.0371324494481086,-0.3678141236305237,0.9291186332702636,0.0,0.0,0.0,0.5587935919172478,-0.4615122649174059,-1.0938973763860689,1.642309204,0.1921706577306353,-0.0860063607021025,-0.0925665233340933,-0.1845733336349315,15.50526840767082,-11.0646590645335,-0.0115244864684504,0.0753365117041887,-0.7543235708057703,0.019557905647602,-0.0223434220859441,0.0020219944462551,-10.07373385158198,-137.63468942417478,-233.75543265945703,0.0001030829564951
894,1724814822940528874,-1.915818452835083,-0.3179909884929657,0.1634727120399475,0.0100069968029856,0.0367303639650344,-0.3686131238937378,0.9288030862808228,0.0,0.0,0.0,0.6106324461129837,-2.1344119428040074,-3.485991822833845,1.655248728,0.242028718312402,0.0277999360461942,-0.1235946586913757,20.57580210221039,-55.07676158349348,30.17533369548898,-0.0085140022438048,0.075680193788211,-0.7559309776400628,0.0256216131546125,-0.050496128456821,-0.042050801282091,-19.2978739089408,104.1970798555048,110.28817608386504,-4.5851931271363e-05
896,1724814822947577931,-1.9156326055526731,-0.3184700310230255,0.1630373895168304,0.010725075379014,0.0341534987092018,-0.3679902851581573,0.9291402697563172,0.0,0.0,0.0,0.3851102511116051,-0.503319801827669,-1.5751346050375197,1.662297785,0.451285515779569,-0.6057148756147906,0.2141979456031107,49.21114445004305,-61.61673987588729,39.34099787087071,-0.005219442634279,0.0714209327140537,-0.754387567536959,0.0304713432169307,-0.0653831145852557,-0.0669307032091692,272.16776401239105,-797.9992535661227,-508.025319602823,-0.000402289872943
898,1724814822957228689,-1.915284276008606,-0.3190670013427734,0.1623230874538421,0.014644700102508,0.028316993266344,-0.3660639822483063,0.9300435185432434,0.0,0.0,0.0,7.0305259709383385,-21.80565716062156,-16.772052745382084,1.671948543,1.1841932167202178,-0.8270309511992686,0.4805131871963097,39.2315981497856,-7.163771757852901,13.121582371364914,0.0065219186016088,0.0634364045786602,-0.7497449812707064,0.0301859949749392,-0.048986677237675,-0.0563090088908166,-3.1957077767186206,223.63659390458793,298.0077678582742,-0.000669599716135
900,1724814822978473978,-1.9149192571640017,-0.3195057809352875,0.1619548946619033,0.0167001392692327,0.0247464645653963,-0.3653751611709595,0.93038147687912,0.0,0.0,0.0,-25.39192519690073,96.64061518047993,77.14441067943199,1.693193832,0.300700563733262,-0.2417295632239182,0.0823562467673351,6264.217475460762,-50439.23590550437,39378.52572947809,0.0130139783319908,0.0582839296275248,-0.7480423106701326,0.5097494520741748,-1.6115571269376687,-1.248533671060386,-4813.526861115941,15887.600017294111,12397.199356029916,-0.0003336131453538
902,1724814822978866630,-1.9147155284881592,-0.3201501071453094,0.1614557206630706,0.0158251114189624,0.0207643453031778,-0.36255943775177,0.9315949082374572,0.0,0.0,0.0,-27.30582277003087,102.95374963437853,82.07008158840996,1.693586484,2.8061188589055694,-20.413030393230606,15.830316371375806,6098.130711628317,-49099.626752940465,38330.758874693245,0.014447258126883,0.0501840653222168,-0.741928161501297,0.4994311859202049,-1.5723759416021743,-1.217275694127008,-4672.678461410634,15374.872469114587,11994.137947536994,-0.0004642500463614
904,1724814822987744485,-1.9141801595687864,-0.3203426897525787,0.1614908277988433,0.0163633897900581,0.019651697948575,-0.364031046628952,0.9310356378555298,0.0,0.0,0.0,-28.32116954209554,98.27350334102644,78.05465827405347,1.702464339,0.2127238392634782,-0.1921757446481823,-0.3480406755459137,-175.8019038030073,1293.8557566826278,-1023.908039271492,0.0161818953195038,0.0485254678402261,-0.7450475134953815,0.050781295975895,-0.0225175340693706,0.0056743667838583,1012.7914000354332,-4008.506390852372,-3187.0068108038267,5.6897107437204865e-05
906,1724814822999355185,-1.9137351512908936,-0.3206166625022888,0.1615828275680542,0.015784703195095,0.0192064736038446,-0.3646422028541565,0.930815815925598,0.0,0.0,0.0,0.5537324387893836,-1.1312363418124196,-0.4747196333369876,1.714075039,-0.0622003960832747,-0.1086687851698165,-0.1125026101547578,24.016392007255504,-6.9199262385760285,10.05934602073421,0.0153961369883765,0.0472845347248257,-0.7463751323207175,0.0592778267557605,-0.0401272441280688,0.0054387475038577,1438.0399159474089,-3877.6650262362423,-2914.1846289239056,0.0001145630624986
908,1724814823007379786,-1.913143277168274,-0.3210303485393524,0.1616126894950866,0.0168984849005937,0.0177285335958004,-0.3650178611278534,0.9306783080101012,0.0,0.0,0.0,6.276214974561177,-6.271014455116652,-2.5109663318773876,1.72209964,0.3950428238207032,-0.2424660695500797,-0.0885001480977746,45.58960235444212,-13.835157043217295,3.680565691956887,0.0185317575758436,0.0453511651682941,-0.7471189752498967,0.0627338120604914,-0.0470672544852457,-0.0008909867098978,9061.030059484943,6158.221052590043,7772.862746599785,6.0422015434029704e-05
910,1724814823046237442,-1.9127798080444336,-0.3220153748989105,0.1607102155685424,0.0156379099935293,0.0130540030077099,-0.3617685735225677,0.9320454001426696,0.0,0.0,0.0,1929.1186999211984,1512.2780767803772,1809.8203209571648,1.760957296,0.0232844999802449,-0.2460233358439738,0.1842467737575644,11725.26109873444,-17921.74416326974,11849.249396332536,0.0197192388980337,0.0356560104336796,-0.7401380200208149,1.4065160402733454,-1.3079753543720471,-0.422507561173802,-2085793.297774868,-268278.9256175854,-1040775.7361091152,-0.0008589752455846
912,1724814823046622840,-1.9122323989868164,-0.3225243687629699,0.1605458557605743,0.0159703660756349,0.0114227356389164,-0.3609398007392883,0.9323824048042296,0.0,0.0,0.0,1117.0961334221688,1407.7090507228806,1404.550835735317,1.761342694,4.587032522989032,-7.221532392901074,4.796190177873294,8755.786139962142,12589.086038625292,-24851.497845089267,0.0215484187201065,0.0328352968950076,-0.7383463035397044,2.1572363084769677,-0.7192417577393826,0.2819530012566247,-2886442.9088806184,-871969.1848822869,-1772711.533848588,-0.0001395283600383
914,1724814823046954604,-1.9113062620162964,-0.3225912153720855,0.1608417183160781,0.0173087250441312,0.0119485035538673,-0.3630955219268799,0.9315145015716552,0.0,0.0,0.0,-63.134086233448386,946.8813751728496,610.4726940766733,1.761674458,6.610583141388874,5.7195472985646605,-13.9636989557992,3690.7083084721407,27664.170102344753,-39342.86325088043,0.0235862567963683,0.0348368957418292,-0.7429375650264344,2.2905734041862047,-0.2864544188897753,0.6270326843445986,-3014136.3544200524,-1309754.6018310457,-2116009.9882446015,0.0003073115648458
916,1724814823048026380,-1.910585880279541,-0.3231924176216125,0.1605970710515976,0.0176824368536472,0.0095346542075276,-0.3614303767681122,0.9321827292442322,0.0,0.0,0.0,-1412.4749791526613,-182.42386273096517,-696.6206476003382,1.762746234,2.226423611531162,-3.9038108097352855,3.4335220972897487,-3697.6355155450783,-8030.840030591375,14553.730562884251,0.0260894392559975,0.0305627773996282,-0.7393608338364476,0.6127560694384258,-0.5098453869421662,-0.206348933651433,-1116631.6804738443,-944677.3374254776,-1088411.7727559234,-0.0002168889371057
918,1724814823057530087,-1.909766674041748,-0.3237319886684418,0.1604827642440796,0.0179984662681818,0.0076961172744631,-0.3601145148277282,0.9327027797698976,0.0,0.0,0.0,-28.959719971459094,25.194667738422098,11.383034145801997,1.772249941,0.1972615968515668,-0.3327797462567018,0.3051669999368556,-124.1528302639735,198.71122797548145,-174.98770024894455,0.0280456148895955,0.0273227972912727,-0.7365460783742558,0.0809214901128569,-0.0519106905263235,-0.0050240352916608,75963.6836793752,9971.930293433916,37590.37235950293,-9.197113783138806e-05
920,1724814823067507222,-1.909014582633972,-0.3241989612579345,0.1605059951543808,0.017146972939372,0.006918151397258,-0.3593177199363708,0.9330320954322816,0.0,0.0,0.0,-0.1933945000591967,0.3146093464045445,-0.1448202624211793,1.782227076,-0.1054596924032333,-0.2045555982157172,0.1742410341529671,-13.28728736315798,18.03832280272826,-13.507946181625416,0.0270376247430922,0.0252348151826974,-0.7348638520030082,0.0747992168412707,-0.041342634702314,0.0058910746335367,1514.713164853598,-1342.2945963733457,-672.2551053168622,4.092022410431823e-05
922,1724814823078419930,-1.908205270767212,-0.3245849311351776,0.1606128066778183,0.0170153006911277,0.007283940911293,-0.3591976761817932,0.9330779910087584,0.0,0.0,0.0,0.0016547801084039,-0.59017981976009,-1.7137948595633232,1.793139784,-0.0469006481114856,0.0541977406916681,0.0222332822109866,1.176975018680298,-33.50272534336578,19.26630392212224,0.0265324111373741,0.0258195515082905,-0.7346054496942472,0.0777046994919743,-0.0467971655236141,-0.0104760278549136,22.302938404773016,-16.16054796847085,1.0568936613226505,0.0001221219614667
924,1724814823087780312,-1.90744948387146,-0.3251147270202636,0.1603520512580871,0.0155192473903298,0.0042245634831488,-0.3572010993957519,0.933889091014862,0.0,0.0,0.0,0.2459814724441069,-0.2055136475486676,-0.5410649867117638,1.802500166,-0.0695179327995194,-0.7187638845575464,0.4690975553736977,6.473319222575541,-34.586562191152794,28.51845288881605,0.0259760728825478,0.0189786712622969,-0.7303916328061457,0.0755958063601838,-0.0530468578214424,-0.0282357759584597,66.70967873898923,68.30045986688077,153.29273190311125,-0.0002460804547369
926,1724814823099760342,-1.9066227674484253,-0.3256957530975342,0.1600079834461212,0.0154895847663283,0.0016454157885164,-0.3543521463871002,0.9349823594093324,0.0,0.0,0.0,1.6677926637279912,1.0298624362453808,1.7248006401131737,1.814480196,0.1443352822217397,-0.3972675182331711,0.516029413536405,11.889925723531816,33.199217040729565,-8.151071405038518,0.0278051923919268,0.0140548674163699,-0.7243389079375793,0.0857687475841828,-0.0484226786099313,-0.0139223499896914,-17.6279147996574,19.66202003692139,36.40184063598136,-0.0003329255073687
928,1724814823109528676,-1.9056514501571655,-0.3261681497097015,0.1599898487329483,0.0164264179766178,0.0011492612538859,-0.3528009057044983,0.93555349111557,0.0,0.0,0.0,0.4098973583258027,0.5571919784130861,0.8638588221082151,1.82424853,0.2130019142932813,-0.0222839541785304,0.3402813882659374,-4.39683758917006,21.174910564636654,-45.07076170407684,0.0299319592714517,0.0137413334812221,-0.7210221867836848,0.1085806862246414,-0.0332342310448545,0.0071477164319322,-171.09543509341512,-78.07398867958496,-94.72423081562752,-1.2391767463731086e-05
930,1724814823118020467,-1.9046618938446045,-0.3263387084007263,0.1601170152425766,0.0168335847556591,0.0011503855930641,-0.3537617027759552,0.9351834058761596,0.0,0.0,0.0,-1.3554382385040111,-0.3249397930982982,0.0108456267874406,1.832740321,0.0913147804496344,0.0304631986825267,-0.2423502862868987,-8.238543504679244,-12.77092574317378,-9.624513180857631,0.0306788985676554,0.0140622617055296,-0.7230716400719704,0.0978480331169464,-0.0358675694076264,0.0049375415883794,-53.42636167698176,-43.61900340752183,-45.81462789971295,0.0001229463640901
932,1724814823128026004,-1.9039031267166135,-0.3268836438655853,0.1600480824708938,0.0166448410600423,-0.0005247614462859,-0.3521190881729126,0.9358070492744446,0.0,0.0,0.0,-0.0690385087682035,-0.0509407515057038,0.1965665627868916,1.842745858,0.0806963389889714,-0.3211034736050069,0.3567522005374537,-3.4181742868477407,4.629388995402547,14.813103843066449,0.0315293179443779,0.0107399880627714,-0.7196034992002456,0.0832068213654793,-0.0392936675144621,0.0082422962140054,82.19382979434904,9.606307778401622,-37.149779713225605,-6.175914209223299e-05
934,1724814823138764391,-1.902924656867981,-0.3271307647228241,0.1603109836578369,0.0170827731490135,0.0003829028573818,-0.3521199226379394,0.9357988834381104,0.0,0.0,0.0,0.2791232716914669,-0.1526794209009803,-0.8444335078940735,1.853484245,0.0168273857407052,0.1869153583202744,-0.0035375858674949,-0.3077975289169461,2.643180591677945,-3.196188647321568,0.0317103146334041,0.012747354879704,-0.7195779751243073,0.0985343292681193,-0.0364814132404589,0.0088119231680163,-31.58585921380052,-25.748543252896116,-90.78491828872788,0.0002596451318537
936,1724814823147990419,-1.9019567966461184,-0.3275741040706634,0.1602680683135986,0.0171046312898397,-0.0003450116782914,-0.3512349128723144,0.9361311197280884,0.0,0.0,0.0,-0.5196589115093806,-0.519236693206194,-1.6332130578468678,1.862710273,0.0586934364009816,-0.1427469580687464,0.2075912485107625,6.77856091335971,-25.99723988411384,15.30562487944441,0.0322744040216556,0.0113697799880846,-0.7177058123467815,0.0920078675974309,-0.0411761744635015,-0.0060928619873719,-19.18940493582795,-30.481621057096937,-12.30364496420231,-4.105451757459792e-05
938,1724814823159506302,-1.9010826349258425,-0.3279494345188141,0.1601771861314773,0.0174035988748073,-0.0023427281994372,-0.349781334400177,0.9366667866706848,0.0,0.0,0.0,0.2280237905650839,-0.7373114535236742,-0.7228423747758338,1.874226156,0.1689631206442936,-0.3022033160660206,0.2749163102566541,-28.838456659411,-13.888794973102495,13.15235025786426,0.0342493647207777,0.0077862753613639,-0.7146571873995036,0.0887220921204772,-0.0473047915838158,-0.0251551478655542,-27.468002247611384,56.39295695303976,141.9338209772916,-9.368373308887218e-05
940,1724814823168177108,-1.9002296924591064,-0.3284556567668915,0.1598463654518127,0.0154100684449076,-0.0035897344350814,-0.3480418622493744,0.9373455047607422,0.0,0.0,0.0,-0.6133530885906295,0.2434610842552493,0.9183603586647526,1.882896962,-0.3318794731940764,-0.4229055361315469,0.4366563859210595,-16.420969662086357,-4.492440723248963,6.769697523839325,0.0313932795111542,0.0039970656090953,-0.7109933724344925,0.0940507071907319,-0.0550370488289679,-0.0253350827352019,2181.3990243549433,-558.7010735640459,983.6457231154716,-0.0003321848999039
942,1724814823177833705,-1.899367928504944,-0.3289511501789093,0.1597395688295364,0.0145828397944569,-0.0051919454708695,-0.3463750183582306,0.9379684329032898,0.0,0.0,0.0,44.95487994238064,-12.376679534579438,18.96001698963419,1.892553559,-0.045850185670178,-0.3648931786279457,0.3742257054277453,21.820794024547837,8.096505070719443,-7.429665198924515,0.0309581540770041,0.0003625008969178,-0.7074911795514842,0.0749224004600463,-0.0404773753628955,-0.0063671994819878,-154.4629235855,28.057059938864768,-28.171476596214006,-0.0001120717759933
944,1724814823198103873,-1.898458480834961,-0.329310655593872,0.1598101556301117,0.0147945806384086,-0.0065094134770333,-0.3446515798568725,0.9385915994644164,0.0,0.0,0.0,-165.5321714498059,44.99299996698119,-62.30525910368897,1.912823727,0.0646077223434599,-0.1118918785542561,0.1825829285013284,31685.51714908313,8256.878858984623,3019.3311141959803,0.032264761116095,-0.0020214118098897,-0.7038637913127238,2.983239566176053,-0.8821247488444897,1.1011108553548183,-30247.35093868064,9106.408707052207,-11150.684612759913,5.853369369966247e-05
946,1724814823198418423,-1.897505760192871,-0.3295923471450805,0.16016186773777,0.0164338983595371,-0.0066913878545165,-0.3444654643535614,0.9386313557624816,0.0,0.0,0.0,-175.14343126377568,47.88805568038479,-65.84756604943746,1.913138277,10.185922261037389,2.5255514955005784,1.1470974828165132,31058.44851485483,8092.357913054849,2962.1076234461066,0.0354681118251948,-0.0012396723660393,-0.7034762611025202,2.9296630985199617,-0.867549910671042,1.080941929123448,-29509.2602914382,8904.041567882925,-10872.403757286042,0.0003361283331961
948,1724814823207469371,-1.8968178033828735,-0.3301553726196289,0.1602567881345749,0.0155890770256519,-0.0083628622815012,-0.3410379290580749,0.9398831129074096,0.0,0.0,0.0,-169.73074299248302,50.41029665125249,-62.91730096304008,1.922189225,-0.0474749962100711,-0.3966891250219164,0.8135061820194439,-611.6268307486564,-129.7064013536666,-78.03347736510946,0.0350155348844222,-0.0050873149223084,-0.6962442636297651,0.0901752445285808,-0.029784111773063,0.0350249323856424,7545.798551857368,-2047.0970448725195,2789.9566356187415,9.001838971131875e-05
950,1724814823218202974,-1.8956695795059204,-0.3300623595714569,0.1609450727701187,0.0168101005256176,-0.0049274866469204,-0.3437437117099762,0.9389000535011292,0.0,0.0,0.0,-0.2983707474075432,-1.167321793711381,-1.578503686671366,1.932922828,-0.0058278888737313,0.6698337970187984,-0.5482121059500641,6.794846651045026,-6.098213760164409,0.1666323032507541,0.0349608078525256,0.0023038997831131,-0.7018733447558991,0.1012378621513789,-0.0252410469203603,0.0297738409286498,7265.221526772987,-2242.0235709138124,2659.304654180276,0.0006613472185738
952,1724814823227484436,-1.894775986671448,-0.3305687606334686,0.1609457284212112,0.0167785976082086,-0.0061089717783033,-0.3416986763477325,0.939639925956726,0.0,0.0,0.0,-1.2461924496350467,-1.4047072894129,-1.4178079648777548,1.94220429,0.0806315961076327,-0.2331749935867656,0.4728622342329383,7.179808368951368,-42.80686228217501,47.06984704324061,0.0357141273100224,-1.401839148152304e-05,-0.6975637564053585,0.0878020949918578,-0.0488411295496735,0.0063806663111778,-42.95980786781425,-21.08873509239494,-10.571736826359356,-5.996442020916609e-06
954,1724814823238100738,-1.8939467668533323,-0.3310178220272064,0.1610900908708572,0.0173776652663946,-0.0064947148784995,-0.3406577408313751,0.9400043487548828,0.0,0.0,0.0,-0.9838792444605104,-1.57409859825373,-1.8686558541626896,1.952820592,0.1309232421856904,-0.0260104329186229,0.2082532882199644,-6.9261467689444505,8.011331163792843,-16.220379135934174,0.0371036268954613,-0.0003704480867503,-0.6953644056431717,0.0770177537662135,-0.0499350061842172,0.004717924185412,33.060466899356186,21.381358354492,-0.1111013658823907,0.0001370043502048
956,1724814823248252545,-1.893175482749939,-0.3315988779067993,0.1610517799854278,0.0170249752700328,-0.0066838678903877,-0.3400532007217407,0.9402283430099488,0.0,0.0,0.0,-0.5671781994975063,-0.9945839262634512,-1.458603197037548,1.962972399,-0.0526132685900335,-0.0563428671650306,0.1280862348219841,8.65843259683405,-37.04129955731871,35.7491660903643,0.0365686376105981,-0.0009899295590689,-0.6940860477423102,0.0673397524453207,-0.0801954761593179,-0.0308721131956737,73.01321187691826,189.68301499317323,228.40748436344285,-4.094883440783296e-05
958,1724814823257106243,-1.8926459550857544,-0.3324861824512481,0.1605692058801651,0.0169867426156997,-0.0097836749628186,-0.3368382751941681,0.94135844707489,0.0,0.0,0.0,0.3260884573006013,1.7086790384501176,2.0154232329942237,1.971826097,0.2305025617799644,-0.6472414374120053,0.7816144817414168,9.900713073345983,-12.889239322498408,10.365954630689778,0.0385827702361052,-0.0069763765613954,-0.6873859511751795,0.0652998132961215,-0.0736645274308074,-0.0279786833521491,42.63212312590354,166.7308190063378,229.14725009474083,-0.0004754879210841
960,1724814823268029111,-1.891858696937561,-0.3329329788684845,0.1606210619211197,0.0170814841985702,-0.0101836407557129,-0.336637020111084,0.9414244890213012,0.0,0.0,0.0,0.0066666868297722,1.6622040299362215,2.318687454127245,1.982748965,0.0411534322142422,-0.0623524490243294,0.0398367576948215,-9.874773441083793,14.513095448317582,-16.845077310206108,0.0390292929302938,-0.0076738130252204,-0.6869775693666239,0.0763607316501548,-0.0419156641986653,0.0167906960082699,455.8585776284611,-618.3630648076692,-46.19841426403475,3.8972451184427187e-05
962,1724814823278182182,-1.891042947769165,-0.3333680927753448,0.1609051972627639,0.0166330281645059,-0.0115876905620098,-0.3349839150905609,0.9420058727264404,0.0,0.0,0.0,9.213193693522625,-10.411742449262494,1.1516079855631185,1.992902036,0.0113012863299505,-0.2833853292921441,0.3507390024180166,-2.442307599304119,-14.06082543811679,20.77644273746317,0.0391124051486832,-0.0106879548167049,-0.6835315661645318,0.0669345323966226,-0.0367836012027571,0.0235337349502622,11591.333416518384,-9710.52119018694,5732.8703874630855,0.0002672596736843
964,1724814823311322267,-1.8902753591537476,-0.3339303135871887,0.1612035930156707,0.0168609619140625,-0.0101732639595866,-0.3353640139102936,0.941882848739624,0.0,0.0,0.0,1549.1078460837566,-1253.9777960668207,823.7023252448741,2.026042121,-0.0157786822985823,0.0845504498595011,-0.0256748768406347,5226.3778899794725,-14986.234245053987,12698.66584223457,0.0385963673566675,-0.0078550067235774,-0.6842729110577568,1.469285218571713,-1.5627525086655396,0.1144281261324522,-529421.2189880502,510165.60284186294,-132126.30832440313,0.0002887944745146
966,1724814823311746606,-1.8896440267562864,-0.3346018493175506,0.1612527221441269,0.016842657700181,-0.0116215907037258,-0.3342958688735962,0.9422460794448853,0.0,0.0,0.0,1321.3247442720983,-1034.518810648221,766.783224181778,2.02646646,2.2303787659004226,-6.356179845310614,5.431923028500256,-205.80788825231863,13100.312220500771,-2830.4577107842733,0.0395224808960492,-0.0106401355398455,-0.6820749394209596,2.134819107856856,-2.101427378279368,0.4684177551454809,-703231.9826720431,650771.0998313809,-224581.65630771336,4.424850304386235e-05
968,1724814823312007348,-1.8889837265014648,-0.3352329134941101,0.1614313572645187,0.0170678254216909,-0.011487484909594,-0.3340226113796234,0.9423405528068542,0.0,0.0,0.0,1111.2965877685176,-843.4316169039566,693.7343942985732,2.026727202,1.2956631006450297,1.5903353586008002,2.1797972855490366,-3454.738204499157,29303.6612435258,-12008.080081514949,0.03985420946276,-0.0102483459182367,-0.6814905099953751,2.4397580407268205,-2.333530732006553,0.6575467433431859,-782469.5301774214,710971.8354953914,-273849.58223800187,0.0001721162507269
970,1724814823318586288,-1.8883092403411863,-0.3361877799034118,0.1611830592155456,0.0172096733003854,-0.0126673178747296,-0.3331497609615326,0.9426317811012268,0.0,0.0,0.0,-213.22642806848583,200.75453005225805,-60.8067361889993,2.033306142,0.1619762815133648,-0.3180393530062255,0.2852456136110392,-104.38458788808904,-172.11586433103915,-165.3239831191439,0.0408995504160474,-0.01241475463146,-0.6796997557928918,0.0885650505605895,-0.1248352782977679,-0.0263784716182069,-110631.71349095914,85897.19596685393,-65434.52139692385,-0.0002489919123975
972,1724814823328208462,-1.8876534700393677,-0.3371032178401947,0.161089152097702,0.0171958543360233,-0.0143088838085532,-0.3312606513500213,0.9432740211486816,0.0,0.0,0.0,-1.3679061288448162,2.477658699287372,2.7546788748854607,2.042928316,0.1136413276289556,-0.3141389017894488,0.4205126073837874,-19.62443916167567,0.8950317591867716,-0.1548110821495463,0.0419381411266272,-0.0156024099423261,-0.675781671677331,0.0655786350284159,-0.0925552737196611,-0.0042160240657285,10799.438528543113,-10138.432201314372,3183.1479310043846,-9.796694635514142e-05
974,1724814823337386535,-1.8870741128921509,-0.3379300832748413,0.1610989868640899,0.0158768650144338,-0.0153424432501196,-0.3300209641456604,0.9437154531478882,0.0,0.0,0.0,-0.4601402986654586,1.0665272855909969,2.0070165588771784,2.052106389,-0.1942985303335679,-0.3016374248846165,0.2946675164514528,-6.33483392935276,22.563084063511457,-16.81186854743816,0.040110742869992,-0.0184794567103239,-0.6731927696718567,0.0619621556118374,-0.0774936247876247,0.0250184803503001,45.51021350394103,-147.91530555355808,-173.7567902846004,3.3818251160291553e-06
976,1724814823347543914,-1.8864578008651731,-0.3385756015777588,0.1616223007440567,0.0163746532052755,-0.0146339228376746,-0.3295769095420837,0.9438732862472534,0.0,0.0,0.0,-0.5981065222409359,-0.3703124019920936,-0.7954014246237304,2.062263768,0.0473056693467394,0.1658683684338196,0.0890511327866083,4.3091012470730705,12.94494201909395,-2.935834332130634,0.040574079515652,-0.0168325173410074,-0.6722207796341745,0.0565452316484282,-0.0731187807668583,0.0321597188463718,12.177739304355338,-61.17545362979961,-142.34565091707356,0.0005128583640562
978,1724814823357923876,-1.88591468334198,-0.3394360542297363,0.1617507487535476,0.0157083477824926,-0.0147067429497838,-0.3284033238887787,0.9442924857139589,0.0,0.0,0.0,-0.1984485237070354,-0.1537233491586791,-0.8562794673207335,2.07264373,-0.1145665360898815,-0.050670753870663,0.2421622888834481,-3.439346343264253,-14.239493646354656,12.737008448121792,0.0393421783281568,-0.0174584733364296,-0.6697298454083089,0.0496494719752433,-0.085459350031865,0.008008677523275,23.133515800327036,90.3549479823546,69.37282227406644,0.000124855601363
980,1724814823367555530,-1.885460376739502,-0.3402820825576782,0.1617888659238815,0.015302694402635,-0.0152561841532588,-0.3268380165100097,0.9448333978652954,0.0,0.0,0.0,-0.1129946378176378,1.3375866563315943,0.4843176207569404,2.082275384,-0.0390573381970268,-0.1286399344109949,0.3468442694327255,4.777198086581494,8.414297149110467,4.137181297294566,0.0389063035977794,-0.0188272122938736,-0.6664396878390535,0.0519018376080282,-0.0776884276700151,0.0129028546809468,335.0279836865003,-897.2025931728778,39.741864966183755,3.6467383035727215e-05
982,1724814823377734626,-1.8848811388015747,-0.3409636914730072,0.1620164364576339,0.0153896072879433,-0.0145946089178323,-0.325306624174118,0.9453706741333008,0.0,0.0,0.0,6.805958328787968,-19.11257248308343,-0.1809380177949544,2.09245448,-0.0233750250565756,0.1346123520767349,0.3165434516586861,1.2861512583058372,19.573541447325685,-3.678066531101563,0.038608770425486,-0.0175828541166743,-0.6631662153988925,0.0470204162098308,-0.0583631018729418,0.0175765548653635,-388.41111871944776,-1620.3646475658345,1596.012319975431,0.0002189433262149
984,1724814823415274167,-1.8844844102859497,-0.3419642150402069,0.1620144844055175,0.0151767451316118,-0.0145763698965311,-0.3238653838634491,0.945869207382202,0.0,0.0,0.0,-155.6495541473032,-26.13192593598069,289.7361031446343,2.129994021,-0.010325369023881,-0.0012012301076659,0.081381306227139,16169.525917985064,-11806.80017435798,38376.76009483359,0.0381672686401828,-0.0177451653892271,-0.6601148222665295,1.3111357544012208,-3.68466507610151,-0.0778305805662284,-1003658.8743538122,2898390.78587248,-71090.70446591603,2.488954512056496e-06
986,1724814823415574459,-1.8840875625610352,-0.3430794775485992,0.1619909256696701,0.0156709011644125,-0.0153482183814048,-0.3222008943557739,0.9464172124862672,0.0,0.0,0.0,-459.4408199016163,851.1944335771132,268.19881171079106,2.130294313,4.8840945603885935,-3.5750417808071364,11.697816800466642,7416.390802931182,-6451.300021190874,15886.68866846813,0.0395702724600266,-0.0189544143110378,-0.6566458174472466,1.263940655976057,-3.692343011258913,0.0098769454727403,-959604.7998918424,2913536.9089775532,-157458.638097268,-1.702167876615293e-05
988,1724814823415863687,-1.8837380409240725,-0.3441413938999176,0.1620183885097503,0.0160894151777029,-0.0161198414862155,-0.3208385109901428,0.946860134601593,0.0,0.0,0.0,-722.4862785681507,1691.6309977904527,198.77333533727509,2.130583541,4.554715926825733,-3.9227457793792175,9.942063381589463,-1471.2157976357216,-723.5867544044328,-5946.894673714226,0.0408322599904378,-0.0202036369909231,-0.653817723397531,1.0468517620555249,-3.201912531213132,0.0807965634379677,-744409.0179937864,2426997.7508592117,-226917.6285040486,3.4527346804120445e-05
990,1724814823417419617,-1.8834619522094729,-0.3451923131942749,0.1620256155729293,0.0154269663617014,-0.016780475154519,-0.3195879757404327,0.9472824335098268,0.0,0.0,0.0,-499.09189869332744,1460.2251280948285,-44.480261118947205,2.132139471,-0.5166373360020562,-1.0426420257182516,1.7235730489823882,-2832.887386811739,1620.061387831708,-4614.3730278675885,0.0399733208206664,-0.0219329112152888,-0.6512030230964858,0.1578699869938766,-0.6035228425230734,0.0014435617352457,131088.1016067545,-147230.91281172022,-135592.0127916475,1.5163644934335764e-05
992,1724814823427897270,-1.883188843727112,-0.3464424014091491,0.1618148684501648,0.01423866674304,-0.0184558872133493,-0.3172214925289154,0.9480649828910828,0.0,0.0,0.0,-6.70846473266411,23.016686046437727,-1.2804581789338485,2.142617124,-0.1073857773946575,-0.3659627732608849,0.4843848342447163,25.397823456489412,55.29495904188468,-75.61289818553553,0.0387303036180633,-0.0259640556612372,-0.6462811652545954,0.0269010405916105,-0.1041952355957835,-0.0045683037637358,24295.78515323289,-71191.65126486059,2108.1351126667987,-0.0002034298328935
994,1724814823438850677,-1.8828846216201784,-0.3474106192588806,0.1619428396224975,0.0145303281024098,-0.0177997350692749,-0.3164585530757904,0.9483280181884766,0.0,0.0,0.0,-0.4950220440253547,-1.2842500536300694,-1.2614177254230938,2.153570531,0.0143706541294101,0.133349178639693,0.1446182047897395,-24.85983439628407,-21.686796071831463,10.4763591911315,0.038846278689985,-0.0245659525446578,-0.6446411062160993,0.019736120296514,-0.1342280591019431,-0.0266856903790326,278.79685281100484,-771.451674916892,138.5951626384168,0.0001305431797943
