seq,stamp,px,py,pz,ox,oy,oz,ow,lx,ly,lz,ax,ay,az
1442,1724914923149053680,-0.3674166202545166,0.14356796443462372,0.1713157296180725,-0.07063012570142746,-0.033422745764255524,-0.343235582113266,0.935993492603302,0.0,0.0,0.0,0.0,0.0,0.0
1444,1724914923151804782,-0.3673664331436157,0.1437227427959442,0.1714068353176117,-0.06933429837226868,-0.03240054473280907,-0.3418353199958801,0.9366385340690613,0.0,0.0,0.0,0.0,0.0,0.0
1446,1724914923162933832,-0.3674006462097168,0.14385287463665009,0.17133349180221558,-0.06952980905771255,-0.03218758851289749,-0.33958202600479126,0.9374505877494812,0.0,0.0,0.0,0.0,0.0,0.0
1448,1724914923174006258,-0.3673951327800751,0.1438872367143631,0.17131219804286957,-0.06904485821723938,-0.032038018107414246,-0.3377940058708191,0.9381372928619385,0.0,0.0,0.0,0.0,0.0,0.0
1450,1724914923182493777,-0.3673526346683502,0.14390607178211212,0.17130351066589355,-0.06857597082853317,-0.032202668488025665,-0.3360874056816101,0.938778817653656,0.0,0.0,0.0,0.0,0.0,0.0
1452,1724914923192002782,-0.3672988712787628,0.14387457072734833,0.17132645845413208,-0.06825071573257446,-0.032210949808359146,-0.3343943953514099,0.9394066333770752,0.0,0.0,0.0,0.0,0.0,0.0
1454,1724914923206552126,-0.3672810196876526,0.1438104212284088,0.17138248682022095,-0.0687723457813263,-0.03236548975110054,-0.33264750242233276,0.9399833083152771,0.0,0.0,0.0,0.0,0.0,0.0
1456,1724914923233044947,-0.3672698736190796,0.14369477331638336,0.1712883859872818,-0.06900009512901306,-0.032524723559617996,-0.3301968574523926,0.9408247470855713,0.0,0.0,0.0,0.0,0.0,0.0
1458,1724914923233348750,-0.3671800196170807,0.14362958073616028,0.17131337523460388,-0.06849478930234909,-0.03245200589299202,-0.328007310628891,0.9416297078132629,0.0,0.0,0.0,0.0,0.0,0.0
1460,1724914923233602045,-0.36718541383743286,0.14356712996959686,0.17133761942386627,-0.06853459030389786,-0.032261863350868225,-0.3266562223434448,0.9421029090881348,0.0,0.0,0.0,0.0,0.0,0.0
1462,1724914923268582320,-0.3672102987766266,0.143427312374115,0.17140479385852814,-0.06835303455591202,-0.03194853290915489,-0.32526227831840515,0.9426088929176331,0.0,0.0,0.0,0.0,0.0,0.0
1464,1724914923269090001,-0.36732226610183716,0.14328688383102417,0.17155632376670837,-0.06895285099744797,-0.031486254185438156,-0.32390955090522766,0.9430465698242188,0.0,0.0,0.0,0.0,0.0,0.0
1466,1724914923272300105,-0.3673767149448395,0.14316920936107635,0.17173442244529724,-0.06816882640123367,-0.03125717490911484,-0.3224773406982422,0.9436017870903015,0.0,0.0,0.0,0.0,0.0,0.0
1468,1724914923274611760,-0.36750707030296326,0.1430845856666565,0.1720390021800995,-0.06781724095344543,-0.030745968222618103,-0.3217111825942993,0.9439054131507874,0.0,0.0,0.0,0.0,0.0,0.0
1470,1724914923284853654,-0.36773881316185,0.1429508775472641,0.17223967611789703,-0.06835174560546875,-0.029938766732811928,-0.3205747604370117,0.9442793726921082,0.0,0.0,0.0,0.0,0.0,0.0
1472,1724914923292772556,-0.36801087856292725,0.14274781942367554,0.17233653366565704,-0.06910483539104462,-0.029474470764398575,-0.31911182403564453,0.9447346329689026,0.0,0.0,0.0,0.0,0.0,0.0
1474,1724914923303790477,-0.36830461025238037,0.14255192875862122,0.1724270135164261,-0.06897257268428802,-0.02917185053229332,-0.31741082668304443,0.9453265070915222,0.0,0.0,0.0,0.0,0.0,0.0
1476,1724914923312127561,-0.3686421513557434,0.1422610878944397,0.17253707349300385,-0.0693727359175682,-0.029621651396155357,-0.3157406151294708,0.9458425045013428,0.0,0.0,0.0,0.0,0.0,0.0
1478,1724914923325080086,-0.36888495087623596,0.14205816388130188,0.17263278365135193,-0.06813440471887589,-0.029884856194257736,-0.31427744030952454,0.9464112520217896,0.0,0.0,0.0,0.0,0.0,0.0
1480,1724914923334054967,-0.36911970376968384,0.14181013405323029,0.17266547679901123,-0.06745981425046921,-0.030029047280550003,-0.3127535879611969,0.9469597339630127,0.0,0.0,0.0,0.0,0.0,0.0
1482,1724914923342547270,-0.3693198263645172,0.14142118394374847,0.17291754484176636,-0.06648620963096619,-0.029786191880702972,-0.3115522861480713,0.9474321603775024,0.0,0.0,0.0,0.0,0.0,0.0
1484,1724914923352668878,-0.3694899082183838,0.14105306565761566,0.17344550788402557,-0.06536733359098434,-0.02879682369530201,-0.3098364770412445,0.9481029510498047,0.0,0.0,0.0,0.0,0.0,0.0
1486,1724914923363766629,-0.36969423294067383,0.1406169831752777,0.17422708868980408,-0.06418266892433167,-0.028013484552502632,-0.30815279483795166,0.9487559795379639,0.0,0.0,0.0,0.0,0.0,0.0
1488,1724914923371958650,-0.3698485791683197,0.1401059925556183,0.1752171367406845,-0.0640074759721756,-0.027082759886980057,-0.307593435049057,0.9489762187004089,0.0,0.0,0.0,0.0,0.0,0.0
1490,1724914923383482490,-0.36991918087005615,0.13980324566364288,0.17612195014953613,-0.06487206369638443,-0.0253681018948555,-0.3077850639820099,0.9489028453826904,0.0,0.0,0.0,0.0,0.0,0.0
1492,1724914923394228660,-0.3700646460056305,0.13926225900650024,0.17639324069023132,-0.06533367931842804,-0.026356926187872887,-0.3057718276977539,0.9494948983192444,0.0,0.0,0.0,0.0,0.0,0.0
1494,1724914923406460609,-0.3700409233570099,0.1388978213071823,0.17681299149990082,-0.06460872292518616,-0.026096291840076447,-0.30577605962753296,0.9495502710342407,0.0,0.0,0.0,0.0,0.0,0.0
1496,1724914923412546743,-0.37000012397766113,0.1385921984910965,0.1769036203622818,-0.06374301761388779,-0.02566058374941349,-0.3043704628944397,0.9500721096992493,0.0,0.0,0.0,0.0,0.0,0.0
1498,1724914923421904660,-0.37000879645347595,0.13837365806102753,0.17700253427028656,-0.06283450871706009,-0.025317242369055748,-0.30326783657073975,0.9504943490028381,0.0,0.0,0.0,0.0,0.0,0.0
1500,1724914923432775466,-0.370082825422287,0.13804277777671814,0.17715834081172943,-0.06274839490652084,-0.025668827816843987,-0.3025260269641876,0.9507270455360413,0.0,0.0,0.0,0.0,0.0,0.0
1502,1724914923442867666,-0.37016403675079346,0.1373988687992096,0.17751544713974,-0.06023829057812691,-0.025479290634393692,-0.3011268973350525,0.9513383507728577,0.0,0.0,0.0,0.0,0.0,0.0
1504,1724914923464107585,-0.37031906843185425,0.13661439716815948,0.17819663882255554,-0.057737890630960464,-0.025260809808969498,-0.2996479272842407,0.9519661068916321,0.0,0.0,0.0,0.0,0.0,0.0
1506,1724914923464435428,-0.37027424573898315,0.13597139716148376,0.17908574640750885,-0.0552026629447937,-0.024780182167887688,-0.29918134212493896,0.952275812625885,0.0,0.0,0.0,0.0,0.0,0.0
1508,1724914923503464737,-0.3700931966304779,0.13523653149604797,0.1799137443304062,-0.05185256898403168,-0.024378439411520958,-0.29900288581848145,0.9525304436683655,0.0,0.0,0.0,0.0,0.0,0.0
1510,1724914923504060717,-0.36986425518989563,0.1345285177230835,0.18077731132507324,-0.04916822910308838,-0.022594552487134933,-0.29923054575920105,0.9526453614234924,0.0,0.0,0.0,0.0,0.0,0.0
1512,1724914923504543471,-0.3695532977581024,0.13344193994998932,0.18123257160186768,-0.04638189449906349,-0.02296421490609646,-0.29808536171913147,0.9531351327896118,0.0,0.0,0.0,0.0,0.0,0.0
1514,1724914923504978296,-0.36935949325561523,0.13224492967128754,0.18154270946979523,-0.044385842978954315,-0.023036668077111244,-0.297283798456192,0.9534786939620972,0.0,0.0,0.0,0.0,0.0,0.0
1516,1724914923512017135,-0.3692254424095154,0.1312718689441681,0.18177977204322815,-0.0427425354719162,-0.022285789251327515,-0.2974066138267517,0.9535333514213562,0.0,0.0,0.0,0.0,0.0,0.0
1518,1724914923522120237,-0.36893749237060547,0.1303437501192093,0.18192090094089508,-0.03964030370116234,-0.022127890959382057,-0.297362744808197,0.9536846876144409,0.0,0.0,0.0,0.0,0.0,0.0
1520,1724914923532742284,-0.3685922622680664,0.12942583858966827,0.18199388682842255,-0.03721250966191292,-0.021040935069322586,-0.2968757450580597,0.9539588093757629,0.0,0.0,0.0,0.0,0.0,0.0
1522,1724914923542295515,-0.3683773875236511,0.12823806703090668,0.1820847988128662,-0.033794794231653214,-0.020429518073797226,-0.29540038108825684,0.9545571208000183,0.0,0.0,0.0,0.0,0.0,0.0
1524,1724914923553163139,-0.3683964014053345,0.12702597677707672,0.18220888078212738,-0.030072402209043503,-0.020191652700304985,-0.2943432629108429,0.9550131559371948,0.0,0.0,0.0,0.0,0.0,0.0
1526,1724914923561943396,-0.3683928847312927,0.1258866935968399,0.18254056572914124,-0.026101918891072273,-0.019679149612784386,-0.29456663131713867,0.9550716876983643,0.0,0.0,0.0,0.0,0.0,0.0
1528,1724914923572019429,-0.3685462474822998,0.12477540969848633,0.18278701603412628,-0.025345897302031517,-0.019327683374285698,-0.29470527172088623,0.9550564289093018,0.0,0.0,0.0,0.0,0.0,0.0
1530,1724914923584735548,-0.3687323033809662,0.1235673725605011,0.18299025297164917,-0.024799620732665062,-0.019742170348763466,-0.29492440819740295,0.9549947381019592,0.0,0.0,0.0,0.0,0.0,0.0
1532,1724914923591778771,-0.36884909868240356,0.12221461534500122,0.1830289661884308,-0.02099466137588024,-0.019592028111219406,-0.2941960394382477,0.9553135633468628,0.0,0.0,0.0,0.0,0.0,0.0
1534,1724914923602402320,-0.36895522475242615,0.12081809341907501,0.18311205506324768,-0.01861254684627056,-0.01837429590523243,-0.29332226514816284,0.9556558728218079,0.0,0.0,0.0,0.0,0.0,0.0
1536,1724914923613613375,-0.36908280849456787,0.1195840835571289,0.1833106130361557,-0.015515252016484737,-0.016950612887740135,-0.2940056025981903,0.9555274844169617,0.0,0.0,0.0,0.0,0.0,0.0
1538,1724914923622374398,-0.3692314028739929,0.118428535759449,0.1835704892873764,-0.013491732068359852,-0.015695393085479736,-0.2942691147327423,0.9554985165596008,0.0,0.0,0.0,0.0,0.0,0.0
1540,1724914923632487045,-0.3693394660949707,0.11721637845039368,0.18383149802684784,-0.011700253933668137,-0.014107874594628811,-0.2945321500301361,0.9554658532142639,0.0,0.0,0.0,0.0,0.0,0.0
1542,1724914923641863601,-0.3694947361946106,0.11583113670349121,0.18389303982257843,-0.009398020803928375,-0.013898700475692749,-0.29438531398773193,0.9555396437644958,0.0,0.0,0.0,0.0,0.0,0.0
1544,1724914923652736502,-0.36974626779556274,0.11451342701911926,0.18380595743656158,-0.006325284484773874,-0.01394613552838564,-0.29432213306427,0.9555836915969849,0.0,0.0,0.0,0.0,0.0,0.0
1546,1724914923662400053,-0.36999502778053284,0.1132056713104248,0.1837032586336136,-0.0038003362715244293,-0.013986833393573761,-0.29366037249565125,0.9557999968528748,0.0,0.0,0.0,0.0,0.0,0.0
1548,1724914923673257728,-0.37014734745025635,0.11208651214838028,0.18351875245571136,-0.0006310004973784089,-0.013576875440776348,-0.293630450963974,0.9558224678039551,0.0,0.0,0.0,0.0,0.0,0.0
1550,1724914923682115171,-0.37026548385620117,0.11099877953529358,0.18334440886974335,0.0009351130574941635,-0.013733120635151863,-0.29341405630111694,0.9558863639831543,0.0,0.0,0.0,0.0,0.0,0.0
1552,1724914923693559736,-0.3703240752220154,0.1098184883594513,0.18313349783420563,0.003399020293727517,-0.012267014011740685,-0.29284122586250305,0.9560763239860535,0.0,0.0,0.0,0.0,0.0,0.0
1554,1724914923702235305,-0.37028855085372925,0.10886894166469574,0.18321438133716583,0.006959311198443174,-0.009371385909616947,-0.29365646839141846,0.9558397531509399,0.0,0.0,0.0,0.0,0.0,0.0
1556,1724914923712459419,-0.37033841013908386,0.10781896859407425,0.1832212656736374,0.009701940231025219,-0.009576485492289066,-0.2941409945487976,0.955664873123169,0.0,0.0,0.0,0.0,0.0,0.0
1558,1724914923722523600,-0.3703811764717102,0.10664190351963043,0.18327495455741882,0.012113054282963276,-0.010601715184748173,-0.29367542266845703,0.9557696580886841,0.0,0.0,0.0,0.0,0.0,0.0
1560,1724914923734784897,-0.3704635202884674,0.10554970800876617,0.18307951092720032,0.013575059361755848,-0.01080767810344696,-0.2927713394165039,0.9560250639915466,0.0,0.0,0.0,0.0,0.0,0.0
1562,1724914923742680658,-0.3704996109008789,0.10454725474119186,0.18294286727905273,0.01539251022040844,-0.009095978923141956,-0.2940749228000641,0.9556151628494263,0.0,0.0,0.0,0.0,0.0,0.0
1564,1724914923752979211,-0.3705114424228668,0.10360561311244965,0.18291011452674866,0.018950607627630234,-0.006120454985648394,-0.2964079976081848,0.9548537731170654,0.0,0.0,0.0,0.0,0.0,0.0
1566,1724914923762549213,-0.3706727921962738,0.10265251994132996,0.18235662579536438,0.021080031991004944,-0.005018819123506546,-0.2975616753101349,0.9544566869735718,0.0,0.0,0.0,0.0,0.0,0.0
1568,1724914923774954118,-0.3708436191082001,0.10165727138519287,0.18156450986862183,0.02194530889391899,-0.00631514610722661,-0.29727497696876526,0.9545187950134277,0.0,0.0,0.0,0.0,0.0,0.0
1570,1724914923784331090,-0.37099379301071167,0.10066307336091995,0.18085509538650513,0.022533077746629715,-0.007782393600791693,-0.29610246419906616,0.954858660697937,0.0,0.0,0.0,0.0,0.0,0.0
1572,1724914923792749086,-0.3712114691734314,0.09977970272302628,0.18037381768226624,0.02297944761812687,-0.008143124170601368,-0.2956373691558838,0.9549890756607056,0.0,0.0,0.0,0.0,0.0,0.0
1574,1724914923803149444,-0.3712264895439148,0.09912583231925964,0.18007628619670868,0.024819912388920784,-0.006753315683454275,-0.29666242003440857,0.9546359777450562,0.0,0.0,0.0,0.0,0.0,0.0
1576,1724914923813015102,-0.37118446826934814,0.0985608771443367,0.17944110929965973,0.028112387284636497,-0.0047981273382902145,-0.29736533761024475,0.9543377757072449,0.0,0.0,0.0,0.0,0.0,0.0
1578,1724914923821939751,-0.37126901745796204,0.09779218584299088,0.17858819663524628,0.02941301465034485,-0.005225011613219976,-0.2974306643009186,0.9542760252952576,0.0,0.0,0.0,0.0,0.0,0.0
1580,1724914923832875710,-0.37128525972366333,0.09699621796607971,0.17803317308425903,0.030291223898530006,-0.004851620644330978,-0.29802456498146057,0.9540651440620422,0.0,0.0,0.0,0.0,0.0,0.0
1582,1724914923841886852,-0.3714076280593872,0.09611282497644424,0.17770057916641235,0.02815127931535244,-0.0051668062806129456,-0.2992081344127655,0.9537585973739624,0.0,0.0,0.0,0.0,0.0,0.0
1584,1724914923852308203,-0.37141484022140503,0.09519164264202118,0.17754817008972168,0.02901156060397625,-0.004421652760356665,-0.3012130558490753,0.9531052708625793,0.0,0.0,0.0,0.0,0.0,0.0
1586,1724914923861807038,-0.3715013861656189,0.09450897574424744,0.1768702119588852,0.03086395002901554,-0.003932729363441467,-0.30114230513572693,0.9530715346336365,0.0,0.0,0.0,0.0,0.0,0.0
1588,1724914923871781916,-0.3715931177139282,0.09392945468425751,0.17604504525661469,0.03245856240391731,-0.004033757373690605,-0.3006288409233093,0.953180193901062,0.0,0.0,0.0,0.0,0.0,0.0
1590,1724914923883378292,-0.3717266321182251,0.09317794442176819,0.17532265186309814,0.03233989328145981,-0.004767688922584057,-0.3015906810760498,0.9528769254684448,0.0,0.0,0.0,0.0,0.0,0.0
1592,1724914923896022592,-0.3718695044517517,0.09262014180421829,0.174685999751091,0.03461956977844238,-0.003348049707710743,-0.30332151055336,0.9522533416748047,0.0,0.0,0.0,0.0,0.0,0.0
1594,1724914923901882204,-0.37198406457901,0.09187483787536621,0.17445258796215057,0.03544805943965912,-0.0027782395482063293,-0.3068375885486603,0.9510975480079651,0.0,0.0,0.0,0.0,0.0,0.0
1596,1724914923913153663,-0.37205299735069275,0.09134245663881302,0.17397449910640717,0.034381695091724396,-0.002442390890792012,-0.3089926540851593,0.9504396319389343,0.0,0.0,0.0,0.0,0.0,0.0
1598,1724914923923511343,-0.3720678985118866,0.09087004512548447,0.17343367636203766,0.034705474972724915,-0.0023412348236888647,-0.31014853715896606,0.9500516057014465,0.0,0.0,0.0,0.0,0.0,0.0
1600,1724914923932578517,-0.37208229303359985,0.0903400257229805,0.172934889793396,0.03503435105085373,-0.0029980172403156757,-0.3110446035861969,0.9497446417808533,0.0,0.0,0.0,0.0,0.0,0.0
1602,1724914923944003631,-0.3719421923160553,0.09002479165792465,0.17266438901424408,0.03879910707473755,-0.0020795189775526524,-0.3120671808719635,0.9492652416229248,0.0,0.0,0.0,0.0,0.0,0.0
1604,1724914923952337702,-0.37187841534614563,0.08982311934232712,0.17234638333320618,0.040420688688755035,-0.0007999507361091673,-0.31305989623069763,0.9488725662231445,0.0,0.0,0.0,0.0,0.0,0.0
1606,1724914923961862125,-0.3718926012516022,0.08956832438707352,0.17208260297775269,0.04080604389309883,-0.00019789983343798667,-0.3149809241294861,0.948220431804657,0.0,0.0,0.0,0.0,0.0,0.0
1608,1724914923971975616,-0.3720128536224365,0.0892583504319191,0.17174722254276276,0.040224481374025345,-0.0005033109337091446,-0.31678780913352966,0.947642982006073,0.0,0.0,0.0,0.0,0.0,0.0
1610,1724914923982840162,-0.37201404571533203,0.08898346871137619,0.17138631641864777,0.04044260084629059,0.00028745303279720247,-0.3180786371231079,0.9472013115882874,0.0,0.0,0.0,0.0,0.0,0.0
1612,1724914923992037078,-0.3721369504928589,0.08869241923093796,0.17120279371738434,0.04023865610361099,0.00042113446397706866,-0.320525199174881,0.9463849067687988,0.0,0.0,0.0,0.0,0.0,0.0
1614,1724914924002489997,-0.3722752332687378,0.08841553330421448,0.17107468843460083,0.03936640918254852,0.00040818130946718156,-0.32273924350738525,0.9456688165664673,0.0,0.0,0.0,0.0,0.0,0.0
1616,1724914924011864884,-0.3723418712615967,0.08818024396896362,0.17082592844963074,0.04071369022130966,0.0009739269153214991,-0.3241305649280548,0.9451353549957275,0.0,0.0,0.0,0.0,0.0,0.0
1618,1724914924023021267,-0.37243008613586426,0.08793909847736359,0.17061012983322144,0.0399366170167923,0.0010524116223677993,-0.3255341351032257,0.9446859955787659,0.0,0.0,0.0,0.0,0.0,0.0
1620,1724914924032725572,-0.3724614083766937,0.08769423514604568,0.17040573060512543,0.03998860716819763,0.0007924694218672812,-0.326758474111557,0.9442611932754517,0.0,0.0,0.0,0.0,0.0,0.0
1622,1724914924041876928,-0.37250107526779175,0.08742322027683258,0.1700986623764038,0.03957858681678772,-0.0005876328214071691,-0.3275408148765564,0.9440075755119324,0.0,0.0,0.0,0.0,0.0,0.0
1624,1724914924052832740,-0.3724946677684784,0.08725805580615997,0.16998635232448578,0.040034472942352295,-0.0007794396951794624,-0.32879403233528137,0.9435523748397827,0.0,0.0,0.0,0.0,0.0,0.0
1626,1724914924061750035,-0.372453898191452,0.08709676563739777,0.16979418694972992,0.04137369617819786,-0.0009766045259311795,-0.32982850074768066,0.9431333541870117,0.0,0.0,0.0,0.0,0.0,0.0
1628,1724914924071861927,-0.3724157214164734,0.08698266744613647,0.16970206797122955,0.04153618961572647,-0.000640707730781287,-0.33089596033096313,0.942752480506897,0.0,0.0,0.0,0.0,0.0,0.0
1630,1724914924084596848,-0.372346967458725,0.08685460686683655,0.16964110732078552,0.04181784391403198,-0.0006035850965417922,-0.3319127559661865,0.9423825740814209,0.0,0.0,0.0,0.0,0.0,0.0
1632,1724914924092004793,-0.372318297624588,0.08672495186328888,0.16962029039859772,0.041168782860040665,-0.0003591177228372544,-0.3334403336048126,0.9418718814849854,0.0,0.0,0.0,0.0,0.0,0.0
1634,1724914924103037316,-0.3722519278526306,0.0866101011633873,0.16960392892360687,0.04149546101689339,0.00041420641355216503,-0.33527815341949463,0.941204845905304,0.0,0.0,0.0,0.0,0.0,0.0
1636,1724914924111801105,-0.37217387557029724,0.08654700219631195,0.16959986090660095,0.042414188385009766,0.0006189138512127101,-0.3364853858947754,0.9407328367233276,0.0,0.0,0.0,0.0,0.0,0.0
1638,1724914924123086068,-0.3720826804637909,0.08649569749832153,0.16965608298778534,0.04273928701877594,0.0008104638545773923,-0.3379717767238617,0.940185010433197,0.0,0.0,0.0,0.0,0.0,0.0
1640,1724914924138964580,-0.3719777464866638,0.08646498620510101,0.16969825327396393,0.042422644793987274,0.0008755005546845496,-0.33930230140686035,0.9397199749946594,0.0,0.0,0.0,0.0,0.0,0.0
1642,1724914924142124513,-0.3718380928039551,0.08639411628246307,0.16982921957969666,0.0425998754799366,0.0012596773449331522,-0.3412642180919647,0.9390007853507996,0.0,0.0,0.0,0.0,0.0,0.0
1644,1724914924152245910,-0.37173646688461304,0.08636391907930374,0.1698293387889862,0.04198002070188522,0.0014929763274267316,-0.3427939713001251,0.9384710192680359,0.0,0.0,0.0,0.0,0.0,0.0
1646,1724914924163615410,-0.3715989291667938,0.08633968234062195,0.1697365939617157,0.04192688688635826,0.0011735836742445827,-0.3438643217086792,0.9380820989608765,0.0,0.0,0.0,0.0,0.0,0.0
1648,1724914924173057893,-0.3714234232902527,0.08633358776569366,0.16976089775562286,0.04261109232902527,0.0016965194372460246,-0.34519484639167786,0.9375617504119873,0.0,0.0,0.0,0.0,0.0,0.0
1650,1724914924182903047,-0.3713054955005646,0.08632797002792358,0.16979998350143433,0.04215623810887337,0.0018680918728932738,-0.34648075699806213,0.9371075630187988,0.0,0.0,0.0,0.0,0.0,0.0
1652,1724914924192628855,-0.371203750371933,0.0862584263086319,0.16972912847995758,0.041711319237947464,0.0010887529933825135,-0.34764042496681213,0.9366990327835083,0.0,0.0,0.0,0.0,0.0,0.0
1654,1724914924207856668,-0.37113192677497864,0.08625051379203796,0.16975948214530945,0.04155159741640091,0.0009707247954793274,-0.34916651248931885,0.9361385107040405,0.0,0.0,0.0,0.0,0.0,0.0
1656,1724914924211582331,-0.37110579013824463,0.08622585982084274,0.16979067027568817,0.04125140234827995,0.0007716766558587551,-0.3508756458759308,0.9355127811431885,0.0,0.0,0.0,0.0,0.0,0.0
1658,1724914924223168439,-0.3711656630039215,0.08607151359319687,0.1699257642030716,0.04040016606450081,0.0005128619959577918,-0.35315263271331787,0.9346928596496582,0.0,0.0,0.0,0.0,0.0,0.0
1660,1724914924233499218,-0.3711142838001251,0.0860440731048584,0.1700797826051712,0.039960794150829315,0.0010608186712488532,-0.35497042536735535,0.9340224862098694,0.0,0.0,0.0,0.0,0.0,0.0
1662,1724914924241816981,-0.37107062339782715,0.08596675097942352,0.1701803058385849,0.03982814773917198,0.0014441014500334859,-0.3564954102039337,0.9334466457366943,0.0,0.0,0.0,0.0,0.0,0.0
1664,1724914924252899421,-0.37106674909591675,0.08589176833629608,0.1703041046857834,0.03960530832409859,0.0016542834928259254,-0.35774892568588257,0.9329760670661926,0.0,0.0,0.0,0.0,0.0,0.0
1666,1724914924261779311,-0.3710859417915344,0.08583994209766388,0.17042012512683868,0.0388692244887352,0.0018717765342444181,-0.358794629573822,0.9326050281524658,0.0,0.0,0.0,0.0,0.0,0.0
1668,1724914924272896731,-0.3711482584476471,0.08575518429279327,0.17053565382957458,0.03826059401035309,0.002411641413345933,-0.36030131578445435,0.932047963142395,0.0,0.0,0.0,0.0,0.0,0.0
1670,1724914924286552223,-0.37123221158981323,0.08574246615171432,0.17072555422782898,0.037082795053720474,0.0024255095049738884,-0.3620454668998718,0.9314194917678833,0.0,0.0,0.0,0.0,0.0,0.0
1672,1724914924291954407,-0.3713485300540924,0.08576039969921112,0.1708943098783493,0.03616223484277725,0.00197024829685688,-0.36372244358062744,0.9308030605316162,0.0,0.0,0.0,0.0,0.0,0.0
1674,1724914924302698705,-0.37150105834007263,0.0858839675784111,0.1711825281381607,0.03649132698774338,0.0009860851569101214,-0.3644808530807495,0.9304951429367065,0.0,0.0,0.0,0.0,0.0,0.0
1676,1724914924311978037,-0.3716752529144287,0.08610193431377411,0.1716523915529251,0.035593386739492416,0.00015569067909382284,-0.36551380157470703,0.9301251173019409,0.0,0.0,0.0,0.0,0.0,0.0
1678,1724914924322259702,-0.37171539664268494,0.0864587128162384,0.17226026952266693,0.036313172429800034,0.0004320157750044018,-0.3672800362110138,0.9294012188911438,0.0,0.0,0.0,0.0,0.0,0.0
1680,1724914924333411888,-0.3717581331729889,0.08684223890304565,0.17271657288074493,0.035810261964797974,0.0004203382704872638,-0.3683093190193176,0.9290132522583008,0.0,0.0,0.0,0.0,0.0,0.0
1682,1724914924341877815,-0.3717963695526123,0.08722523599863052,0.17308233678340912,0.03375580906867981,0.0002221626345999539,-0.36888113617897034,0.9288634657859802,0.0,0.0,0.0,0.0,0.0,0.0
1684,1724914924352171064,-0.371726930141449,0.08759667724370956,0.17369382083415985,0.03317919000983238,0.0014396237675100565,-0.36993464827537537,0.9284640550613403,0.0,0.0,0.0,0.0,0.0,0.0
1686,1724914924362109798,-0.3716212511062622,0.0879656970500946,0.17431671917438507,0.03444204851984978,0.0012305324198678136,-0.37036001682281494,0.9282487630844116,0.0,0.0,0.0,0.0,0.0,0.0
1688,1724914924372191228,-0.37148401141166687,0.08840157836675644,0.17489950358867645,0.03353380039334297,0.0017134803347289562,-0.37086400389671326,0.9280800223350525,0.0,0.0,0.0,0.0,0.0,0.0
1690,1724914924383815043,-0.37139931321144104,0.08886748552322388,0.1754523664712906,0.03189421445131302,0.0020135557278990746,-0.37145131826400757,0.927902340888977,0.0,0.0,0.0,0.0,0.0,0.0
1692,1724914924392441504,-0.3713001012802124,0.08940674364566803,0.17608729004859924,0.02939148247241974,0.001510497648268938,-0.37279051542282104,0.9274486899375916,0.0,0.0,0.0,0.0,0.0,0.0
1694,1724914924406721538,-0.37118715047836304,0.08999881893396378,0.17685078084468842,0.027994127944111824,0.0008641383610665798,-0.37471190094947815,0.9267181754112244,0.0,0.0,0.0,0.0,0.0,0.0
1696,1724914924413793299,-0.3711106777191162,0.09053715318441391,0.17786580324172974,0.026899954304099083,0.0007837500888854265,-0.3769875168800354,0.9258273243904114,0.0,0.0,0.0,0.0,0.0,0.0
1698,1724914924422868232,-0.37099504470825195,0.09125788509845734,0.1787390559911728,0.02666039764881134,0.00239204172976315,-0.37872979044914246,0.9251201152801514,0.0,0.0,0.0,0.0,0.0,0.0
1700,1724914924434221779,-0.3710253834724426,0.09187942743301392,0.17927666008472443,0.026357801631093025,0.0016629727324470878,-0.37983939051628113,0.9246754050254822,0.0,0.0,0.0,0.0,0.0,0.0
1702,1724914924506006664,-0.37092745304107666,0.0926489382982254,0.17995017766952515,0.025681190192699432,0.002262831898406148,-0.38195645809173584,0.9238206148147583,0.0,0.0,0.0,0.0,0.0,0.0
1704,1724914924506827276,-0.3707882761955261,0.09339934587478638,0.18015912175178528,0.022367404773831367,0.0008314174483530223,-0.38224998116493225,0.9237878322601318,0.0,0.0,0.0,0.0,0.0,0.0
1706,1724914924507191404,-0.37054166197776794,0.0940614864230156,0.18043319880962372,0.018319163471460342,-0.0018140663160011172,-0.38164621591567993,0.9241251945495605,0.0,0.0,0.0,0.0,0.0,0.0
1708,1724914924507627503,-0.3701276183128357,0.09483525156974792,0.1808214783668518,0.018014056608080864,-0.00304544810205698,-0.3808969557285309,0.9244370460510254,0.0,0.0,0.0,0.0,0.0,0.0
1710,1724914924507948482,-0.36945363879203796,0.09573868662118912,0.18141062557697296,0.01859566755592823,-0.001833953196182847,-0.3813951909542084,0.9242232441902161,0.0,0.0,0.0,0.0,0.0,0.0
1712,1724914924508256855,-0.36895331740379333,0.0967748612165451,0.1820739507675171,0.015494368970394135,-0.002934615360572934,-0.38334283232688904,0.9234715700149536,0.0,0.0,0.0,0.0,0.0,0.0
1714,1724914924508564370,-0.368305504322052,0.09801094233989716,0.18250298500061035,0.01494691800326109,-0.002715449780225754,-0.384543776512146,0.9229817390441895,0.0,0.0,0.0,0.0,0.0,0.0
1716,1724914924512908415,-0.36800968647003174,0.09909339994192123,0.18285606801509857,0.012329337187111378,-0.005273465067148209,-0.3854987919330597,0.922610878944397,0.0,0.0,0.0,0.0,0.0,0.0
1718,1724914924523518172,-0.3676525056362152,0.10032011568546295,0.18340295553207397,0.00916417594999075,-0.005744657013565302,-0.38768208026885986,0.9217296838760376,0.0,0.0,0.0,0.0,0.0,0.0
1720,1724914924533283250,-0.3673430383205414,0.10147608816623688,0.18376010656356812,0.0067198388278484344,-0.007215065881609917,-0.3893653154373169,0.9210307598114014,0.0,0.0,0.0,0.0,0.0,0.0
1722,1724914924541938523,-0.3670637607574463,0.10298813134431839,0.18356634676456451,0.0043234857730567455,-0.00807217601686716,-0.3894204795360565,0.9210146069526672,0.0,0.0,0.0,0.0,0.0,0.0
1724,1724914924553936970,-0.3667529821395874,0.1044396236538887,0.18329139053821564,0.0037386121693998575,-0.009171703830361366,-0.38934582471847534,0.9210384488105774,0.0,0.0,0.0,0.0,0.0,0.0
1726,1724914924563230548,-0.36647433042526245,0.10591579228639603,0.18325647711753845,0.0038575264625251293,-0.008576796390116215,-0.3900011479854584,0.9207663536071777,0.0,0.0,0.0,0.0,0.0,0.0
1728,1724914924573422481,-0.36641383171081543,0.1072777584195137,0.18316693603992462,0.0014240642776712775,-0.009859648533165455,-0.3915487229824066,0.9201035499572754,0.0,0.0,0.0,0.0,0.0,0.0
1730,1724914924584464462,-0.3662572503089905,0.10886790603399277,0.18278351426124573,-0.0002661841572262347,-0.010277122259140015,-0.3911267817020416,0.9202793836593628,0.0,0.0,0.0,0.0,0.0,0.0
1732,1724914924591980804,-0.36630621552467346,0.1105274185538292,0.18267978727817535,-0.003937488421797752,-0.012634444050490856,-0.3917984068393707,0.9199559688568115,0.0,0.0,0.0,0.0,0.0,0.0
1734,1724914924602222798,-0.3665139675140381,0.11231078207492828,0.18269039690494537,-0.008661325089633465,-0.013581322506070137,-0.3911583125591278,0.9201824069023132,0.0,0.0,0.0,0.0,0.0,0.0
1736,1724914924613050286,-0.3666457235813141,0.11380727589130402,0.18312616646289825,-0.010900870896875858,-0.013359255157411098,-0.3920752704143524,0.9197715520858765,0.0,0.0,0.0,0.0,0.0,0.0
1738,1724914924622165388,-0.3667077124118805,0.1150646060705185,0.183461531996727,-0.010280314832925797,-0.014219856821000576,-0.39191359281539917,0.9198346734046936,0.0,0.0,0.0,0.0,0.0,0.0
1740,1724914924634908333,-0.3669983744621277,0.11617187410593033,0.18365073204040527,-0.012982437387108803,-0.015816768631339073,-0.3916347622871399,0.9198931455612183,0.0,0.0,0.0,0.0,0.0,0.0
1742,1724914924642076168,-0.36742109060287476,0.11729039251804352,0.18364502489566803,-0.018520619720220566,-0.015885503962635994,-0.3906584680080414,0.9202122092247009,0.0,0.0,0.0,0.0,0.0,0.0
1744,1724914924652604402,-0.367527574300766,0.11852777004241943,0.18390482664108276,-0.02221790887415409,-0.01459205150604248,-0.3919111490249634,0.9196190237998962,0.0,0.0,0.0,0.0,0.0,0.0
1746,1724914924663450848,-0.3675241470336914,0.11968638002872467,0.18384063243865967,-0.023969653993844986,-0.014270455576479435,-0.3919309079647064,0.9195716977119446,0.0,0.0,0.0,0.0,0.0,0.0
1748,1724914924671866250,-0.36761474609375,0.12064807862043381,0.1835845559835434,-0.024237267673015594,-0.015691203996539116,-0.3915451765060425,0.919705867767334,0.0,0.0,0.0,0.0,0.0,0.0
1750,1724914924682102042,-0.3678053319454193,0.12167404592037201,0.18336182832717896,-0.025536222383379936,-0.016599932685494423,-0.39136162400245667,0.9197328090667725,0.0,0.0,0.0,0.0,0.0,0.0
1752,1724914924694924901,-0.36799994111061096,0.12311219424009323,0.18333852291107178,-0.028964778408408165,-0.01699150539934635,-0.39224502444267273,0.9192476272583008,0.0,0.0,0.0,0.0,0.0,0.0
1754,1724914924701789037,-0.36812305450439453,0.12443652004003525,0.183049276471138,-0.03185703977942467,-0.018961653113365173,-0.39076662063598633,0.919743001461029,0.0,0.0,0.0,0.0,0.0,0.0
1756,1724914924712490035,-0.3681560456752777,0.1254957765340805,0.18283548951148987,-0.03441668301820755,-0.020873038098216057,-0.38970041275024414,0.9200616478919983,0.0,0.0,0.0,0.0,0.0,0.0
1758,1724914924721809312,-0.36831191182136536,0.12655234336853027,0.18299107253551483,-0.039133019745349884,-0.021502749994397163,-0.38983383774757385,0.9198020696640015,0.0,0.0,0.0,0.0,0.0,0.0
1760,1724914924745921766,-0.36827507615089417,0.12738798558712006,0.1832467019557953,-0.03994936868548393,-0.02217445708811283,-0.39002087712287903,0.9196717143058777,0.0,0.0,0.0,0.0,0.0,0.0
1762,1724914924746540542,-0.3681427836418152,0.12807846069335938,0.1834210753440857,-0.03973837569355965,-0.022049838677048683,-0.3897150754928589,0.9198135137557983,0.0,0.0,0.0,0.0,0.0,0.0
1764,1724914924752218802,-0.36809977889060974,0.12880700826644897,0.18352004885673523,-0.041351623833179474,-0.02238173969089985,-0.38923150300979614,0.9199391007423401,0.0,0.0,0.0,0.0,0.0,0.0
1766,1724914924761809962,-0.3681142330169678,0.12944623827934265,0.1836782991886139,-0.04362669214606285,-0.023891376331448555,-0.3893384635448456,0.9197508096694946,0.0,0.0,0.0,0.0,0.0,0.0
1768,1724914924773693709,-0.3680662214756012,0.1299230307340622,0.1837843507528305,-0.04434667155146599,-0.02431599795818329,-0.3895130753517151,0.91963130235672,0.0,0.0,0.0,0.0,0.0,0.0
1770,1724914924782740402,-0.3682096302509308,0.13041076064109802,0.18373648822307587,-0.04661236330866814,-0.025086628273129463,-0.38906076550483704,0.9196900725364685,0.0,0.0,0.0,0.0,0.0,0.0
1772,1724914924798403652,-0.36815524101257324,0.13095781207084656,0.18345560133457184,-0.048760101199150085,-0.025223053991794586,-0.38797783851623535,0.9200324416160583,0.0,0.0,0.0,0.0,0.0,0.0
1774,1724914924802845645,-0.3680504858493805,0.1315823644399643,0.18278329074382782,-0.050870224833488464,-0.02580120414495468,-0.3863041400909424,0.9206061959266663,0.0,0.0,0.0,0.0,0.0,0.0
1776,1724914924811878446,-0.36789676547050476,0.13218866288661957,0.1817772388458252,-0.052553363144397736,-0.027850283309817314,-0.38503962755203247,0.9209815263748169,0.0,0.0,0.0,0.0,0.0,0.0
1778,1724914924821881834,-0.3677436113357544,0.1328563690185547,0.18069502711296082,-0.053438782691955566,-0.02878456749022007,-0.384700208902359,0.9210436940193176,0.0,0.0,0.0,0.0,0.0,0.0
1780,1724914924835395300,-0.3676912486553192,0.13339650630950928,0.17977556586265564,-0.05400927737355232,-0.029555952176451683,-0.3843304514884949,0.9211403727531433,0.0,0.0,0.0,0.0,0.0,0.0
1782,1724914924841901167,-0.3677205443382263,0.1339734047651291,0.17911776900291443,-0.056500472128391266,-0.029148638248443604,-0.38372349739074707,0.9212570190429688,0.0,0.0,0.0,0.0,0.0,0.0
1784,1724914924852397611,-0.3677137494087219,0.1343994438648224,0.17873269319534302,-0.05698154494166374,-0.029593179002404213,-0.38292017579078674,0.9215473532676697,0.0,0.0,0.0,0.0,0.0,0.0
1786,1724914924863415953,-0.3677428662776947,0.13479222357273102,0.17848432064056396,-0.056563954800367355,-0.030246304348111153,-0.38219061493873596,0.9218546152114868,0.0,0.0,0.0,0.0,0.0,0.0
1788,1724914924873131869,-0.3678338825702667,0.13511449098587036,0.17834539711475372,-0.05740472301840782,-0.030984072014689445,-0.3813994526863098,0.9221058487892151,0.0,0.0,0.0,0.0,0.0,0.0
1790,1724914924882777477,-0.36789217591285706,0.13548952341079712,0.1781461387872696,-0.0581810437142849,-0.031311310827732086,-0.3805362582206726,0.9224027395248413,0.0,0.0,0.0,0.0,0.0,0.0
1792,1724914924892039526,-0.3679144084453583,0.1358521580696106,0.17766910791397095,-0.06013006716966629,-0.031130747869610786,-0.37862420082092285,0.92307049036026,0.0,0.0,0.0,0.0,0.0,0.0
1794,1724914924905454047,-0.36790376901626587,0.136250302195549,0.17698335647583008,-0.061696894466876984,-0.031158965080976486,-0.3769242465496063,0.9236615896224976,0.0,0.0,0.0,0.0,0.0,0.0
1796,1724914924912163814,-0.36795005202293396,0.13673269748687744,0.1761053204536438,-0.0633259117603302,-0.03145010396838188,-0.375259131193161,0.9242193102836609,0.0,0.0,0.0,0.0,0.0,0.0
1798,1724914924922175624,-0.3680119216442108,0.13727830350399017,0.17505568265914917,-0.06536204367876053,-0.031835656613111496,-0.3730918765068054,0.9249415397644043,0.0,0.0,0.0,0.0,0.0,0.0
1800,1724914924932739335,-0.36796534061431885,0.1378857046365738,0.17444126307964325,-0.06480689346790314,-0.031530916690826416,-0.3722059428691864,0.9253478646278381,0.0,0.0,0.0,0.0,0.0,0.0
1802,1724914924942764436,-0.36798936128616333,0.13844546675682068,0.174077570438385,-0.06455535441637039,-0.031979240477085114,-0.3717045485973358,0.9255515933036804,0.0,0.0,0.0,0.0,0.0,0.0
1804,1724914924952621215,-0.36810967326164246,0.138958141207695,0.17354068160057068,-0.06598147004842758,-0.03259516879916191,-0.36975327134132385,0.9262108206748962,0.0,0.0,0.0,0.0,0.0,0.0
1806,1724914924963855762,-0.36815959215164185,0.13944993913173676,0.1729845404624939,-0.06557325273752213,-0.03296608477830887,-0.367768257856369,0.9270167350769043,0.0,0.0,0.0,0.0,0.0,0.0
1808,1724914924974145803,-0.3683154881000519,0.13994595408439636,0.17245133221149445,-0.06669390201568604,-0.0326855294406414,-0.3658033311367035,0.9277238249778748,0.0,0.0,0.0,0.0,0.0,0.0
1810,1724914924983025410,-0.36826270818710327,0.1404028832912445,0.17200593650341034,-0.06759807467460632,-0.032314885407686234,-0.363910049200058,0.9284157752990723,0.0,0.0,0.0,0.0,0.0,0.0
1812,1724914924992154723,-0.36814039945602417,0.14075171947479248,0.17164109647274017,-0.06640413403511047,-0.03259327635169029,-0.36266353726387024,0.9289798140525818,0.0,0.0,0.0,0.0,0.0,0.0
1814,1724914925005900412,-0.3680475950241089,0.141085684299469,0.17136649787425995,-0.06652248650789261,-0.03324257954955101,-0.3607941269874573,0.9296759366989136,0.0,0.0,0.0,0.0,0.0,0.0
1816,1724914925011736084,-0.36796340346336365,0.14144037663936615,0.1711786985397339,-0.06639589369297028,-0.033645644783973694,-0.3596087396144867,0.9301295876502991,0.0,0.0,0.0,0.0,0.0,0.0
1818,1724914925022380615,-0.3679066300392151,0.14171384274959564,0.17102696001529694,-0.0664956122636795,-0.033888790756464005,-0.3585529327392578,0.9305212497711182,0.0,0.0,0.0,0.0,0.0,0.0
1820,1724914925033134036,-0.3678419589996338,0.1419394463300705,0.17088375985622406,-0.06651602685451508,-0.03400062024593353,-0.3574240505695343,0.9309499263763428,0.0,0.0,0.0,0.0,0.0,0.0
1822,1724914925041918518,-0.3677652180194855,0.14214687049388885,0.170853391289711,-0.06662105768918991,-0.03388967737555504,-0.3562198281288147,0.9314079284667969,0.0,0.0,0.0,0.0,0.0,0.0
1824,1724914925054273119,-0.367775022983551,0.14238762855529785,0.17080183327198029,-0.06830307096242905,-0.03350989520549774,-0.3545893132686615,0.9319218993186951,0.0,0.0,0.0,0.0,0.0,0.0
1826,1724914925062518883,-0.3676965832710266,0.14258427917957306,0.17073923349380493,-0.06857628375291824,-0.03314646705985069,-0.3531635105609894,0.9324559569358826,0.0,0.0,0.0,0.0,0.0,0.0
1828,1724914925075455467,-0.36762550473213196,0.14277037978172302,0.17066875100135803,-0.06855485588312149,-0.03249003738164902,-0.35165131092071533,0.9330520033836365,0.0,0.0,0.0,0.0,0.0,0.0
1830,1724914925084343898,-0.3675878047943115,0.1428849995136261,0.17059652507305145,-0.06911803036928177,-0.03249030560255051,-0.3500980734825134,0.9335944056510925,0.0,0.0,0.0,0.0,0.0,0.0
1832,1724914925092020329,-0.36754217743873596,0.14300070703029633,0.17059451341629028,-0.06929481774568558,-0.03251544386148453,-0.3485603928565979,0.9341555833816528,0.0,0.0,0.0,0.0,0.0,0.0
1834,1724914925106454060,-0.36755672097206116,0.1431061029434204,0.17064033448696136,-0.06944429874420166,-0.032458312809467316,-0.3472045660018921,0.9346513152122498,0.0,0.0,0.0,0.0,0.0,0.0
1836,1724914925111778302,-0.3675691485404968,0.1432010680437088,0.17074397206306458,-0.06966408342123032,-0.03343944996595383,-0.3455141484737396,0.935226559638977,0.0,0.0,0.0,0.0,0.0,0.0
1838,1724914925155741938,-0.36760586500167847,0.14330065250396729,0.17080523073673248,-0.06938860565423965,-0.03349443897604942,-0.3442519009113312,0.9357103705406189,0.0,0.0,0.0,0.0,0.0,0.0
1840,1724914925156097091,-0.3676130175590515,0.1434788554906845,0.170859232544899,-0.06908904761075974,-0.03246857598423958,-0.3433600664138794,0.9360964298248291,0.0,0.0,0.0,0.0,0.0,0.0
1842,1724914925156427692,-0.36766374111175537,0.14353959262371063,0.17082470655441284,-0.06880178302526474,-0.032263509929180145,-0.3416794240474701,0.9367393255233765,0.0,0.0,0.0,0.0,0.0,0.0
1844,1724914925156746819,-0.3677012622356415,0.14357717335224152,0.17081418633460999,-0.06846180558204651,-0.03218533843755722,-0.34011486172676086,0.9373362064361572,0.0,0.0,0.0,0.0,0.0,0.0
1846,1724914925162920910,-0.36780351400375366,0.14362362027168274,0.17079296708106995,-0.06910821795463562,-0.03212888911366463,-0.3383964002132416,0.9379124641418457,0.0,0.0,0.0,0.0,0.0,0.0
1848,1724914925171986455,-0.3678588569164276,0.14373421669006348,0.17073072493076324,-0.06899218261241913,-0.03165566176176071,-0.33667004108428955,0.9385581612586975,0.0,0.0,0.0,0.0,0.0,0.0
1850,1724914925182980945,-0.36796048283576965,0.14368194341659546,0.17065885663032532,-0.06900717318058014,-0.03237634897232056,-0.33471789956092834,0.9392305016517639,0.0,0.0,0.0,0.0,0.0,0.0
1852,1724914925205392244,-0.36800962686538696,0.143655925989151,0.17068134248256683,-0.06828596442937851,-0.03238185495138168,-0.3332943618297577,0.9397890567779541,0.0,0.0,0.0,0.0,0.0,0.0
1854,1724914925208113741,-0.36808985471725464,0.14359150826931,0.17070463299751282,-0.06797438859939575,-0.03225941210985184,-0.33173081278800964,0.9403688311576843,0.0,0.0,0.0,0.0,0.0,0.0
1856,1724914925211840017,-0.3681733310222626,0.14354437589645386,0.17078199982643127,-0.06804797798395157,-0.03197295218706131,-0.3306843340396881,0.9407418370246887,0.0,0.0,0.0,0.0,0.0,0.0
1858,1724914925221817438,-0.36828678846359253,0.14345243573188782,0.1708090752363205,-0.06808733195066452,-0.03186635300517082,-0.3294602632522583,0.9411719441413879,0.0,0.0,0.0,0.0,0.0,0.0
1860,1724914925232958526,-0.36840519309043884,0.14327585697174072,0.17085112631320953,-0.06845901161432266,-0.031873732805252075,-0.32792043685913086,0.9416823983192444,0.0,0.0,0.0,0.0,0.0,0.0
1862,1724914925242081484,-0.3685291111469269,0.1431237906217575,0.17096787691116333,-0.0685235857963562,-0.031590986996889114,-0.32670173048973083,0.9421106576919556,0.0,0.0,0.0,0.0,0.0,0.0
1864,1724914925274215695,-0.368628591299057,0.14307424426078796,0.1711714267730713,-0.06776778399944305,-0.0303717739880085,-0.3258538246154785,0.9424991011619568,0.0,0.0,0.0,0.0,0.0,0.0
1866,1724914925274617420,-0.3687913417816162,0.14285412430763245,0.17130246758460999,-0.06779913604259491,-0.030406072735786438,-0.32432276010513306,0.9430236220359802,0.0,0.0,0.0,0.0,0.0,0.0
1868,1724914925274947351,-0.3690199851989746,0.14272767305374146,0.17142826318740845,-0.06879309564828873,-0.02984214760363102,-0.32245197892189026,0.9436109662055969,0.0,0.0,0.0,0.0,0.0,0.0
1870,1724914925286066448,-0.36919164657592773,0.14258766174316406,0.17160797119140625,-0.06917427480220795,-0.02903027832508087,-0.32127317786216736,0.9440104365348816,0.0,0.0,0.0,0.0,0.0,0.0
1872,1724914925292392259,-0.36939188838005066,0.14226490259170532,0.1716635525226593,-0.06919090449810028,-0.02947968803346157,-0.31933310627937317,0.9446533918380737,0.0,0.0,0.0,0.0,0.0,0.0
1874,1724914925302949183,-0.36950141191482544,0.1420665830373764,0.1718849092721939,-0.06826359033584595,-0.028528625145554543,-0.3174959123134613,0.9453691244125366,0.0,0.0,0.0,0.0,0.0,0.0
1876,1724914925325696607,-0.3696132302284241,0.14188094437122345,0.1721961796283722,-0.06740725785493851,-0.02763833850622177,-0.3161579668521881,0.9459052085876465,0.0,0.0,0.0,0.0,0.0,0.0
1878,1724914925326345797,-0.36975327134132385,0.14159229397773743,0.17257194221019745,-0.06666231155395508,-0.02843911573290825,-0.3149169385433197,0.9463480710983276,0.0,0.0,0.0,0.0,0.0,0.0
1880,1724914925333611018,-0.36988112330436707,0.14127010107040405,0.17285965383052826,-0.06615440547466278,-0.028318658471107483,-0.31372031569480896,0.9467846751213074,0.0,0.0,0.0,0.0,0.0,0.0
1882,1724914925341944299,-0.3700498938560486,0.14086554944515228,0.1731514185667038,-0.06522901356220245,-0.027815960347652435,-0.312188982963562,0.9473697543144226,0.0,0.0,0.0,0.0,0.0,0.0
1884,1724914925352186734,-0.3703550696372986,0.14040322601795197,0.17365041375160217,-0.0654805451631546,-0.027413172647356987,-0.31054216623306274,0.9479053616523743,0.0,0.0,0.0,0.0,0.0,0.0
1886,1724914925361857058,-0.37051698565483093,0.14011509716510773,0.1745859980583191,-0.06514748930931091,-0.025807693600654602,-0.3108143210411072,0.9478841423988342,0.0,0.0,0.0,0.0,0.0,0.0
1888,1724914925436757701,-0.37065330147743225,0.13962239027023315,0.1752151995897293,-0.06512070447206497,-0.02670780010521412,-0.309047669172287,0.9484384655952454,0.0,0.0,0.0,0.0,0.0,0.0
1890,1724914925437496876,-0.37079116702079773,0.1392282396554947,0.17565840482711792,-0.06470179557800293,-0.026643848046660423,-0.3074842691421509,0.948976993560791,0.0,0.0,0.0,0.0,0.0,0.0
1892,1724914925437737979,-0.370861291885376,0.13877342641353607,0.17616042494773865,-0.06276162713766098,-0.02598811313509941,-0.3065800964832306,0.9494178891181946,0.0,0.0,0.0,0.0,0.0,0.0
1894,1724914925438049302,-0.37101930379867554,0.138271763920784,0.176735520362854,-0.06085263565182686,-0.025950992479920387,-0.3044215738773346,0.9502373933792114,0.0,0.0,0.0,0.0,0.0,0.0
1896,1724914925438315478,-0.371165007352829,0.13768546283245087,0.17760387063026428,-0.059870924800634384,-0.02579396404325962,-0.30333027243614197,0.9506529569625854,0.0,0.0,0.0,0.0,0.0,0.0
1898,1724914925438603288,-0.37130945920944214,0.13724099099636078,0.17842000722885132,-0.06061183288693428,-0.024975664913654327,-0.3028950095176697,0.9507666230201721,0.0,0.0,0.0,0.0,0.0,0.0
1900,1724914925438894940,-0.37133410573005676,0.136757954955101,0.17892907559871674,-0.058903537690639496,-0.025314876809716225,-0.3018001914024353,0.951213002204895,0.0,0.0,0.0,0.0,0.0,0.0
1902,1724914925442234377,-0.37123528122901917,0.13609620928764343,0.1794363111257553,-0.05550326034426689,-0.025047676637768745,-0.30160680413246155,0.9514859318733215,0.0,0.0,0.0,0.0,0.0,0.0
1904,1724914925452220325,-0.3711329698562622,0.13546080887317657,0.17999404668807983,-0.05243826285004616,-0.023274563252925873,-0.3016987144947052,0.9516756534576416,0.0,0.0,0.0,0.0,0.0,0.0
1906,1724914925462426005,-0.3711089491844177,0.1347162127494812,0.18024978041648865,-0.05002540349960327,-0.02312590181827545,-0.30052071809768677,0.9521816968917847,0.0,0.0,0.0,0.0,0.0,0.0
1908,1724914925472631884,-0.37105798721313477,0.13397423923015594,0.18039043247699738,-0.04906947910785675,-0.02345169521868229,-0.29841509461402893,0.9528854489326477,0.0,0.0,0.0,0.0,0.0,0.0
1910,1724914925482968078,-0.37087783217430115,0.1330927312374115,0.18068720400333405,-0.04809005185961723,-0.023123012855648994,-0.2972296476364136,0.9533138275146484,0.0,0.0,0.0,0.0,0.0,0.0
1912,1724914925492018632,-0.3706773519515991,0.13206994533538818,0.18107302486896515,-0.045532990247011185,-0.022539403289556503,-0.2965470850467682,0.9536659121513367,0.0,0.0,0.0,0.0,0.0,0.0
1914,1724914925501894571,-0.3705020546913147,0.1310560405254364,0.18147769570350647,-0.0421517938375473,-0.02186928316950798,-0.2968769967556,0.953734278678894,0.0,0.0,0.0,0.0,0.0,0.0
1916,1724914925511947019,-0.370471715927124,0.13012391328811646,0.18176351487636566,-0.04046020284295082,-0.020873496308922768,-0.29755404591560364,0.9536189436912537,0.0,0.0,0.0,0.0,0.0,0.0
1918,1724914925522368207,-0.37045156955718994,0.12923605740070343,0.18191079795360565,-0.038590021431446075,-0.019861096516251564,-0.297336220741272,0.9537859559059143,0.0,0.0,0.0,0.0,0.0,0.0
1920,1724914925537111260,-0.3703196346759796,0.12827830016613007,0.18205034732818604,-0.03724828362464905,-0.019965337589383125,-0.2960790693759918,0.9542281031608582,0.0,0.0,0.0,0.0,0.0,0.0
1922,1724914925542016147,-0.37033313512802124,0.12707121670246124,0.18210981786251068,-0.03403422608971596,-0.01980961486697197,-0.2954849302768707,0.9545354843139648,0.0,0.0,0.0,0.0,0.0,0.0
1924,1724914925552845001,-0.37025555968284607,0.125792995095253,0.18226592242717743,-0.028753388673067093,-0.019098255783319473,-0.2955019474029541,0.9547184109687805,0.0,0.0,0.0,0.0,0.0,0.0
1926,1724914925561677919,-0.37028205394744873,0.12478786706924438,0.1825103759765625,-0.025707365944981575,-0.018147679045796394,-0.2957559823989868,0.9547451138496399,0.0,0.0,0.0,0.0,0.0,0.0
1928,1724914925571991447,-0.3703891634941101,0.12380969524383545,0.182484433054924,-0.023761890828609467,-0.018299203366041183,-0.29497405886650085,0.9550344944000244,0.0,0.0,0.0,0.0,0.0,0.0
1930,1724914925583511714,-0.37060949206352234,0.12260881811380386,0.18232858180999756,-0.022172780707478523,-0.0190090611577034,-0.2939099073410034,0.9553868770599365,0.0,0.0,0.0,0.0,0.0,0.0
1932,1724914925592091355,-0.37060001492500305,0.12134001404047012,0.18240363895893097,-0.019245894625782967,-0.017969509586691856,-0.29405316710472107,0.9554262757301331,0.0,0.0,0.0,0.0,0.0,0.0
1934,1724914925602151126,-0.3705812394618988,0.12010803818702698,0.18263712525367737,-0.015807177871465683,-0.016654597595334053,-0.29415345191955566,0.9554823637008667,0.0,0.0,0.0,0.0,0.0,0.0
1936,1724914925611775309,-0.3707113564014435,0.11893123388290405,0.18272928893566132,-0.015383473597466946,-0.01622045412659645,-0.2935195863246918,0.9556916356086731,0.0,0.0,0.0,0.0,0.0,0.0
1938,1724914925621905801,-0.3707484304904938,0.11781416088342667,0.18292631208896637,-0.0145689956843853,-0.01528327539563179,-0.293957382440567,0.9555853605270386,0.0,0.0,0.0,0.0,0.0,0.0
1940,1724914925632987497,-0.37077102065086365,0.11665066331624985,0.18287186324596405,-0.011571470648050308,-0.015265430323779583,-0.29316356778144836,0.9558703899383545,0.0,0.0,0.0,0.0,0.0,0.0
1942,1724914925642265695,-0.37078171968460083,0.11533290147781372,0.18279650807380676,-0.006933789234608412,-0.014491971582174301,-0.2932855784893036,0.9558899998664856,0.0,0.0,0.0,0.0,0.0,0.0
1944,1724914925652634534,-0.3709494471549988,0.11411011219024658,0.18288801610469818,-0.005195703357458115,-0.013393217697739601,-0.2937416732311249,0.9557769298553467,0.0,0.0,0.0,0.0,0.0,0.0
1946,1724914925678498203,-0.37114495038986206,0.11311685293912888,0.18291540443897247,-0.0011635792907327414,-0.010840079747140408,-0.2947574853897095,0.9555099606513977,0.0,0.0,0.0,0.0,0.0,0.0
1948,1724914925678771754,-0.3714689314365387,0.11197376251220703,0.1827050894498825,-0.001203949679620564,-0.011210011318325996,-0.2942308783531189,0.9556678533554077,0.0,0.0,0.0,0.0,0.0,0.0
1950,1724914925682271786,-0.37149229645729065,0.11095892637968063,0.1825384646654129,0.0006487801438197494,-0.010482742451131344,-0.29453155398368835,0.9555840492248535,0.0,0.0,0.0,0.0,0.0,0.0
1952,1724914925692334999,-0.37149107456207275,0.10995392501354218,0.18242275714874268,0.0058102537877857685,-0.009875555522739887,-0.2943420112133026,0.95563143491745,0.0,0.0,0.0,0.0,0.0,0.0
1954,1724914925702026805,-0.37162983417510986,0.1088983565568924,0.1824466437101364,0.009130156598985195,-0.009419269859790802,-0.293826699256897,0.9557687640190125,0.0,0.0,0.0,0.0,0.0,0.0
1956,1724914925711992113,-0.3718726336956024,0.10803915560245514,0.1826961785554886,0.010750621557235718,-0.00852181389927864,-0.2938595712184906,0.9557502269744873,0.0,0.0,0.0,0.0,0.0,0.0
1958,1724914925722599902,-0.3721538782119751,0.10713379830121994,0.1828325241804123,0.014826908707618713,-0.00796938594430685,-0.29410994052886963,0.9556233286857605,0.0,0.0,0.0,0.0,0.0,0.0
1960,1724914925732721352,-0.37236422300338745,0.10640272498130798,0.18302440643310547,0.0163121297955513,-0.006885328330099583,-0.29444625973701477,0.9555040001869202,0.0,0.0,0.0,0.0,0.0,0.0
1962,1724914925742683251,-0.37252873182296753,0.10563892126083374,0.1829342544078827,0.0177387073636055,-0.005598857998847961,-0.29463276267051697,0.9554295539855957,0.0,0.0,0.0,0.0,0.0,0.0
1964,1724914925752344434,-0.37274307012557983,0.10472652316093445,0.18279434740543365,0.01667899638414383,-0.006155282258987427,-0.2963782548904419,0.9549052715301514,0.0,0.0,0.0,0.0,0.0,0.0
1966,1724914925761802714,-0.37288913130760193,0.10382173210382462,0.18213056027889252,0.018717214465141296,-0.007022859062999487,-0.29656803607940674,0.9548024535179138,0.0,0.0,0.0,0.0,0.0,0.0
1968,1724914925774288585,-0.37293797731399536,0.10283768177032471,0.18111960589885712,0.02268952690064907,-0.007657954934984446,-0.2952350974082947,0.9551244974136353,0.0,0.0,0.0,0.0,0.0,0.0
1970,1724914925786967984,-0.37289851903915405,0.10203838348388672,0.18016815185546875,0.02497449517250061,-0.006105440203100443,-0.2951453924179077,0.9551064372062683,0.0,0.0,0.0,0.0,0.0,0.0
1972,1724914925791890879,-0.37285980582237244,0.10114339739084244,0.1796136200428009,0.025786787271499634,-0.005779806058853865,-0.2953256368637085,0.955031156539917,0.0,0.0,0.0,0.0,0.0,0.0
1974,1724914925806221021,-0.37294161319732666,0.1003420278429985,0.17906329035758972,0.02736811898648739,-0.005551935639232397,-0.2954943776130676,0.9549362659454346,0.0,0.0,0.0,0.0,0.0,0.0
1976,1724914925811673710,-0.3730950355529785,0.09961897134780884,0.17869073152542114,0.027249015867710114,-0.0056787654757499695,-0.29617926478385925,0.9547266960144043,0.0,0.0,0.0,0.0,0.0,0.0
1978,1724914925822480489,-0.3732908368110657,0.09905580431222916,0.1782451570034027,0.028504928573966026,-0.004660898819565773,-0.2974248230457306,0.954308271408081,0.0,0.0,0.0,0.0,0.0,0.0
1980,1724914925833380577,-0.3735838234424591,0.0985197126865387,0.17792829871177673,0.028810378164052963,-0.004680998157709837,-0.2987818121910095,0.9538750648498535,0.0,0.0,0.0,0.0,0.0,0.0
1982,1724914925846552794,-0.37377557158470154,0.09784340113401413,0.17755374312400818,0.029537813737988472,-0.004377833101898432,-0.30000510811805725,0.9534701108932495,0.0,0.0,0.0,0.0,0.0,0.0
1984,1724914925852749494,-0.37390249967575073,0.09721126407384872,0.17688648402690887,0.030519545078277588,-0.0037429442163556814,-0.3003774881362915,0.9533246755599976,0.0,0.0,0.0,0.0,0.0,0.0
1986,1724914925862450814,-0.3740350306034088,0.09646688401699066,0.17602801322937012,0.03235790878534317,-0.003680436173453927,-0.3005552589893341,0.9532082676887512,0.0,0.0,0.0,0.0,0.0,0.0
1988,1724914925872511087,-0.37399718165397644,0.09570769965648651,0.1754053384065628,0.03307165205478668,-0.0020137864630669355,-0.3021446466445923,0.9526861310005188,0.0,0.0,0.0,0.0,0.0,0.0
1990,1724914925883505755,-0.37396949529647827,0.09479290246963501,0.17452767491340637,0.03341025486588478,-0.003152710385620594,-0.30154210329055786,0.9528620839118958,0.0,0.0,0.0,0.0,0.0,0.0
1992,1724914925892443147,-0.37389039993286133,0.09401199221611023,0.1740093231201172,0.03440053015947342,-0.0032589149195700884,-0.3020089268684387,0.9526786804199219,0.0,0.0,0.0,0.0,0.0,0.0
1994,1724914925902230946,-0.3738149404525757,0.09322330355644226,0.17368268966674805,0.03679695725440979,-0.002490705344825983,-0.3039185702800751,0.9519839286804199,0.0,0.0,0.0,0.0,0.0,0.0
1996,1724914925913660541,-0.3738495707511902,0.09276781976222992,0.1736001819372177,0.03624753654003143,-0.0007413066923618317,-0.3056218922138214,0.9514625072479248,0.0,0.0,0.0,0.0,0.0,0.0
1998,1724914925921946191,-0.37385183572769165,0.0921502634882927,0.17318537831306458,0.03607923910021782,-0.0013634383212774992,-0.30622658133506775,0.9512737989425659,0.0,0.0,0.0,0.0,0.0,0.0
2000,1724914925933406819,-0.3738242983818054,0.09165068715810776,0.172736257314682,0.03644450381398201,-0.0019885243382304907,-0.3063122630119324,0.9512311816215515,0.0,0.0,0.0,0.0,0.0,0.0
2002,1724914925946919386,-0.3737834393978119,0.0911884605884552,0.17230254411697388,0.036308567970991135,-0.002212932100519538,-0.3073148727416992,0.9509124159812927,0.0,0.0,0.0,0.0,0.0,0.0
2004,1724914925952387188,-0.3738117516040802,0.09078633785247803,0.1718233972787857,0.03654933720827103,-0.002124592661857605,-0.30976009368896484,0.9501096606254578,0.0,0.0,0.0,0.0,0.0,0.0
2006,1724914925961872887,-0.37381958961486816,0.09046552330255508,0.1712668091058731,0.0382213220000267,-0.0005870050517842174,-0.3122342824935913,0.9492357969284058,0.0,0.0,0.0,0.0,0.0,0.0
2008,1724914925971636634,-0.3737545609474182,0.09012497216463089,0.170890212059021,0.0394684262573719,0.0004936896148137748,-0.3145746886730194,0.948411762714386,0.0,0.0,0.0,0.0,0.0,0.0
2010,1724914926002969291,-0.37369304895401,0.08972813189029694,0.17060092091560364,0.041010674089193344,0.0010609881719574332,-0.3163459897041321,0.9477564096450806,0.0,0.0,0.0,0.0,0.0,0.0
2012,1724914926003266128,-0.37368348240852356,0.0893033891916275,0.17060543596744537,0.04062841832637787,0.0010610362514853477,-0.31883540749549866,0.9469383955001831,0.0,0.0,0.0,0.0,0.0,0.0
2014,1724914926003586037,-0.3736465871334076,0.08874604105949402,0.17052000761032104,0.03980766981840134,0.0005239529418759048,-0.32047027349472046,0.9464216828346252,0.0,0.0,0.0,0.0,0.0,0.0
2016,1724914926011840886,-0.37355706095695496,0.08828747272491455,0.1703227162361145,0.04006064310669899,0.0006342984270304441,-0.32164812088012695,0.9460112452507019,0.0,0.0,0.0,0.0,0.0,0.0
2018,1724914926023359124,-0.3734242916107178,0.08772550523281097,0.17001178860664368,0.04016623646020889,-0.00022012816043570638,-0.32250460982322693,0.9457153677940369,0.0,0.0,0.0,0.0,0.0,0.0
2020,1724914926032821552,-0.3732827305793762,0.08730395883321762,0.1697089821100235,0.04023772105574608,-0.0005582969170063734,-0.3229491114616394,0.9455603957176208,0.0,0.0,0.0,0.0,0.0,0.0
2022,1724914926042278466,-0.37315288186073303,0.08699867129325867,0.16953180730342865,0.040314022451639175,-0.0003760835388675332,-0.324443519115448,0.945045530796051,0.0,0.0,0.0,0.0,0.0,0.0
2024,1724914926053158831,-0.3730030059814453,0.08670450747013092,0.1693204641342163,0.04203637316823006,1.820956458686851e-05,-0.3262871205806732,0.9443356394767761,0.0,0.0,0.0,0.0,0.0,0.0
2026,1724914926062384290,-0.37291884422302246,0.08645060658454895,0.16914786398410797,0.04218282178044319,-0.00038368423702195287,-0.32788118720054626,0.9437767267227173,0.0,0.0,0.0,0.0,0.0,0.0
2028,1724914926072809674,-0.3727871775627136,0.08627499639987946,0.1691005676984787,0.04417300596833229,0.0013981665251776576,-0.33012285828590393,0.9429028034210205,0.0,0.0,0.0,0.0,0.0,0.0
2030,1724914926083633181,-0.3728264272212982,0.08601892739534378,0.1689085215330124,0.04231424257159233,0.0010452745482325554,-0.3314289450645447,0.9425303339958191,0.0,0.0,0.0,0.0,0.0,0.0
2032,1724914926092008278,-0.3728107511997223,0.08592753112316132,0.16889925301074982,0.041897002607584,0.0014849795261397958,-0.33343762159347534,0.9418396949768066,0.0,0.0,0.0,0.0,0.0,0.0
2034,1724914926101919768,-0.3727753162384033,0.08590108901262283,0.16901671886444092,0.041233234107494354,0.002279125154018402,-0.33540287613868713,0.9411693215370178,0.0,0.0,0.0,0.0,0.0,0.0
2036,1724914926113182641,-0.37279146909713745,0.08585112541913986,0.16900676488876343,0.04122433811426163,0.0020747033413499594,-0.3366111218929291,0.9407386779785156,0.0,0.0,0.0,0.0,0.0,0.0
2038,1724914926122186213,-0.3727591931819916,0.08585813641548157,0.1690281331539154,0.041152797639369965,0.0024934476241469383,-0.3380484879016876,0.9402253031730652,0.0,0.0,0.0,0.0,0.0,0.0
2040,1724914926132725935,-0.37272968888282776,0.08587054163217545,0.16899366676807404,0.04130632430315018,0.002769540762528777,-0.33922457695007324,0.9397940039634705,0.0,0.0,0.0,0.0,0.0,0.0
2042,1724914926144523033,-0.3726057708263397,0.08590046316385269,0.16889607906341553,0.04196469113230705,0.002751794410869479,-0.3401387929916382,0.9394344091415405,0.0,0.0,0.0,0.0,0.0,0.0
2044,1724914926152515753,-0.3725656569004059,0.08589261025190353,0.1687711924314499,0.042026929557323456,0.0018169558607041836,-0.3413859009742737,0.9389814734458923,0.0,0.0,0.0,0.0,0.0,0.0
2046,1724914926162175861,-0.37242260575294495,0.08585269004106522,0.16882777214050293,0.04287758842110634,0.001660673413425684,-0.3430928587913513,0.9383208751678467,0.0,0.0,0.0,0.0,0.0,0.0
2048,1724914926172033854,-0.37235990166664124,0.08579269051551819,0.16896112263202667,0.042684171348810196,0.0019154587062075734,-0.34494730830192566,0.9376490712165833,0.0,0.0,0.0,0.0,0.0,0.0
2050,1724914926212709417,-0.37227335572242737,0.0857091173529625,0.1690332144498825,0.04282073304057121,0.0017664434853941202,-0.34642237424850464,0.9370991587638855,0.0,0.0,0.0,0.0,0.0,0.0
2052,1724914926212984772,-0.3722521960735321,0.08559851348400116,0.16911771893501282,0.04137032851576805,0.0012938680592924356,-0.3485375940799713,0.9363805055618286,0.0,0.0,0.0,0.0,0.0,0.0
2054,1724914926213238655,-0.3721485137939453,0.0856178030371666,0.16926774382591248,0.04214751720428467,0.0025883885100483894,-0.3510878086090088,0.9353898763656616,0.0,0.0,0.0,0.0,0.0,0.0
2056,1724914926213492127,-0.3721053898334503,0.08566615730524063,0.1692018210887909,0.042471885681152344,0.0030080899596214294,-0.3524610698223114,0.9348573684692383,0.0,0.0,0.0,0.0,0.0,0.0
2058,1724914926223110634,-0.3721131682395935,0.08562878519296646,0.16903634369373322,0.04196103289723396,0.0022993432357907295,-0.3534727394580841,0.9345003962516785,0.0,0.0,0.0,0.0,0.0,0.0
2060,1724914926232822458,-0.37209439277648926,0.08563181012868881,0.1691330522298813,0.042273640632629395,0.002802591072395444,-0.35569053888320923,0.9336430430412292,0.0,0.0,0.0,0.0,0.0,0.0
2062,1724914926242386345,-0.3721216320991516,0.0857115089893341,0.16929233074188232,0.04119256138801575,0.0030056373216211796,-0.35786765813827515,0.9328585267066956,0.0,0.0,0.0,0.0,0.0,0.0
2064,1724914926253359560,-0.3722243905067444,0.08578337728977203,0.16956087946891785,0.03941154107451439,0.0028338124975562096,-0.36004945635795593,0.9320960640907288,0.0,0.0,0.0,0.0,0.0,0.0
2066,1724914926262036642,-0.3723457157611847,0.08588970452547073,0.16979913413524628,0.03918833285570145,0.0033728647977113724,-0.36168166995048523,0.931471586227417,0.0,0.0,0.0,0.0,0.0,0.0
2068,1724914926272799335,-0.37247997522354126,0.08597059547901154,0.17001499235630035,0.039226219058036804,0.004047563765197992,-0.3626994788646698,0.931071400642395,0.0,0.0,0.0,0.0,0.0,0.0
2070,1724914926282802952,-0.37259727716445923,0.08607669174671173,0.17023326456546783,0.038839198648929596,0.0045090834610164165,-0.36391377449035645,0.9306116700172424,0.0,0.0,0.0,0.0,0.0,0.0
2072,1724914926294686565,-0.3727354109287262,0.08615844696760178,0.17049087584018707,0.0385928750038147,0.0043197255581617355,-0.36503708362579346,0.930182695388794,0.0,0.0,0.0,0.0,0.0,0.0
2074,1724914926302975129,-0.3729376792907715,0.08628861606121063,0.1708875149488449,0.0354737751185894,0.003042776370421052,-0.36660268902778625,0.9296960830688477,0.0,0.0,0.0,0.0,0.0,0.0
2076,1724914926311862166,-0.3730489909648895,0.08656047284603119,0.1713479906320572,0.035296209156513214,0.002905327593907714,-0.36783158779144287,0.9292177557945251,0.0,0.0,0.0,0.0,0.0,0.0
2078,1724914926324283651,-0.37310123443603516,0.08689988404512405,0.17170704901218414,0.0354716032743454,0.002191313309594989,-0.3684191405773163,0.9289802312850952,0.0,0.0,0.0,0.0,0.0,0.0
2080,1724914926335576504,-0.37313687801361084,0.0872800350189209,0.17211395502090454,0.034774016588926315,0.0022954249288886786,-0.36930516362190247,0.9286545515060425,0.0,0.0,0.0,0.0,0.0,0.0
2082,1724914926342207917,-0.37311670184135437,0.08775220811367035,0.172682985663414,0.03431761637330055,0.0030862009152770042,-0.37077775597572327,0.9280822277069092,0.0,0.0,0.0,0.0,0.0,0.0
2084,1724914926351996692,-0.37312906980514526,0.08809221535921097,0.17323702573776245,0.034592095762491226,0.0020242875907570124,-0.37155887484550476,0.9277625679969788,0.0,0.0,0.0,0.0,0.0,0.0
2086,1724914926362003278,-0.3729662597179413,0.0885322093963623,0.1739172339439392,0.0352054238319397,0.0017585514578968287,-0.3725791275501251,0.927330732345581,0.0,0.0,0.0,0.0,0.0,0.0
2088,1724914926372209163,-0.37285611033439636,0.08901433646678925,0.17457258701324463,0.03467288240790367,0.0019257282838225365,-0.37347212433815,0.9269911646842957,0.0,0.0,0.0,0.0,0.0,0.0
2090,1724914926384142833,-0.3728790283203125,0.0895264521241188,0.17525017261505127,0.03113258071243763,0.002282649977132678,-0.3747202455997467,0.926612377166748,0.0,0.0,0.0,0.0,0.0,0.0
2092,1724914926392011636,-0.3729226291179657,0.08995780348777771,0.17614035308361053,0.027524417266249657,0.0015522426692768931,-0.3774549067020416,0.925617516040802,0.0,0.0,0.0,0.0,0.0,0.0
2094,1724914926406031716,-0.37280797958374023,0.09041649103164673,0.17702463269233704,0.02609524503350258,0.0010859004687517881,-0.379008948802948,0.9250243902206421,0.0,0.0,0.0,0.0,0.0,0.0
2096,1724914926412302982,-0.37271788716316223,0.09089262783527374,0.17788228392601013,0.025724250823259354,0.00014843459939584136,-0.3795681595802307,0.9248060584068298,0.0,0.0,0.0,0.0,0.0,0.0
2098,1724914926422078383,-0.3727583885192871,0.09146910160779953,0.17843841016292572,0.025257008150219917,-0.00041903858073055744,-0.37952929735183716,0.9248348474502563,0.0,0.0,0.0,0.0,0.0,0.0
2100,1724914926432868575,-0.3727133274078369,0.0921241044998169,0.17917726933956146,0.025942817330360413,0.00173443672247231,-0.38104870915412903,0.9241893291473389,0.0,0.0,0.0,0.0,0.0,0.0
2102,1724914926444437438,-0.3727003037929535,0.0927659422159195,0.1796971708536148,0.023644182831048965,0.0017298171296715736,-0.3828584849834442,0.9235028624534607,0.0,0.0,0.0,0.0,0.0,0.0
2104,1724914926452593740,-0.37262797355651855,0.09343040734529495,0.18021813035011292,0.02077833190560341,0.0008103438303805888,-0.38457751274108887,0.9228584170341492,0.0,0.0,0.0,0.0,0.0,0.0
2106,1724914926462004423,-0.37246835231781006,0.09417358785867691,0.18045999109745026,0.020316200330853462,-0.00059180345851928,-0.3837036192417145,0.9232326149940491,0.0,0.0,0.0,0.0,0.0,0.0
2108,1724914926472022005,-0.3722223937511444,0.09500449150800705,0.18096435070037842,0.02002609148621559,-0.0010363071924075484,-0.3840036690235138,0.9231137633323669,0.0,0.0,0.0,0.0,0.0,0.0
2110,1724914926483329677,-0.3718360662460327,0.0960034430027008,0.1811964213848114,0.020052213221788406,-0.0019504236988723278,-0.38372084498405457,0.9232293963432312,0.0,0.0,0.0,0.0,0.0,0.0
2112,1724914926492220325,-0.37141913175582886,0.09708899259567261,0.18193739652633667,0.0147366002202034,-0.002239841502159834,-0.3857805132865906,0.9224702715873718,0.0,0.0,0.0,0.0,0.0,0.0
2114,1724914926501908915,-0.3710099756717682,0.09824410080909729,0.18227198719978333,0.011158454231917858,-0.004415993113070726,-0.3869542181491852,0.9220209121704102,0.0,0.0,0.0,0.0,0.0,0.0
2116,1724914926512634369,-0.37058040499687195,0.09965608268976212,0.18255046010017395,0.007942681200802326,-0.0050143105909228325,-0.3876185715198517,0.9217721223831177,0.0,0.0,0.0,0.0,0.0,0.0
2118,1724914926523042892,-0.3699066936969757,0.1008276641368866,0.18254625797271729,0.010049075819551945,-0.006114482413977385,-0.38656115531921387,0.9221887588500977,0.0,0.0,0.0,0.0,0.0,0.0
2120,1724914926532827110,-0.36933451890945435,0.1020602136850357,0.18266630172729492,0.008715247735381126,-0.006984257139265537,-0.3871060311794281,0.921967625617981,0.0,0.0,0.0,0.0,0.0,0.0
2122,1724914926542120931,-0.36882200837135315,0.10356421768665314,0.18302962183952332,0.004719490651041269,-0.007392021361738443,-0.3888917863368988,0.9212417006492615,0.0,0.0,0.0,0.0,0.0,0.0
2124,1724914926556978381,-0.36852508783340454,0.10502119362354279,0.18309086561203003,0.002237515989691019,-0.008464884012937546,-0.38898444175720215,0.9212027788162231,0.0,0.0,0.0,0.0,0.0,0.0
2126,1724914926562428400,-0.3682505786418915,0.10626597702503204,0.18316550552845,0.00018213882867712528,-0.010367053560912609,-0.3895261585712433,0.920957088470459,0.0,0.0,0.0,0.0,0.0,0.0
2128,1724914926572594977,-0.3678587079048157,0.1075214073061943,0.18330317735671997,0.0006465248879976571,-0.010697847232222557,-0.3904787600040436,0.9205495119094849,0.0,0.0,0.0,0.0,0.0,0.0
2130,1724914926582984613,-0.3676668405532837,0.10867074131965637,0.18328191339969635,-0.0004371032409835607,-0.012289426289498806,-0.3910008668899536,0.9203082323074341,0.0,0.0,0.0,0.0,0.0,0.0
2132,1724914926592235463,-0.36773720383644104,0.11018712818622589,0.18334226310253143,-0.006327854469418526,-0.012720253318548203,-0.39127272367477417,0.9201651811599731,0.0,0.0,0.0,0.0,0.0,0.0
2134,1724914926603113903,-0.3677562177181244,0.11151013523340225,0.18333974480628967,-0.01065078005194664,-0.01390132773667574,-0.39058077335357666,0.9204021096229553,0.0,0.0,0.0,0.0,0.0,0.0
2136,1724914926611997214,-0.3678034245967865,0.11248034238815308,0.18322721123695374,-0.011921847239136696,-0.015321916900575161,-0.3904038071632385,0.9204391241073608,0.0,0.0,0.0,0.0,0.0,0.0
2138,1724914926621978798,-0.3681112825870514,0.11347699910402298,0.18305249512195587,-0.014049159362912178,-0.015988541767001152,-0.39034053683280945,0.9204245209693909,0.0,0.0,0.0,0.0,0.0,0.0
2140,1724914926632144104,-0.36830225586891174,0.11452016234397888,0.1830778419971466,-0.014690336771309376,-0.01557906810194254,-0.39148563146591187,0.9199351072311401,0.0,0.0,0.0,0.0,0.0,0.0
2142,1724914926642069176,-0.3686767518520355,0.11566013842821121,0.18310794234275818,-0.019616469740867615,-0.017161455005407333,-0.39236515760421753,0.9194402098655701,0.0,0.0,0.0,0.0,0.0,0.0
2144,1724914926654029961,-0.36881858110427856,0.11683101952075958,0.182808980345726,-0.021402092650532722,-0.018777936697006226,-0.39060983061790466,0.9201158881187439,0.0,0.0,0.0,0.0,0.0,0.0
2146,1724914926672461748,-0.3690432608127594,0.11792472749948502,0.18256500363349915,-0.025012344121932983,-0.020048707723617554,-0.38971608877182007,0.9203770160675049,0.0,0.0,0.0,0.0,0.0,0.0
2148,1724914926672787265,-0.36899101734161377,0.11902447044849396,0.18253885209560394,-0.026169437915086746,-0.02012513391673565,-0.3904739320278168,0.9200218915939331,0.0,0.0,0.0,0.0,0.0,0.0
2150,1724914926683509825,-0.3688928186893463,0.12019611895084381,0.1826891452074051,-0.030050771310925484,-0.019835304468870163,-0.390489399433136,0.9199029803276062,0.0,0.0,0.0,0.0,0.0,0.0
2152,1724914926692865050,-0.3687763512134552,0.12136629223823547,0.18289493024349213,-0.03173214569687843,-0.01969216577708721,-0.3904709815979004,0.9198574423789978,0.0,0.0,0.0,0.0,0.0,0.0
2154,1724914926707747954,-0.3689557611942291,0.12242478132247925,0.18309490382671356,-0.0375186987221241,-0.022209979593753815,-0.39128220081329346,0.9192373752593994,0.0,0.0,0.0,0.0,0.0,0.0
2156,1724914926712474540,-0.36892905831336975,0.12339877337217331,0.18283234536647797,-0.038600414991378784,-0.023527823388576508,-0.39019107818603516,0.9196234941482544,0.0,0.0,0.0,0.0,0.0,0.0
2158,1724914926722925547,-0.3689139187335968,0.12430628389120102,0.18256212770938873,-0.038679566234350204,-0.024465229362249374,-0.3892118036746979,0.9200106263160706,0.0,0.0,0.0,0.0,0.0,0.0
2160,1724914926731896968,-0.3688412010669708,0.12524671852588654,0.18244118988513947,-0.03787476196885109,-0.024070052430033684,-0.38929036259651184,0.9200212359428406,0.0,0.0,0.0,0.0,0.0,0.0
2162,1724914926742046484,-0.3688826858997345,0.1262165606021881,0.18231698870658875,-0.04117568954825401,-0.024137195199728012,-0.38919737935066223,0.919917106628418,0.0,0.0,0.0,0.0,0.0,0.0
2164,1724914926752131228,-0.36886584758758545,0.1271158754825592,0.18208055198192596,-0.045108165591955185,-0.024965815246105194,-0.3884705603122711,0.9200177192687988,0.0,0.0,0.0,0.0,0.0,0.0
2166,1724914926762679271,-0.3688018023967743,0.12800177931785583,0.18173334002494812,-0.04579315334558487,-0.025733966380357742,-0.3883117735385895,0.9200297594070435,0.0,0.0,0.0,0.0,0.0,0.0
2168,1724914926772987931,-0.36877235770225525,0.12901107966899872,0.1815333366394043,-0.04825672507286072,-0.02584846317768097,-0.3889683187007904,0.9196231961250305,0.0,0.0,0.0,0.0,0.0,0.0
2170,1724914926847727428,-0.36872488260269165,0.1299465000629425,0.18118971586227417,-0.04981690272688866,-0.026354558765888214,-0.3883337676525116,0.9197938442230225,0.0,0.0,0.0,0.0,0.0,0.0
2172,1724914926848291925,-0.36865830421447754,0.13084685802459717,0.18077832460403442,-0.052155908197164536,-0.02692851424217224,-0.387212872505188,0.920120120048523,0.0,0.0,0.0,0.0,0.0,0.0
2174,1724914926848693037,-0.368483304977417,0.1317879855632782,0.18028680980205536,-0.052659351378679276,-0.02677498757839203,-0.38615888357162476,0.9205387234687805,0.0,0.0,0.0,0.0,0.0,0.0
2176,1724914926849227431,-0.3684408664703369,0.13256041705608368,0.1795637011528015,-0.05397096648812294,-0.027965394780039787,-0.38491880893707275,0.9209465384483337,0.0,0.0,0.0,0.0,0.0,0.0
2178,1724914926849472439,-0.3683834969997406,0.13333183526992798,0.1788819581270218,-0.05556808039546013,-0.028058337047696114,-0.3837748169898987,0.9213261604309082,0.0,0.0,0.0,0.0,0.0,0.0
2180,1724914926849821156,-0.36839166283607483,0.13405708968639374,0.17833225429058075,-0.056321628391742706,-0.029055379331111908,-0.38306960463523865,0.9215429425239563,0.0,0.0,0.0,0.0,0.0,0.0
2182,1724914926850072962,-0.36831676959991455,0.1348230093717575,0.17788293957710266,-0.056156061589717865,-0.029420437291264534,-0.3827275037765503,0.9216835498809814,0.0,0.0,0.0,0.0,0.0,0.0
2184,1724914926852338134,-0.3683258593082428,0.13552337884902954,0.1773282140493393,-0.05690605565905571,-0.02991117164492607,-0.3819986581802368,0.9219241142272949,0.0,0.0,0.0,0.0,0.0,0.0
2186,1724914926862722354,-0.3683714270591736,0.13616728782653809,0.17676110565662384,-0.05884064733982086,-0.03046756237745285,-0.3812527358531952,0.9220932126045227,0.0,0.0,0.0,0.0,0.0,0.0
2188,1724914926872913643,-0.3683164119720459,0.13683973252773285,0.1761464625597,-0.05924711003899574,-0.02999293804168701,-0.38034549355506897,0.9224573969841003,0.0,0.0,0.0,0.0,0.0,0.0
2190,1724914926883580777,-0.36849501729011536,0.1374775767326355,0.17536328732967377,-0.0604030005633831,-0.02984290011227131,-0.37852540612220764,0.9231356978416443,0.0,0.0,0.0,0.0,0.0,0.0
2192,1724914926892172420,-0.36854687333106995,0.13802003860473633,0.17484785616397858,-0.06091412901878357,-0.029700713232159615,-0.37747037410736084,0.9235385656356812,0.0,0.0,0.0,0.0,0.0,0.0
2194,1724914926902155839,-0.36859092116355896,0.1384851634502411,0.17446036636829376,-0.06219279021024704,-0.030301032587885857,-0.3766043782234192,0.9237873554229736,0.0,0.0,0.0,0.0,0.0,0.0
2196,1724914926912300619,-0.3686017394065857,0.13887037336826324,0.1739584356546402,-0.06248781457543373,-0.030584802851080894,-0.3755284249782562,0.9241960644721985,0.0,0.0,0.0,0.0,0.0,0.0
2198,1724914926921904583,-0.36868083477020264,0.13921768963336945,0.17345960438251495,-0.06339383125305176,-0.03083411417901516,-0.3742620646953583,0.9246396422386169,0.0,0.0,0.0,0.0,0.0,0.0
2200,1724914926932545416,-0.3686958849430084,0.13950690627098083,0.17307396233081818,-0.06315890699625015,-0.031093256548047066,-0.37303048372268677,0.925144612789154,0.0,0.0,0.0,0.0,0.0,0.0
2202,1724914926942713617,-0.36873260140419006,0.13977420330047607,0.17265258729457855,-0.06368009746074677,-0.031104035675525665,-0.37125083804130554,0.9258241653442383,0.0,0.0,0.0,0.0,0.0,0.0
2204,1724914926955163783,-0.3687489926815033,0.14002977311611176,0.17234250903129578,-0.06426696479320526,-0.030994998291134834,-0.36993247270584106,0.9263148307800293,0.0,0.0,0.0,0.0,0.0,0.0
2206,1724914926961867303,-0.3689354658126831,0.14021572470664978,0.17179132997989655,-0.06607122719287872,-0.03174027428030968,-0.3674190044403076,0.9271625876426697,0.0,0.0,0.0,0.0,0.0,0.0
2208,1724914926971985448,-0.3689652383327484,0.14056755602359772,0.1713213473558426,-0.06681348383426666,-0.031469494104385376,-0.3660917580127716,0.9276435375213623,0.0,0.0,0.0,0.0,0.0,0.0
2210,1724914926982751042,-0.36898621916770935,0.14084185659885406,0.17103157937526703,-0.06719908118247986,-0.031049000099301338,-0.364880234003067,0.9281070232391357,0.0,0.0,0.0,0.0,0.0,0.0
2212,1724914926992223012,-0.369029700756073,0.14111287891864777,0.1708390712738037,-0.06672532111406326,-0.030789799988269806,-0.3635936677455902,0.9286546111106873,0.0,0.0,0.0,0.0,0.0,0.0
2214,1724914927002073683,-0.36910000443458557,0.14129738509655,0.17057688534259796,-0.06631553918123245,-0.0309451911598444,-0.36204639077186584,0.929283082485199,0.0,0.0,0.0,0.0,0.0,0.0
2216,1724914927012014261,-0.3692391812801361,0.1414952129125595,0.1703905165195465,-0.06790487468242645,-0.031001204624772072,-0.36100345849990845,0.9295722246170044,0.0,0.0,0.0,0.0,0.0,0.0
2218,1724914927022953754,-0.36921095848083496,0.14166149497032166,0.17019596695899963,-0.06575115025043488,-0.03200817480683327,-0.35988545417785645,0.9301262497901917,0.0,0.0,0.0,0.0,0.0,0.0
2220,1724914927032438858,-0.3692418932914734,0.14184275269508362,0.17006975412368774,-0.06577332317829132,-0.03261993080377579,-0.3585793375968933,0.9306076765060425,0.0,0.0,0.0,0.0,0.0,0.0
2222,1724914927041994400,-0.3692532181739807,0.14196698367595673,0.16998401284217834,-0.06600172072649002,-0.03280698508024216,-0.3571760952472687,0.9311245083808899,0.0,0.0,0.0,0.0,0.0,0.0
2224,1724914927055969558,-0.3693363070487976,0.1420631855726242,0.16989953815937042,-0.06668659299612045,-0.033318765461444855,-0.35550597310066223,0.9316964745521545,0.0,0.0,0.0,0.0,0.0,0.0
2226,1724914927062046243,-0.36939260363578796,0.1421351134777069,0.16981428861618042,-0.06651697307825089,-0.033435285091400146,-0.35398152470588684,0.9322846531867981,0.0,0.0,0.0,0.0,0.0,0.0
2228,1724914927074704070,-0.36956074833869934,0.14223740994930267,0.16980458796024323,-0.06873133033514023,-0.0328989177942276,-0.35257452726364136,0.9326761960983276,0.0,0.0,0.0,0.0,0.0,0.0
2230,1724914927083894086,-0.36959922313690186,0.1423777937889099,0.16988606750965118,-0.06906213611364365,-0.03173803165555,-0.35206371545791626,0.9328849911689758,0.0,0.0,0.0,0.0,0.0,0.0
2232,1724914927092681188,-0.36963924765586853,0.14241184294223785,0.16989587247371674,-0.068635955452919,-0.03172743320465088,-0.35069218277931213,0.9334331750869751,0.0,0.0,0.0,0.0,0.0,0.0
2234,1724914927102214812,-0.3696596920490265,0.1424371302127838,0.16991440951824188,-0.06835108250379562,-0.03177861124277115,-0.34921014308929443,0.9340078234672546,0.0,0.0,0.0,0.0,0.0,0.0
2236,1724914927114382906,-0.36971914768218994,0.14247828722000122,0.16985972225666046,-0.0687476247549057,-0.03161118924617767,-0.34746259450912476,0.9346359372138977,0.0,0.0,0.0,0.0,0.0,0.0
2238,1724914927122942884,-0.36964303255081177,0.14262458682060242,0.1698923259973526,-0.06668002903461456,-0.031636349856853485,-0.3459479510784149,0.9353464841842651,0.0,0.0,0.0,0.0,0.0,0.0
2240,1724914927132711687,-0.3695969879627228,0.1426682025194168,0.16973721981048584,-0.06650946289300919,-0.03222506865859032,-0.34318920969963074,0.9363542199134827,0.0,0.0,0.0,0.0,0.0,0.0
2242,1724914927144782516,-0.3695434331893921,0.1427609771490097,0.16972342133522034,-0.06644049286842346,-0.03197352588176727,-0.34144583344459534,0.9370048642158508,0.0,0.0,0.0,0.0,0.0,0.0
2244,1724914927152090771,-0.3694700002670288,0.1428237408399582,0.16974711418151855,-0.06630771607160568,-0.03211681917309761,-0.3399878740310669,0.9375393390655518,0.0,0.0,0.0,0.0,0.0,0.0
2246,1724914927162041372,-0.36935168504714966,0.1429542750120163,0.16988413035869598,-0.06648857146501541,-0.031963568180799484,-0.3392496109008789,0.9377991557121277,0.0,0.0,0.0,0.0,0.0,0.0
2248,1724914927173579538,-0.36922088265419006,0.14302311837673187,0.16996672749519348,-0.06770912557840347,-0.03257269039750099,-0.3379426896572113,0.9381626844406128,0.0,0.0,0.0,0.0,0.0,0.0
2250,1724914927268677829,-0.36911535263061523,0.14301632344722748,0.1700068712234497,-0.0680270567536354,-0.032756268978118896,-0.3369024991989136,0.9385073781013489,0.0,0.0,0.0,0.0,0.0,0.0
2252,1724914927269135124,-0.36898988485336304,0.14304029941558838,0.1700512170791626,-0.06806869804859161,-0.03263828903436661,-0.3355295956134796,0.939000129699707,0.0,0.0,0.0,0.0,0.0,0.0
2254,1724914927269516020,-0.3689303398132324,0.14307133853435516,0.17009079456329346,-0.06834571808576584,-0.03226182609796524,-0.3334939479827881,0.9397179484367371,0.0,0.0,0.0,0.0,0.0,0.0
2256,1724914927269868647,-0.3688667416572571,0.14311055839061737,0.17008830606937408,-0.0679764524102211,-0.03247480094432831,-0.3312965929508209,0.940514326095581,0.0,0.0,0.0,0.0,0.0,0.0
2258,1724914927270149606,-0.36882898211479187,0.14314532279968262,0.1701001077890396,-0.0674995556473732,-0.03232011944055557,-0.32941964268684387,0.9412130117416382,0.0,0.0,0.0,0.0,0.0,0.0
2260,1724914927270414328,-0.36888810992240906,0.14311206340789795,0.1701085865497589,-0.06767122447490692,-0.03238542377948761,-0.32784783840179443,0.9417471289634705,0.0,0.0,0.0,0.0,0.0,0.0
2262,1724914927270636537,-0.3689051568508148,0.14311015605926514,0.17013627290725708,-0.06749983131885529,-0.032153911888599396,-0.326722651720047,0.9421582818031311,0.0,0.0,0.0,0.0,0.0,0.0
2264,1724914927270893601,-0.36893972754478455,0.14306394755840302,0.1702723503112793,-0.06717652827501297,-0.03194187581539154,-0.3262074291706085,0.9423670768737793,0.0,0.0,0.0,0.0,0.0,0.0
2266,1724914927271149458,-0.36897075176239014,0.14308013021945953,0.1705235093832016,-0.06715263426303864,-0.030764272436499596,-0.32614126801490784,0.942430853843689,0.0,0.0,0.0,0.0,0.0,0.0
2268,1724914927272798838,-0.3690354526042938,0.1429605633020401,0.17068621516227722,-0.06694487482309341,-0.030417373403906822,-0.3256174921989441,0.9426379799842834,0.0,0.0,0.0,0.0,0.0,0.0
2270,1724914927282786934,-0.36913198232650757,0.1428060382604599,0.17081469297409058,-0.06686193495988846,-0.03020630031824112,-0.3248106837272644,0.9429289698600769,0.0,0.0,0.0,0.0,0.0,0.0
2272,1724914927292049203,-0.3692920207977295,0.14251533150672913,0.1708349734544754,-0.06633604317903519,-0.030209992080926895,-0.3227550983428955,0.9436715841293335,0.0,0.0,0.0,0.0,0.0,0.0
2274,1724914927303429181,-0.3695065975189209,0.1422436684370041,0.17123091220855713,-0.06695263087749481,-0.02902226150035858,-0.3211410939693451,0.9442157745361328,0.0,0.0,0.0,0.0,0.0,0.0
2276,1724914927312155548,-0.369783490896225,0.14187106490135193,0.17158161103725433,-0.06768227368593216,-0.02868453413248062,-0.31858956813812256,0.9450381398200989,0.0,0.0,0.0,0.0,0.0,0.0
2278,1724914927322133315,-0.3700408637523651,0.14150725305080414,0.1719517856836319,-0.0680498480796814,-0.02827191911637783,-0.316614031791687,0.9456878304481506,0.0,0.0,0.0,0.0,0.0,0.0
2280,1724914927333465363,-0.3702235519886017,0.14115774631500244,0.17217572033405304,-0.06561874598264694,-0.028527380898594856,-0.3148130476474762,0.9464529752731323,0.0,0.0,0.0,0.0,0.0,0.0
2282,1724914927342203788,-0.3705367147922516,0.14077207446098328,0.17247211933135986,-0.06541308015584946,-0.027827294543385506,-0.3136325776576996,0.9468798637390137,0.0,0.0,0.0,0.0,0.0,0.0
2284,1724914927353062700,-0.3708687424659729,0.14040490984916687,0.17297133803367615,-0.06539483368396759,-0.0276095662266016,-0.31286829710006714,0.9471402168273926,0.0,0.0,0.0,0.0,0.0,0.0
2286,1724914927362207850,-0.3710644841194153,0.14010833203792572,0.17384466528892517,-0.06469399482011795,-0.02595406398177147,-0.31338784098625183,0.9470634460449219,0.0,0.0,0.0,0.0,0.0,0.0
2288,1724914927372407923,-0.3712751269340515,0.13968905806541443,0.17449712753295898,-0.06432034820318222,-0.025448357686400414,-0.3125017583370209,0.947395384311676,0.0,0.0,0.0,0.0,0.0,0.0
2290,1724914927382677162,-0.37149548530578613,0.13914932310581207,0.17494498193264008,-0.06435072422027588,-0.026029054075479507,-0.3108998239040375,0.9479044079780579,0.0,0.0,0.0,0.0,0.0,0.0
2292,1724914927392325134,-0.3715963661670685,0.13872042298316956,0.17557361721992493,-0.0620051734149456,-0.025241849943995476,-0.3097038269042969,0.9484734535217285,0.0,0.0,0.0,0.0,0.0,0.0
2294,1724914927403413503,-0.37165358662605286,0.1381855309009552,0.1762247383594513,-0.06034030392765999,-0.02538246102631092,-0.30767449736595154,0.9492372274398804,0.0,0.0,0.0,0.0,0.0,0.0
2296,1724914927412292567,-0.3717624247074127,0.13759033381938934,0.17706888914108276,-0.059803590178489685,-0.025079654529690742,-0.30617833137512207,0.9497628808021545,0.0,0.0,0.0,0.0,0.0,0.0
2298,1724914927421946978,-0.3717896342277527,0.13713723421096802,0.17794249951839447,-0.06039084121584892,-0.024789635092020035,-0.30510902404785156,0.9500773549079895,0.0,0.0,0.0,0.0,0.0,0.0
2300,1724914927432745895,-0.3718165457248688,0.13663025200366974,0.17852352559566498,-0.05956597253680229,-0.02463313564658165,-0.3041003942489624,0.9504567980766296,0.0,0.0,0.0,0.0,0.0,0.0
2302,1724914927444414038,-0.37173792719841003,0.1361117959022522,0.17902682721614838,-0.05573537200689316,-0.02405758947134018,-0.3035028278827667,0.9508947730064392,0.0,0.0,0.0,0.0,0.0,0.0
2304,1724914927452836668,-0.37169092893600464,0.13540714979171753,0.17936210334300995,-0.05251126363873482,-0.02346673607826233,-0.302358478307724,0.9514574408531189,0.0,0.0,0.0,0.0,0.0,0.0
2306,1724914927465348864,-0.37168630957603455,0.13474377989768982,0.17955681681632996,-0.04975622892379761,-0.023343848064541817,-0.30112698674201965,0.9519990086555481,0.0,0.0,0.0,0.0,0.0,0.0
2308,1724914927482277281,-0.3717392683029175,0.13395707309246063,0.17967505753040314,-0.04834851995110512,-0.0238684993237257,-0.2991073727607727,0.9526948928833008,0.0,0.0,0.0,0.0,0.0,0.0
2310,1724914927482894499,-0.37176233530044556,0.13317841291427612,0.17993076145648956,-0.047845687717199326,-0.023447910323739052,-0.29790210723876953,0.9531082510948181,0.0,0.0,0.0,0.0,0.0,0.0
2312,1724914927492653509,-0.37155669927597046,0.13220591843128204,0.18031252920627594,-0.044570498168468475,-0.022426709532737732,-0.2969364821910858,0.9535927772521973,0.0,0.0,0.0,0.0,0.0,0.0
2314,1724914927506436913,-0.3714587092399597,0.1311817765235901,0.18066388368606567,-0.041391465812921524,-0.02091825008392334,-0.2972642779350281,0.9536682367324829,0.0,0.0,0.0,0.0,0.0,0.0
2316,1724914927511911124,-0.37148573994636536,0.13031716644763947,0.18090279400348663,-0.039828769862651825,-0.02020885795354843,-0.29741719365119934,0.9537023901939392,0.0,0.0,0.0,0.0,0.0,0.0
2318,1724914927523547314,-0.37143638730049133,0.1294085532426834,0.18107135593891144,-0.038128405809402466,-0.020161207765340805,-0.2970157563686371,0.953898012638092,0.0,0.0,0.0,0.0,0.0,0.0
2320,1724914927532656851,-0.37134721875190735,0.12847551703453064,0.18127670884132385,-0.035696595907211304,-0.01923416368663311,-0.296619713306427,0.9541345238685608,0.0,0.0,0.0,0.0,0.0,0.0
2322,1724914927542196807,-0.37152862548828125,0.12741385400295258,0.18124863505363464,-0.03500504046678543,-0.020311439409852028,-0.29558321833610535,0.9544594287872314,0.0,0.0,0.0,0.0,0.0,0.0
2324,1724914927553112653,-0.37159454822540283,0.12648732960224152,0.1814962476491928,-0.031085971742868423,-0.019944675266742706,-0.29598742723464966,0.9544775485992432,0.0,0.0,0.0,0.0,0.0,0.0
2326,1724914927565175880,-0.3716996908187866,0.12546586990356445,0.18154959380626678,-0.02780798450112343,-0.02016395702958107,-0.2954317331314087,0.9547462463378906,0.0,0.0,0.0,0.0,0.0,0.0
2328,1724914927572082844,-0.37193870544433594,0.124353788793087,0.1814560443162918,-0.027296457439661026,-0.02128995768725872,-0.2936546206474304,0.955284595489502,0.0,0.0,0.0,0.0,0.0,0.0
2330,1724914927585179960,-0.37222540378570557,0.12318768352270126,0.18147531151771545,-0.025916432961821556,-0.021244458854198456,-0.29314783215522766,0.9554797410964966,0.0,0.0,0.0,0.0,0.0,0.0
2332,1724914927592066035,-0.3724116086959839,0.12162347137928009,0.18149475753307343,-0.02278435230255127,-0.02022474817931652,-0.2920248210430145,0.9559253454208374,0.0,0.0,0.0,0.0,0.0,0.0
2334,1724914927602339196,-0.37261635065078735,0.12001757323741913,0.18179558217525482,-0.01956263929605484,-0.01925288327038288,-0.29334354400634766,0.9556130170822144,0.0,0.0,0.0,0.0,0.0,0.0
2336,1724914927612656249,-0.37284111976623535,0.11862949281930923,0.18174831569194794,-0.019677210599184036,-0.018961219117045403,-0.293330579996109,0.955620527267456,0.0,0.0,0.0,0.0,0.0,0.0
2338,1724914927621843835,-0.3726952373981476,0.11739347130060196,0.18176405131816864,-0.016725534573197365,-0.016870561987161636,-0.2932366728782654,0.955744743347168,0.0,0.0,0.0,0.0,0.0,0.0
2340,1724914927632322721,-0.37257200479507446,0.11614814400672913,0.18179205060005188,-0.013010219670832157,-0.015727482736110687,-0.29262208938598633,0.9560104012489319,0.0,0.0,0.0,0.0,0.0,0.0
2342,1724914927641987762,-0.37245452404022217,0.11505013704299927,0.1819392740726471,-0.009689155966043472,-0.012863096781075,-0.29283687472343445,0.9560268521308899,0.0,0.0,0.0,0.0,0.0,0.0
2344,1724914927668490548,-0.37242332100868225,0.11395697295665741,0.1820070445537567,-0.00648634135723114,-0.011093814857304096,-0.293186753988266,0.9559689164161682,0.0,0.0,0.0,0.0,0.0,0.0
2346,1724914927668780142,-0.3727412521839142,0.11281444877386093,0.1817602515220642,-0.0072719985619187355,-0.012411991134285927,-0.29384735226631165,0.955744206905365,0.0,0.0,0.0,0.0,0.0,0.0
2348,1724914927673147222,-0.37302306294441223,0.11183241754770279,0.18142059445381165,-0.006601250730454922,-0.01312540378421545,-0.29393741488456726,0.9557117819786072,0.0,0.0,0.0,0.0,0.0,0.0
2350,1724914927682482307,-0.37322819232940674,0.11092276871204376,0.1809544414281845,-0.002815036103129387,-0.011160374619066715,-0.29341936111450195,0.9559144973754883,0.0,0.0,0.0,0.0,0.0,0.0
2352,1724914927692353875,-0.37345457077026367,0.10978808999061584,0.18076057732105255,0.0005354548920877278,-0.009932841174304485,-0.2922019362449646,0.9563049077987671,0.0,0.0,0.0,0.0,0.0,0.0
2354,1724914927704066541,-0.37356406450271606,0.10863009840250015,0.18079347908496857,0.005710306111723185,-0.007208812050521374,-0.2919291853904724,0.9563958048820496,0.0,0.0,0.0,0.0,0.0,0.0
2356,1724914927713026881,-0.3736023008823395,0.1075206845998764,0.18087048828601837,0.00862424448132515,-0.006647675298154354,-0.29192641377449036,0.9563788175582886,0.0,0.0,0.0,0.0,0.0,0.0
2358,1724914927733312062,-0.3735141158103943,0.10656651109457016,0.18131843209266663,0.009309103712439537,-0.0052169994451105595,-0.2932606637477875,0.9559730291366577,0.0,0.0,0.0,0.0,0.0,0.0
2360,1724914927733624376,-0.3731125295162201,0.10560692101716995,0.18170179426670074,0.011131120845675468,-0.004654410295188427,-0.2931586802005768,0.9559876918792725,0.0,0.0,0.0,0.0,0.0,0.0
2362,1724914927743045808,-0.3728838562965393,0.10466007143259048,0.18174833059310913,0.011311138048768044,-0.0058832792565226555,-0.2936440706253052,0.9558297991752625,0.0,0.0,0.0,0.0,0.0,0.0
2364,1724914927755221571,-0.3726571500301361,0.10360542684793472,0.18139179050922394,0.013331277295947075,-0.0066914851777255535,-0.29402387142181396,0.9556816816329956,0.0,0.0,0.0,0.0,0.0,0.0
2366,1724914927762447758,-0.37244540452957153,0.10262013226747513,0.180594801902771,0.01667456328868866,-0.006040660664439201,-0.2950987219810486,0.9553021788597107,0.0,0.0,0.0,0.0,0.0,0.0
2368,1724914927772965499,-0.37231531739234924,0.10182057321071625,0.1798114776611328,0.02001374401152134,-0.0057925269939005375,-0.2956337332725525,0.9550741910934448,0.0,0.0,0.0,0.0,0.0,0.0
2370,1724914927783647811,-0.3721766769886017,0.10118111968040466,0.1791481226682663,0.022564219310879707,-0.005655783228576183,-0.2948738634586334,0.9552530646324158,0.0,0.0,0.0,0.0,0.0,0.0
2372,1724914927792322211,-0.3720753490924835,0.10047486424446106,0.17854340374469757,0.02343655563890934,-0.00619926955550909,-0.2940828204154968,0.955472469329834,0.0,0.0,0.0,0.0,0.0,0.0
2374,1724914927804038042,-0.3719787895679474,0.09974708408117294,0.17813614010810852,0.02614254131913185,-0.00582656217738986,-0.29479336738586426,0.9551856517791748,0.0,0.0,0.0,0.0,0.0,0.0
2376,1724914927811948630,-0.37191638350486755,0.09907594323158264,0.17751391232013702,0.027745390310883522,-0.006215189583599567,-0.29499536752700806,0.9550755620002747,0.0,0.0,0.0,0.0,0.0,0.0
2378,1724914927846664647,-0.3717571794986725,0.09848109632730484,0.17702747881412506,0.02878229320049286,-0.0058677345514297485,-0.2957439720630646,0.9548155069351196,0.0,0.0,0.0,0.0,0.0,0.0
2380,1724914927846977185,-0.3716619610786438,0.09779605269432068,0.17673823237419128,0.028812047094106674,-0.005320054944604635,-0.29686835408210754,0.954468846321106,0.0,0.0,0.0,0.0,0.0,0.0
2382,1724914927847232217,-0.37164542078971863,0.09703678637742996,0.17665091156959534,0.027812635526061058,-0.005565138533711433,-0.29896116256713867,0.9538437128067017,0.0,0.0,0.0,0.0,0.0,0.0
2384,1724914927852846404,-0.3716626465320587,0.09639475494623184,0.1761714518070221,0.02827230654656887,-0.005091638769954443,-0.30002906918525696,0.9534974098205566,0.0,0.0,0.0,0.0,0.0,0.0
2386,1724914927884704277,-0.3716500699520111,0.09561972320079803,0.1756540834903717,0.031001588329672813,-0.004007263109087944,-0.3023688495159149,0.952678382396698,0.0,0.0,0.0,0.0,0.0,0.0
2388,1724914927884951244,-0.3717832565307617,0.09480733424425125,0.17452386021614075,0.03256790712475777,-0.004611172713339329,-0.30225181579589844,0.9526604413986206,0.0,0.0,0.0,0.0,0.0,0.0
2390,1724914927885197029,-0.3719065487384796,0.09418118745088577,0.17383484542369843,0.034425657242536545,-0.0027076657861471176,-0.3031907379627228,0.9523040652275085,0.0,0.0,0.0,0.0,0.0,0.0
2392,1724914927891912860,-0.3720608055591583,0.09343837201595306,0.17311866581439972,0.03597164526581764,-0.0022365597542375326,-0.30382654070854187,0.9520455002784729,0.0,0.0,0.0,0.0,0.0,0.0
2394,1724914927902085700,-0.37237703800201416,0.0927751436829567,0.17268912494182587,0.03537943214178085,-0.0024730449076741934,-0.305753618478775,0.9514499306678772,0.0,0.0,0.0,0.0,0.0,0.0
2396,1724914927912216979,-0.37252411246299744,0.09202331304550171,0.17215251922607422,0.03597269579768181,-0.003846345702186227,-0.3062984347343445,0.9512478709220886,0.0,0.0,0.0,0.0,0.0,0.0
2398,1724914927922017840,-0.37264108657836914,0.09144311398267746,0.1718096286058426,0.035191070288419724,-0.0035153478384017944,-0.30778592824935913,0.9507981538772583,0.0,0.0,0.0,0.0,0.0,0.0
2400,1724914927933750843,-0.3727057874202728,0.091040700674057,0.17158088088035583,0.03521488606929779,-0.0031020038295537233,-0.30933877825737,0.9502946734428406,0.0,0.0,0.0,0.0,0.0,0.0
2402,1724914927942886932,-0.37266916036605835,0.09072476625442505,0.17128455638885498,0.037465669214725494,-0.0014585367171093822,-0.3106203079223633,0.949794352054596,0.0,0.0,0.0,0.0,0.0,0.0
2404,1724914927952405217,-0.3728224039077759,0.09039028733968735,0.1709827333688736,0.03783629462122917,-0.0011430105660110712,-0.31295862793922424,0.9490121603012085,0.0,0.0,0.0,0.0,0.0,0.0
2406,1724914927962146550,-0.37296244502067566,0.09002845734357834,0.1708110272884369,0.03935334086418152,0.00044997467193752527,-0.3159887492656708,0.9479463696479797,0.0,0.0,0.0,0.0,0.0,0.0
2408,1724914927972947534,-0.3730752468109131,0.08963916450738907,0.17035257816314697,0.04028172791004181,0.0012645873939618468,-0.3177195191383362,0.9473278522491455,0.0,0.0,0.0,0.0,0.0,0.0
2410,1724914927983266603,-0.373275488615036,0.08925458043813705,0.1700061708688736,0.03932381793856621,0.0006410072091966867,-0.3191641867160797,0.9468831419944763,0.0,0.0,0.0,0.0,0.0,0.0
2412,1724914927992209985,-0.37340566515922546,0.08878564834594727,0.16980300843715668,0.03975539281964302,0.00019080231140833348,-0.3207024037837982,0.9463453888893127,0.0,0.0,0.0,0.0,0.0,0.0
2414,1724914928007539231,-0.37348848581314087,0.08848302811384201,0.16946591436862946,0.03946272283792496,-7.05938073224388e-05,-0.32174980640411377,0.9460019469261169,0.0,0.0,0.0,0.0,0.0,0.0
2416,1724914928011801372,-0.3734995126724243,0.0881916731595993,0.16932298243045807,0.03920014947652817,-0.00019141517987009138,-0.3233473002910614,0.9454681277275085,0.0,0.0,0.0,0.0,0.0,0.0
2418,1724914928022483576,-0.3734913170337677,0.08790683001279831,0.16926980018615723,0.03983336687088013,-0.0004827659286092967,-0.32511401176452637,0.9448354840278625,0.0,0.0,0.0,0.0,0.0,0.0
2420,1724914928032458909,-0.37345415353775024,0.0876983180642128,0.16906726360321045,0.04029369726777077,-0.0006841787835583091,-0.3259900212287903,0.9445138573646545,0.0,0.0,0.0,0.0,0.0,0.0
2422,1724914928041911406,-0.37341204285621643,0.08755732327699661,0.1688305288553238,0.04116230085492134,-0.00017502508126199245,-0.3271848261356354,0.9440634846687317,0.0,0.0,0.0,0.0,0.0,0.0
2424,1724914928053026699,-0.37331637740135193,0.0874406099319458,0.16878053545951843,0.042619626969099045,0.001379117602482438,-0.32914039492607117,0.9433177709579468,0.0,0.0,0.0,0.0,0.0,0.0
2426,1724914928062076634,-0.3732929527759552,0.08729449659585953,0.1686282604932785,0.04345827177166939,0.0019063339568674564,-0.3303704261779785,0.9428485035896301,0.0,0.0,0.0,0.0,0.0,0.0
2428,1724914928075892200,-0.37335342168807983,0.08700602501630783,0.16817423701286316,0.04390532150864601,0.0005414013867266476,-0.33083221316337585,0.9426676034927368,0.0,0.0,0.0,0.0,0.0,0.0
2430,1724914928083504718,-0.3733990490436554,0.08683373034000397,0.16806712746620178,0.04266142100095749,0.0011658313451334834,-0.33216118812561035,0.9422566890716553,0.0,0.0,0.0,0.0,0.0,0.0
2432,1724914928092225372,-0.373440682888031,0.08667260408401489,0.16809159517288208,0.04321815446019173,0.0016794982366263866,-0.33428508043289185,0.9414790868759155,0.0,0.0,0.0,0.0,0.0,0.0
2434,1724914928102479137,-0.3734601140022278,0.08653852343559265,0.16805392503738403,0.04275975748896599,0.0011944214347749949,-0.3353317975997925,0.9411284327507019,0.0,0.0,0.0,0.0,0.0,0.0
2436,1724914928111934830,-0.3733949661254883,0.086492620408535,0.1681624799966812,0.0422186553478241,0.0017030907329171896,-0.33690181374549866,0.9405912756919861,0.0,0.0,0.0,0.0,0.0,0.0
2438,1724914928122281409,-0.3734288215637207,0.0864722728729248,0.16823643445968628,0.041775479912757874,0.0024665771052241325,-0.3386893570423126,0.939967155456543,0.0,0.0,0.0,0.0,0.0,0.0
2440,1724914928133288837,-0.37342527508735657,0.08640731126070023,0.16824115812778473,0.04142618551850319,0.0027486751787364483,-0.34025314450263977,0.9394169449806213,0.0,0.0,0.0,0.0,0.0,0.0
2442,1724914928142170681,-0.37328481674194336,0.08641833066940308,0.1683897227048874,0.04266197606921196,0.004186487291008234,-0.3422420918941498,0.9386335015296936,0.0,0.0,0.0,0.0,0.0,0.0
2444,1724914928155809702,-0.37317800521850586,0.0864064022898674,0.1684405356645584,0.042727213352918625,0.004523356910794973,-0.3437853455543518,0.9380647540092468,0.0,0.0,0.0,0.0,0.0,0.0
2446,1724914928162661614,-0.3732169568538666,0.08622964471578598,0.16830651462078094,0.04081515595316887,0.002676450414583087,-0.3452230989933014,0.937628984451294,0.0,0.0,0.0,0.0,0.0,0.0
2448,1724914928172138426,-0.37313681840896606,0.08613742142915726,0.16833603382110596,0.040673237293958664,0.002489430131390691,-0.34702935814857483,0.9369686245918274,0.0,0.0,0.0,0.0,0.0,0.0
2450,1724914928183111183,-0.3730422258377075,0.08605226874351501,0.1683114767074585,0.041082482784986496,0.002099986420944333,-0.3481723368167877,0.9365276098251343,0.0,0.0,0.0,0.0,0.0,0.0
2452,1724914928192785208,-0.372892290353775,0.08601169288158417,0.1683746725320816,0.04224919155240059,0.0027005106676369905,-0.349966824054718,0.9358049631118774,0.0,0.0,0.0,0.0,0.0,0.0
2454,1724914928201832056,-0.37280428409576416,0.08599726855754852,0.16845491528511047,0.042548056691884995,0.00336845894344151,-0.3519020080566406,0.9350633025169373,0.0,0.0,0.0,0.0,0.0,0.0
2456,1724914928212070414,-0.372749388217926,0.08598752319812775,0.1685894876718521,0.04279695451259613,0.0041474164463579655,-0.3539775311946869,0.9342650771141052,0.0,0.0,0.0,0.0,0.0,0.0
2458,1724914928223315281,-0.3727363049983978,0.08589880913496017,0.1685705929994583,0.04193492233753204,0.0037279820535331964,-0.35512617230415344,0.9338698983192444,0.0,0.0,0.0,0.0,0.0,0.0
2460,1724914928235052098,-0.3727448880672455,0.08584550768136978,0.16842113435268402,0.04085704684257507,0.0024923020973801613,-0.356044739484787,0.9335720539093018,0.0,0.0,0.0,0.0,0.0,0.0
2462,1724914928243958386,-0.3727990388870239,0.08580651879310608,0.16846626996994019,0.040268752723932266,0.002355052623897791,-0.35803937911987305,0.9328347444534302,0.0,0.0,0.0,0.0,0.0,0.0
2464,1724914928252154653,-0.3728649616241455,0.08587646484375,0.1686522662639618,0.03954806551337242,0.0028902750927954912,-0.359874427318573,0.9321578145027161,0.0,0.0,0.0,0.0,0.0,0.0
2466,1724914928261949860,-0.37291038036346436,0.08598297834396362,0.16887244582176208,0.03930225223302841,0.003323154291138053,-0.36109277606010437,0.9316954016685486,0.0,0.0,0.0,0.0,0.0,0.0
2468,1724914928273800391,-0.37300050258636475,0.0860995426774025,0.16902154684066772,0.039658643305301666,0.0038475189357995987,-0.3617256283760071,0.931432843208313,0.0,0.0,0.0,0.0,0.0,0.0
2470,1724914928282809054,-0.3731091022491455,0.08619705587625504,0.16913272440433502,0.03960229456424713,0.004358410835266113,-0.3626556992530823,0.9310712218284607,0.0,0.0,0.0,0.0,0.0,0.0
2472,1724914928310430454,-0.37323153018951416,0.0863623395562172,0.16932834684848785,0.038748692721128464,0.004298001062124968,-0.36404386162757874,0.9305655360221863,0.0,0.0,0.0,0.0,0.0,0.0
2474,1724914928310743550,-0.373360812664032,0.08648554980754852,0.16965171694755554,0.03856522589921951,0.003962850198149681,-0.3654728829860687,0.9300143122673035,0.0,0.0,0.0,0.0,0.0,0.0
2476,1724914928312024463,-0.37355464696884155,0.08667030930519104,0.17025160789489746,0.03589002043008804,0.003137402469292283,-0.3673616647720337,0.9293801188468933,0.0,0.0,0.0,0.0,0.0,0.0
2478,1724914928322577114,-0.3736419379711151,0.0870492234826088,0.1708250492811203,0.03459159657359123,0.002708954270929098,-0.36865562200546265,0.9289183020591736,0.0,0.0,0.0,0.0,0.0,0.0
2480,1724914928333470293,-0.37363532185554504,0.08749084174633026,0.17133907973766327,0.03409957140684128,0.0029787335079163313,-0.3698772192001343,0.9284499287605286,0.0,0.0,0.0,0.0,0.0,0.0
2482,1724914928342731369,-0.37363243103027344,0.0879228338599205,0.1718820184469223,0.03255880996584892,0.0029085015412420034,-0.3713436424732208,0.9279199242591858,0.0,0.0,0.0,0.0,0.0,0.0
2484,1724914928352520261,-0.37368321418762207,0.08824481815099716,0.1723930835723877,0.0323941744863987,0.002009713789448142,-0.37201884388923645,0.9276576042175293,0.0,0.0,0.0,0.0,0.0,0.0
2486,1724914928361933628,-0.37366151809692383,0.08861105144023895,0.1731390804052353,0.03172743320465088,0.0015982665354385972,-0.37324100732803345,0.9271904230117798,0.0,0.0,0.0,0.0,0.0,0.0
2488,1724914928371929908,-0.3735460937023163,0.08903016149997711,0.17383435368537903,0.03101423755288124,0.0005112208309583366,-0.37422382831573486,0.9268195033073425,0.0,0.0,0.0,0.0,0.0,0.0
2490,1724914928384219773,-0.3734966516494751,0.08960364013910294,0.17434634268283844,0.03010324388742447,0.0006457261624746025,-0.3751216530799866,0.9264864921569824,0.0,0.0,0.0,0.0,0.0,0.0
2492,1724914928392026866,-0.3735218942165375,0.09014412015676498,0.1750420778989792,0.027388453483581543,0.000383583246730268,-0.37653765082359314,0.9259963631629944,0.0,0.0,0.0,0.0,0.0,0.0
2494,1724914928405643581,-0.37352195382118225,0.09070605039596558,0.17554250359535217,0.025337887927889824,0.00030813904595561326,-0.3770284950733185,0.9258550405502319,0.0,0.0,0.0,0.0,0.0,0.0
2496,1724914928411982861,-0.3735039234161377,0.09127487987279892,0.176109179854393,0.02500881440937519,-6.059287625248544e-05,-0.3773201107978821,0.9257451295852661,0.0,0.0,0.0,0.0,0.0,0.0
2498,1724914928421926164,-0.37342503666877747,0.0918724462389946,0.17684821784496307,0.027076352387666702,-0.000522602116689086,-0.3782877027988434,0.925291895866394,0.0,0.0,0.0,0.0,0.0,0.0
2500,1724914928433094544,-0.3733304738998413,0.09251750260591507,0.17772172391414642,0.026415223255753517,0.0009285458945669234,-0.3801683485507965,0.9245396256446838,0.0,0.0,0.0,0.0,0.0,0.0
2502,1724914928442470752,-0.3730820417404175,0.09320293366909027,0.17834998667240143,0.024618525058031082,0.0002595364348962903,-0.38131922483444214,0.9241155385971069,0.0,0.0,0.0,0.0,0.0,0.0
2504,1724914928451985842,-0.3728395104408264,0.09389971941709518,0.17893287539482117,0.02075398527085781,-0.00032163129071705043,-0.38279956579208374,0.9235981702804565,0.0,0.0,0.0,0.0,0.0,0.0
2506,1724914928462204862,-0.37266579270362854,0.09455971419811249,0.1794789731502533,0.01899748668074608,-0.001108712051063776,-0.3836228549480438,0.9232938289642334,0.0,0.0,0.0,0.0,0.0,0.0
2508,1724914928473217905,-0.37236231565475464,0.09557993710041046,0.1801001876592636,0.018215037882328033,-0.0008679025340825319,-0.38378456234931946,0.9232425689697266,0.0,0.0,0.0,0.0,0.0,0.0
2510,1724914928482731899,-0.3719070851802826,0.09656714648008347,0.1807238608598709,0.019878394901752472,-0.0005484597058966756,-0.3845202624797821,0.9229023456573486,0.0,0.0,0.0,0.0,0.0,0.0
2512,1724914928492712555,-0.37158089876174927,0.0976317748427391,0.18137718737125397,0.01512114703655243,-0.001363734481856227,-0.3863562345504761,0.9222247004508972,0.0,0.0,0.0,0.0,0.0,0.0
2514,1724914928502042945,-0.37123018503189087,0.09877535700798035,0.181668221950531,0.011506697162985802,-0.0037880700547248125,-0.3871040940284729,0.9219564199447632,0.0,0.0,0.0,0.0,0.0,0.0
2516,1724914928512121620,-0.37091314792633057,0.10001010447740555,0.18194341659545898,0.007946286350488663,-0.005573856178671122,-0.38754409551620483,0.9218000769615173,0.0,0.0,0.0,0.0,0.0,0.0
2518,1724914928522862250,-0.3704305589199066,0.10116764903068542,0.18186213076114655,0.009036087431013584,-0.006025176495313644,-0.38672828674316406,0.9221298098564148,0.0,0.0,0.0,0.0,0.0,0.0
2520,1724914928536759153,-0.3699626326560974,0.1025068610906601,0.18206891417503357,0.009850784204900265,-0.005006957799196243,-0.3879218101501465,0.921626091003418,0.0,0.0,0.0,0.0,0.0,0.0
2522,1724914928541937985,-0.3693682849407196,0.10390700399875641,0.1824307143688202,0.005337829235941172,-0.006454203277826309,-0.38902175426483154,0.9211905598640442,0.0,0.0,0.0,0.0,0.0,0.0
2524,1724914928552736015,-0.36899465322494507,0.1051192507147789,0.1825748085975647,0.0018578550079837441,-0.00865889247506857,-0.38908958435058594,0.9211574196815491,0.0,0.0,0.0,0.0,0.0,0.0
2526,1724914928561886198,-0.368667334318161,0.10629749298095703,0.18262824416160583,0.0015399963594973087,-0.010918992571532726,-0.3893148601055145,0.921038806438446,0.0,0.0,0.0,0.0,0.0,0.0
2528,1724914928572087564,-0.36848902702331543,0.10747455805540085,0.1826801896095276,-0.00019474918371997774,-0.011790242977440357,-0.3901001811027527,0.9206969738006592,0.0,0.0,0.0,0.0,0.0,0.0
2530,1724914928583314426,-0.3682172894477844,0.10862937569618225,0.18276016414165497,-0.0004734128015115857,-0.012472802773118019,-0.39085817337036133,0.9203663468360901,0.0,0.0,0.0,0.0,0.0,0.0
2532,1724914928592228734,-0.36809924244880676,0.11002552509307861,0.18268422782421112,-0.0035474116448312998,-0.012372561730444431,-0.3905666470527649,0.920484721660614,0.0,0.0,0.0,0.0,0.0,0.0
2534,1724914928605211684,-0.3679686188697815,0.11130677908658981,0.18273860216140747,-0.009010277688503265,-0.01313118264079094,-0.3895896375179291,0.920850932598114,0.0,0.0,0.0,0.0,0.0,0.0
2536,1724914928612247617,-0.3678479790687561,0.11229389160871506,0.182758629322052,-0.01221342571079731,-0.014144780114293098,-0.38950470089912415,0.9208348989486694,0.0,0.0,0.0,0.0,0.0,0.0
2538,1724914928622476428,-0.3677372634410858,0.11314378678798676,0.18271277844905853,-0.014348351396620274,-0.014939183369278908,-0.39008110761642456,0.9205475449562073,0.0,0.0,0.0,0.0,0.0,0.0
2540,1724914928633015966,-0.3675914704799652,0.11412277817726135,0.1828371286392212,-0.01572423055768013,-0.014291222207248211,-0.3917807936668396,0.9198132157325745,0.0,0.0,0.0,0.0,0.0,0.0
2542,1724914928670296957,-0.36739274859428406,0.11523913592100143,0.18277999758720398,-0.018191510811448097,-0.014130281284451485,-0.3917138874530792,0.919798731803894,0.0,0.0,0.0,0.0,0.0,0.0
2544,1724914928670741965,-0.3672688901424408,0.11623849719762802,0.18256931006908417,-0.019708022475242615,-0.01686820574104786,-0.39088526368141174,0.9200738668441772,0.0,0.0,0.0,0.0,0.0,0.0
2546,1724914928670994542,-0.36749374866485596,0.11713361740112305,0.18234287202358246,-0.024195708334445953,-0.019617727026343346,-0.38946112990379333,0.9205160737037659,0.0,0.0,0.0,0.0,0.0,0.0
2548,1724914928672500144,-0.3676469027996063,0.1181909590959549,0.18243734538555145,-0.028404587879776955,-0.020038552582263947,-0.38995763659477234,0.9201765060424805,0.0,0.0,0.0,0.0,0.0,0.0
2550,1724914928682068657,-0.3675938546657562,0.1192397028207779,0.18257132172584534,-0.030220046639442444,-0.01986025646328926,-0.3902633786201477,0.9199929237365723,0.0,0.0,0.0,0.0,0.0,0.0
2552,1724914928694084846,-0.3676014542579651,0.12035676091909409,0.1825353056192398,-0.033213578164577484,-0.01988203264772892,-0.3897565007209778,0.9201040267944336,0.0,0.0,0.0,0.0,0.0,0.0
2554,1724914928702060378,-0.36753159761428833,0.12142331898212433,0.1825917363166809,-0.03576795384287834,-0.020355263724923134,-0.3894391357898712,0.9201323986053467,0.0,0.0,0.0,0.0,0.0,0.0
2556,1724914928721992150,-0.36751824617385864,0.12245623022317886,0.18254753947257996,-0.03831348568201065,-0.02103385329246521,-0.38945478200912476,0.9200080037117004,0.0,0.0,0.0,0.0,0.0,0.0
2558,1724914928722604854,-0.36741822957992554,0.12340940535068512,0.18250253796577454,-0.038995660841464996,-0.02102864906191826,-0.38971590995788574,0.9198688864707947,0.0,0.0,0.0,0.0,0.0,0.0
2560,1724914928732640843,-0.36734986305236816,0.1242232695221901,0.18234790861606598,-0.04045248404145241,-0.022126592695713043,-0.3895464539527893,0.9198519587516785,0.0,0.0,0.0,0.0,0.0,0.0
2562,1724914928743293353,-0.36734095215797424,0.12522944808006287,0.18205933272838593,-0.0457996241748333,-0.023538846522569656,-0.388733834028244,0.9199099540710449,0.0,0.0,0.0,0.0,0.0,0.0
2564,1724914928752205227,-0.36722132563591003,0.12618423998355865,0.18187102675437927,-0.04737831652164459,-0.024622242897748947,-0.38855209946632385,0.9198784828186035,0.0,0.0,0.0,0.0,0.0,0.0
2566,1724914928761940871,-0.3671608567237854,0.12700089812278748,0.18154416978359222,-0.04783954098820686,-0.02553631365299225,-0.38836869597435,0.9199070930480957,0.0,0.0,0.0,0.0,0.0,0.0
2568,1724914928773388650,-0.367186963558197,0.12786832451820374,0.18119437992572784,-0.04868817329406738,-0.026060184463858604,-0.38816261291503906,0.919934868812561,0.0,0.0,0.0,0.0,0.0,0.0
2570,1724914928782671412,-0.3672652840614319,0.12885969877243042,0.18071657419204712,-0.04890432581305504,-0.026467131450772285,-0.3875521421432495,0.9201691746711731,0.0,0.0,0.0,0.0,0.0,0.0
2572,1724914928793122300,-0.36733710765838623,0.12977756559848785,0.1802906095981598,-0.05014195293188095,-0.0261179581284523,-0.3869611322879791,0.9203612208366394,0.0,0.0,0.0,0.0,0.0,0.0
2574,1724914928822420475,-0.367602676153183,0.13066521286964417,0.179885134100914,-0.05326433479785919,-0.027470525354146957,-0.38635221123695374,0.9204023480415344,0.0,0.0,0.0,0.0,0.0,0.0
2576,1724914928823239690,-0.36790865659713745,0.13238482177257538,0.17864970862865448,-0.05523869767785072,-0.02867424674332142,-0.3852888345718384,0.920694887638092,0.0,0.0,0.0,0.0,0.0,0.0
2578,1724914928833751870,-0.36798685789108276,0.13327279686927795,0.17790375649929047,-0.05501372739672661,-0.029241669923067093,-0.3837532103061676,0.9213315844535828,0.0,0.0,0.0,0.0,0.0,0.0
2580,1724914928842039280,-0.36819469928741455,0.13416242599487305,0.17732664942741394,-0.05597815290093422,-0.02940969355404377,-0.3827317953109741,0.9216930270195007,0.0,0.0,0.0,0.0,0.0,0.0
2582,1724914928852014852,-0.3684100806713104,0.13494287431240082,0.17666442692279816,-0.05615825578570366,-0.029512837529182434,-0.38176432251930237,0.9220799207687378,0.0,0.0,0.0,0.0,0.0,0.0
2584,1724914928862259126,-0.3686263859272003,0.13567298650741577,0.17603999376296997,-0.05609375983476639,-0.029415598139166832,-0.3816315233707428,0.9221418499946594,0.0,0.0,0.0,0.0,0.0,0.0
2586,1724914928976514728,-0.3689473271369934,0.1363500952720642,0.1754954308271408,-0.05853642523288727,-0.030728645622730255,-0.3813858926296234,0.9220488667488098,0.0,0.0,0.0,0.0,0.0,0.0
2588,1724914928977150797,-0.36921730637550354,0.1370646059513092,0.1747981607913971,-0.05856266990303993,-0.031224777922034264,-0.3797554075717926,0.922703206539154,0.0,0.0,0.0,0.0,0.0,0.0
2590,1724914928977441565,-0.3694978952407837,0.13779234886169434,0.17426329851150513,-0.060729462653398514,-0.030731575563549995,-0.37815234065055847,0.9232379198074341,0.0,0.0,0.0,0.0,0.0,0.0
2592,1724914928977706370,-0.36966922879219055,0.1383877545595169,0.1737079620361328,-0.06140301376581192,-0.030800381675362587,-0.3764403462409973,0.9238905906677246,0.0,0.0,0.0,0.0,0.0,0.0
2594,1724914928977964630,-0.369829386472702,0.13884668052196503,0.1731223315000534,-0.061192836612463,-0.03093412145972252,-0.37509867548942566,0.9244455695152283,0.0,0.0,0.0,0.0,0.0,0.0
2596,1724914928978212631,-0.3700128495693207,0.13929764926433563,0.17270982265472412,-0.061919886618852615,-0.03100166842341423,-0.37410715222358704,0.9247965812683105,0.0,0.0,0.0,0.0,0.0,0.0
2598,1724914928978472779,-0.370166540145874,0.13974134624004364,0.17235325276851654,-0.06314128637313843,-0.03133697435259819,-0.3729695677757263,0.925162136554718,0.0,0.0,0.0,0.0,0.0,0.0
2600,1724914928978878912,-0.37026599049568176,0.1400984525680542,0.17206667363643646,-0.06374906748533249,-0.03143705800175667,-0.3718035817146301,0.9255862832069397,0.0,0.0,0.0,0.0,0.0,0.0
2602,1724914928979238364,-0.3703548014163971,0.14039985835552216,0.17176079750061035,-0.06420853734016418,-0.031456150114536285,-0.37069249153137207,0.9259994029998779,0.0,0.0,0.0,0.0,0.0,0.0
2604,1724914928979603485,-0.3704640567302704,0.14074282348155975,0.1713881641626358,-0.06558041274547577,-0.0312839113175869,-0.36902284622192383,0.9265758395195007,0.0,0.0,0.0,0.0,0.0,0.0
2606,1724914928979850352,-0.3704887926578522,0.14097140729427338,0.17092038691043854,-0.06597327440977097,-0.03176477551460266,-0.3671116232872009,0.9272904992103577,0.0,0.0,0.0,0.0,0.0,0.0
2608,1724914928983582386,-0.37049299478530884,0.14113986492156982,0.17060264945030212,-0.06610365957021713,-0.032379619777202606,-0.3655080795288086,0.9278932213783264,0.0,0.0,0.0,0.0,0.0,0.0
2610,1724914928992195427,-0.3704949617385864,0.14128577709197998,0.17045938968658447,-0.06642366945743561,-0.0322754792869091,-0.36433660984039307,0.9283345341682434,0.0,0.0,0.0,0.0,0.0,0.0
2612,1724914929005001067,-0.3704574704170227,0.14141613245010376,0.17029380798339844,-0.06623516976833344,-0.031823404133319855,-0.36270084977149963,0.9290039539337158,0.0,0.0,0.0,0.0,0.0,0.0
2614,1724914929012176810,-0.3704816997051239,0.14157135784626007,0.1701781004667282,-0.06631764024496078,-0.031566131860017776,-0.3612344563007355,0.9295780658721924,0.0,0.0,0.0,0.0,0.0,0.0
2616,1724914929024589778,-0.37054818868637085,0.14171862602233887,0.1701624095439911,-0.06702055037021637,-0.03161073103547096,-0.3599790632724762,0.9300129413604736,0.0,0.0,0.0,0.0,0.0,0.0
2618,1724914929035634509,-0.37061697244644165,0.14183834195137024,0.17011263966560364,-0.0669848769903183,-0.031792052090168,-0.3584113121032715,0.9306146502494812,0.0,0.0,0.0,0.0,0.0,0.0
2620,1724914929042009144,-0.37063130736351013,0.14201153814792633,0.1701735258102417,-0.06653560698032379,-0.031168228015303612,-0.3573700785636902,0.9310683012008667,0.0,0.0,0.0,0.0,0.0,0.0
2622,1724914929057378347,-0.3706495463848114,0.14209601283073425,0.17017194628715515,-0.06726646423339844,-0.03175927326083183,-0.35573679208755493,0.9316210746765137,0.0,0.0,0.0,0.0,0.0,0.0
2624,1724914929061664183,-0.3706541061401367,0.1422424018383026,0.17005793750286102,-0.06779218465089798,-0.03185847029089928,-0.3541938364505768,0.9321674108505249,0.0,0.0,0.0,0.0,0.0,0.0
2626,1724914929074738505,-0.3707309067249298,0.14241939783096313,0.16989795863628387,-0.06830447912216187,-0.031650710850954056,-0.3527292013168335,0.9326923489570618,0.0,0.0,0.0,0.0,0.0,0.0
2628,1724914929082792102,-0.370646595954895,0.14258107542991638,0.16968218982219696,-0.06584447622299194,-0.03202805295586586,-0.35105058550834656,0.9334893226623535,0.0,0.0,0.0,0.0,0.0,0.0
2630,1724914929092229524,-0.3705874979496002,0.14273792505264282,0.16956080496311188,-0.0653071478009224,-0.03207910433411598,-0.3496793210506439,0.9340397715568542,0.0,0.0,0.0,0.0,0.0,0.0
2632,1724914929105348533,-0.3706265687942505,0.14285443723201752,0.1694829761981964,-0.06541188806295395,-0.03228558972477913,-0.348052442073822,0.9346327781677246,0.0,0.0,0.0,0.0,0.0,0.0
2634,1724914929112128912,-0.37068307399749756,0.1429682821035385,0.1694607436656952,-0.06490124017000198,-0.032545480877161026,-0.3466130793094635,0.9351941347122192,0.0,0.0,0.0,0.0,0.0,0.0
2636,1724914929122035855,-0.37081941962242126,0.14303770661354065,0.16933521628379822,-0.06576046347618103,-0.03327307105064392,-0.3442937731742859,0.9359648823738098,0.0,0.0,0.0,0.0,0.0,0.0
2638,1724914929132724423,-0.3708493411540985,0.14314337074756622,0.16928690671920776,-0.06540260463953018,-0.03312138468027115,-0.3426680862903595,0.9365917444229126,0.0,0.0,0.0,0.0,0.0,0.0
2640,1724914929141976556,-0.3708689510822296,0.14324748516082764,0.1691550314426422,-0.0650106817483902,-0.03235074505209923,-0.34044864773750305,0.9374549984931946,0.0,0.0,0.0,0.0,0.0,0.0
2642,1724914929151933954,-0.3708697259426117,0.14336401224136353,0.16909737884998322,-0.06479298323392868,-0.031700242310762405,-0.33845487236976624,0.9382138848304749,0.0,0.0,0.0,0.0,0.0,0.0
2644,1724914929162524033,-0.37090927362442017,0.14353151619434357,0.16908426582813263,-0.06605087965726852,-0.03150848299264908,-0.3365350663661957,0.9388229846954346,0.0,0.0,0.0,0.0,0.0,0.0
2646,1724914929172168878,-0.3708958625793457,0.14374713599681854,0.16908861696720123,-0.06759181618690491,-0.03170611336827278,-0.33458828926086426,0.9394024014472961,0.0,0.0,0.0,0.0,0.0,0.0
2648,1724914929182762031,-0.37088486552238464,0.14387613534927368,0.169080913066864,-0.06754061579704285,-0.031467024236917496,-0.33332282304763794,0.9398638010025024,0.0,0.0,0.0,0.0,0.0,0.0
2650,1724914929194623003,-0.3707866370677948,0.14397305250167847,0.16910722851753235,-0.06650573760271072,-0.0313350148499012,-0.3320273458957672,0.9404004812240601,0.0,0.0,0.0,0.0,0.0,0.0
2652,1724914929201877846,-0.37074580788612366,0.14401960372924805,0.16911399364471436,-0.06703109294176102,-0.03149423748254776,-0.330416202545166,0.9409251809120178,0.0,0.0,0.0,0.0,0.0,0.0
2654,1724914929212075932,-0.3707127869129181,0.14407767355442047,0.16913308203220367,-0.06670167297124863,-0.03163685277104378,-0.32909390330314636,0.9414070844650269,0.0,0.0,0.0,0.0,0.0,0.0
2656,1724914929222765871,-0.37053483724594116,0.14418554306030273,0.16930946707725525,-0.06619766354560852,-0.031451884657144547,-0.3282262086868286,0.9417517185211182,0.0,0.0,0.0,0.0,0.0,0.0
2658,1724914929233486658,-0.3704565167427063,0.14421294629573822,0.16932295262813568,-0.06605639308691025,-0.03152117133140564,-0.3269300162792206,0.9422100186347961,0.0,0.0,0.0,0.0,0.0,0.0
2660,1724914929242148152,-0.37040695548057556,0.14420866966247559,0.1693059504032135,-0.06651566177606583,-0.031428661197423935,-0.3254988193511963,0.9426762461662292,0.0,0.0,0.0,0.0,0.0,0.0
2662,1724914929256863378,-0.3703787922859192,0.14423637092113495,0.16945332288742065,-0.06703152507543564,-0.030591558665037155,-0.3243325352668762,0.9430691599845886,0.0,0.0,0.0,0.0,0.0,0.0
2664,1724914929262105578,-0.37036600708961487,0.14418011903762817,0.16971388459205627,-0.06664393097162247,-0.030203992500901222,-0.32325446605682373,0.9434791207313538,0.0,0.0,0.0,0.0,0.0,0.0
2666,1724914929274407743,-0.3704015612602234,0.14411264657974243,0.16990701854228973,-0.0670148953795433,-0.029880888760089874,-0.32202187180519104,0.9438846111297607,0.0,0.0,0.0,0.0,0.0,0.0
2668,1724914929282979483,-0.3704422414302826,0.14397795498371124,0.17002886533737183,-0.06682886183261871,-0.029782352969050407,-0.3207525610923767,0.9443329572677612,0.0,0.0,0.0,0.0,0.0,0.0
2670,1724914929292010438,-0.37059199810028076,0.14367811381816864,0.17007458209991455,-0.06707870215177536,-0.03015930764377117,-0.3190929591655731,0.9448654651641846,0.0,0.0,0.0,0.0,0.0,0.0
2672,1724914929303281021,-0.3707329332828522,0.1434967815876007,0.1702120453119278,-0.06679502129554749,-0.029617518186569214,-0.31765618920326233,0.9453866481781006,0.0,0.0,0.0,0.0,0.0,0.0
2674,1724914929311737130,-0.3708287179470062,0.14334586262702942,0.17034873366355896,-0.06488018482923508,-0.029778266325592995,-0.3162210285663605,0.9459958672523499,0.0,0.0,0.0,0.0,0.0,0.0
2676,1724914929322629043,-0.37099552154541016,0.1432494968175888,0.17050816118717194,-0.0648358091711998,-0.029621100053191185,-0.31510496139526367,0.9463761448860168,0.0,0.0,0.0,0.0,0.0,0.0
2678,1724914929333835706,-0.37120315432548523,0.14313559234142303,0.17066113650798798,-0.06434936076402664,-0.029201434925198555,-0.3139321506023407,0.946812093257904,0.0,0.0,0.0,0.0,0.0,0.0
2680,1724914929342112844,-0.3714332580566406,0.14287176728248596,0.1709035485982895,-0.06365470588207245,-0.028836114332079887,-0.31244781613349915,0.9473611116409302,0.0,0.0,0.0,0.0,0.0,0.0
2682,1724914929352328035,-0.3717978000640869,0.1424509584903717,0.17136363685131073,-0.0643826276063919,-0.028402697294950485,-0.3106266260147095,0.9479237198829651,0.0,0.0,0.0,0.0,0.0,0.0
2684,1724914929362671881,-0.37197500467300415,0.14212819933891296,0.17214541137218475,-0.06386951357126236,-0.02702248841524124,-0.31019657850265503,0.9481396079063416,0.0,0.0,0.0,0.0,0.0,0.0
2686,1724914929372000830,-0.3721534013748169,0.1415487825870514,0.17281664907932281,-0.06252582371234894,-0.026992378756403923,-0.3084145188331604,0.9488111734390259,0.0,0.0,0.0,0.0,0.0,0.0
2688,1724914929401336037,-0.37229853868484497,0.14092808961868286,0.17359128594398499,-0.0615086704492569,-0.026202429085969925,-0.30728039145469666,0.949267566204071,0.0,0.0,0.0,0.0,0.0,0.0
2690,1724914929401807764,-0.3724040389060974,0.1402481645345688,0.1743176281452179,-0.05925445258617401,-0.025195030495524406,-0.30629006028175354,0.9497581720352173,0.0,0.0,0.0,0.0,0.0,0.0
