seq,stamp,px,py,pz,ox,oy,oz,ow,lx,ly,lz,ax,ay,az,timestamp,wx,wy,wz,aa_x,aa_y,aa_z,roll,pitch,yaw,vx,vy,vz,jx,jy,jz,fw
14,1724915044850331510,-0.4003695845603943,0.1050348281860351,0.172815516591072,0.0206743255257606,-0.0034490441903471,-0.2960275709629059,0.95494943857193,0.0,0.0,0.0,104.0564112010428,1389.009218300311,-153.48953386928565,0.0,0.0,0.0,0.0,19491.2022130789,-8137.738084893186,-17428.052355162294,0.0415405051252732,0.0056530452159488,-0.6010810440699098,-0.4152821346509161,-3.418992085582857,-1.5046942107763392,349802.58942943235,845874.8922200591,564052.5448291303,0.0
16,1724915044850628039,-0.4004927277565002,0.1040209978818893,0.1723693311214447,0.0213893614709377,-0.004028529394418,-0.2967634797096252,0.9547029137611388,0.0,0.0,0.0,207.78302324196295,1639.835654215433,13.768403196351528,0.000296529,5.779706701042073,-2.4130753365752917,-5.167922936823921,12864.59603869836,-12005.920191397552,3571.5922285338856,0.0432460319837936,0.005003086047625,-0.6026423823043624,-0.3844263910938821,-3.007110571089484,-1.5502083087650649,317755.78226380097,415837.3646383779,785794.8159022772,-0.0004042704660899
18,1724915044851046559,-0.4006353914737701,0.1030057594180107,0.1716936528682708,0.0222264174371957,-0.0064602042548358,-0.295055091381073,0.9551998376846312,0.0,0.0,0.0,321.84019880189953,1559.8497410403595,473.6218931683816,0.000715049,7.249476585315763,-9.72271922573566,8.731301040787903,-422.272660292243,594.5635809794526,12227.241971072755,0.0462901166270966,0.0007744632221735,-0.5991739299824934,-0.2361939718028907,-2.172643960961267,-1.4456470823745065,75039.04398200696,-774332.1104082535,723915.5543034762,-0.0006320843285284
20,1724915044851480931,-0.4006907939910888,0.1021761447191238,0.1711418032646179,0.023233164101839,-0.0070958426222205,-0.2941029965877533,0.9554650187492372,0.0,0.0,0.0,265.40355418955915,960.5735397979768,619.0810223050865,0.001149421,5.2924649334085485,-1.3225583419746103,4.582744697611211,-4073.2162821537986,16974.028691130803,-8505.97732084115,0.0485898862507386,0.0001062275571684,-0.5972128643454115,-0.1109762562596543,-1.690747369676929,-1.1390307020532695,-134468.04136916425,-1259958.6896804045,259022.25044524856,-0.0005163202096532
22,1724915044854387955,-0.4006910324096679,0.1015250980854034,0.1703874766826629,0.026675846427679,-0.0050948560237884,-0.2937620878219604,0.9554927945137024,0.0,0.0,0.0,-213.84535793903763,-373.76947620661895,-103.61102011570529,0.004056445,1.859386158719223,2.017522640246463,0.180925478339617,17878.260842868003,29091.698402709804,-17517.309967255318,0.0539976970277522,0.0059365431121491,-0.5963869469029204,0.2156290777743379,-1.793976012934138,-1.02812155301541,-1127116.4336301228,-895179.9356991388,-101436.63382193052,-0.0007219681080318
24,1724915044854808701,-0.4005871713161468,0.1006746813654899,0.1699080914258957,0.0297897141426801,-0.0024925114121288,-0.2952994406223297,0.9549370408058168,0.0,0.0,0.0,-746.673072769418,-776.974228282349,-137.32824079877446,0.004477191,10.542230171108278,15.959349032947404,-8.163943784702285,-10316.436370230318,-1951.727266985311,-10826.06196626151,0.0584046827853451,0.0128337411949224,-0.5994393938002008,0.1057903621273794,-1.9718367930947809,-1.0803483357344703,-808113.6308230732,-617066.7741326763,-281671.40995705116,-0.0004337179433482
26,1724915044855228952,-0.4006019234657287,0.0998667404055595,0.1694788485765457,0.0284581296145916,-0.0019330756040289,-0.2970919907093048,0.9544227719306946,0.0,0.0,0.0,-893.9199219349669,-893.0584133031698,-340.29642893604023,0.004897442,-6.786080217764501,0.4108422495331515,-8.932672283360711,-33545.697104813116,-46303.530905219464,-4133.179278364489,0.0555041181999197,0.0132198070582439,-0.6031777223447531,-0.4118402593599057,-2.447058509741595,-1.1436011319865995,751987.5242884177,682423.4590293367,-237685.48215610324,-0.0003852793933455
28,1724915044855569047,-0.4008456766605377,0.0988901406526565,0.1690562814474105,0.0249476786702871,-0.0039724232628941,-0.2989616692066192,0.953930675983429,0.0,0.0,0.0,-334.77138356522516,-397.1230100034336,-353.62332823897646,0.005237537,-16.07898125470614,-17.89785510824901,-10.97246070382928,9636.132880125762,-10931.652327995616,12059.738031312392,0.0499940853169153,0.0073380323539192,-0.6072253043152093,-0.6228867185442937,-2.685348966252775,-1.3115681440571052,1074079.441531414,827038.597296433,333376.0932137374,-0.0003723810973717
30,1724915044855950390,-0.4010430872440338,0.0979457199573516,0.1685265898704528,0.0253528729081153,-0.0048495735973119,-0.2987315356731415,0.9539880752563475,0.0,0.0,0.0,-168.9138379554979,-351.62943501183236,-67.18755982454513,0.00561888,3.3997936267560167,-3.721761008356077,1.3476837454579285,35547.14517407018,46631.96294095136,-17187.554610099363,0.0512934981509759,0.0058945686866363,-0.6067839178688323,-0.628351665358764,-2.7069991742457944,-1.386445930597915,-51046.11912497238,-394719.1310377547,510995.1644724472,-0.0004812210977164
32,1724915044856225330,-0.4012377858161926,0.0971557796001434,0.1681459099054336,0.0271360408514738,-0.0037789396010339,-0.3004150986671448,0.9534149765968324,0.0,0.0,0.0,-279.28145844577483,-562.045007345092,25.705789043666588,0.00589382,10.094231113150238,10.9740170273387,-13.189007890358749,24254.519272374026,53244.6605479493,-52668.14046607663,0.0540428550186014,0.009098483088951,-0.6102462974144166,-0.7054351769702685,-2.862124194854857,-1.379314590432292,-399835.2313813912,-762240.5111483405,336745.11973436864,-0.0003364501329025
34,1724915044927425860,-0.4014202058315277,0.0964367240667343,0.1672622859477996,0.030379394069314,-0.0017126182792708,-0.3006613254547119,0.9532455205917358,0.0,0.0,0.0,554.0505591491369,1846.4017045832295,3303.0705423022155,0.07709435,0.0695268784500716,0.0825019697860598,-0.0099435120809171,18484.518026227863,31597.1084852558,-5773.742021774002,0.0589887181999561,0.0150032892321698,-0.6106214284475325,-0.6141893748510938,-2.8852124903542062,-3.827107879043183,264145.4160993858,-1090882.6181327598,-338762.7197745368,-0.0008371539542668
36,1724915044927683318,-0.4015789031982422,0.0956912264227867,0.1662734150886535,0.0312935262918472,-0.0008823054376989,-0.3008120656013489,0.9531694650650024,0.0,0.0,0.0,622.2919217417844,1564.4981920517384,3215.4951445157876,0.077351808,4.845853283693084,8.246988279128084,-1.501987008364306,10809.405834698618,14214.94412227495,-4160.20384090384,0.0602321444628105,0.0171458074348349,-0.6108809206262742,-0.4710300218770271,-2.408122378081707,-2.973598921947641,1733.0180636408331,-1421288.939239439,-1253652.3406811608,-0.0009396001011161
38,1724915044928201411,-0.4016713798046112,0.0949518382549285,0.1656370460987091,0.0316751673817634,-0.0017009361181408,-0.3013148307800293,0.9529969692230223,0.0,0.0,0.0,348.65239317782664,487.9036457752586,1613.592388151777,0.077869901,2.3740024674558735,-2.6303270360478455,-1.95265379087138,1741.9228995491658,-9828.063366575494,-1942.1570381137972,0.0614440768954988,0.0158470847399236,-0.6119737497433739,-0.0795618032210541,-1.8984355665146495,-1.4115596043577625,-726218.0610291304,-1056545.3591637174,-2599139.2359173326,-0.0005891423675299
40,1724915044928540213,-0.4016764163970947,0.0942042246460914,0.1651182025671005,0.0322095192968845,-0.00247338344343,-0.3017919063568115,0.9528263807296752,0.0,0.0,0.0,58.72874955823161,356.252571281942,842.177802317206,0.078208703,4.40716131968211,-3.4860090075108294,-2.8482353818442174,-1622.191541267367,-1694.9143073584278,-4375.507027547381,0.0629213839464395,0.01472826694847,-0.613010375293655,-0.0515982827445213,-1.8429962285612904,-1.175357297433905,-460859.18215112394,-300948.93021846353,-2123610.931975331,-0.0004728664406004
42,1724915044929060395,-0.4017325937747955,0.0935359597206115,0.1647911667823791,0.0312971137464046,-0.0031386462505906,-0.303436666727066,0.952332317829132,0.0,0.0,0.0,134.3690499098878,269.69079666986727,-140.0684534626714,0.078728885,-2.5250690802812557,-3.7042247179389247,-6.507686661073682,774.3051469330139,13480.53682259646,-17591.501344070057,0.0615593504623274,0.0130156827197753,-0.6165091791214079,-0.0400630368669681,-1.5038418900620345,-0.6214582334246188,71488.53024426359,-24976.393847656087,-2032246.0530405056,-0.000286423116071
44,1724915044929435853,-0.4017292261123657,0.0929119363427162,0.1645597964525222,0.0318819731473922,-0.0022191021125763,-0.3062598407268524,0.9514113664627076,0.0,0.0,0.0,141.177028000875,298.64065869002343,-942.1076917083416,0.079104343,1.586964592470537,5.124043962790063,-15.973371167722645,13380.969828392608,17641.033085541338,-1283.6275771095716,0.0620721058660139,0.0153063757589236,-0.6223768296991501,0.0407912439333131,-1.5061874136110305,-1.00057081722332,-103181.9766009762,449077.0235659876,-826509.564610549,-0.0001939690364454
46,1724915044929756415,-0.4017074406147003,0.0924717634916305,0.1641338616609573,0.0333330892026424,-0.0010912733851,-0.3077096939086914,0.950895607471466,0.0,0.0,0.0,74.89796894043353,544.4034720963195,-848.6132590674158,0.079424905,6.541172719336823,9.171885255414464,-9.83610436248161,14888.847553256255,12148.973125499111,18514.13826436403,0.0641189857211223,0.0184395001481197,-0.6253386335886439,0.0657470937128441,-1.3270091087467402,-1.2840660280860727,-199832.24584345365,737915.213509044,285031.0562047185,-0.0003978713112672
48,1724915044938599697,-0.4016659557819366,0.0919878631830215,0.1636704057455063,0.0338386185467243,-0.0016568013234063,-0.3081246018409729,0.9507425427436828,0.0,0.0,0.0,-2.453283589819195,56.90652907552818,55.33116960240945,0.088268187,0.1491241382485972,-0.0896045045922553,-0.0957414924346774,-261.8173221306616,-406.4855135902217,427.4781716104302,0.0654215326101375,0.0177035634763646,-0.6262349335838456,0.0078449759996672,-0.0615694265105855,-0.0656085609771572,-3162.386864298771,-27524.192833247092,34401.16267129376,-0.000432745947769
50,1724915044944301612,-0.4016096293926239,0.0916116163134574,0.1632477790117263,0.0347456820309162,-0.00209158542566,-0.3084966242313385,0.9505884051322936,0.0,0.0,0.0,0.0461862908857577,1.443336822204366,2.158082157277331,0.093970102,0.3510929077094503,-0.0514645578431294,-0.136088115696728,12.960901545170035,15.210486009922787,-14.210066474374846,0.0674094888643328,0.0174622649682638,-0.6270288833976452,0.0089090235243727,-0.0539646157929198,-0.0532459790091186,274.4331962230712,-6281.414674256349,-6059.022143103274,-0.0003986656375152
52,1724915044954624822,-0.4015357792377472,0.0912792086601257,0.163088247179985,0.0354912057518959,-0.00082125258632,-0.3104891180992126,0.9499138593673706,0.0,0.0,0.0,-0.1844997835677506,0.9990671741070778,0.659526522931027,0.104293312,0.065108216118113,0.26482340095173,-0.416117577173179,-27.313395580829912,-4.600890379753127,-6.92090726140256,0.0680038090251126,0.0204804596429289,-0.631130501564418,0.0067612551420381,-0.0370161832625699,-0.0311557293845758,4.183894191879884,-113.16649906678376,-177.4610400808681,-0.0001386287545491
54,1724915044964544857,-0.4014724493026733,0.0908660963177681,0.1626295000314712,0.0343602113425731,-0.001008573686704,-0.3118865191936493,0.949497401714325,0.0,0.0,0.0,0.1099069701668171,-0.7920748953184724,-1.4087707723809368,0.114213347,-0.2021269352446584,-0.1167410866630439,-0.29216412085667,-12.658578181019934,-22.074276915317466,11.325786952289022,0.0659393089547829,0.0195189366315753,-0.634100392665093,0.0051555284301745,-0.0332321234859567,-0.0387246626192072,4.267122027027428,-77.89022040656775,-50.08732556789837,-0.0004324460163168
56,1724915044981808783,-0.4014203548431396,0.090545117855072,0.1621868908405304,0.0344154872000217,-0.0010363740148022,-0.312967836856842,0.949139416217804,0.0,0.0,0.0,-0.5798844013309581,0.947844109062128,2.4858744454260204,0.131477273,0.0083833421626041,-0.0054068701069189,-0.1317730030454824,149.2555620114094,211.5690528553879,-228.67571848841308,0.0660395299838079,0.019575804568932,-0.6363768563618072,0.0152182862985199,-0.0821646804704414,-0.0824476411725783,-76.75514336689372,400.2683422512508,539.7559826529507,-0.0004220230997989
58,1724915044984742236,-0.4013696312904358,0.0902724042534828,0.1619167178869247,0.0354624688625335,-0.0002272639540024,-0.3142127096652984,0.9486899971961976,0.0,0.0,0.0,-0.8233845923837938,2.271289698704792,4.225816042639468,0.134410726,0.5145355723747372,0.7174624352309268,-0.921195963424685,119.65896080489723,171.73476476580876,-196.0702443881646,0.0674959424049695,0.0218560508025043,-0.6389332385923752,0.0129376477479432,-0.07749898641791,-0.0726539930432856,-50.09021605141599,354.151976652338,447.6401979329827,-0.0002523348681946
60,1724915044995008388,-0.4013932347297668,0.0900325179100036,0.1618695259094238,0.0343703664839267,-0.0009054401889443,-0.3157581686973572,0.9482166171073914,0.0,0.0,0.0,-0.1549379736376946,2.421873279450077,3.5938851492927624,0.144676878,-0.1571258657689244,-0.2028890343865848,-0.3098737610891571,-21.082578742299233,-30.5050379408801,17.151491879991866,0.0658135454765631,0.0199896723332045,-0.6422469276016788,0.0028346186688956,-0.0297224422524386,0.0026047411495415,33.13479948718639,-97.94812547509036,-262.925035714503,-3.1028659480130744e-05
62,1724915045005349592,-0.4013104438781738,0.0896589457988739,0.1619714796543121,0.0349578484892845,-0.0004658256075344,-0.3185538351535797,0.9472599029541016,0.0,0.0,0.0,-0.1453813891713569,0.2358718916596334,-1.222710735328308,0.155018082,0.0867596484660351,0.0977444725506041,-0.5741361146694707,13.771433956908876,28.400633022975516,-8.058408589259969,0.066589541049373,0.0213910288703813,-0.6481055885769271,0.0098697028443233,-0.0279268262108738,0.0008435068969081,-35.9591908187092,-100.57611780201808,-232.2664103018734,0.0001244177305886
64,1724915045014482532,-0.4012052714824676,0.0894700139760971,0.1619064658880233,0.0360473953187465,0.0009424056624993,-0.3206875026226043,0.946498453617096,0.0,0.0,0.0,-0.7712898035107123,0.2111042511082206,-1.4606019863077953,0.164151022,0.1333877734219134,0.3517152659680019,-0.5066137564491445,-0.6830668274091796,0.9167623105122518,13.689566762390855,0.0677058716878397,0.024906444326031,-0.65250766516575,0.0018821504705783,-0.0252706454333671,-0.0188119240576112,1.0106478621833817,-4.370056757732801,51.98682893526771,-5.408218897767918e-05
66,1724915045024464164,-0.4012915790081024,0.0891677662730217,0.1615911275148391,0.0364535599946975,0.0012139679165557,-0.3220984637737274,0.9460033774375916,0.0,0.0,0.0,-0.0025362619288784,0.1493948302395263,-0.0903960829115918,0.174132654,0.063421196288438,0.0675020432150591,-0.3012821212603557,-3.027681151965503,-16.20163500490949,15.57897742314812,0.0682640238616808,0.0257829633357309,-0.6554632120965843,-0.0046896896504815,-0.0240332809658991,-0.0258469178305018,59.27277856634686,-4.341863687505861,98.8104486100375,-0.0002915883048248
68,1724915045036426168,-0.4012909531593323,0.0889698341488838,0.1613643020391464,0.0370246544480323,0.0013730087084695,-0.3231431245803833,0.9456245303153992,0.0,0.0,0.0,0.4521190803376189,0.1238405860231106,0.5402070908090917,0.186094658,0.0842850408574394,0.0496204607943153,-0.1864876554367336,-1.3577097779906655,7.989712877276723,-9.528381031406076,0.0692150724273439,0.0265283379353046,-0.6576485639077078,0.0046818698506072,-0.0218816632747103,-0.018120667697957,-10.569021001455102,0.8964124066818613,-10.53877640017481,-0.0002121806885101
70,1724915045044247155,-0.4012306630611419,0.0887714177370071,0.1612268835306167,0.0374393910169601,0.0019458149326965,-0.3244466185569763,0.9451608061790466,0.0,0.0,0.0,0.1210582851426166,0.1463591446502123,0.1343234122198898,0.193915645,0.0578048818160996,0.1606073941119095,-0.3588047547824406,-5.5756879648348505,4.450352112349032,-11.81853951505388,0.0695932362184823,0.0279760327902514,-0.6603619821766389,0.0065236540425654,-0.0211996198228812,-0.0144361733778346,-30.89059049907838,-0.5575036702073359,-47.035795093046296,-0.000123982215152
72,1724915045055065125,-0.4011778235435486,0.0886044800281524,0.1611176133155822,0.0373660027980804,0.0023974045179784,-0.3261395394802093,0.9445798397064208,0.0,0.0,0.0,-0.041945887454644,0.0889026376222628,-0.3017722921618945,0.204733615,-0.035281155390884,0.0629993874750592,-0.3338195892747801,8.510354500908424,-10.31839701096748,4.2174021806088025,0.0691104188727568,0.0289061671761557,-0.6639187562935276,0.0061209344219577,-0.018731191800585,-0.01802243831502,-9.779652950219663,-5.453813290789361,-3.001411950475361,-9.796713134248358e-05
74,1724915045064560484,-0.4011093974113464,0.0883991196751594,0.1608804613351822,0.0381357856094837,0.0019500440685078,-0.3273955285549164,0.9441155195236206,0.0,0.0,0.0,-0.0907325028818175,0.0359281997143304,-0.0193071945673063,0.214228974,0.188172802883607,-0.0457758738804734,-0.2778733435677551,11.932953355716649,-8.535867100117228,5.550701655737814,0.0708205419750159,0.0286570272617744,-0.6665823283065464,0.0056833130942024,-0.0190478171001038,-0.0206400273211864,12.941810599794554,-41.84435741175679,-2.588629276482372,-0.0002228670430234
76,1724915045083445348,-0.4010592699050903,0.0881362929940223,0.1606535166501999,0.0376338884234428,0.0012179806362837,-0.3290864527225494,0.9435487985610962,0.0,0.0,0.0,0.8327329210417519,-2.1163952856127715,-1.282719793204258,0.233113838,-0.0221621826291247,-0.0973108339916945,-0.1858663706125186,-8.040896316863309,-4.841192523165885,-9.85837226277704,0.0703008085564546,0.0270713604774665,-0.6702145883589238,0.0022930272249368,-0.0157674618669423,-0.0113758457564987,-12.654129143675291,143.9698248010154,92.32370876069824,-0.0002085512531273
78,1724915045092837379,-0.4010394215583801,0.0879795625805854,0.1605496704578399,0.0370272137224674,0.000731591891963,-0.3306511044502258,0.9430261850357056,0.0,0.0,0.0,0.4263698129351407,0.4406015134965138,0.3281170052229889,0.242505869,-0.0832172602709896,-0.1526458624390564,-0.3472613127736383,0.9029672174144991,-180.4294422816938,-802.2173422974975,0.0694304414166678,0.0258688839885543,-0.6735694205837532,0.0148422814938555,-0.0463416449012683,-0.0317060958150108,-171.9310068284459,624.8797828891882,401.61940791618224,-9.299881836233114e-05
80,1724915045094474176,-0.4010114967823028,0.0878952518105506,0.1604918837547302,0.0368298888206481,0.0004260807472746,-0.3321199417114258,0.9425178170204164,0.0,0.0,0.0,0.1082518134055884,1.5639910515717608,1.0511255410833784,0.244142666,-0.079627359262559,-0.4977596357512083,-1.8842612485721315,2.7589217931391463,-171.76528698787968,-783.0046659953782,0.0692199783061851,0.0252697477380843,-0.676703643064321,0.0152806420592703,-0.0445661936584942,-0.0304579721512134,-177.34015173450064,595.586430686887,390.63799208418743,-5.24134416209988e-05
82,1724915045104353619,-0.4009666740894317,0.0878690034151077,0.1604799926280975,0.0369651280343532,0.0011462622787803,-0.3335662484169006,0.9420010447502136,0.0,0.0,0.0,-0.629223602407718,2.0367059156291885,1.8642606351448177,0.254022109,-0.018639182611695,0.1357672565665642,-0.316063729089729,12.163461180634105,38.903477355477015,87.9628084079865,0.0689570920620997,0.0268234151288205,-0.6797271787695556,0.0068351762314158,-0.0005349985678453,-0.0028648893204268,-26.277747304691673,-85.45483641820174,-5.371083506092237,-1.101908464080564e-05
84,1724915045115553961,-0.4008609354496002,0.0878899544477462,0.1604268103837967,0.0384544916450977,0.0021573393605649,-0.3347252905368805,0.9415283799171448,0.0,0.0,0.0,-0.3093520070055363,-0.6130807800522416,0.6907954340165435,0.265222451,0.1936586526797923,0.2512306779623628,-0.2294842988741453,-24.078923285592538,-27.490355553101164,-14.502403371013187,0.0710590884557844,0.0298101891711142,-0.6820952818465517,0.0026526571059548,-0.0084538157781111,0.0062227354612627,39.07887094422338,-69.69999970698483,-84.35125303206615,-5.68643454310115e-05
86,1724915045124359431,-0.4008845686912536,0.0877440422773361,0.1605575531721115,0.036766305565834,0.0016632403712719,-0.3368822932243347,0.940827250480652,0.0,0.0,0.0,0.1075808067183036,-0.0715603642966826,0.0893986273567404,0.274027921,-0.3162744779339485,-0.2525068314269567,-0.5110929149610081,-26.413206289122503,-27.767067278071817,-12.272010479259636,0.068140077397394,0.0279050998463393,-0.6867413697789829,0.0003722430652999,-0.0132019997526939,0.0114708136385992,40.46779770046468,49.87727996529756,-59.687458127011936,0.0001411580084159
88,1724915045137383069,-0.4008208513259887,0.0876369923353195,0.1606418937444687,0.036331832408905,0.0015622312203049,-0.3386768102645874,0.9401997923851012,0.0,0.0,0.0,0.5020640467729887,0.3541758963508006,-0.5220870855111295,0.287051559,-0.0535460156321436,-0.0470425580682677,-0.2912732916929049,14.511030066478943,24.870640938301392,-6.2723623794655055,0.0673365890103749,0.0275506023434101,-0.6905690200171268,0.0088341468202983,-0.0051254785914123,0.0028766731635165,-1.7341608783272413,-6.455928809566947,-2.1583060212126703,9.016338133577348e-05
90,1724915045145070718,-0.4007350504398346,0.0876116305589675,0.1606476753950119,0.0366872735321521,0.0022523566149175,-0.3402571082115173,0.9396138191223145,0.0,0.0,0.0,0.3434109954309579,0.1269069834969108,-0.3354101968615885,0.294739208,0.0323153349279632,0.1854235863666624,-0.444549327397608,3.3486363158325094,9.056491871327925,-6.1115121938047405,0.0674909581094515,0.0292030526415799,-0.6938840986421329,0.0120237265656868,-0.0036096314549993,-0.0005116232183075,-11.469036684990636,-15.066107906811531,37.59023313634047,5.774482970193764e-06
92,1724915045154710226,-0.4006087183952331,0.0875730812549591,0.160627469420433,0.0365754216909408,0.0024365035351365,-0.341776579618454,0.9390661120414734,0.0,0.0,0.0,0.3436724800463837,0.1568984515897276,0.1877884229997258,0.304378716,-0.0299265405021263,0.0166931705402172,-0.3363419248906648,-1.4309512866728715,-10.433634941221689,7.8505194348745455,0.0671076942134119,0.0295816350109215,-0.6971095244354191,0.0144699972483302,-0.0032356904690766,-0.0024716320260989,2.266939314420199,0.1862341975170434,40.933291234463944,-2.0019737656765504e-05
94,1724915045164924755,-0.4004461467266083,0.0875482931733131,0.1605981588363647,0.0365957096219062,0.0024099280126392,-0.3431825339794159,0.9385524988174438,0.0,0.0,0.0,0.3910716002876151,0.1271401933925751,0.4614779565901071,0.314593245,0.009857690483701,-0.0133523897437615,-0.2926818503044824,2.1439526362039905,11.987050381855273,-2.478212767711156,0.0671197551656803,0.0296460470402959,-0.70010286603414,0.0189534816347354,-0.0003546858268101,0.0036799545639656,-12.01946534355805,-25.717715955364504,-28.85382723024763,-3.083599589177643e-05
96,1724915045174356449,-0.4002409279346466,0.0875629931688308,0.1606899052858352,0.037028782069683,0.0034673539921641,-0.3448014855384826,0.937938630580902,0.0,0.0,0.0,0.1326196540232378,-0.314021554310999,-0.2952926004304301,0.324024939,0.014830337227816,0.2297159752074367,-0.3748623457975455,1.964606325735739,6.215120557670787,-0.5210198101583661,0.0671552691083947,0.0320449727510881,-0.7034867434881507,0.022225139386748,-0.0005046226864213,0.0068066068972054,-34.27941111571576,-25.55326144396943,-58.50793275754903,8.653093506329281e-05
98,1724915045185134967,-0.3999956250190735,0.087532140314579,0.1607272922992706,0.0373987331986427,0.003705478971824,-0.3462041020393371,0.9374062418937684,0.0,0.0,0.0,-0.321569148842179,-0.3280530645364717,-0.6582703868067745,0.334803457,0.053711035439885,0.0558175280634107,-0.2795692945361136,4.727493875199614,-15.870540347862992,11.416594355862554,0.0676379283436285,0.0328481748159345,-0.7064543206561607,0.0210154062685141,-0.0075615065580079,-0.0040968909790901,-30.391090974032316,26.244566407489817,32.318111464625886,3.4875801961387496e-05
100,1724915045194334667,-0.3998159766197204,0.0874256789684295,0.1606301963329315,0.0377128161489963,0.003183257067576,-0.3468863070011139,0.937143325805664,0.0,0.0,0.0,-0.5089170112948596,0.1296871464848217,0.1572421398120758,0.344003157,0.1059989582991418,-0.0881195339454868,-0.1543162390467125,-2.1277307946916997,-3.8582302848900025,9.2290260874612,0.0685652554066003,0.0321359862404581,-0.7079266189166978,0.016413349079464,-0.0080144803628732,-0.007378423006294,-9.564865594958803,26.27524888394735,54.199094347900896,-9.268601125281677e-05
102,1724915045204194673,-0.3996870517730713,0.0873842537403106,0.1605910062789917,0.0377197787165641,0.0031920571345835,-0.3473932445049286,0.9369551539421082,0.0,0.0,0.0,-0.4890986330304758,0.1406236718673449,0.3276254745485866,0.353863163,0.0024710946966101,-0.0015936903186974,-0.1096666782550844,-6.095784876014832,3.4694364057354896,2.101822817512322,0.0685548669707267,0.0321943825633351,-0.7090069532141361,0.0113037273476344,-0.0048449372800609,-0.0003968266026452,3.322514158341118,-8.32455743119072,-24.696290194919108,-3.866536307436855e-05
104,1724915045214443741,-0.3995900750160217,0.087327741086483,0.1606250554323196,0.0376149043440818,0.0031290526967495,-0.3479445874691009,0.9367550015449524,0.0,0.0,0.0,-0.4410628611292095,-0.0451974379699569,-0.3726847550254974,0.364112231,-0.0130871695579888,-0.0225625623695742,-0.1139759193811539,-0.1788092158938918,-2.6938862032188675,4.828929799787991,0.0683827856131401,0.0320435996822139,-0.7101888215497322,0.0066011331149908,-0.0053301534151137,-0.0010920534007521,13.531785322161392,1.287880679575359,-32.330114288453146,3.6087807768760506e-05
106,1724915045225208147,-0.3995513617992401,0.0872724428772926,0.1605633944272995,0.0375052317976951,0.002832454862073,-0.3479698598384857,0.9367510080337524,0.0,0.0,0.0,-0.1954033545122152,0.1882037853479676,-0.3137063815469747,0.374876637,0.0001286831782799,-0.0588862210956725,-0.002647653948789,-4.645401556196885,-10.171506318463631,2.475718307497407,0.0683819004168705,0.031413156489261,-0.7102606679996426,0.0020542384082382,-0.0057924260588411,-0.0085503305186751,29.189836298993168,36.990467012160344,31.73612899361376,-5.8296982274212075e-05
108,1724915045234661879,-0.39954474568367,0.0872122421860694,0.1604591310024261,0.0367469638586044,0.0020561735145747,-0.3482031524181366,0.9366962909698486,0.0,0.0,0.0,0.1334238715832686,0.6649968377993501,0.2043219658189857,0.384330369,-0.0925502812544622,-0.2114786905182069,-0.0445559692288259,1.2242110387550371,3.5548179383036733,-10.437164812027763,0.0674900177517587,0.0294470930889066,-0.7108167638257007,0.0020916275896887,-0.0020940551325741,-0.0083680092684668,2.9185364848503035,27.83086557464382,48.48084941998035,-9.989427909005764e-05
110,1724915045245347476,-0.3995055854320526,0.0872414857149124,0.160401850938797,0.0371330752968788,0.0023233641404658,-0.3493348658084869,0.9362589716911316,0.0,0.0,0.0,-0.2202456964698063,0.6893815391810664,0.6460924180372797,0.395015966,0.0537227239114146,0.0643920712171276,-0.2286015875022189,10.36099907044538,12.20687515926438,-19.665346053375956,0.0679926448700316,0.0302989324454906,-0.713208417797072,0.0050810641350373,0.0083186550653264,-0.0039498420674242,-32.20645877961906,-23.71347876668832,29.919290118493905,-6.004791922464197e-05
112,1724915045254452379,-0.3994483351707458,0.08736053109169,0.1603768318891525,0.0377607494592666,0.0024991990067064,-0.35114187002182,0.935557186603546,0.0,0.0,0.0,-0.5065674551499322,0.2717986021459837,0.8298821246903827,0.404120869,0.1222414085514475,0.0699461200485939,-0.4265949631099017,-11.044095855269235,-8.92743377293403,-18.808845820340768,0.0689877922817028,0.0312001092348539,-0.717041653151162,-0.0008033389757429,0.0123837408667193,0.0037374648769388,7.206940197065576,-31.531768252894015,-8.427931673432724,-3.481793161311633e-05
114,1724915045265136295,-0.399545818567276,0.087484173476696,0.1604980677366256,0.0363383926451206,0.0023223836906254,-0.3541182577610016,0.9344915747642516,0.0,0.0,0.0,0.0550262148261407,0.1145897424447944,0.3811151418550824,0.414804785,-0.228555146200301,-0.1450025116036534,-0.5907272103905022,4.809244076724744,0.6854233621618875,-11.364734433538082,0.0663497125366502,0.0300812090089848,-0.7234463460054628,-0.0044638003178043,0.0130977722164526,0.012423050805669,35.153360505535986,33.98921592941095,-11.674884932737305,0.0001143994410733
116,1724915045274525165,-0.399549275636673,0.0876197293400764,0.1606235802173614,0.0369439199566841,0.0023694282863289,-0.3570270836353302,0.9333602786064148,0.0,0.0,0.0,0.2414214724249845,0.8355551006543255,0.521740527007961,0.424193655,0.1271858518498921,0.0330851959627238,-0.6644439969195711,18.99729195931272,12.79682355781744,3.267927835068729,0.067354928624354,0.0308078936904741,-0.7296529900456803,-0.0006663138405649,0.0145676771150391,0.0124382327804375,8.729986899616552,28.556935677823667,6.170585037899999,0.0001156665475264
118,1724915045290106225,-0.3995673656463623,0.0878500640392303,0.1607933342456817,0.0366655923426151,0.0031750500202178,-0.3593741357326507,0.9324675798416138,0.0,0.0,0.0,0.0898399399826284,0.033349233234464,0.3901531789546837,0.439774715,-0.0653187593442005,0.0729052722388087,-0.3260092879681383,-48.32126454790568,-6.614140546065773,-117.20585245635888,0.0661796401504031,0.0322801992981185,-0.734647803205697,-0.00112059982402,0.0451434359051958,0.0340164154173905,13.670335624365151,-192.73446285826725,-89.38040534622414,0.0001533881156979
120,1724915045293862184,-0.3995715379714966,0.0880471095442771,0.1609420329332351,0.0361978225409984,0.0034946433734148,-0.360931247472763,0.9318831562995912,0.0,0.0,0.0,0.1623707397090143,-0.8184411350569488,-0.0188352750931383,0.443530674,-0.279375582597374,0.0397604031861338,-0.8920151648531979,-38.331242092710376,-7.449749322954181,-99.11431746234337,0.0650220655804886,0.0326488491015086,-0.7379829878205187,-0.0006754244607858,0.0435221446512712,0.0345811638782636,11.614205603162915,-168.21097147745385,-58.75583081560592,0.0001345966172658
122,1724915045305615603,-0.3995634615421295,0.0882298350334167,0.161164253950119,0.0359616763889789,0.0036362500395625,-0.3618047833442688,0.9315529465675354,0.0,0.0,0.0,0.0157970952368576,-0.641209823143519,1.1345203861227524,0.455284093,-0.0435899243493361,0.0027672306348465,-0.1598117918123117,13.672262031248705,1.1090975946493555,32.73249876728792,0.0644484390856597,0.0328028144030719,-0.7398562746982321,0.0028456146850892,0.0196769293797784,0.0281368178201821,-35.99433160860782,31.723574930325142,38.85770035602379,0.0002087614432497
124,1724915045317043831,-0.3995069563388824,0.0885006040334701,0.1615883708000183,0.0363107994198799,0.0039075552485883,-0.3624008595943451,0.9313066005706788,0.0,0.0,0.0,-0.6569494679369922,-0.0937119127035694,0.9199661623315444,0.466712321,0.0416676256520714,0.0627410345462397,-0.1142596802675985,-15.314165009776286,11.400475328074783,-8.763663200276172,0.0648828877362018,0.0336027171877676,-0.7411137254722083,-0.0001272105007075,0.0277678724002505,0.0598018826804356,-6.669950275075394,5.295035172690184,-137.82044534518872,0.0004028298868669
126,1724915045324088255,-0.3995298743247986,0.0887139067053794,0.1621081680059433,0.0359827056527137,0.0047047673724591,-0.3631355166435241,0.9310293793678284,0.0,0.0,0.0,-0.4772838137849333,-0.2414442756045592,-0.567825396656884,0.473756745,-0.1651034672068922,0.1697668176073293,-0.2313562089147101,-26.1119947880661,-15.789179941462214,-4.9160313622189005,0.0636667239971703,0.0349008349437206,-0.7426641514041401,-0.0064781194573377,0.0236266064985399,0.0582458842561619,43.20250196798616,28.90919017895891,-104.81419355265987,0.0005038057919669
128,1724915045335262678,-0.3996594250202179,0.0888599902391433,0.1624835282564163,0.0327747128903865,0.0026395681779831,-0.3636439144611358,0.9309576153755188,0.0,0.0,0.0,0.3191867790808141,0.9657726712423976,0.1467283153490091,0.484931168,-0.3994504553822369,-0.5558502894648537,-0.0787825490366618,4.139258555123806,-6.6806865125397605,-14.18292357491624,0.059162963451647,0.0287552645990988,-0.7439247934181786,-0.0042910310994983,0.0270694152191381,0.0457509597607419,17.574055542106723,33.65378162199776,75.01354897677165,0.0003678049640139
130,1724915045344379928,-0.3996442258358001,0.0892109051346778,0.1629911065101623,0.0317232646048069,0.0022131642326712,-0.3654302358627319,0.930295467376709,0.0,0.0,0.0,0.0799344436264347,0.7193038221202808,0.9129787833320328,0.494048418,-0.1749162875076879,-0.1834138927453756,-0.4151637182519904,15.7690567574912,33.73568076428615,-22.347309423087893,0.0574595261183463,0.0273064667955453,-0.7478025257682522,-0.0004625014797703,0.0407669192558399,0.0564980516610384,-17.92752861033991,-62.31354385962685,41.81765764371423,0.0004849818353381
132,1724915045354740054,-0.3996740877628326,0.089660070836544,0.1635861545801162,0.0313153900206089,0.0029073567129671,-0.3677051961421966,0.929410457611084,0.0,0.0,0.0,-0.0079187364406965,-0.3416072876858478,0.8491078190348227,0.504408544,-0.1158311277396052,0.0823433841341971,-0.4754226558675968,-5.914068677001975,-0.3532653929037117,-2.076004151722355,0.0561237410990272,0.0284377515327035,-0.7526733879956866,-0.0036368456818465,0.0390003764031918,0.0628276808370404,19.23018836372165,-51.30906662108187,-37.790622218202,0.0005672911039309
134,1724915045365574574,-0.3997220396995544,0.0900332778692245,0.1643279492855072,0.0293089672923088,0.0025169567670673,-0.3700286149978637,0.9285545349121094,0.0,0.0,0.0,0.5144044476792365,-0.3185861807151009,0.0813269930504931,0.515243064,-0.3115374962318136,-0.2161395521473284,-0.4555337690631621,8.690756824575484,-6.551719874083818,-0.1409380555191397,0.0526098014344153,0.0263676316407454,-0.7577307648432559,-0.0003406568928525,0.03336062551592,0.0747257156845027,21.915615934465976,47.313827625960286,-78.51264634514513,0.0007203180233133
136,1724915045374369047,-0.399695873260498,0.0903189182281494,0.1650298088788986,0.02892198972404,0.0021436729002743,-0.3719658851623535,0.927793264389038,0.0,0.0,0.0,0.519442929239275,0.4200981546214379,-0.6637483539098241,0.524037537,-0.044122253961856,-0.1238665475088039,-0.4708835458462057,19.03147638686953,7.547537486086841,10.337899377520204,0.0521130227806465,0.0254965199139774,-0.7619246794047929,0.005683597968634,0.0320004522055041,0.0681822322393737,-19.91194520772993,71.24175770320946,-55.78843378006556,0.0006844349872313
138,1724915045384886988,-0.3996020257472992,0.0906494706869125,0.1656007170677185,0.0288233272731304,0.0017525285948067,-0.3730035424232483,0.9273804426193236,0.0,0.0,0.0,0.0523279360926436,1.0090003029927437,-0.8865821460613112,0.534555478,0.0129527262301465,-0.0815228523716075,-0.2101525119465076,-5.867947764841489,8.378878375189394,3.2576091595638808,0.0521926587477177,0.0247554562568683,-0.7641774180176287,0.0090644407319437,0.0436490233647894,0.0622110302597533,-28.49704330817106,-2.1396567012904093,-54.11929622381852,0.0005501395609746
140,1724915045394686523,-0.3995119035243988,0.091188795864582,0.1662827730178833,0.028222756460309,0.0022586053237318,-0.3746990263462066,0.9267141819000244,0.0,0.0,0.0,-0.0816299009863272,0.4572950894641558,-1.7176130036637254,0.544355013,-0.1476704362047741,0.0403302346847923,-0.3748168810272832,0.8098120403044136,8.093707838301968,5.974042104877686,0.0506541756549029,0.0253389533477501,-0.7678265485887128,0.0071202220468329,0.0526374774898386,0.0506116251425723,-7.617503175797088,-46.69078681725104,-8.473650050614161,0.0006503092750687
142,1724915045405034681,-0.3994609117507934,0.0917072892189025,0.1665990054607391,0.0286039728671312,0.002541136695072,-0.3749956488609314,0.9265816807746888,0.0,0.0,0.0,-0.0943204102792662,0.0791264858747542,-0.9712100564219543,0.554703171,0.0486702891478135,0.076650358038496,-0.0640974230194644,11.48991918333832,3.415125960253469,13.630765059252074,0.0511417918043638,0.0261648574576424,-0.768448715016562,0.0075514975564026,0.0523436729892301,0.0270028229797603,-1.1260931687970586,-14.213678265211431,109.03841273749308,0.0002863847284439
144,1724915045416238787,-0.3993444740772247,0.0923209115862846,0.1668584048748016,0.0292910169810056,0.0029673613607883,-0.3755508661270141,0.9263340830802916,0.0,0.0,0.0,-0.1057210229442172,0.1907672632227188,0.6982097934411797,0.565907277,0.0866223963643974,0.1137651286765601,-0.1102717256394314,-25.110369684827653,-16.847181887877024,-12.793867533425011,0.0520809707425732,0.0275015361201562,-0.7696172739458877,0.0048449624636113,0.0545345050812668,0.0320156082827214,39.915453301408114,49.63459124456385,47.025773325872905,0.0002223613696356
146,1724915045426783297,-0.3993484377861023,0.0928936377167701,0.1672839522361755,0.0265118144452571,0.0026421439833939,-0.3772001266479492,0.9257485270500184,0.0,0.0,0.0,0.7213764502169326,1.1078178244289414,0.1821001709635774,0.576451787,-0.4609581443456779,-0.2639407278515861,-0.3312421833258274,-11.627061189667437,-5.965249508753102,-7.635860986419141,0.0471253500447807,0.0248950127506506,-0.7732450570460145,0.0050782805578322,0.0564987056205197,0.0418668003948585,47.43941913260158,27.20924159683568,-58.241581542448486,0.0003957483666481
148,1724915045437210769,-0.3992392420768738,0.0935052931308746,0.1677360832691192,0.0256679225713014,0.0029193225782364,-0.3785199522972107,0.9252325892448424,0.0,0.0,0.0,0.8963935350592087,0.7753097941945297,-0.5210677658845397,0.586879259,-0.1666018079220373,-0.0182875075710749,-0.2735114795865287,5.175362713790786,-5.9011790954301215,18.78043209367973,0.0453170336215311,0.0248362996961338,-0.7761036944213945,0.01981088723549,0.077553127114994,0.0360096925690527,328.6697827510584,778.9546510603575,1291.1099905182273,0.0004195916476017
150,1724915045445729853,-0.3990054726600647,0.0942974835634231,0.1679916977882385,0.0241113137453794,0.0022996182087808,-0.3786299228668213,0.9252312183380128,0.0,0.0,0.0,5.867070121616825,13.05472050750354,19.93342026790972,0.595398343,-0.282964346445538,-0.2735967601206387,-0.0213414939840817,-4.284856750817595,-20.620844699362575,19.5730069316365,0.0428996997334888,0.0225157892300382,-0.7763881859401719,0.0238527204828988,0.075501117029765,0.0318534691086132,86.27591458032572,273.9010498616024,600.1870584170845,0.000215316344929
152,1724915045463910475,-0.3987110257148742,0.0949915796518325,0.1686425358057022,0.0231503788381814,-0.0001019098563119,-0.3791501224040985,0.9250454902648926,0.0,0.0,0.0,-11.855405382324989,-27.263815208798743,-39.025959455887914,0.613578965,0.0028467474092661,-0.2857903363180575,-0.0545562021385019,116.49402752521064,1614.0804577819308,-3341.1280506886383,0.0429272399053506,0.0173672684796565,-0.7776021817773985,0.3397501301682837,0.8287045563986055,1.1865885450271207,-3219.934285335863,-7671.531610702917,-11376.70081716177,0.000615241160005
154,1724915045464870040,-0.398368626832962,0.0958268120884895,0.1698394268751144,0.023448284715414,0.0005112558137625,-0.3806567788124084,0.9244189262390136,0.0,0.0,0.0,-15.058847348641311,-34.90136171113747,-50.354579010052355,0.61453853,0.1197340478698468,1.3448045062585354,-3.429706002385778,105.3588873088768,1527.8093956717853,-3163.7203399491314,0.0429836769959895,0.0187978332005763,-0.7808353533939312,0.3268936869872059,0.7990641823332422,1.1439473915438028,-3045.850010372338,-7265.740351353323,-10793.25091660571,0.0011532514476978
156,1724915045474445493,-0.3980987071990967,0.096659168601036,0.1709150373935699,0.0207326542586088,-0.0005148475174792,-0.3803950846195221,0.9245914816856384,0.0,0.0,0.0,-16.267211821322157,-38.19437637020519,-56.93412934551176,0.624113983,-0.4436274553406258,-0.4127688625992287,0.0689829392863237,-35.18888402680369,-91.39628290259726,181.1543621236885,0.0387441089755895,0.0148216949563471,-0.7803367016572802,0.0240185306525084,0.0815116169159901,0.0964331005040293,687.7139888545531,1652.956895055867,2228.3855478687015,0.0010385855390424
158,1724915045484811480,-0.3978965282440185,0.0974433571100235,0.1717362701892852,0.0174876153469085,-0.0009937109425663,-0.381007045507431,0.9244062304496764,0.0,0.0,0.0,-0.0048763880035698,1.3484736824150918,-1.117457498766929,0.63447997,-0.5430553519133448,-0.3260534370309298,-0.1205256525225699,26.227087713356525,46.25823357891237,-28.992392437473235,0.0330967687881997,0.011488876882137,-0.7817068430994217,0.0277949421144292,0.0979033766948402,0.0949682495549986,713.0357785763232,1763.7163868251057,2390.3694483850672,0.0007929031960961
160,1724915045494221779,-0.3975641429424286,0.0985547602176666,0.1727644503116607,0.0183083247393369,0.0009118672460317,-0.3830784261226654,0.9235339164733888,0.0,0.0,0.0,-0.6056951172968004,0.4248241561735693,-4.202222369795461,0.643890269,0.0097396475550308,0.4329584162200349,-0.4848505841302427,27.915248174304462,22.54977195568374,-7.618312785646557,0.0331282319116345,0.01571197556148,-0.7861324239642848,0.0245952153271389,0.1086039269170688,0.0761137128113853,-10.7984085347243,-81.3915188060371,-171.41601611712304,0.000985026108336
162,1724915045505330985,-0.3974315822124481,0.0996366590261459,0.1731752902269363,0.0177070032805204,0.000704773934558,-0.3839150071144104,0.923198401927948,0.0,0.0,0.0,-0.0299345598620288,-0.2595464158095382,-4.055473102278544,0.654999475,-0.0844528802585338,-0.0786053344948378,-0.1616490138911841,-15.680320107604224,-56.8488529129048,32.86654577194661,0.0321621205816794,0.0148978119969148,-0.7879560142098416,0.0143821913396742,0.1039818721199266,0.000595889374118,36.75753294901341,-27.434768999293635,216.6231916411738,0.0003729948556676
164,1724915045514716359,-0.3972771763801574,0.1006648540496826,0.1728923767805099,0.0151995252817869,-0.0018127759685739,-0.3832038342952728,0.923537015914917,0.0,0.0,0.0,0.19555968615894,-0.2461037532754999,-0.4095114263107612,0.664384849,-0.2887197776822676,-0.6977883647340247,0.1767353459962844,8.365625209998019,-12.081295800868416,5.285801369822995,0.0294692541365176,0.0083007966427672,-0.7864997943129132,0.021153287137535,0.1027869035025785,-0.0157224864903868,45.591014690171946,327.17078061817307,305.35580111310276,-0.0003125342633803
166,1724915045526989297,-0.3969421088695526,0.1018177643418312,0.1729308664798736,0.0169326364994049,-0.0023820386268198,-0.3846269249916076,0.9229137897491456,0.0,0.0,0.0,1.1011881891298418,8.996989988796376,2.00416572913118,0.676657787,0.2975048016662427,0.0188446572042718,-0.2521953279037513,3.624791686309644,18.252340021978615,-8.389615346260381,0.0330943923394684,0.0086287703011429,-0.7895863448603263,0.0151133832817791,0.0978601768145672,0.000583675377439,32.0903688791339,195.57561126885696,140.92988860728343,-1.29177762951735e-06
168,1724915045540645633,-0.3969209194183349,0.103213757276535,0.1729000508785247,0.0139940232038497,-0.0036902099382132,-0.3844376504421234,0.923037588596344,0.0,0.0,0.0,0.9057608146428552,3.195453662369445,3.0817947733198885,0.690314123,-0.3237433826958143,-0.3418339044187353,0.0368255645375152,-252.61654347044615,-165.72264471176484,-185.37537501503024,0.0286754832381889,0.0039472640861849,-0.7892278467070003,0.0543631445569587,0.3635413830607312,0.0382184931387712,-315.602268126479,-2045.2362007304191,-96.3619949490676,-6.327827637279843e-05
170,1724915045544091326,-0.3966876864433288,0.1046935990452766,0.1730669289827346,0.0111286686733365,-0.004405430983752,-0.3857119977474212,0.9225415587425232,0.0,0.0,0.0,-0.4436504748450388,-5.260586785857448,2.597379201957744,0.693759816,-1.3742566118521506,-1.0339805505818158,-0.7814860091111531,-213.08089159763463,-147.16983722602396,-172.4001959561153,0.0239340613514522,0.000456535735016,-0.7920132349317682,0.0557728413273945,0.3604160864739478,0.0491207874994312,-318.59027951795724,-1957.1313170826377,-144.73450105206086,0.000137575310565
172,1724915045555248087,-0.3964958786964416,0.1062199398875236,0.1736398786306381,0.0073126959614455,-0.0072337444871664,-0.3875832557678222,0.9217773079872132,0.0,0.0,0.0,-1.359842777754018,-9.14354172584089,0.8327426367221915,0.704916577,-0.4354700377128035,-0.7359294817866492,-0.3536523921698887,52.61163050771091,53.826600174955,33.377538793243936,0.0190904315262173,-0.0076673211456941,-0.7961346246182305,0.0200174396156782,0.144455171492055,0.0576290595620552,38.35264151837993,320.27762349662265,-98.7716504843851,0.0005571648207071
174,1724915045564858636,-0.3962801098823547,0.1076715365052223,0.1742456704378128,0.0064805508591234,-0.0068498183973133,-0.3879173994064331,0.921645998954773,0.0,0.0,0.0,0.0060944338725833,-0.5327790208621277,0.3752085568608305,0.714527126,-0.1908970409131,0.0058218323876101,-0.0740201659041773,28.94136495807209,39.825954033076634,11.369808983189928,0.0172612304438023,-0.0075984516846659,-0.7968450179186132,0.0222224736990632,0.1411337405547934,0.0662127645476751,63.17864962249779,507.7642539917372,-38.375205688216155,0.0005922490255631
176,1724915045574964515,-0.3960579633712768,0.1089925244450569,0.174948588013649,0.0071538002230226,-0.0070640593767166,-0.3885988593101501,0.9213521480560304,0.0,0.0,0.0,-0.1944139390153718,0.4732651476940024,0.0855024027307465,0.724633005,0.1386998251654792,0.0113363201874561,-0.1474939303108595,-2.562442389966044,-20.5542137741166,5.077208755147937,0.0186741137540157,-0.0074571244619816,-0.7983331440870567,0.0199106397663548,0.1337604656102362,0.0645005008779229,-8.001901953771496,69.43397995511765,-85.6143254225662,0.0006884874252871
178,1724915045585463112,-0.3958715200424194,0.1104300394654274,0.1755706220865249,0.0049509410746395,-0.0086128264665603,-0.3884280920028686,0.9214255213737488,0.0,0.0,0.0,-0.1493012186793674,0.8737576308956019,-1.4344272452915936,0.735131602,-0.2718607965303753,-0.4345815900304845,0.0404797538425628,-52.2997309932855,-34.711999999651944,-24.080083445671622,0.0158165775974694,-0.0120262769384112,-0.7979869846359879,0.0182441781861868,0.1518482536690424,0.0681786223516667,4.296455096290057,-49.708266518011754,-236.53839355848837,0.0006147375841104
180,1724915045594347170,-0.3957057893276214,0.1118912622332573,0.1762434542179107,0.0003679092624224,-0.0099621741101145,-0.3904715776443481,0.920561134815216,0.0,0.0,0.0,-0.1111355372163198,-0.2283347287428956,-4.225711453347419,0.74401566,-0.8356808581642065,-0.6846113897074608,-0.4890824544238891,-30.03089652844331,-10.285926347545152,-20.85814137002699,0.0084587371752921,-0.0180552453490651,-0.8024061472646006,0.01698867511735,0.1532272490308033,0.0420175107355653,7.20377587373428,-96.09953712921836,-190.51664008216568,0.0006799893908189
182,1724915045605855935,-0.3955351114273071,0.113486997783184,0.176224336028099,-0.0044466559775173,-0.0112707326188683,-0.3913088738918304,0.9201796650886536,0.0,0.0,0.0,0.0151232006519064,-0.9175687284113216,-4.574483596539379,0.755524425,-0.6828443678050857,-0.5367504345739914,-0.1514133795820173,30.523465599597404,18.097952053718608,24.359068703224995,0.0006374176240074,-0.0242245990415926,-0.8041770691898761,0.0161596733599296,0.1448809932430084,-0.0257133218069949,18.392620224061275,-14.640407564157384,181.82705408489832,5.075232205085256e-06
184,1724915045614911449,-0.3953793048858642,0.114843338727951,0.1758201122283935,-0.0062241833657026,-0.0121652297675609,-0.3911755084991455,0.9202147126197816,0.0,0.0,0.0,0.2345608402579911,-0.727748485287389,-1.4164619568753336,0.764579939,-0.2835754910867707,-0.3354549164095335,0.0336791588275254,45.68315426186798,9.59327641294649,22.725111356137965,-0.0019384118387147,-0.0272621198629042,-0.8038700641934381,0.0169176220514515,0.135201331297937,-0.057798837542899,-1.4211657185407796,54.29995694228193,331.01678146393147,-0.0003783564633307
186,1724915045625118624,-0.395209938287735,0.1160556226968765,0.175078734755516,-0.0060625891201198,-0.0143555719405412,-0.3897784352302551,0.9207768440246582,0.0,0.0,0.0,-0.0750982818086336,0.2100657648419757,1.7583711376537243,0.774787114,0.2010358677734864,-0.3829131105448225,0.2919319973140002,-6.450642707588742,21.74884983062572,-14.74810782207661,2.6414211066993295e-05,-0.0311677354078459,-0.8008852055088336,0.0210475223356603,0.1316984096541755,-0.0477881260477701,-50.62700439429376,1.1767940005240156,157.35704657412248,-0.0007175931282047
188,1724915045634665453,-0.3949692249298095,0.1174283847212791,0.174844354391098,-0.0074395239353179,-0.0134594207629561,-0.3907104134559631,0.920385241508484,0.0,0.0,0.0,-0.7395956697149257,-0.5885886183848426,1.888371358192665,0.784333943,-0.3420828639362421,0.060435622831862,-0.20647327027172,-46.85615523972637,-11.644993952842952,-11.18251628366934,-0.0031784771024674,-0.0305938757502973,-0.8028582614685156,0.0160471806432269,0.138643936082409,-0.0240577415332303,-42.60576750506782,-103.38459225865437,26.003485035588582,-0.0002055967665644
190,1724915045644564889,-0.3949044644832611,0.1187480315566062,0.1746112555265426,-0.0119078187271952,-0.0150621337816119,-0.3902552723884582,0.9205064177513124,0.0,0.0,0.0,-0.8842301956344517,-1.8145478595997595,2.272938155770186,0.794233379,-0.7029346896711837,-0.6510831092092051,0.1039386848110392,-8.667449739961333,-36.98392390935794,18.126606655840384,-0.0101734433052851,-0.0370322233662808,-0.8017855531079255,0.0065101348222462,0.1193072797299468,-0.0114953672747368,6.80566162274058,-55.531157093168694,27.909747475247983,-0.0001896770194977
192,1724915045654922358,-0.3948373794555664,0.1198320612311363,0.1746227890253067,-0.015588728711009,-0.0171866696327924,-0.3895425498485565,0.9207162261009216,0.0,0.0,0.0,-0.5816616603846505,-1.6494537064948038,2.4434851054054803,0.804590848,-0.4916174914787039,-0.6560425570190292,0.14831582068952,1.370670573478872,9.40553414953492,-14.85961941149098,-0.0153310208968342,-0.0438070474978821,-0.8001617065762934,-0.0017903905575629,0.102016867434532,0.0229259013220222,42.02559971998251,122.51118120995146,-46.23129073702068,5.5845448427479575e-05
194,1724915045665480610,-0.3949452638626098,0.1208807155489921,0.1750996112823486,-0.019810052588582,-0.0179906710982322,-0.3906066715717315,0.9201686978340148,0.0,0.0,0.0,-3.933815430448573e-05,0.791072142911406,1.2805562098741363,0.8151491,-0.6819826969273051,-0.450351884881251,-0.2146231319559091,3.751847508502892,23.081782769695703,-17.537945139909183,-0.0224309966400149,-0.0486039164472135,-0.8023398641263354,-0.0055666415145978,0.0848158400292407,0.0392551458283287,45.627879487357674,148.55517732208634,-99.40157460493523,0.0005310110253215
196,1724915045682176398,-0.3949154019355774,0.1219138354063034,0.1755990833044052,-0.0200426764786243,-0.0176257248967885,-0.3911014795303345,0.9199604392051696,0.0,0.0,0.0,0.5120232587882828,1.0907599915165989,-0.0954177231858945,0.831844888,-0.044278375439774,0.0300678334835922,-0.0629187842403115,78.49799081829764,-38.80835335923639,183.34785515681688,-0.0231188694690517,-0.0481259554142646,-0.8034026340405721,0.0038742425181084,0.1619200377776657,0.0536115655658306,-82.39440184385003,-507.86833060025094,-259.0604275352311,0.0005506019493925
198,1724915045686837493,-0.3948946297168731,0.1227987408638,0.1758798062801361,-0.0195001028478145,-0.0184309538453817,-0.3888901174068451,0.920893371105194,0.0,0.0,0.0,-0.0191529383874801,-1.960696517272096,-1.53278794858001,0.836505983,0.3740528015588431,-0.2387659732511644,1.0184450305804935,36.46897116200586,-43.10041139055511,112.63352798511389,-0.021607553636921,-0.0491324462232945,-0.7986263056215038,0.0061912891623734,0.1624140278983548,0.0519237061804203,-107.29627711316364,-474.42795071945744,-286.5111547934964,0.0003243954085253
200,1724915045695277585,-0.3948158621788025,0.123750239610672,0.1761911511421203,-0.0206492505967617,-0.0196775700896978,-0.3883056342601776,0.9210891723632812,0.0,0.0,0.0,-0.8229094064445645,-3.210360778159645,-3.6168084317063753,0.844946075,-0.1324286702662722,-0.3797782100552461,0.1448473722042883,-110.85837428888884,-40.44392615900071,-49.780370074210154,-0.0227909244651676,-0.0523098870680549,-0.7973313004849293,-0.0018602704816395,0.1142806883191474,0.0210955539548614,-6.361209290078042,43.41365846854135,-66.21241433940484,0.0003599813713412
202,1724915045704026315,-0.3949336409568786,0.1247640624642372,0.1762324869632721,-0.0285765957087278,-0.0208267085254192,-0.3875499665737152,0.9211702346801758,0.0,0.0,0.0,-0.0726345764522775,-1.0941119410364308,-2.557315900888912,0.853694805,-1.5634340616576423,-0.948869288318212,0.1965488293313524,-41.38936470657788,-7.010903901391911,-3.5628117876115213,-0.0365802321994361,-0.0605566098186118,-0.7953628501001103,-0.0078711769996324,0.1087984493542544,-0.010222482448488,70.07623973085504,134.27312445804807,167.24860085488265,0.0001128843241066
204,1724915045714305680,-0.3949470221996307,0.1257968842983245,0.1759468764066696,-0.0316486805677413,-0.0213124994188547,-0.3873405456542969,0.9211468696594238,0.0,0.0,0.0,0.4583019088871799,-1.0136693590732315,-0.2807627092292931,0.86397417,-0.5132517485907014,-0.3199718366178883,0.0455196153535623,48.82284002664309,25.933679406236028,-10.342388999507229,-0.0418933033928455,-0.0638248427495544,-0.7947652383980106,-0.0011969059664131,0.0919055542864422,-0.0241616364735648,6.033019604128653,46.51313602197881,147.10193929249382,-0.0002073094415162
206,1724915045725019617,-0.3949586749076843,0.1266858577728271,0.1757284700870514,-0.035441406071186,-0.0222496781498193,-0.3874130547046661,0.9209560751914978,0.0,0.0,0.0,0.0135319958154259,-0.0833118541871043,0.4648382239905972,0.874688107,-0.585822680534982,-0.4357179086593592,-0.0167113038441394,16.354651006835685,6.897142799205751,-11.203025227534194,-0.048171871023944,-0.0684964282156701,-0.7947338749611583,0.0015805899307039,0.0880770599882252,-0.015162299528761,-35.83218890118082,29.24575108431595,-3.6425323624097903,-0.0001441261174009
208,1724915045734048124,-0.3949241042137146,0.127519890666008,0.1756313145160675,-0.0369330644607543,-0.0228092111647129,-0.3880611956119537,0.920610785484314,0.0,0.0,0.0,-0.2667567437732637,-0.2574268657196317,-0.1252300959117716,0.883716614,-0.2622005921427817,-0.2387780886433879,-0.1589013031896607,18.23406391483642,15.399484920654167,-5.335358306612845,-0.0504466543869742,-0.0707203248633186,-0.7960636723287856,-0.0001666462887381,0.0894097264347433,-0.0138195530656863,-2.4537887369786375,14.434347827682926,-82.69662025693474,-2.576979855158749e-05
210,1724915045745282322,-0.3949818313121795,0.128482848405838,0.1754333078861236,-0.0388320013880729,-0.0229665096849203,-0.3884460031986236,0.9203664660453796,0.0,0.0,0.0,0.1053442321258081,0.3760860424076382,-1.296658541801064,0.894950812,-0.3035269607164809,-0.155431666581171,-0.0732700583043603,-13.988310033149284,-3.235602346368859,7.706946626337105,-0.0538041026725039,-0.0725069968963593,-0.7967966523026027,-0.00418714096695,0.0808558833788044,-0.0190559331755384,15.68857199412624,32.7700413035222,-68.39107555587167,-0.0001104885333408
212,1724915045757285383,-0.3950198888778686,0.1293910294771194,0.1751862317323684,-0.0429402142763137,-0.0233821254223585,-0.3883365094661712,0.920219659805298,0.0,0.0,0.0,0.0700772092384568,0.4664928169618578,-1.657385838932787,0.906953873,-0.6036465526401641,-0.3309091159213941,0.0203215134171813,13.100172596088868,14.05264799315508,15.107678005207458,-0.0610849237631776,-0.0764583615020722,-0.7963237395337945,0.0030179519885109,0.0999579499287115,-0.0452712023472621,-41.94760237256738,-152.9208451502574,99.63444432330483,-0.0001572610101218
214,1724915045764772547,-0.3949683904647827,0.1302528977394104,0.1747319847345352,-0.044216863811016,-0.0231951009482145,-0.3877727687358856,0.920401692390442,0.0,0.0,0.0,-0.4261762445424649,-1.4278098201317206,-0.3057303417718864,0.914441037,-0.327608279267177,-0.0917882565852164,0.1675766290951297,32.009650952210436,26.02570190429414,6.647601498827322,-0.0636373950370336,-0.0770660739729173,-0.7950249128535126,0.0010664780854536,0.0981968757396707,-0.0552206605004501,-25.49580976625172,-100.00827503055044,67.72290619912891,-0.0003667594511674
216,1724915045775652874,-0.3950486779212951,0.1310538500547409,0.1742173284292221,-0.0442957691848278,-0.0225782115012407,-0.3876328468322754,0.9204720854759216,0.0,0.0,0.0,-0.0587205330971415,-0.0968343308623338,-1.3525008648859496,0.925321364,-0.056152632967569,0.0979078299225748,0.0340408911084844,10.19373256954308,0.5548511334600175,-5.967944626730434,-0.0642714631514261,-0.075979298877598,-0.7947223735638771,-0.0061877547023776,0.0638053678904722,-0.0423699968509554,21.969257590246876,114.0004761106096,-45.7915548438095,-0.0004321974937265
218,1724915045789177427,-0.3951123356819153,0.1317518800497055,0.173727199435234,-0.0458077304065227,-0.0232345853000879,-0.3872349858283996,0.920549213886261,0.0,0.0,0.0,0.0399750254061893,1.304963230749831,-1.1242462730578282,0.938845917,-0.1663473243815732,-0.1783632671299625,0.0593262122882668,45.391918750562795,-67.4130510426605,92.26849076416028,-0.0665953313272941,-0.078333957815321,-0.7937611452117146,0.0032395551464432,0.1140067797530122,-0.1032552051718447,-55.426446043477306,-341.24190265684837,420.6816891333135,-0.000415648025378
220,1724915045794379528,-0.3950795829296112,0.1324698030948639,0.173055961728096,-0.0460550747811794,-0.0248187687247991,-0.3854244351387024,0.9212552309036256,0.0,0.0,0.0,-0.3738659829826947,-1.360411483823139,1.872172279096679,0.944048018,0.1769158299702243,-0.6230684129170728,0.7201992427880819,27.26954927464592,-42.16355477508353,68.18093807363888,-0.0659912430489728,-0.0813199409774629,-0.7897956587442003,0.0021327369446719,0.1159792435526716,-0.1023453009812778,-56.75178588957013,-360.0668076464279,402.5827263497283,-0.0005932425453237
222,1724915045804840325,-0.3951448500156402,0.133219689130783,0.1725467145442962,-0.0480856299400329,-0.0247980281710624,-0.3844912052154541,0.9215418100357056,0.0,0.0,0.0,-0.487909247291115,-1.9233429604192804,2.4355729169006213,0.954508815,-0.3522281212320136,-0.1528345620701955,0.1953099051930061,-21.2761193885215,29.172695328462257,-31.841652055015356,-0.0698523617140714,-0.0827763402819201,-0.7876413236448055,-0.0051670503469498,0.0651555314214906,-0.0470583153882877,8.005690457988734,66.38551166530478,-64.21328098990534,-0.0004249371973906
224,1724915045816640382,-0.3951915502548218,0.1339016109704971,0.1720130294561386,-0.0492962673306465,-0.0243976414203643,-0.3841708302497864,0.9216222167015076,0.0,0.0,0.0,-0.1417660143198098,0.4599514131650339,0.1062280877632844,0.966308872,-0.2131832217371098,-0.018630046231255,0.0636317012430472,10.683319058128989,3.3891516021853834,-5.856651920632535,-0.0724314450296743,-0.0829422590103722,-0.7868742058316077,-0.0081302887012633,0.0815291090336618,-0.056248636467993,-5.669956609848015,79.86526656659936,-65.2177572234261,-0.0004553785946561
226,1724915045824351115,-0.3952752649784088,0.1346498727798462,0.171523779630661,-0.0498334541916847,-0.0243033766746521,-0.3840167820453644,0.9216599464416504,0.0,0.0,0.0,-0.3618555465579371,0.4605222747190192,0.2693665456095329,0.974019605,-0.1363498808912621,-0.0327254291648662,0.0451894536485431,11.406964607601406,-0.8045764763971881,-1.853014090548728,-0.0735132542311866,-0.083168509411172,-0.7865069332867554,-0.0086724175321144,0.0804017274954427,-0.050970078345319,-15.642220852292782,4.656512445705133,-4.699381423483791,-0.0004029941496343
228,1724915045838632455,-0.3953413367271423,0.1353579759597778,0.17112597823143,-0.049460295587778,-0.0245819240808486,-0.3837823867797851,0.9217703342437744,0.0,0.0,0.0,-0.2440016524941652,0.6482346756290251,-0.4816828167888811,0.988300945,0.0647123896463704,-0.0171447147965695,0.0329763877831724,-117.25864337712386,-46.876000091919906,28.677376356507867,-0.0726297763836034,-0.0833783307035182,-0.7860177347064574,-0.0215519175899032,0.1030272676306154,-0.0581057878684667,69.38963315433517,-227.70153406441875,44.182201451670544,-0.0003169615045102
230,1724915045844312848,-0.3955020010471344,0.1360639631748199,0.1707275658845901,-0.0522567257285118,-0.0245917048305273,-0.3831009566783905,0.9218991994857788,0.0,0.0,0.0,0.2882907349452753,-1.1893590210773706,-0.012067111274636,0.993981338,-0.8981026805990207,-0.3917940950268789,0.2626001887976495,-85.06203548323619,-31.051237060638375,24.385860128007785,-0.0778714057253904,-0.0854854290094644,-0.7843570048693651,-0.0214516385060772,0.1045946364358929,-0.0608013350017948,66.57070357560475,-225.5294872167609,58.01065586024278,-0.0003135776898831
232,1724915045854614638,-0.3955953419208526,0.1367736011743545,0.1702756434679031,-0.0533362403512001,-0.0244284179061651,-0.3820923864841461,0.922260284423828,0.0,0.0,0.0,0.4671009203021208,-1.6823759127663842,0.1247776047932514,1.004283128,-0.1968759732698304,-0.0595729250251691,0.2141786980497127,40.46973494692104,9.134162245976444,7.686324293401563,-0.0800927264082894,-0.0859231483855001,-0.7821008494776667,-0.0134254087941769,0.0649661628096209,-0.0522853465107342,1.473372776586956,68.23494818675805,15.109465682129915,-0.000365349031824
234,1724915045865020417,-0.3957809209823608,0.137408435344696,0.1696431040763855,-0.054118413478136,-0.0251752641052007,-0.3800057768821716,0.923056423664093,0.0,0.0,0.0,0.315480544519351,0.2478873925153788,0.3011948512542668,1.014688907,-0.0658417440452286,-0.2074794157814569,0.4243544266945663,17.24996840641086,14.965860519138197,3.074550629067261,-0.0811760998772119,-0.0877194505798839,-0.7775082721580211,-0.01184433254965,0.0702091365367509,-0.0583642051878676,-12.672189100068914,39.927588122520504,54.288911057012285,-0.0005514683147112
236,1724915045874648994,-0.3958415985107422,0.1381664276123047,0.1691027283668518,-0.0531652830541133,-0.0244823712855577,-0.378699779510498,0.9236669540405272,0.0,0.0,0.0,0.2103807976803346,-0.6646256130674955,1.1565543521774215,1.024317484,0.1417467296288395,0.1965951963706317,0.3013980743315991,11.603057667770376,16.360006526118724,-11.544355163457071,-0.080049332911492,-0.0855989715110788,-0.7747577339138213,-0.0073496708089955,0.0703154412192095,-0.0475759384397544,-30.12932029524315,-46.60443219240668,14.715839485396788,-0.0004478713024233
238,1724915045884707442,-0.3959265351295471,0.1387853473424911,0.1687139868736267,-0.0522996112704277,-0.0242945495992898,-0.3777846097946167,0.9240959882736206,0.0,0.0,0.0,-0.2945639021103208,-0.6272797217809868,0.5257596767539796,1.034375932,0.1538367827073478,0.0920943105475999,0.1981576260010817,0.9368450276733916,-9.574602694527265,-9.495063445197657,-0.0786651197843822,-0.0845175533854448,-0.7728373267763169,-0.0079279398464969,0.0565307697032794,-0.0355633508051357,38.42501336686439,732.1988456590739,-736.2481821906359,-0.0003145129762873
240,1724915045986953981,-0.3962004482746124,0.1393669992685318,0.1682840883731842,-0.0543315187096595,-0.0256140939891338,-0.3764526546001434,0.9244865775108336,0.0,0.0,0.0,95.74870583344264,831.3971338062966,-774.7990925236774,1.136622471,-0.0259448788560898,-0.0400440074627257,0.0265782232837081,-5339.000522107573,-3726.55034709006,5101.609805096741,-0.0815810600589585,-0.0883812775180699,-0.7697893916702552,-0.2844504412238393,0.7648228929384686,-0.6766383239570075,-117765.31949397166,-458231.16371027974,151624.61175905226,-0.000355380257556
242,1724915045987787621,-0.3964394927024841,0.1400097459554672,0.1677154451608657,-0.0566141381859779,-0.0260304305702447,-0.3747649490833282,0.9250234961509703,0.0,0.0,0.0,-3.2319942723005397,446.2274633390166,-647.316639665516,1.137456111,-4.513025774623466,-3.1719655045721957,4.3141705665075225,2500.26473307712,8007.741267765981,462.6357301921653,-0.0856849339826052,-0.0907158802662747,-0.7659692626405868,-0.2039613174234773,1.4635126075446294,-1.327765426609005,-222260.31086364415,-1261573.526656142,762700.3711409478,-0.0004829983507949
244,1724915045988191373,-0.3965056538581848,0.1407360583543777,0.1670531034469604,-0.0568206757307052,-0.0253999661654233,-0.3741324841976166,0.9252843260765076,0.0,0.0,0.0,-113.2144504008404,-219.48289136520384,-220.13472927006544,1.137859863,-1.962085872212712,2.361719156031516,3.5856875195224966,5720.756020690627,-976.2092049029444,-2513.586350234794,-0.0866001331004007,-0.0896413071317482,-0.7646033693574456,-0.2247785736323067,1.5670446371884736,-1.5629667258758388,-89002.56538097892,-1150304.4088203446,1232946.264180839,-0.0005667369487238
246,1724915045988575311,-0.3966141939163208,0.1412530541419983,0.1664813160896301,-0.0570715703070163,-0.0259745642542839,-0.3736760020256042,0.9254373908042908,0.0,0.0,0.0,-80.42780854251635,-479.12586814891506,317.10132143471446,1.138243801,0.0162467087381866,-3.3733790512494544,2.3616622882436995,2448.5051532764805,-7563.840956676081,4297.97843055009,-0.0866857838960999,-0.0908531549458388,-0.7635838221771472,-0.2907558971195385,1.3090246428866124,-1.5151723197047318,347003.9489351469,246297.78608651835,1037766.2779642686,-0.0005020549114503
248,1724915045988900008,-0.3967108130455017,0.1416677832603454,0.1659822314977646,-0.057316530495882,-0.0264964625239372,-0.3727668821811676,0.9257740378379822,0.0,0.0,0.0,104.08012655971152,-145.82154894163546,554.7909221111984,1.138568498,0.0686948601278554,-3.8045350223486047,5.812850717951741,-9532.483104476138,-2108.8263553889756,6939.137038938357,-0.0868456053027029,-0.091920272483107,-0.7615881325521963,-0.291768057199647,1.2064262966519266,-1.359318565855176,492821.52739195887,827152.8673918989,161345.1631167588,-0.000442287828201
250,1724915045989240076,-0.3968079686164856,0.1420528143644333,0.1655832827091217,-0.0586945377290248,-0.0267651807516813,-0.3716697692871094,0.9261211156845092,0.0,0.0,0.0,244.8090960656031,64.46274600677316,406.39852295496416,1.138908566,-6.625681662479367,-4.79982937622584,6.858440553862791,-9940.453146023328,2189.751912564171,11217.879348089846,-0.089327973375652,-0.0933410494618335,-0.7591107582035476,-0.2181936074080113,1.2174424657891905,-1.1440130096627854,1096645.9311535545,-307170.90200480656,-1201296.0200686466,-0.0003455310814437
252,1724915045989536795,-0.3968552350997925,0.1424361169338226,0.1652513742446899,-0.0598679967224597,-0.026657398790121,-0.3699829578399658,0.9267243146896362,0.0,0.0,0.0,746.9839765595966,-266.296610747519,-148.08727810033724,1.139205285,-7.052276052122332,-2.8254474475279414,12.295246269505618,15720.832490743716,17241.886158968657,10967.451419517052,-0.0917686849027427,-0.0938460874117646,-0.7553853388789286,-0.138186719627015,1.2448722450160972,-1.0821253738274097,1230987.472121012,-611206.6286456691,486535.8933867385,-0.000278723099102
254,1724915045989793216,-0.3968859910964966,0.1427449285984039,0.1649819761514663,-0.0596341602504253,-0.0261225923895835,-0.368408590555191,0.9273815751075744,0.0,0.0,0.0,960.3821574646774,-311.4457384586258,498.5867139203722,1.139461706,0.7811379836456807,3.941956721399338,13.47755380643872,36301.217267582295,-370.5652956986496,16644.654158968948,-0.0918813323029408,-0.0925226448715179,-0.7520220363884333,0.1591334676667202,1.097092818331646,-1.199132583266021,-1171059.482286279,596305.8567051658,3806230.213315879,-0.0002268748934324
256,1724915045990039793,-0.3967805802822113,0.1429900228977203,0.1646510809659958,-0.0585443787276744,-0.0267615057528018,-0.366016536951065,0.928379476070404,0.0,0.0,0.0,196.62686609859975,18.729314588157195,1741.6388183169847,1.139708283,11.09608847482293,-2.4950579671894366,20.435099347995283,225.83897592622495,-5706.105953329639,-4949.891446535061,-0.0896164803679471,-0.0926787047846942,-0.74692640895462,0.348728570905223,1.083101000565648,-0.8497763749990099,-2674367.751296948,783534.9168272561,2957328.541169418,-0.000297429364302
258,1724915045990290674,-0.3967131972312927,0.1432844996452331,0.1645635217428207,-0.0584595613181591,-0.0265580099076032,-0.3647745549678802,0.9288793206214904,0.0,0.0,0.0,-366.3299620622494,73.5065031621779,1951.638649931938,1.139959164,0.5322068578776298,1.280539139152514,10.727202543667996,-39577.52628653656,14115.967595587274,-36510.65515005113,-0.0897286632291977,-0.0921177182169329,-0.7442633374862144,0.2519778832090864,1.1070652118783637,-0.3299200117825354,-2103537.477014821,200871.24268637117,757222.4134649298,-4.96011012565834e-05
260,1724915045994194997,-0.3967384994029999,0.1435537636280059,0.1644351482391357,-0.0592597909271717,-0.0268267132341861,-0.3630948364734649,0.9294788241386414,0.0,0.0,0.0,-49.47676389496276,-203.6025762698853,57.7155296778288,1.143863487,-0.2897526183925617,-0.3195280456653449,0.9141065582360812,-150.4346985550579,-302.87419538905385,-1906.804240511928,-0.0912004187722212,-0.0930377366155835,-0.7405805031296825,-0.0047712765309952,0.0564858839996493,-0.0308392424022905,62202.999975672035,-49339.76843388173,-366873.1846621124,-9.220602686397764e-05
262,1724915046006152438,-0.3967329561710357,0.1437721699476242,0.1641411185264587,-0.0587432645261287,-0.027090972289443,-0.3612473607063293,0.9302234649658204,0.0,0.0,0.0,0.289883190142107,-1.2774213933812135,-0.159180279725895,1.155820928,0.1120206928354764,-0.0246841926458192,0.3275028831058606,4.035034006622579,1.8466572678926827,-18.869124339104054,-0.0902271987145346,-0.0929769165737293,-0.7366366561920882,-6.93632504358277e-05,0.0198102988375357,-0.0323685757758038,1680.1841764667636,6956.229898602892,-1943.4962775856377,-0.0002634687532762
264,1724915046014365688,-0.3967365324497223,0.1439435929059982,0.1638313829898834,-0.0590689964592456,-0.0275041051208972,-0.3599063754081726,0.9307104349136353,0.0,0.0,0.0,0.0886856157142919,-0.356897114992317,0.2192491729637766,1.164034178,-0.0216298158405932,-0.138205222009786,0.3428334027290567,-6.642098779014667,-3.5538655479534116,-1.837752350654723,-0.0906771899041821,-0.0938530539110442,-0.7337171892972453,0.0017285450152826,0.0194153584498346,-0.0338524407942895,-29.04241158072656,62.39844616435779,41.75531012639441,-0.0002848323202834
266,1724915046024395153,-0.39669269323349,0.1441204845905304,0.1635391265153885,-0.0590556040406227,-0.0276995003223419,-0.3585853278636932,0.931215226650238,0.0,0.0,0.0,-0.258266866345812,-0.3395141435945799,0.5851221366759694,1.174063643,0.0297005302516719,-0.0480953757377466,0.2790338974150296,0.5363245021321406,-3.48895290416484,-3.550162891055267,-0.0906460833649203,-0.0940800624932199,-0.7308738564944441,0.0010231976515573,0.0120537648644054,-0.0267555913553652,-18.41622882455882,34.08597551603624,19.293496855474856,-0.0002672045691211
268,1724915046036408458,-0.3967285752296448,0.1441849470138549,0.1632520109415054,-0.0598485693335533,-0.0290444996207952,-0.3569452464580536,0.9317535758018494,0.0,0.0,0.0,-0.2467255779444806,0.5355131258991344,0.569597491229922,1.186076948,-0.0297840387491177,-0.2694967857206496,0.2768343734377761,0.634698204488687,1.035380913047501,2.3864668564215243,-0.0913494770163227,-0.0970020074784589,-0.7272511986839979,-0.0047838038264238,0.0136515038263844,-0.0214887421195637,7.658259313586283,28.62764132516733,-6.1597411166945335,-0.0002756393391388
270,1724915046044240264,-0.3967752158641815,0.1443341672420501,0.1630960255861282,-0.0600965283811092,-0.0295684188604354,-0.3557803928852081,0.932166576385498,0.0,0.0,0.0,-0.1525514172388354,0.5339903703401325,0.4965034905569175,1.193908754,0.0037089366424409,-0.1620037199159923,0.3086442913489204,1.9270029426757105,15.120708532266626,2.452676663230257,-0.0915672684841927,-0.0980447212146001,-0.7247161531342556,-0.0055078030888751,0.0199006916222401,-0.0163579926536332,6.16447632908472,-18.87431962961315,-23.782118792455215,-0.0001341510904202
272,1724915046054663218,-0.3968264162540436,0.1445533484220504,0.1629748940467834,-0.0601595155894756,-0.0293817296624183,-0.3542708158493042,0.9327431917190552,0.0,0.0,0.0,-0.1695870683312083,0.0781483577325709,0.0481938855424094,1.204331708,-0.0087972259570807,0.0149564281578363,0.3118899866798225,-13.07767359348613,5.186240333325024,6.606979121591257,-0.0919752271366677,-0.0975915764373952,-0.7214778405330478,-0.0079316198773859,0.0218053213471609,-0.0133831485162314,2.8288845199109165,-39.5238162253238,-22.806578049970152,-9.02607479134733e-05
274,1724915046064942923,-0.3969385623931885,0.1447853744029998,0.1628194600343704,-0.0615836679935455,-0.0290102008730173,-0.3521666228771209,0.9334583282470704,0.0,0.0,0.0,-0.0952559308721094,-0.2854557637478871,0.0185977168827813,1.214611413,-0.2636540970829656,-0.0512796752470314,0.443635050426644,2.0487875521482772,1.9069636127934309,1.0178527426397217,-0.0951350795436516,-0.0976903609938605,-0.7168659956526136,-0.0090366200068423,0.021548328142293,-0.015292755366989,4.002640182843995,-31.9210613169269,23.002507302149393,-0.0001213666554936
276,1724915046074042656,-0.3970057070255279,0.1449732184410095,0.16267891228199,-0.0616997256875038,-0.0287221577018499,-0.350659430027008,0.934026837348938,0.0,0.0,0.0,-0.0848369726488135,-0.5481384026145524,0.4363959663996614,1.223711146,-0.028800706284129,0.0333369671484693,0.3578604472741085,7.569082676409889,1.4343222195051415,-9.733509494223972,-0.0957110262106586,-0.097078121677489,-0.7136380268415028,-0.0098048484550385,0.0168527325507028,-0.0134773393371725,6.17895896285879,-13.55962103686892,34.579140194196384,-0.0001131141637299
278,1724915046085623766,-0.3971550166606903,0.1451125293970108,0.1625518351793289,-0.0630092695355415,-0.0285665672272443,-0.3493688702583313,0.934427797794342,0.0,0.0,0.0,0.0609187672351239,-0.4795554352837588,0.6698060311318925,1.235292256,-0.2099801409714091,-0.0659675894618688,0.2406040241253613,-0.3119140210514048,1.383075794094926,-1.5316818781693158,-0.0984208421483544,-0.0975684722182651,-0.7107771985503231,-0.0107934536263236,0.0100312054710069,-0.0049317814669738,12.605017118217246,15.034005768748957,-9.001422702082984,-0.0001052778371189
280,1724915046094380251,-0.397235631942749,0.1451871395111084,0.1625486463308334,-0.0634812042117118,-0.0282686911523342,-0.3482235372066498,0.9348322749137878,0.0,0.0,0.0,0.1714226687583633,-0.2875815566005749,0.397950947234405,1.244048741,-0.1111983784512513,0.0120715844103389,0.2840850553700127,10.752788771668513,1.592853652608711,0.1554247676527307,-0.0996353668325112,-0.0972173332242221,-0.7083004226703264,-0.0092915154162405,0.0065567391376513,0.0004826113926537,4.846068568708704,24.206414318341995,-36.106412303382925,7.862864410683513e-06
282,1724915046104793683,-0.3973334431648254,0.1452310979366302,0.1625641584396362,-0.0636548921465873,-0.0284851696342229,-0.3471029698848724,0.9352306127548218,0.0,0.0,0.0,0.1256193248836872,-0.0072398173350634,-0.0407066692756693,1.254462173,-0.0057660619910292,-0.0619829797382094,0.2261350007357734,6.1694102592948505,-1.225399472493645,-2.19355080883515,-0.0999307031426741,-0.0976250071458827,-0.7058816071268663,-0.0075076590870093,0.004914428869303,0.0018974974406695,6.36101367951394,26.13069610384749,-30.72057795578425,2.2353534951068087e-05
284,1724915046117265485,-0.3973989188671112,0.1453027427196502,0.1625939160585403,-0.0636054500937461,-0.0283502917736768,-0.3456516563892364,0.9357753992080688,0.0,0.0,0.0,0.365667712665063,0.3068497593945367,-0.2535111037019215,1.266933975,0.0120980832516837,0.0106541970508434,0.2491359430019634,17.08587566656884,4.145642638191635,25.944227801978617,-0.1000806101099474,-0.0971825700289863,-0.7027885206116135,-0.0066233446057779,0.0070717257059165,-0.0012477394702923,13.412984073681187,1.0168867417923728,9.345193991090133,3.999686800140286e-05
286,1724915046124211571,-0.3974502384662628,0.145356997847557,0.1625711917877197,-0.0629953891038894,-0.0283573810011148,-0.3439410924911499,0.9364465475082396,0.0,0.0,0.0,0.4362649998216344,0.220420922319586,-0.0864370803159635,1.273880061,0.1913348452210828,0.0329568998966892,0.5225794254995891,19.03865933971763,0.9322427983775048,19.20272717675385,-0.0991004285788861,-0.0965938885132211,-0.6991825455244827,-0.0029430737672839,0.0097210392387543,-0.0030137685122646,-7.42901192918452,-8.039256522318254,27.18525432540265,-1.4546069835653608e-05
288,1724915046134704366,-0.3974106609821319,0.1454892754554748,0.1625436544418335,-0.0616487525403499,-0.0287033040076494,-0.3419127464294433,0.9372679591178894,0.0,0.0,0.0,0.0794625761231055,0.205865076040006,0.2484603501822412,1.284372856,0.2838698408762434,0.0066220446045758,0.4044634880498491,-4.331749303267426,-3.6291391223028926,-7.4416679869060225,-0.0965293841427396,-0.0961102592590547,-0.6949459023384624,0.0001514564125422,0.0094821021199376,-0.0012608513680039,-20.493761610961467,9.297627982893122,9.359917735193182,-9.86094711068804e-06
290,1724915046144201593,-0.3974403440952301,0.1455524712800979,0.1625434011220932,-0.0611822493374347,-0.028973251581192,-0.3402519524097442,0.9378944039344788,0.0,0.0,0.0,0.0009687372933065,0.3860150162138831,0.1434511441094749,1.293870083,0.1296856099785365,-0.0374666549557195,0.3665841354894713,-12.3512633006845,9.163687573810313,-6.699955494200468,-0.0956351545333835,-0.0961304501592802,-0.6914300727696825,-0.0009459632150026,0.0134026371879345,0.0017985676508303,-5.427297795247232,18.09978345680189,-22.41047627830547,8.625024021222814e-06
292,1724915046154130799,-0.3974271118640899,0.1457556039094925,0.162580206990242,-0.0606682524085044,-0.0280540864914655,-0.3390383720397949,0.9383951425552368,0.0,0.0,0.0,-0.023463117940838,0.5567115366088631,-0.1969274226045938,1.303799289,0.0473602444017279,0.1968388412523516,0.2719113605716563,-5.189450357994424,9.597164222793662,-6.653480546393315,-0.0954033149089238,-0.0939274173810712,-0.6889176533448386,0.0002732336313133,0.0169573221638232,0.0013680036905157,-0.4377322508424703,5.266465754554021,-16.662646002497894,6.331780024876653e-05
294,1724915046166695329,-0.3974405229091644,0.1459130048751831,0.1625602096319198,-0.060321919620037,-0.0274728331714868,-0.3376882970333099,0.9389212727546692,0.0,0.0,0.0,0.0031992426436492,0.4332848006998564,-0.1261735381228165,1.316363819,0.0314734172783083,0.0948254821636638,0.2341241140885585,-4.735491710123546,2.2631052407273415,22.876420290402937,-0.0952709503181764,-0.092461354887234,-0.6860904376236564,-0.0023468748698398,0.0271114682824382,-0.003547857389698,11.82243497443651,-65.91246686270149,23.652169662097208,1.073965633563644e-06
296,1724915046174403292,-0.3974646627902984,0.1461909413337707,0.1625236123800277,-0.0602457821369171,-0.0267370846122503,-0.3357991576194763,0.9396247267723083,0.0,0.0,0.0,0.1401954938156344,-0.3399889464537178,0.1413503601171453,1.324071782,-0.021440909043194,0.161363013724639,0.532849320938459,-1.8244913439290829,2.0058035197883575,11.823864069636851,-0.0958010670094711,-0.0908314645548183,-0.6821039565010911,-0.0013210211837524,0.0286785765984021,-0.0032669608379087,5.403243070199206,-75.45932197361573,22.68787763790469,4.1481710879872035e-07
298,1724915046185331506,-0.3974510431289673,0.1463900059461593,0.1625108569860458,-0.059945061802864,-0.0263099577277898,-0.3345631659030914,0.9400967359542848,0.0,0.0,0.0,0.0075831147509051,-0.7794155611333127,0.2030588252043079,1.334999996,0.0367157508383445,0.0806128940612412,0.2447903880189756,-7.058855919518496,-8.87750144237947,-9.52739834010137,-0.0956332173842546,-0.0896988661836927,-0.6795146571854384,0.0003211546913313,0.0165453188808442,-9.682761174012457e-05,-15.141085406215652,-10.15585326730008,-17.405864775102714,1.3167203326127056e-05
300,1724915046194877977,-0.3974556922912597,0.1465340256690979,0.1625188589096069,-0.060609295964241,-0.0260861404240131,-0.3332546651363373,0.9405250549316406,0.0,0.0,0.0,-0.1620310088564878,-0.625731188192955,-0.1553511685949711,1.344546467,-0.1339182165485572,-0.0165479939853449,0.2942050036530435,-5.757508436391551,-8.070981380080362,2.0043434034496315,-0.0971643091706062,-0.0895857806162547,-0.676692549618327,-0.0007963758225812,0.0118637812909367,0.0011159016267612,-10.64480544124682,18.487291839789737,-23.17130306205551,2.6896147568268763e-05
302,1724915046205104610,-0.3974672257900238,0.1466200500726699,0.1625333130359649,-0.061064925044775,-0.0262625440955162,-0.3318924009799957,0.9409723281860352,0.0,0.0,0.0,-0.19286380657211,-0.410499200787972,-0.2348621374641657,1.3547731,-0.060058494011215,-0.0760075829457206,0.2799539928602125,4.630612114022251,-9.013621891513202,4.940633595483996,-0.0980419976635362,-0.0900804001944644,-0.6737556679065181,-0.0029460526853171,0.0039820109887722,-0.0035664225031011,8.358660201064145,26.672672944533712,14.261935320805357,2.5814561472868383e-05
304,1724915046215858564,-0.3975194692611694,0.1466127783060073,0.1624386459589004,-0.0616952814161777,-0.0271170251071453,-0.3297806084156036,0.9416491389274596,0.0,0.0,0.0,0.0256429311612916,-0.0600359752628019,0.1677127627429992,1.365527054,-0.0395690190430027,-0.2091203215477808,0.4047148892425942,0.6360414816844453,2.578234898551898,0.8842749216938763,-0.0988828471694454,-0.0918905255705726,-0.6691843900794616,-0.0048240127537688,0.0036409550606322,-0.0035704019913058,13.277704964462256,3.6778738992591298,15.570077458398506,-9.423999490735036e-05
306,1724915046225188760,-0.3975642025470733,0.1466816961765289,0.1624476909637451,-0.0620278194546699,-0.0272366758435964,-0.3283343613147735,0.9421291947364808,0.0,0.0,0.0,0.092529844097436,-0.2597563453298306,0.1359890370051785,1.37485725,-0.0439091671311515,-0.0639949141611786,0.32621093713944,5.305834050033328,11.527315410056133,-7.1222721144678545,-0.0995775415716586,-0.0921831665055879,-0.6660835777104647,-0.0029635650397388,0.0028515468858048,-0.0006449896279692,-6.192727743891701,-10.242619001682796,1.196098004460759,1.8723178576687905e-05
308,1724915046238089574,-0.3975697755813598,0.1466375887393951,0.1624105721712112,-0.0612709149718284,-0.0273253601044416,-0.3267524838447571,0.9427258968353271,0.0,0.0,0.0,-0.2257039897288269,-0.1927667671689645,0.2334063868367799,1.387758064,0.1274829813042429,0.012882518921061,0.2573689220159759,3.504887949313405,-0.1355630442367824,21.11648466584085,-0.0982360074851791,-0.0916899160132369,-0.6627819675586053,-0.0036762054031456,-0.0036238001811792,-0.0020577981664082,-34.252229148054155,1.6225883869868198,28.83127964781086,-4.260376371343707e-05
310,1724915046244571101,-0.3976041674613952,0.1466134339570999,0.1623999029397964,-0.0609601028263568,-0.0273792259395122,-0.3252724111080169,0.9432561993598938,0.0,0.0,0.0,-0.4789216776611165,-0.1938755022457373,0.4895733426998852,1.394239591,0.11835084398938,-0.0078428371865465,0.4803766465574693,-1.4626154939734457,-0.8104236036695049,16.356269866941822,-0.0977538901630008,-0.0914358838103151,-0.6596653334723626,-0.0056942107507858,-0.0038664540039015,0.0005717142603218,-30.20765020799476,-11.015975468558985,20.205609202470125,-1.33695226960547e-05
312,1724915046257491381,-0.3976877331733703,0.1465598791837692,0.1624644100666046,-0.0603118203580379,-0.0272328928112983,-0.3238895237445831,0.9437777400016784,0.0,0.0,0.0,-0.6410224270204457,-0.6155189589841789,0.2531200652653141,1.407159871,0.0980712313452483,0.0431687943457105,0.2268110088929357,-13.461213642114,-1.7132681537119523,5.7512041014793205,-0.0967480167174296,-0.0905962094364857,-0.6567908768286556,-0.0161979426543013,-0.0104004799836978,0.0090574927255744,33.738170908606705,1.4973041109251497,-38.17246133065672,5.793139432563819e-05
314,1724915046264774652,-0.3978456556797027,0.1464584469795227,0.1625470668077469,-0.060507658869028,-0.0270678251981735,-0.3226141333580017,0.944206714630127,0.0,0.0,0.0,-0.2052710502693645,-0.4644818264386352,-0.1064856533263319,1.414443142,-0.0487931555721873,0.0074467093151972,0.3728858152283911,-10.981808490899438,-4.182808976030375,7.689121594695951,-0.0973480454632738,-0.090279080278332,-0.6540820427987574,-0.0201607492820947,-0.015334272245969,0.0092437527809607,44.89037365290999,23.32380994749013,-6.710201172335484,7.047563254161897e-05
316,1724915046274827731,-0.3980272114276886,0.1462847590446472,0.1626107841730117,-0.0607361644506454,-0.0270482413470745,-0.321288526058197,0.944644570350647,0.0,0.0,0.0,0.0387224374345904,-0.1941180435718995,0.4180720153868215,1.424496221,-0.03177128129603,-0.024586600515283,0.2785765195660682,-2.834409286476798,-0.0126651845925412,-8.723902557768604,-0.0979219135270346,-0.0902520880899195,-0.651259319162035,-0.0175227246699591,-0.0170490425494573,0.0063407574110678,8.783551282400994,9.922571922696044,52.744624859196435,4.239702626276237e-05
318,1724915046286379752,-0.3982225060462951,0.1460908353328704,0.1626840680837631,-0.0614129081368446,-0.0266566034406423,-0.3202961087226867,0.94494891166687,0.0,0.0,0.0,-0.065390974679059,-0.3047739005887597,1.0348899558481712,1.436048242,-0.1246160038237688,0.0173969412410869,0.1865222252044314,-13.30583358235695,23.58430210904102,-2.1311679139897137,-0.0995532929667509,-0.0898396909658278,-0.6491262695197505,-0.0200447286491503,-0.0196040638703536,0.0205532371706418,14.62952608544494,4.214429224941679,-25.506804012260332,4.896353607542872e-05
320,1724915046294069252,-0.3983927071094513,0.1459256708621978,0.1629148423671722,-0.0619852505624294,-0.0252036117017269,-0.3196659982204437,0.9451646208763124,0.0,0.0,0.0,0.1681135944110435,-0.2017665288964601,0.4349016477399505,1.443737742,-0.253898957407407,0.3008614518607596,0.200013578771359,-2.597723277070657,13.862676710764427,3.44824693773532,-0.10162093767023,-0.0873834437869242,-0.647823083474848,-0.0197648081284818,-0.0223755179796913,0.0275108149313938,20.368309157339844,20.13815875221297,-63.318142277143146,0.000208057622554
322,1724915046304313726,-0.3985628485679626,0.1456842124462127,0.1631625443696975,-0.0622261650860309,-0.0243556052446365,-0.318466454744339,0.9455758929252625,0.0,0.0,0.0,0.2403146347289056,0.0965599626313151,-0.013007825875162,1.453982216,-0.0864967954376198,0.1289485546924642,0.2584557398871692,12.318132220444088,-9.205962538542526,6.219442243955569,-0.102724008600831,-0.0857992687487671,-0.6453145085987909,-0.0162449354158127,-0.0222771384463493,0.0255525907488758,-3.152064628480095,12.80016452105124,-36.16873041158278,0.0002144229200565
324,1724915046314686307,-0.398727536201477,0.1454667150974273,0.1634420156478881,-0.0620856545865535,-0.023693760856986,-0.3168922066688537,0.9461307525634766,0.0,0.0,0.0,0.1004976156283165,0.057927466279213,-0.3088436882320566,1.464354797,-0.0009724373495944,0.1130145910909027,0.3283728575163424,4.633762498537075,1.8977962628149465,0.3353352247571646,-0.1030126722906969,-0.0842834637518501,-0.6420350530287068,-0.014836853469017,-0.0203623170716618,0.0272885595916854,-11.127108782191645,-62.258675088936734,-2.1819779936331116,0.0002490882422311
326,1724915046324719122,-0.3988662958145141,0.1452683061361313,0.1637191474437713,-0.0618050247430801,-0.0228415001183748,-0.3156625926494598,0.94658100605011,0.0,0.0,0.0,0.0116892413794788,-1.1347285523466757,-0.0751369873159236,1.474387612,0.0104708801768922,0.1653785725167631,0.2695796639140406,-3.191269517652774,-4.419724440597932,-2.739093903018503,-0.1031180341719332,-0.0823547900970857,-0.6395066800857137,-0.0141706787249606,-0.0210104345449373,0.0195688096384714,4.9119130276023055,-45.02019683199796,33.667263368109346,0.000249235109643
328,1724915046339414242,-0.3990818560123443,0.1449329853057861,0.1638333648443222,-0.0630046799778938,-0.0231505129486322,-0.3135725557804107,0.947188913822174,0.0,0.0,0.0,0.3801206742921978,-0.2066421666853823,0.6428769064900131,1.489082732,-0.1296642335192252,-0.1070397808812981,0.2965047342486143,218.13475758381065,19.72557537494592,65.66285263945218,-0.1053971992763248,-0.0834657729391608,-0.6349939967500381,-0.0151764906567279,-0.0607188846328092,0.0334090735774132,14.153123466964544,231.07085470679655,-9.41337290055337,6.923376186954237e-05
330,1724915046344093040,-0.3991536200046539,0.1445924341678619,0.1640278697013855,-0.060285460203886,-0.0238561276346445,-0.3119619786739349,0.9478799700737,0.0,0.0,0.0,0.4300750235743286,1.124632367381468,0.5120234176413687,1.49376153,1.2301029832053585,0.0422530307011518,0.6988156765992098,183.34131259608577,25.02697620337196,50.60675207608596,-0.0999113215687435,-0.0829340722333961,-0.6317506552539047,-0.0127297592458113,-0.0579681891593222,0.0359716219366612,-5.959992658010774,188.52461479330543,-0.4224632649007418,0.0001494265482396
332,1724915046355646828,-0.3992262780666351,0.1443454474210739,0.1642837077379226,-0.0585050694644451,-0.0235391445457935,-0.3104674518108368,0.9484899044036864,0.0,0.0,0.0,-0.1134455956281433,0.5635935102582903,1.2930204418389262,1.505315318,0.2875479184131542,0.1350775295788104,0.2741169634374533,-45.346631258992105,2.511570299104055,-18.22184995757244,-0.096835473681983,-0.0810698954014794,-0.6287419916050568,-0.0104102837723623,-0.0296611859295943,0.0408697279455303,-24.7168859941767,-90.07416378556424,-19.853749280408287,0.000223386703936
334,1724915046364760996,-0.3993507921695709,0.1440155506134033,0.1647908389568328,-0.0577811188995838,-0.023154268041253,-0.3094412088394165,0.948879063129425,0.0,0.0,0.0,-0.1782044254053738,-0.555839319747558,0.4833297099280891,1.514429486,0.1347556495243754,0.118263041294482,0.2413118269117941,-19.253348111454052,-8.972443398745632,-2.9978932188400353,-0.0957753877178596,-0.0797855408572372,-0.6266497328893571,-0.0137032450087097,-0.0380873007791615,0.0589029495208617,8.956067596094012,-29.58831774766375,-141.06926080020028,0.0004633178430682
336,1724915046374241586,-0.3994811177253723,0.1436358094215393,0.1653814315795898,-0.0581848137080669,-0.0231550633907318,-0.3084545135498047,0.9491754770278932,0.0,0.0,0.0,0.0650973927771814,0.0831061401381765,-1.36917461855403,1.523910076,-0.0723242126993984,-0.0370912803945634,0.2188215034464272,-6.058978893681459,-7.7274026613021825,2.734974495799017,-0.0966290084885093,-0.0799362758802244,-0.6245441551170835,-0.0135870731652794,-0.039721276428982,0.0487393053901659,20.370191424232104,25.45940863364398,-64.28130063573205,0.000539642271026
338,1724915046385319006,-0.3996295630931854,0.1432001143693924,0.1657458841800689,-0.0579023659229278,-0.0232200268656015,-0.3067851066589355,0.9497320652008056,0.0,0.0,0.0,0.2222386825894931,-0.1776518125352727,-0.3841532231903721,1.534987496,0.0648474084706239,-0.0106136153729673,0.3152218173663229,10.915145884805298,2.1423356630098485,7.385528741520788,-0.0961896148031962,-0.079717179830293,-0.6210460955083182,-0.0121819945470855,-0.0354942587544785,0.0297266072486664,-50.65826275012695,36.584832329149926,-171.69030619456348,0.0003087625873327
340,1724915046473927664,-0.3998451828956604,0.1427750140428543,0.166130319237709,-0.0582437999546527,-0.0228657573461532,-0.3052767813205719,0.9502058029174804,0.0,0.0,0.0,-50.22688443718847,45.67929086427182,-200.31482817988345,1.623596154,-0.0083626494126256,0.0035070803879978,0.0362556391560993,3804.0690576893985,3308.4265135588303,1880.6750374464584,-0.0971826978467182,-0.0790977630174022,-0.6178686453072723,0.0751261098226905,-0.4476162439807751,0.9399245840278924,15530.087120731652,-211101.65550046216,371319.5662639037,0.0003301388715854
342,1724915046474721258,-0.3997850120067596,0.1424166411161422,0.1668828874826431,-0.0567911118268966,-0.0221979115158319,-0.304728627204895,0.9504854679107666,0.0,0.0,0.0,-37.787872765559854,-123.3538125328604,97.01736516362536,1.624389748,3.0375672554096775,2.6525682213985253,1.5421374539639807,1958.3557503885884,1299.7203837159732,1471.0931279373756,-0.0948515281267513,-0.0768850659505631,-0.6168491490042088,0.0349023618127972,-0.4110077069670055,0.779459178768704,11882.740153180384,-128878.62657932536,282710.6057884852,0.0007029781071691
344,1724915046476110200,-0.399836003780365,0.141944408416748,0.1675550639629364,-0.0561513341963291,-0.0226769614964723,-0.3030077219009399,0.9510621428489684,0.0,0.0,0.0,-30.500339656697243,-97.8742160097695,266.15173522270516,1.62577869,1.1879979121941884,-0.4972167768434251,2.548727502037293,16892.573707526935,14547.955560251554,6912.332199678356,-0.093478609352113,-0.0772397537934924,-0.6132491521150212,0.0137703594140248,-0.9943399489945932,1.6415849136864151,-133491.47596425956,-204068.7826379755,-601056.7036962664,0.0006107833969444
346,1724915046476472881,-0.3998262286186218,0.1415218114852905,0.1682600677013397,-0.0542651079595088,-0.0220173336565494,-0.3020616471767425,0.951487958431244,0.0,0.0,0.0,-92.0541480902285,-192.94938693491383,-20.29444402892591,1.626141371,9.040508054024995,6.371555319851992,5.6416871441551395,6505.329458353459,10711.839435859934,2447.266606894467,-0.0903387685645054,-0.0747508661804477,-0.6114184257701912,0.0012608411871042,-0.999332261035022,1.704535527306973,35399.922819745596,-931944.4159775408,-393789.09769632656,0.0006508184666598
348,1724915046476947339,-0.3998415768146515,0.1411506235599517,0.1689202487468719,-0.0532106459140777,-0.0207409057766199,-0.3014450371265411,0.9517717361450196,0.0,0.0,0.0,52.05563601838196,-1050.8515618348715,38.66814981002744,1.626615829,2.72615644976979,6.347478249086216,3.028569253733454,-1245.1838112132227,-9704.67013161246,-7565.8670669571375,-0.0891304673179703,-0.0716226052737185,-0.6102540833061894,-0.0781430340516635,-1.2020955588473612,1.5745779299821263,483189.9943830476,-143166.12724021566,-649598.8063583238,0.0006137495147011
350,1724915046477312236,-0.3998829424381256,0.1405941843986511,0.1695462018251419,-0.0522217378020286,-0.0210381876677274,-0.3014782071113586,0.9518094658851624,0.0,0.0,0.0,278.7315134595588,-635.8321788732756,-415.544671713737,1.626980726,5.657205127518312,0.0970382668527793,-0.3098201549352191,10089.120713159044,4690.820659849125,3761.385929285901,-0.0870578662454253,-0.0715972784009194,-0.6103700972596983,0.0024269196799195,-1.7605227243108177,1.6764076825000984,648420.7535131442,2689217.1404254977,-1355974.2712492887,0.0005599647640652
352,1724915046477610732,-0.3998539447784424,0.1400111466646194,0.1700370758771896,-0.0506242178380489,-0.0204503312706947,-0.3009388148784637,0.9520792365074158,0.0,0.0,0.0,478.9279816580176,545.8178459301189,-847.4512287233947,1.627279222,9.170940024414271,6.825231983418715,3.965336583728596,-1054.982480969407,5869.330145117205,13534.17401118084,-0.08439136550875,-0.0694661109168223,-0.609362727424661,0.0997723035083026,-1.731889698061508,1.3827609322333387,542779.1804907699,2471623.596080748,-132736.67854980752,0.0004243225992667
354,1724915046477955413,-0.3998185098171234,0.1395023018121719,0.1704095155000686,-0.0499312169849872,-0.0202066395431756,-0.2995800673961639,0.952549397945404,0.0,0.0,0.0,615.1060293265522,805.873396845278,-370.13333307840935,1.627623903,3.702227941714172,2.2130266416576454,8.31661563931878,-5326.157183211773,-4677.595709716871,-733.5164414405303,-0.0833081733146502,-0.0684659167566492,-0.6065634123216155,0.3256692660722819,-1.3646936329085406,1.1449108897434996,121919.92502163933,53518.392776139255,1166473.6884021836,0.0003154105144221
356,1724915046478374942,-0.3995680809020996,0.1389867514371872,0.1709227114915847,-0.0482724942266941,-0.0196865163743495,-0.2993623614311218,0.9527142643928528,0.0,0.0,0.0,526.7689572628279,470.3927060257712,7.746762014344893,1.628043432,6.84971918090241,4.694904810588711,1.1880921571128396,6986.441609682674,5513.864438586079,-15968.742272834164,-0.0804572014653597,-0.0664621043809959,-0.6062270227709226,0.5631590769582453,-1.1590884280512843,1.1529927078136897,-203157.79796653273,-754571.7953849817,844986.5371679054,0.0004547535442565
358,1724915046484861934,-0.3993021547794342,0.1384681314229965,0.1713532656431198,-0.0468729101121425,-0.0196217522025108,-0.2987077534198761,0.9529908895492554,0.0,0.0,0.0,-48.38244595428523,98.11756133401332,-101.66751997991688,1.634530424,0.4132134377013972,0.1401360692639777,0.2102789528565344,-591.3216909824305,-411.8911780455166,-92.01256274670172,-0.0778617522035776,-0.0654480193303514,-0.6049362699051734,0.0365136572947975,-0.0829801277627995,0.0480008719761517,-49917.329366198406,-40647.704848254325,-5503.64929513835,0.0003734196425763
360,1724915046494156861,-0.3990224301815033,0.1376564502716064,0.171554759144783,-0.0455047413706779,-0.0191624835133552,-0.2981154024600982,0.9532520174980164,0.0,0.0,0.0,3.6560720122836017,-56.74843520851748,-1.486810934444098,1.643825351,0.2561672659178057,0.1772407814055838,0.1371043372328841,-13.594874708086572,1.861301948949672,-6.931513148567833,-0.07555470221112,-0.0637077668711723,-0.6037895254795403,0.0236743132297254,-0.0735592314472146,0.0176040986245222,3566.8213388592653,-7809.948878101972,7406.25282882654,0.0001181900424829
362,1724915046514519311,-0.3988267481327057,0.1367726773023605,0.1717315018177032,-0.0439189113676548,-0.0183635298162698,-0.2977776527404785,0.953447699546814,0.0,0.0,0.0,-14.348276589670604,179.06620843238125,-1.084647256117961,1.664187801,0.1265949658604276,0.1200980347269921,0.0379388702669314,37398.92211367789,9277.998007256034,31040.360547715132,-0.0730137502664548,-0.0612116894162634,-0.6031995008507927,0.3228299283250635,-3.805751022561026,0.0668850620857028,-2956.0802068628545,35771.64864855842,-488.2380675017657,9.052738735597276e-05
364,1724915046514793687,-0.3987370133399963,0.1357145607471466,0.1717500686645507,-0.0424535199999809,-0.0183881018310785,-0.2966328859329223,0.9538703560829164,0.0,0.0,0.0,-15.167014042224007,188.9705262822617,-1.2204861521496575,1.664462177,10.526253022770694,2.700070157480236,8.669446425373723,36853.485656875746,9143.342977463466,30586.231226903696,-0.0702667001034653,-0.0603024913835193,-0.6008756613233974,0.318785742255572,-3.7552798898609256,0.0665745031523808,-2913.860038935001,35213.30498464102,-482.7981393583211,-7.964063998866954e-05
366,1724915046524687498,-0.3985315561294555,0.1346533894538879,0.1720181405544281,-0.0382247567176818,-0.0170730669051408,-0.2965538501739502,0.9540981650352478,0.0,0.0,0.0,-18.973468200566835,221.8760506397192,-1.61439924667255,1.674355988,0.7387919462362434,0.5073063792022089,0.0244666946235235,-615.7345777796346,-147.1566409247285,-529.8384844545824,-0.0629518364733297,-0.0552783091065263,-0.6009683430987254,0.0162318543906057,-0.0940655304511031,0.0228854470191306,206.21087895723713,-3598.5391411610194,28.564012029449685,0.0001769488991673
368,1724915046540122463,-0.3983902037143707,0.1335191130638122,0.1722700148820877,-0.0364882126450538,-0.0173441730439662,-0.2955870628356933,0.9544612169265748,0.0,0.0,0.0,-1.5610222006465548,-0.4036589951226759,0.4729966656908981,1.689790953,0.2290403221002013,0.0292271682610936,0.1282883844905663,156.23353108815445,31.702097880989307,29.638591481266225,-0.0595238828035259,-0.0547068522846261,-0.5990165970164253,0.0028594557904284,-0.2373962655327517,0.0654235313790607,217.73018018641676,-1993.7405282318632,-301.3425147209993,0.0001587850459628
370,1724915046544235483,-0.3983853459358215,0.1323630511760711,0.1725929230451584,-0.0342410989105701,-0.0175312608480453,-0.2950245141983032,0.9547150731086732,0.0,0.0,0.0,-1.6632900374218378,4.994628328863033,-1.244929511645219,1.693903973,1.079062753574739,0.2283121534671014,0.275304584579686,130.84728281243977,34.903772188969754,23.176858006625245,-0.0551440895021086,-0.0537044568374233,-0.5979383487207165,-0.0043224075227232,-0.2293212382104279,0.064866821358664,-0.5688001002907548,995.3758870942888,-324.73254340556747,0.0002343448971071
372,1724915046554634986,-0.3985750079154968,0.1313390284776687,0.1729087978601455,-0.0316803604364395,-0.017009399831295,-0.2941019535064697,0.9550973773002625,0.0,0.0,0.0,-1.0303650632823669,7.00776256038613,-2.177982980699323,1.704303476,0.4461901678129878,0.2363232138467775,0.1858834652558142,-21.59942113171945,-1.772782985865776,-9.150454697118786,-0.0505983936731569,-0.0511480768375228,-0.5961352375344939,-0.0194415922018826,-0.0976720130984549,0.0227444545330959,67.98554658772335,-176.77077679917005,75.5470947345456,0.0002454713342629
374,1724915046565640516,-0.3988029956817627,0.1302733719348907,0.1730702519416809,-0.0278858803212642,-0.0170890614390373,-0.2936562597751617,0.95535147190094,0.0,0.0,0.0,-0.1991703221975603,0.748879760993725,0.5783089648382977,1.715309006,0.6656939615067929,0.187193470990332,0.0787504271778031,-6.398130620244276,4.4013969179281105,-17.198916402832204,-0.0433106258379464,-0.0490495119298172,-0.5953653292624645,-0.0258491792274391,-0.0863692632183692,0.0205826469514018,66.28408600131613,-330.4343866822535,116.13237912075466,9.734353173629437e-05
376,1724915046576548227,-0.3991404473781585,0.1294443607330322,0.173358678817749,-0.025716895237565,-0.0158912371844053,-0.2946641445159912,0.9551225900650024,0.0,0.0,0.0,0.4239339642675379,-0.2795331125717215,0.3930139198462152,1.726216717,0.3111171768331311,0.331045365876,-0.1895466959245648,-1.6563962503092995,-12.410410336968123,-14.36613713118315,-0.0398121783663069,-0.045527579438755,-0.597583531406831,-0.023880664577792,-0.0812074600861105,0.0352661836066232,21.76352214103743,-40.106604972427945,-123.5916782991429,0.0002445396469085
378,1724915046585454982,-0.3993018269538879,0.1286832094192505,0.173736959695816,-0.0234395880252122,-0.0164563190191984,-0.2956642508506775,0.9548624753952026,0.0,0.0,0.0,0.3605962862205156,-0.2427345618725933,-1.4831042293920051,1.735123472,0.5207361490868107,0.0343344892285429,-0.2430945947829312,-0.8402307088756231,10.175650765938226,8.790469763266042,-0.0350752472717452,-0.045303034299477,-0.5997608407993047,-0.018334108664213,-0.0891719005069777,0.0318345534364965,-20.454122142207584,-2.4309378745372783,-145.54414736674877,0.0003390168343137
380,1724915046594192232,-0.3994638621807098,0.1278722584247589,0.1739239394664764,-0.0215259417891502,-0.0147846238687634,-0.2958566546440124,0.9548754096031188,0.0,0.0,0.0,0.0675216739926187,-0.3202210190029042,-2.196825871611636,1.743860722,0.3044769010831004,0.4959817941185134,-0.0394180564378853,-18.618161895802817,25.888057293747973,18.75463915027628,-0.0323937880344733,-0.0409836058927204,-0.6002518030773116,-0.0174302795826619,-0.0857090224290835,0.0094669157901465,-15.844734017339018,-73.50100652733668,-23.62454190058039,0.0001488039881725
382,1724915046607819792,-0.3996776938438415,0.1268552988767624,0.1737993061542511,-0.0198031347244977,-0.0133365923538804,-0.2951017618179321,0.9551675319671632,0.0,0.0,0.0,0.2277760622094355,-2.69562499982535,-1.2846476122599382,1.757488282,0.1811190495163285,0.2759793772153032,0.119310299060397,17.72382063554203,-10.109916351690895,3.5217023766269557,-0.0299845238630558,-0.0371738010020565,-0.5987427769140239,-0.0172736851522792,-0.1053032637154549,-0.0127505131227376,12.6068663650574,-42.97866373255658,136.4841579723706,-0.0001680196060317
384,1724915046617277010,-0.3998514413833618,0.1256580799818039,0.1736550629138946,-0.0171335451304912,-0.0130655849352478,-0.2946397662162781,0.9553655385971068,0.0,0.0,0.0,0.3525627637317517,-2.240151249198538,0.4625621184356163,1.7669455,0.5244699098922829,0.2199695200612828,0.0992847732207498,39.364269382916255,8.32621736086647,-1.4086202399596663,-0.0250563409973777,-0.0350684540424322,-0.5978608876069953,-0.0137000579108459,-0.1390513441735326,-0.0226309549157974,-0.951870691735916,148.99522654042133,216.13773090921563,-0.0001899377578198
386,1724915046626360638,-0.3999351263046264,0.1242862939834594,0.1733851134777069,-0.0126338871195912,-0.0124522279947996,-0.2942133247852325,0.9555752277374268,0.0,0.0,0.0,0.2204889539258366,-0.0069802950936965,2.6997388314853437,1.776029128,0.908725737917004,0.4199184567921263,0.0926740992987024,-16.726875137218748,7.0146687031755075,1.2659130329140569,-0.016827038988885,-0.0312372768780166,-0.5970987086191187,-0.0107183354777902,-0.1478104747583453,-0.0052782097264039,-17.92000971598539,127.73341732831844,56.11344250989532,-0.0003115836373929
388,1724915046635248855,-0.4000434875488281,0.1230004131793975,0.1735507547855377,-0.0111329788342118,-0.0112738041207194,-0.2937038838863373,0.9557652473449708,0.0,0.0,0.0,0.031813991239073,0.1011182933009022,1.5445486561707311,1.784917345,0.2466787503298181,0.3518343054294159,0.1212647768446349,-26.8419813310179,0.5556662937519441,-11.389799780430724,-0.0146650206312484,-0.0280935139144383,-0.5960698296404392,-0.0096958013046233,-0.1395469011886705,0.0255831338277721,-33.49793397132507,-4.499410930941575,-190.9929291012301,0.0001313043312963
390,1724915046645380197,-0.400112897157669,0.1216458082199096,0.1738901734352111,-0.0079090585932135,-0.0098738698288798,-0.2944857478141784,0.9555721879005432,0.0,0.0,0.0,-0.4492676561185612,-0.1368784223938899,-1.0951939375878967,1.795048687,0.5249414895636035,0.4523417334105432,-0.1628098400962128,26.944863896514416,-11.363487280724362,-1.6686912467462642,-0.0093026344056424,-0.023530772286692,-0.5977746164784329,-0.0103346483243278,-0.1480914322899629,0.0189707449856388,-60.88934132220985,34.28918496259222,-120.56569311797556,0.0003119435266429
392,1724915046655278690,-0.4002488851547241,0.1200407892465591,0.1739374250173568,-0.0039971498772501,-0.0103834671899676,-0.2940922081470489,0.9557123184204102,0.0,0.0,0.0,-1.1816185951399478,0.7613260470875787,-0.9348045325828506,1.80494718,0.786619617851412,0.1340235125780062,0.0757016020211446,-3.67057892752241,-7.1098502807833714,8.431265775582075,-0.0015332355726245,-0.0222000997577698,-0.597032259727342,-0.0185167674056749,-0.1426137870556525,0.0038502958279416,5.412238236068497,40.34623606833658,59.265321106997725,2.755392015541716e-05
394,1724915046665182219,-0.4004796147346496,0.1188219636678695,0.1739664077758789,-0.0014044151175767,-0.0095659149810671,-0.2940551936626434,0.9557396173477172,0.0,0.0,0.0,-0.3412944919597087,0.6615509212571906,0.0788130846434014,1.814850709,0.4519532926927287,0.3118046734016184,0.0039884576336772,-31.59029565500382,-18.700838741377968,4.914432951827418,0.0029418451475061,-0.0191121624764278,-0.5969906302191068,-0.0337366623725863,-0.1330135422084728,0.0004656967230616,132.33069034285,48.99663508516076,73.83286090441572,2.287683418791934e-05
396,1724915046674671604,-0.4008946716785431,0.1174693331122398,0.1739484518766403,-0.000908356742002,-0.0107071166858077,-0.2933149635791778,0.9559555053710938,0.0,0.0,0.0,1.3461545069028005,1.6636085289280755,0.520155614249836,1.824340094,0.1722057024344796,-0.1989164867376298,0.1611489549789219,-5.950133158992873,-2.214669939085553,1.0185122349008195,0.0045454362272703,-0.0210054682062668,-0.5954681467546515,-0.0261049929360623,-0.1295347500891264,0.0050376418339244,-4.3051884106358145,-730.5432734542711,46.04643377828157,-2.052140840448752e-05
398,1724915046685058616,-0.4009653329849243,0.1162717342376709,0.1740795671939849,0.0015239670174196,-0.0094716046005487,-0.2933193743228912,0.9559664726257324,0.0,0.0,0.0,-0.7693003920793833,-15.43109860695806,0.9931804397783448,1.834727106,0.3779261720707925,0.3648119341668804,-0.0049909451183817,12.913766177232503,38.02555361527813,-11.808088360528863,0.0084714897209924,-0.0172159051930442,-0.5954953978749052,-0.0059610587888441,-0.0975084079289717,0.0108766390612595,-1461.8732139291271,-28741.73594066703,-1841.900977181643,0.0001292690868979
400,1724915046715619394,-0.4010718166828155,0.1148913502693176,0.1742549389600753,0.0040518958121538,-0.0091923736035823,-0.2931396961212158,0.9560168385505676,0.0,0.0,0.0,-158.57878319135887,-3330.1678723509,-225.0083609077465,1.865287884,0.1528977041423941,0.0660439229263389,0.010612986187167,6616.294486326479,7031.9888798463135,-1666.2265989498128,0.0131385563820378,-0.0152011703181406,-0.5951491150114836,-0.2730221411883349,-2.2338406415418035,0.0799861790949876,61475.904209045286,661747.2710749041,2560.478102139139,0.0001807159286317
402,1724915046716233343,-0.4012427628040313,0.1134928911924362,0.1743049621582031,0.0057180114090442,-0.0082658370956778,-0.2934246063232422,0.955929398536682,0.0,0.0,0.0,-120.0137863837724,-2914.3890964036145,-223.3135662812234,1.865901833,4.296660576146965,4.470178842653335,-1.0329225265973665,27138.983842518777,25182.660250649376,4487.78694415074,0.0157847087164168,-0.0124478243323552,-0.5957436015028404,-0.3722295383026903,-4.318605618605488,-0.0609605998106985,79396.18999692023,1039184.18322244,28110.199131484027,6.179255288319693e-05
404,1724915046716485874,-0.4013465046882629,0.1121903285384178,0.1742747724056244,0.007789216004312,-0.0072249942459166,-0.2933111190795898,0.9559580683708192,0.0,0.0,0.0,-98.2414358190665,-2614.365092014295,-213.5817521221205,1.866154364,13.26799951050965,12.700227487766591,0.7430884627632516,34388.130393674146,31542.89700130052,6814.518938320036,0.0191326547931978,-0.009244387429003,-0.5955000166724954,-0.3982182543835819,-5.004588307270007,-0.1167039076731196,84056.20830569461,1163010.213162704,38204.40760604498,-1.4398376035668668e-05
406,1724915046724462706,-0.4013506770133972,0.1109322160482406,0.1740606427192688,0.0118769956752657,-0.006762106437236,-0.2929235994815826,0.956038236618042,0.0,0.0,0.0,27.923854128409,348.99560344761437,7.338641685185551,1.874131196,0.946278220744646,0.4124670681986555,0.0904687492341731,-918.212594566612,-897.6415808375523,-58.0867962388766,0.0266749239909856,-0.005971595470777,-0.5947031894302037,-0.0047935287346945,-0.1418965602383997,-0.0171411434422781,7915.113922470379,198355.43614833715,15539.010448286184,-0.0001903794160221
408,1724915046735108149,-0.4014623761177063,0.1096464768052101,0.1740160137414932,0.0122312251478433,-0.0069195195101201,-0.2938924431800842,0.9557351469993592,0.0,0.0,0.0,-0.0693745228028763,0.8002574090070373,0.0566565911500202,1.884776639,0.0717330963335004,-0.0113263902966771,-0.1907970323367263,-11.632221697436773,-1.4474771617280702,-10.30502063158564,0.027450760138791,-0.0060371633817943,-0.5967367452734877,-0.0115161609427545,-0.1290714688314151,-0.012081625357208,-1208.3331659499725,-15342.24097563567,-372.1337061641808,-1.7500170985201182e-05
410,1724915046744540832,-0.4015795588493347,0.1083596721291542,0.1738361120223999,0.0151315508410334,-0.006342276930809,-0.2945470809936523,0.9554961919784546,0.0,0.0,0.0,0.4118473966631356,1.229532034692336,-0.8465637593239669,1.894209322,0.5514208214828359,0.2956559335163832,-0.1533003252749941,24.920334116137777,34.9698958139722,1.5879968069428756,0.0326584496838277,-0.0032061401422831,-0.5980984606744694,-0.0074722293311779,-0.1249036727459929,-0.0150460536414716,-0.771081787445766,16.42146572460537,-105.64089381157802,-0.0001449382035305
412,1724915046754196417,-0.4016027748584747,0.1072674766182899,0.1737306267023086,0.0185422766953706,-0.0040602190420031,-0.2952253520488739,0.9552390575408936,0.0,0.0,0.0,-0.1074530069294131,1.1005940672119534,-1.9643046421857264,1.903864907,0.5357212713354847,0.6572823617265026,-0.1615617181703487,-7.847614804863937,1.779602443667768,6.716540075512823,0.0378311889733755,0.003191346125314,-0.5994337319952281,-0.0036623159011774,-0.1052465293661226,-0.0284811628337262,-39.64386777584374,-31.13474701348895,-20.04708780635159,-6.890282633715509e-05
414,1724915046764555072,-0.4016546905040741,0.1062647104263305,0.1732404977083206,0.0208756532520055,-0.0032668227795511,-0.2952283322811126,0.9551931023597716,0.0,0.0,0.0,-0.3609899444685674,0.5804808398293497,-1.1083037465417935,1.914223562,0.385289739882162,0.2792859043966563,-0.0078387322900659,-17.64472294542003,-42.713351891519395,0.4347884844797267,0.0418224423908118,0.0060853129759211,-0.599399749209628,-0.0103544512567808,-0.1042390720858428,-0.0551949820225896,7.077199719897802,-28.042213611418823,90.1117237168799,-0.0004506707978054
416,1724915046774517550,-0.4018090367317199,0.1051549986004829,0.1726151257753372,0.021429669111967,-0.0044957189820706,-0.2959198653697967,0.9549617767333984,0.0,0.0,0.0,0.0118406183401125,0.5135152837569446,-0.1389422345771458,1.92418604,0.1795872597093057,-0.2058652280218695,-0.1415305260152462,-16.09209585430815,-25.313416090885244,-2.344100207225503,0.0436039567244007,0.0040964614805488,-0.600896000522097,-0.0112195842378834,-0.0938260630453218,-0.0521460920371312,22.01507868026701,-4.709541287290751,47.8640345984747,-0.0005790226524603
418,1724915046787079405,-0.4018822908401489,0.1042545586824417,0.1721283942461013,0.0214418172836303,-0.0055089173838496,-0.2959122657775879,0.9549585580825806,0.0,0.0,0.0,0.0443302506411192,0.486227422719633,-0.3207395367170234,1.936747895,0.049599317058817,-0.1534522527168742,0.0044520095305109,49.97164837284132,30.722571304716897,46.754946884092234,0.0442269269298255,0.0021682195654852,-0.6009247622904442,-0.0095078107875323,-0.0957973144959858,-0.0609396968064057,-204.2767321647779,-3820.3958295128873,-3283.7552729325016,-0.0004506149225916
420,1724915046794071990,-0.4019630849361419,0.1034908145666122,0.1716158837080001,0.0237193442881107,-0.0056497594341635,-0.2943234741687774,0.9553947448730468,0.0,0.0,0.0,-2.1892940238786394,-41.09041456875798,-36.00816002473133,1.94374048,0.633820161976809,0.1647228746881942,0.4681462911681361,54.95140963701811,31.950140840623284,43.43485848644322,0.0486678411965973,0.0031668239785951,-0.5976012102877756,-0.0095556880793727,-0.0898939022855191,-0.0617061524419391,-114.60358893874027,-2118.682919793794,-1805.7779276626015,-0.000477825918439
422,1724915046813885841,-0.4020402133464813,0.1027948185801506,0.1710437983274459,0.0249326229095459,-0.0056518893688917,-0.2938883602619171,0.9554978609085084,0.0,0.0,0.0,7.039515950569353,131.79938129138282,113.36444368712,1.963554331,0.1170695543161634,0.0369402846427777,0.0443377512178267,37442.64176474821,16344.578951709129,-22169.929199176026,0.0509906567263945,0.003854088465125,-0.5966874253225599,-0.1754644103280043,-3.258414442174285,-2.790639269979806,1566.1131909280266,29464.461940062694,25372.71641929704,-0.0005385248411814
424,1724915046814135665,-0.4020845890045166,0.1019706353545188,0.1703379303216934,0.0262341648340225,-0.0054886676371097,-0.2945323586463928,0.9552656412124634,0.0,0.0,0.0,7.434234586695017,139.22563644474778,119.75933259968588,1.963804155,9.58916353992165,4.171712795106422,-5.56400875289541,37017.99685477923,16159.49669076839,-21918.646017329356,0.0533803785920194,0.0049673700999247,-0.5980212075907344,-0.1736572209461317,-3.224568918612208,-2.761527188518284,1544.3898763148477,29057.366542149324,25024.22103735211,-0.0006650584625071
426,1724915046824694678,-0.4021462798118591,0.1011646017432212,0.1697117090225219,0.0271111521869897,-0.0046584922820329,-0.2956580221652984,0.9548977613449096,0.0,0.0,0.0,7.855062258310047,147.66487577670017,128.11041617407855,1.974363168,0.1130247701758854,0.1931599352766616,-0.2292359442070312,-458.2527559048259,-195.82722121214275,246.64254237628973,0.0545598509102741,0.0071345520925538,-0.600328210903878,-0.005730435077158,-0.0817325490130356,-0.0559455717790946,-361.4650705159538,-6676.110954801828,-5683.683050399555,-0.000584222252393
428,1724915046835185474,-0.402205228805542,0.1002509146928787,0.1691598296165466,0.0265735648572444,-0.0043044663034379,-0.2973451018333435,0.954390585422516,0.0,0.0,0.0,-0.1199592978448209,-0.2886258220124711,0.9993892507932678,1.984853964,-0.1166967086811867,0.0249771817148358,-0.3370636382765954,-1.057808585549318,-8.660791941883149,-5.219398592149801,0.0533097244895867,0.0075868272492525,-0.6038451430318128,-0.007215107660869,-0.0958552119314504,-0.0474034058066763,-355.76413098844773,-6805.297046168681,-5901.468306069845,-0.0005056574357925
430,1724915046845125976,-0.4022919833660126,0.0992155447602272,0.1687376201152801,0.0269207805395126,-0.0043220547959208,-0.2989610135555267,0.953875720500946,0.0,0.0,0.0,0.152904646624088,0.8025279197331017,0.8750419065792412,1.994794466,0.0690780785889555,0.0083094067293542,-0.3412967848744038,4.065041054811189,-0.0149109025347951,8.486482540831664,0.0539702690785174,0.0078512020661551,-0.607228487345575,-0.0082044678720478,-0.0887629703260604,-0.0357251664446911,4.430878450611699,-18.087946543838363,-64.98470196794028,-0.0003689709432843
432,1724915046857145817,-0.4023829996585846,0.0983723625540733,0.1684062927961349,0.0264392960816621,-0.0039492468349635,-0.2995873391628265,0.9536942839622498,0.0,0.0,0.0,-0.1283957261982541,-1.2731685459070228,-0.6687503613479473,2.006814307,-0.0946025792464752,0.0322836263730602,-0.1097576116898782,13.914550917733964,15.5258935193009,11.472123651635412,0.0528226836030968,0.0083091040714023,-0.6085252125217975,-0.0026976858651863,-0.0778223204688721,-0.0295642270469134,-24.142967133697443,-94.12255076663276,-70.45725262551224,-0.0002881998280592
434,1724915046866264145,-0.4023738801479339,0.0976096764206886,0.1681228876113891,0.027774030342698,-0.0030834323260933,-0.2998074293136596,0.9535903930664062,0.0,0.0,0.0,-0.35365771665451,-1.587946051695562,-0.9101439606729887,2.015932635,0.222720433452565,0.2674530932381838,-0.059042806326477,5.014183805737355,-14.101849091917162,4.829142720173553,0.0548496484910248,0.0107732667853473,-0.608931618953964,-0.0079256448241338,-0.1045344429240957,-0.043833526507397,39.36069124178704,135.70139218422935,49.027665813268634,-0.000244178613054
436,1724915046874410252,-0.4025034010410309,0.0966060906648635,0.1676730066537857,0.0277878884226083,-0.0036727394908666,-0.2999196052551269,0.9535526037216188,0.0,0.0,0.0,0.4332147251819825,0.7562964008720665,0.0387035580551875,2.024078742,0.0467946894142789,-0.1377430948228948,-0.0250364307290604,-7.132788360394846,-22.589500877751867,-3.4698065546056545,0.0552281289230124,0.0096641148740365,-0.6091969749583215,-0.009207784995052,-0.1077068151548674,-0.0464826165158003,57.91421288382779,152.2850077035772,61.88604860176292,-0.0003951344636096
438,1724915046884651858,-0.4025115370750427,0.0957024693489074,0.1673095375299453,0.0285420939326286,-0.0039909691549837,-0.3006955683231354,0.9532846212387084,0.0,0.0,0.0,0.5282908760517346,0.5713555370320176,-0.0304263818040348,2.034320348,0.1599777808664987,-0.0194880199366223,-0.1590027724836716,27.92060392312583,20.871229833895413,-10.960678388310312,0.056850825073349,0.0095560487131588,-0.6108341053594052,0.0028337829594882,-0.0852085273120133,-0.0414005911387711,-18.29326672410806,-61.903438849664255,-40.01358101085112,-0.0003156598002804
440,1724915046895405093,-0.4024401009082794,0.0948203206062316,0.1667976081371307,0.0323838368058204,-0.0034140439238399,-0.3019278645515442,0.9527745246887208,0.0,0.0,0.0,0.0202277039891605,-0.5893425032812702,-0.8362627114218499,2.045073583,0.6506761373513074,0.3102249532830969,-0.2529307221126247,-68.60471338596894,-12.93908536697055,-22.960268192132126,0.0638193227248252,0.0130499076288462,-0.6133480624877728,0.001204531905703,-0.0974160417724832,-0.0476737626019598,2.692203486388401,62.99780548395222,-42.31500343752501,-0.0004600875297869
442,1724915046904156325,-0.4024682939052582,0.0938582718372345,0.1663799285888672,0.0290597137063741,-0.0028002536855638,-0.3042672574520111,0.9521393179893494,0.0,0.0,0.0,0.3994559511412005,1.179373287482088,-0.9742247012360692,2.053824815,-0.7632928808272949,-0.1135311754678638,-0.5551741153090864,-55.55483757332298,-20.69550913057028,-17.262363683667267,0.0570771805330401,0.0123516895834357,-0.6182580995472271,0.0026046763495735,-0.0986856491277565,-0.0567931446547751,31.213628129891248,129.44437774862834,-43.875906200306915,-0.0003647203916067
444,1724915046914566870,-0.4023690223693847,0.0929701924324035,0.1656764149665832,0.0289479605853557,-0.0026046771090477,-0.3068462312221527,0.9513152241706848,0.0,0.0,0.0,0.5742990035755247,1.6270278757734462,-1.779137392770971,2.06423536,-0.0286605435844661,0.0144010561147821,-0.5209443991521112,49.56107561892713,8.390383278889914,14.180517239821926,0.0567107853716626,0.0128097575610037,-0.6236644795346353,0.0097288422010777,-0.0700050970442967,-0.0660951462877141,-4.964487825621966,0.3571296304473357,25.15759505588891,-0.0006570871252139
446,1724915046928010087,-0.4022348821163177,0.0922947078943252,0.164813607931137,0.0308185759931802,-0.0027595753781497,-0.3077322542667389,0.9509698152542114,0.0,0.0,0.0,0.1298336122789012,0.8915752764898865,0.3379528745620757,2.077678577,0.272965309700213,0.0595223550274049,-0.1412255705870359,29.87039200147149,12.43902104101397,22.033733108972488,0.0603558061006996,0.0137196243513353,-0.6255131629628466,0.0155393413956375,-0.0677126155511,-0.1053862482481982,-53.05768009657888,74.82546345306822,377.64939833708627,-0.0008259569939385
448,1724915046934770001,-0.4021109342575073,0.0917776077985763,0.1639611423015594,0.0326077491044998,-0.002717567840591,-0.3077519834041595,0.9509038925170898,0.0,0.0,0.0,-0.2967999817486397,1.837701845451052,3.63922104580902,2.084438491,0.5001542178619752,0.1744827618718859,-0.0133967199060874,13.865293734819463,17.839821095290652,1.230127782952918,0.0637365619548883,0.0149024588386123,-0.6255304252072903,0.0153891097337783,-0.0592346550790097,-0.0920178883499671,-45.466139015223646,72.11731408626436,296.1449202166012,-0.000822566165235
