seq,stamp,px,py,pz,ox,oy,oz,ow,lx,ly,lz,ax,ay,az,timestamp,wx,wy,wz,aa_x,aa_y,aa_z,roll,pitch,yaw,vx,vy,vz,jx,jy,jz,fw,fw2
5468,1724557162301030358,-1.541375756263733,-0.2243864834308624,0.1647896021604538,-0.0139848757535219,0.0672419369220733,0.5020939111709595,-0.8620815873146057,0.0,0.0,0.0,0.9626289274826982,-1.482172982639058,1.5119222133924672,10.010429866,0.0680976429340711,-0.0976453782705089,-0.037337826367118,-11.725313569294382,-11.123655307106716,19.49315102929315,0.0922459336211636,-0.1020697683876541,-1.0595012643721111,0.0374558041519677,-0.0493582098789771,0.0169103779747064,70.92318773231926,-78.32550928922919,37.2468880447847,5.9762579073175615e-05,0.0001305740247681
5470,1724557162318413464,-1.5409183502197266,-0.2248964607715606,0.1651563197374344,-0.0150293773040175,0.0673948228359222,0.5022616982460022,-0.861954391002655,0.0,0.0,0.0,-1.1556801246708517,1.202419991673331,-1.5257194248332624,10.027812972,0.1113385764032968,0.0439206123049763,-0.0318247911048042,30.011745967671892,39.75024404845713,-179.39694503469048,0.0942302951488966,-0.101258113834814,-1.0599835850294403,0.1591575749133653,-0.1898740884100078,0.1167707051819917,-865.2251626550076,1052.6278002627057,-741.4175316745618,0.0002818602269065,0.0003617191200152
5472,1724557162321093739,-1.540436863899231,-0.2254717200994491,0.1655088365077972,-0.0154271190986037,0.0673308223485946,0.5029178261756897,-0.8615696430206299,0.0,0.0,0.0,-3.781930126903231,4.394945145618671,-3.7471089511800337,10.030493247,0.2031531763604974,0.1635240816636173,-0.5869279459415051,23.75164996570652,32.301525492456236,-157.744877580718,0.0949292599999639,-0.100673208010305,-1.0615160037966778,0.1526890800478604,-0.1828137134312815,0.1096767384933707,-791.0008195472612,972.330320978156,-678.4215022478812,0.0002621526738251,0.0003432928067995
5474,1724557162332131393,-1.5399765968322754,-0.2260435074567794,0.1657264232635498,-0.0152896465733647,0.0674802958965301,0.5033267736434937,-0.8613215684890747,0.0,0.0,0.0,-3.929027592857528,5.182344803195829,-4.400333415172077,10.041530901,-0.0121360819351302,-0.0400322746830368,-0.084354110681244,-2.639792847572293,-7.549150367137038,23.41907107178297,0.0948933390278249,-0.101024847576496,-1.0624897278081262,0.0487386056717014,-0.0542704427509974,0.0183006223165538,205.3024542639114,-234.72020011991637,156.84346625964582,0.0001311347554434,0.0002080215942428
5476,1724557162342146036,-1.5394245386123655,-0.2266094237565994,0.165896862745285,-0.0157593823969364,0.0678372457623481,0.5035080909729004,-0.8611790537834167,0.0,0.0,0.0,0.1135673556771803,0.0507274340211427,-0.8667027428236999,10.051545544,0.1146720203786451,-0.0166570519082661,-0.0507545338619592,-4.157240994958433,-1.7404103863053475,1.6062535649815817,0.0960946685480851,-0.1011424332999603,-1.063014249829474,0.0592642912320826,-0.0611017523656087,0.0094723538283822,238.21604326923028,-300.64651769335023,194.3792282992588,7.22237765236328e-05,0.0001705071028749
5478,1724557162351308250,-1.5388468503952026,-0.227207750082016,0.1659203916788101,-0.0153670664876699,0.0679483860731124,0.5037328600883484,-0.8610458970069885,0.0,0.0,0.0,0.9092754112089932,-0.9287744662390528,-0.4140846803238062,10.060707758,-0.064404399851214,-0.0667570422614275,-0.0506966624115748,-9.719157979567433,-4.078681329643376,2.0142509643923057,0.0955575892561326,-0.1017068219645708,-1.0635377814392697,0.0524466908044729,-0.0544938971770969,0.0016557753939521,54.2553350073475,-59.96912898611773,48.50651617650397,-7.836535302200697e-05,2.5161507091929128e-05
5480,1724557162366521214,-1.53831684589386,-0.2277637124061584,0.165922537446022,-0.0152275310829281,0.0687034055590629,0.5035242438316345,-0.861110508441925,0.0,0.0,0.0,0.911413543915682,-0.6554567323710394,0.3012611872657695,10.075920722,0.0359382940860093,-0.0937094094798417,0.0306657815005337,19.34461357015516,4.39243031372801,-22.567816704710147,0.0960706045439136,-0.1031705166239389,-1.063208099624474,0.1080431326526536,-0.110301262285624,0.0064465008455805,-385.3323821157717,404.5416399205373,-24.709647815319077,-9.259998505123727e-05,3.662458635933848e-06
5482,1724557162370881262,-1.5377542972564695,-0.2283367961645126,0.1659585237503051,-0.0154252154752612,0.0689750164747238,0.5036986470222473,-0.8609832525253296,0.0,0.0,0.0,-1.2503385444080732,1.5914264491318146,0.1038903930764818,10.08028077,0.1362124861045095,-0.0668555824935595,-0.1026146898555929,12.337954888248367,5.2393124285520285,-21.01329893405168,0.0967135669521707,-0.1034175944590295,-1.0636839929057849,0.1085891422577205,-0.1093941207350015,0.007742957716923,-369.9503971601152,385.7152063756323,-34.82550356824496,-6.452904419321e-05,3.865759822549433e-05
5484,1724557162381504548,-1.5371296405792236,-0.2289282977581024,0.1660275608301162,-0.0153207713738083,0.0691055133938789,0.5040637254714966,-0.8607609868049622,0.0,0.0,0.0,-1.9227339751139572,2.333961417364178,0.0042204667487966,10.090904056,-0.0086501099526298,-0.0350035215015638,-0.0785189058404095,-6.618674404207817,-1.4105831865601548,2.1112167701104343,0.0967116991439858,-0.1037071678225906,-1.064554827360001,0.0597016202702889,-0.0566812308354709,0.0038391834640787,74.03855356682728,-73.59184910929478,5.235286398491893,-4.122339319888314e-05,7.62014818273212e-05
5486,1724557162391597198,-1.5365184545516968,-0.2295099645853042,0.1660408079624176,-0.0150730116292834,0.0694777145981788,0.5043286085128784,-0.8605802059173584,0.0,0.0,0.0,0.1413317515822032,0.2153797966578605,0.1972185516147169,10.100996706,-0.0081611811446354,-0.0915149429174082,-0.0587164128127682,-5.284204551112064,4.458793370081904,-11.325158456673378,0.09670029667795,-0.1045692585079467,-1.065237516973521,0.0659855751579812,-0.0583245047660678,0.0074457723167054,87.28936567800172,-105.97965071324867,-31.669250444960085,-9.493849401977792e-05,2.105511038017183e-05
5488,1724557162401139928,-1.5358397960662842,-0.2300727814435959,0.1661671996116638,-0.0148304458707571,0.0690286830067634,0.5055375695228577,-0.8599109649658203,0.0,0.0,0.0,-0.0833606235369743,0.1418145272890365,-0.5632762574845324,10.110539436,-0.1067021993631308,0.0417857013123223,-0.2866770026229912,-4.231397128815852,7.162154667586451,-7.264844675595784,0.0959629308067033,-0.1039092336856953,-1.0679368307171873,0.062991649192746,-0.0528567925228831,0.0078829634471864,-2.4735323671071816,-17.27090011730096,-50.17976712959984,9.461215252566229e-06,0.0001418877670112
5490,1724557162413460506,-1.5351929664611816,-0.2306266278028488,0.1661790311336517,-0.0146178919821977,0.0687104910612106,0.5061537027359009,-0.8595775365829468,0.0,0.0,0.0,0.2213634911083941,-0.223073920496037,-0.7120416013494958,10.122860014,-0.0618836835226333,0.0217537057624495,-0.1117523696523161,10.0697164200674,-5.24853499672893,17.660257777666036,0.095340468989526,-0.1035109348679473,-1.0692889916962494,0.0656292364881352,-0.057967989116836,-0.0087457530131356,5.258137539667165,-13.561465994032464,57.14855361205358,-9.8868020424034e-05,2.6107379607138915e-05
5492,1724557162421805851,-1.5345710515975952,-0.2311839610338211,0.1660511791706085,-0.0147221116349101,0.0689899548888206,0.5059415102005005,-0.859678328037262,0.0,0.0,0.0,0.1551588497051255,-0.2454962264586111,0.1561816060738665,10.131205359,0.0585099880670172,-0.0425248872275791,0.0552010955078268,8.84783755229701,-0.0014083941322149,8.538075896676192,0.0957845566125402,-0.1039081635579129,-1.0688620485409843,0.0675177636682136,-0.0587455591710401,-0.011083649849497,-12.945147952538855,-20.60306700472329,72.04166466029291,-0.0002344144671515,-0.0001150885143786
5494,1724557162433263331,-1.5339076519012451,-0.2317305952310562,0.1659908294677734,-0.015315962024033,0.0688096210360527,0.5060409903526306,-0.8596237897872925,0.0,0.0,0.0,-0.0720000332461818,-0.763381645283741,0.4783076234857301,10.142662839,0.0721313438578911,0.0785959073778591,-0.0273600655777148,-34.472152436141585,-11.367445801861214,-5.543691325173982,0.0966344026400975,-0.1029816928134619,-1.0690886895730043,0.0681764753776121,-0.0639543829170854,-0.0024307211098033,-31.467244132172105,12.995044730663672,-2.9442988261460776,-0.0001721881750282,-4.4014646763002023e-05
5496,1724557162441161047,-1.533313274383545,-0.2323241233825683,0.1659870743751526,-0.0137334922328591,0.0684613138437271,0.5063661336898804,-0.8594869375228882,0.0,0.0,0.0,-0.3838923404460663,-0.3439362329806172,0.2859696903622961,10.150560555,-0.3942566082138572,-0.1306144883176059,-0.0620937284401102,-28.530007030234177,-17.3498871443011,-1.2471728858404425,0.0935815534213145,-0.1039620301110276,-1.0696781005331115,0.0669028925726635,-0.0716642250023742,-0.0001606848216288,3.1761953845265793,53.30936192911342,1.004131749226875,-0.0001090728934717,2.8001661963079664e-06
5498,1724557162451668357,-1.5327271223068235,-0.2330283671617508,0.1659897863864898,-0.0120449988171458,0.0685837864875793,0.5066155791282654,-0.8593555092811584,0.0,0.0,0.0,0.245939551069553,0.2189927177947552,0.6510008203917246,10.161067865,-0.2673366312512001,-0.1851440620608025,-0.0311530642532971,20.767533609636224,1.7520730279566772,1.5307228504187838,0.0908257496317363,-0.1058689982343469,-1.0701859856397784,0.0597569949402867,-0.0664393806692196,0.0028236809124351,46.8756885721229,26.560617086468625,14.067016093760602,-0.0001079205976716,1.1072567360167945e-06
5500,1724557162461958528,-1.5320721864700315,-0.2337061464786529,0.1660446971654892,-0.011952188797295,0.0690999403595924,0.5067406296730042,-0.8592416644096375,0.0,0.0,0.0,0.5966197923369903,0.2200682195766483,0.5874135404495422,10.171358036,0.0339216155681371,-0.097159283656488,-0.0296508434530438,15.159383586569774,9.409879008576343,-10.433475182966465,0.0912169395392646,-0.106836901816636,-1.070582871139452,0.0716198175848319,-0.066990132266218,0.0132207706778633,-25.14860739555588,23.46214394295607,-16.34708646500394,-6.487901834898371e-05,6.28217559270731e-05
5502,1724557162471311834,-1.5313345193862915,-0.2343422770500183,0.1662353873252868,-0.0122418068349361,0.0692271366715431,0.5075951814651489,-0.8587228059768677,0.0,0.0,0.0,-0.1421416439757812,0.6380972419337283,0.3480713997542091,10.180711342,0.0556935569074569,-0.0018384932866772,-0.2171821317367263,2.939525374967493,3.609312236111349,-5.254006966356223,0.0919547988314525,-0.1066682433079875,-1.0726189129777213,0.0724714278885869,-0.0626057737463856,0.015118991210774,-25.011844098915105,-15.294938215367072,-63.71203078276249,6.060162435602928e-05,0.0002092609426959
5504,1724557162482226333,-1.5306249856948853,-0.2349567413330078,0.1663333028554916,-0.0125940088182687,0.0697029456496238,0.5079654455184937,-0.8584602475166321,0.0,0.0,0.0,0.2722707767973071,-0.2928646329841466,-0.8328584096454011,10.191625841,0.0955690388898725,-0.0462725522361245,-0.0860845320239113,-9.82924700509519,4.82214478358252,-2.8634260608679263,0.0931032656915948,-0.1070843129040304,-1.0736067783867853,0.0679500410528959,-0.0534844037994304,0.0207663672088092,16.147935804596848,-74.2616462534194,-139.16979286240874,-2.7284018901856647e-05,0.0001159690272719
5506,1724557162492354433,-1.5299091339111328,-0.2354719936847686,0.1666544824838638,-0.0123373894020915,0.0689759030938148,0.509113609790802,-0.8578424453735352,0.0,0.0,0.0,0.2307365960860394,-0.941290225209218,-2.533465650040991,10.201753941,-0.1306977398589993,0.0861485799261506,-0.2548838928124439,-3.613800678233007,-9.135305653067936,17.468642913671015,0.0920458102966898,-0.105976910667344,-1.076110941953862,0.077159845195041,-0.0670573307637845,-0.0003593074598313,-37.31254020730281,44.06429571352178,21.757385650538943,0.0001990370340744,0.0003466533757493
5508,1724557162501094343,-1.5291858911514282,-0.2361801266670227,0.1664094626903534,-0.0118530578911304,0.0695417076349258,0.5085464119911194,-0.8581398725509644,0.0,0.0,0.0,-0.3458536062643578,0.2590167495827331,-0.9128400833571124,10.210493851,-0.0210454866958673,-0.1612002564649651,0.1552369133676547,-16.54220179696782,-15.902868466140886,26.93381628797894,0.0917309496699858,-0.1075043189389569,-1.074882036420861,0.0740585036280236,-0.0722761096392261,-0.0258774988084056,8.408018399524071,94.0519257012346,212.84409186048703,-0.0003733023136124,-0.000229471222003
5510,1724557162511638780,-1.5285155773162842,-0.2368309646844864,0.1661640405654907,-0.0087676858529448,0.0688110217452049,0.5079250931739807,-0.8586036562919617,0.0,0.0,0.0,0.6890341596185627,0.700097166338352,1.6802538247590246,10.221038288,-0.5655224909841005,-0.1711627357945175,0.1849193439251871,-2.8933753580788553,5.73367798624229,-3.6964372705633464,0.0855736765877423,-0.1094746736853396,-1.073089011249902,0.0705260975301769,-0.0586535367582161,-0.0099721244477706,54.84052630642381,-2.7236882988503464,81.92999184887081,-0.000363932375848,-0.0002251180191095
5512,1724557162521768908,-1.5277334451675415,-0.2373952567577362,0.1661924868822097,-0.0080907959491014,0.068713940680027,0.5076032876968384,-0.8588083386421204,0.0,0.0,0.0,0.8231286441084027,0.2388988911641614,0.9142428116997028,10.231168416,-0.1204606461603529,-0.0480841543133081,0.0841041634765865,31.119337228075047,23.636911922759214,-17.651974270587473,0.0842643963730973,-0.1100322755163063,-1.072276484654784,0.0874721206536577,-0.0573211441504639,0.0087214257447403,-25.488177851451333,-3.749882625415559,-42.87243601357562,-0.0001020833217299,6.685393178468944e-05
5514,1724557162531225488,-1.52681565284729,-0.2379515916109085,0.1663271635770797,-0.0090506924316287,0.067729577422142,0.5081847906112671,-0.8585331439971924,0.0,0.0,0.0,0.2402371838176527,0.5722419597430115,0.7978801537830039,10.240624996,0.0606921877440622,0.2768466939575452,-0.1507969711241877,4.322418071488238,10.271424432792314,-7.205861876659954,0.0849692363260152,-0.1073031210736603,-1.0734834584096178,0.0877550595472698,-0.0541141247120435,0.0091474642000033,-25.12038245802954,3.981997506274441,-31.52874108218088,-1.1410677390052824e-05,0.0001847691951705
5516,1724557162542255168,-1.525967359542847,-0.2384877800941467,0.1663625240325927,-0.0088864313438534,0.067118339240551,0.5082276463508606,-0.858557403087616,0.0,0.0,0.0,0.4329562370649036,0.2139178717921006,0.2028243272025518,10.251654676,-0.0824625371086816,0.0802468312953462,-0.0034219971542841,0.6136000417360032,-0.7141460421113894,-2.5037564607711085,0.0840557074274273,-0.1064179803508469,-1.0734460034153324,0.0931104195185525,-0.0448036312771851,0.0276325574543019,-24.013738906424823,-61.36898985290742,-136.01656608158655,-9.879033907334057e-05,8.037766328069612e-05
5518,1724557162551319319,-1.5250027179718018,-0.2388655096292495,0.166794940829277,-0.0094885556027293,0.0663855820894241,0.5087732672691345,-0.8582847118377686,0.0,0.0,0.0,-0.0937362046580276,-0.5574766395662332,-1.641351794015422,10.260718827,0.024349303084855,0.2012276858625555,-0.1442962031725572,16.111400633728472,-9.032998426937455,8.318544736335895,0.084398117723934,-0.1044904519676757,-1.0746022389508736,0.0966431035756514,-0.0475590324582082,0.0184979088128258,-23.68310184688565,-30.547030267908305,-56.22154254220609,0.0002899243198851,0.0004974719292641
5520,1724557162562596061,-1.5240501165390017,-0.2394843995571136,0.1665937602519989,-0.0100573310628533,0.0682043805718422,0.5073077082633972,-0.8590028882026672,0.0,0.0,0.0,0.1221461967981563,-0.1365457417364384,-0.2097002003792397,10.271995569,0.2667445720773452,-0.2146163471757577,0.2842585394074975,-27.021482692730213,-22.38906281638968,14.53503289418901,0.0870888884875764,-0.1071762633561436,-1.0715990465996663,0.0888031331600984,-0.0574018424308562,-0.0088998789069965,39.21529720909258,67.43702656011948,140.65867413240753,-0.0003527447937078,-0.0001508887023927
5522,1724557162572089288,-1.5231724977493286,-0.2400494664907455,0.1665807217359542,-0.0076922657899558,0.0685759261250495,0.506486177444458,-0.8594823479652405,0.0,0.0,0.0,0.6548311954038022,0.7442794831356507,1.235112334008675,10.281488796,-0.3775112639844802,-0.3113821850570001,0.2346884885730165,-34.658766148373196,4.756978275031216,-9.262051967362922,0.0832901795283318,-0.1103111283182218,-1.0696189284795912,0.0964950231159491,-0.0528137796406831,0.0068502326218951,23.851317071724388,42.15763865400011,36.82018477804964,-0.0001549870793682,3.697615865167079e-05
5524,1724557162581774125,-1.522197961807251,-0.2404946684837341,0.1667283177375793,-0.0057661994360387,0.0681246668100357,0.5061801075935364,-0.8597135543823242,0.0,0.0,0.0,0.5670805346177454,0.6523590919325044,0.451779892106958,10.291173633,-0.3850898296844232,-0.117599708631021,0.1050663146747313,28.97811557143739,20.54020480963682,-6.578545391028313,0.0794579926994297,-0.1115289971725781,-1.0686915653476825,0.1013013669557665,-0.0430269804284826,0.0146230683198362,-44.63380737951534,-14.553974627925506,-71.08053236704518,8.459632763863058e-08,0.0002195619457037
5526,1724557162592323701,-1.5211215019226074,-0.2409147769212722,0.1668754965066909,-0.0071970433928072,0.0683521702885627,0.5055655241012573,-0.8600463271141052,0.0,0.0,0.0,-0.3125773682018185,0.4406414294965655,-0.1854516682016964,10.301723209,0.2626120975437595,0.1051967901440659,0.113870881333346,15.633538799372918,9.015670322724858,1.1697714785994453,0.0820849787533946,-0.1105197674224099,-1.067396752863046,0.1080974881673029,-0.0402607761336941,0.0153579508118557,247.835818052618,-100.22201341981048,-45.61897251892747,-1.2441087406912817e-05,0.0002302806045698
5528,1724557162602169388,-1.5200015306472778,-0.2413152009248733,0.1670396327972412,-0.0073429676704108,0.0679964870214462,0.5050198435783386,-0.860393762588501,0.0,0.0,0.0,5.171029979931339,-1.282621729662728,-0.4987500607433482,10.311568896,-0.0039655167839037,0.0827476287835429,0.1284679917691093,-21.883990436732702,-4.257017004663595,0.6841004333270009,0.0818991074066451,-0.1098113789612134,-1.0660612468520505,0.09622827538589,-0.034282794416522,0.011187891949119,168.2757711199455,-61.26715591675929,-14.494240706555177,8.081420329042466e-07,0.000252778970188
5530,1724557162619213647,-1.51887845993042,-0.2417110651731491,0.1670685410499572,-0.0054273763671517,0.0673935040831565,0.5042966604232788,-0.8608796000480652,0.0,0.0,0.0,-3.4292087565894462,1.029728376034143,-0.2345540635988013,10.328613155,-0.2237791308979797,-0.0481409382759376,0.1165677696666089,186.2632556435809,142.7517646832378,237.71273725605624,0.077872888288176,-0.1107878652237673,-1.0641347515456256,0.372511204741329,-0.1119042395093856,0.0004679689839122,-2302.944506292916,678.7796690284385,124.0658890765198,-0.0001310284267011,0.000122205046541
5532,1724557162622008180,-1.517696976661682,-0.2420644164085388,0.1670692861080169,-0.0061060013249516,0.0671687126159668,0.5031856894493103,-0.8615424036979675,0.0,0.0,0.0,-10.688844604626532,3.1754461704998675,0.1618950930299384,10.331407688,0.3879916523173185,0.4197087716347263,0.890100044004204,154.5374621826271,118.5584667499057,199.88364838416112,0.0786723439111084,-0.1098130544675256,-1.0615474506795244,0.3539299085656537,-0.1064682011873818,-6.795709322382493e-06,-2041.1542381362513,616.5951733482021,144.6560806950804,-0.0001634313130517,0.0001026169338886
5534,1724557162631380420,-1.5165441036224363,-0.2424343824386596,0.1670606285333633,-0.0052297646179795,0.0667565166950225,0.5018481016159058,-0.8623600006103516,0.0,0.0,0.0,-12.322341313000976,4.200745730096173,1.605346231542242,10.340779928,-0.1872496569553216,-0.0048443620451611,0.3457296283306702,-29.005865416550854,-20.76775927494788,-46.99385448793826,0.0765611115436878,-0.110109566697232,-1.0583008558743594,0.1267744943650512,-0.0380388342498037,0.0119393428045562,468.10597591736945,-101.65686889847038,43.67878323114012,-0.0001688208946656,8.998007823900789e-05
5536,1724557162641344501,-1.515241026878357,-0.2427981942892074,0.1673158556222915,-0.0047787749208509,0.0662163496017456,0.5019127130508423,-0.8623665571212769,0.0,0.0,0.0,-0.8529947187007734,0.9520671791628128,0.871757271142836,10.350744009,-0.1333479382898186,0.0480907288429997,-0.0050474077873861,14.761765844910263,5.539896708056537,-19.707507445680367,0.0752339320174405,-0.1096279331081821,-1.0583145973206955,0.1302096804383836,-0.0290271609204317,0.0314385172649576,1296.6492061245494,-378.0423561178643,-31.78369826231942,7.672391833641942e-05,0.0003683639056716
5538,1724557162651402705,-1.5139371156692505,-0.2430141568183899,0.1676912009716034,-0.0055393576622009,0.0660328641533851,0.5020725727081299,-0.8622831106185913,0.0,0.0,0.0,13.66707293002419,-3.3783617351386512,0.976877312422998,10.360802213,0.1100834482919604,0.1061200201306634,-0.0459287425859433,18.677451800768807,3.9644114950607703,-2.609532162914174,0.0763827789569723,-0.1085286526888486,-1.0586968059791386,0.1094690541150456,-0.01896726132049,0.0291886679373495,-2891.886307542534,717.039196525762,-383.369738250043,0.0002040527673944,0.0004969003158102
5540,1724557162689116293,-1.5126605033874512,-0.2433753907680511,0.1676425486803054,-0.0060068499296903,0.0663472563028335,0.5010324120521545,-0.8628606796264648,0.0,0.0,0.0,-708.4712212453896,185.94069321405527,-69.17096340763987,10.398515801,0.0332211184943836,0.0003988144864312,0.0613978283289883,-412.5427953837441,8255.498102455154,13823.715725965756,0.0773838047246669,-0.1086915086882111,-1.056373281452849,2.8491353095200793,-0.7655384506332439,0.2357995525846377,-54390.6809403447,15101.128465539136,-3735.035848989472,-0.0002223445854307,6.250244398793792e-05
5542,1724557162689573121,-1.5113433599472046,-0.243729293346405,0.1677515804767608,-0.0063148834742605,0.0655856058001518,0.4997569918632507,-0.8636559247970581,0.0,0.0,0.0,-733.5134262725135,192.8950969005784,-70.88760797520877,10.398972629,-0.157511549703103,3.8174396185943182,6.452937369010878,-455.3570183312643,6809.052483602053,11536.67445748914,0.0769787969923471,-0.1071800682591915,-1.0532816186779168,2.5211634410621,-0.6794570725805418,0.2037872400597589,-34683.488475205464,10160.041343887497,-2287.461345401924,-6.878276144904326e-05,0.0002219265759733
5544,1724557162692135516,-1.5100871324539185,-0.2441014945507049,0.1677723824977874,-0.00356962159276,0.0654598250985145,0.4991040229797363,-0.864058792591095,0.0,0.0,0.0,-533.0042591521601,146.15707544096864,-55.61694387686392,10.401535024,-1.8682054699162836,-0.9622145070064252,0.737225771144521,-470.5296938165054,-1425.0940591384451,-1748.7022159268472,0.0720065427930439,-0.1097794185397751,-1.0515714093313036,0.4176780721680657,-0.1210481916999004,0.0104686330626995,75945.60781124182,-18243.65267338146,6031.9250703339,-0.0001479848737332,0.0001316377351226
5546,1724557162700979478,-1.50860857963562,-0.2444331347942352,0.1679367125034332,-0.0032393634319305,0.0659201592206955,0.4991793036460876,-0.8639814853668213,0.0,0.0,0.0,68.29459048550052,-15.301345880945972,-0.0609402231361286,10.410378986,-0.0136273215805152,-0.1284307108881745,-0.0181749781931857,-5331.39615373835,-2787.2000378455004,1985.484697370584,0.0719128178971779,-0.1109007355681534,-1.0518146944233857,4.491846382810763,-1.019103535324689,0.1238194449845195,-86240.75010931575,19171.10183987798,-2299.435649295593,-3.0271264863625507e-05,0.0003028528114666
5548,1724557162701289177,-1.507170557975769,-0.2447593957185745,0.1679762005805969,-0.0029232145752757,0.0659239888191223,0.4991145730018616,-0.8640197515487671,0.0,0.0,0.0,39.913274285706315,-8.958171177531112,-0.8661373306191351,10.410688685,-1.724849006227155,-1.02287362478918,0.6191867111813502,-5355.431240425589,-2798.361786216389,1995.3120828286096,0.0713598356385248,-0.1112304381119368,-1.0516451060584582,4.508741781759026,-1.0229070334198354,0.1236609123313161,-90152.6526915692,20153.2076307163,-2551.4703714590355,-0.0001486926355233,0.0001756479135864
5550,1724557162711352564,-1.5057940483093262,-0.2450567483901977,0.1679637283086776,-0.003145172027871,0.0651545152068138,0.4982574880123138,-0.8645718693733215,0.0,0.0,0.0,-380.43653721714014,86.42075128958781,-10.694779766701702,10.420752072,-0.0273051941660954,0.1618790673822282,0.1985865702814366,148.75520248764616,103.58106511795263,-37.14120360619253,0.0708510655969657,-0.1097474874921567,-1.0495230595811524,0.1227943023815174,-0.0264001612447425,-0.0008935728655592,-31674.03219039861,8232.118561771396,2018.21071350122,-0.0001894492903998,0.0001174757797179
5552,1724557162786496733,-1.5044164657592771,-0.2452743053436279,0.1680906116962433,-0.0021856643725186,0.0643335357308387,0.4977183640003204,-0.8649467825889587,0.0,0.0,0.0,2904.4912462415823,6.046200833833154,1821.415181047657,10.495896241,-0.0320630414209776,0.0068624569591817,0.0189728335769511,-3915.6458912810554,1132.6220840493752,9672.288905438209,0.0682813554211364,-0.1093321661663162,-1.0480562112027518,2.6181175429960604,-0.6036118129169381,0.1393600770342686,-1580149.7988975644,-485927.52199012047,-1997502.548579309,-4.3586468375568553e-05,0.0002613911711476
5554,1724557162787050005,-1.5029573440551758,-0.2456107139587402,0.1681682765483856,-0.0016473871655762,0.0638791322708129,0.4964622855186462,-0.8657031655311584,0.0,0.0,0.0,2023.6235744387131,-264.7790252242942,708.0165346121585,10.496449513,-2.2144309286346315,0.6381328350374902,5.409790571099982,10866.534971162191,12430.480573373025,-10988.401784402891,0.0667259794825188,-0.1091817935000793,-1.0450280200205024,4.236787786782315,-0.6002106980976123,1.154510274168672,-2647169.483876213,-771637.7870636163,-4242171.850444809,-0.0001071139673312,0.0002137268213597
5556,1724557162787356971,-1.5013843774795532,-0.2457936257123947,0.1686953902244568,-0.0026320628821849,0.0633090957999229,0.496623158454895,-0.8656503558158875,0.0,0.0,0.0,1031.343977843983,-549.6971022658328,-973.9417522882876,10.496756479,3.6436989777126154,6.376590731755891,-1.4941429553174754,-5823.5229440063695,-3571.935001381252,-6720.13462174664,0.0678798798419581,-0.1071979872248178,-1.0453559457477444,4.704349768819611,-0.727630496040149,1.179941958372808,-1190989.5120017435,374488.6400457654,-3346099.872892197,0.0003356922611973,0.0006788417974652
5558,1724557162787716408,-1.4998701810836792,-0.2461106181144714,0.1688933968544006,-0.0008294915314763,0.0631786584854126,0.496301531791687,-0.8658478260040283,0.0,0.0,0.0,1462.4997303064663,133.16913038761027,-1278.8394980192877,10.497115916,-8.932483761859666,-4.278565474063666,2.7279347818675617,-1089.6491144686397,-7502.393193618515,18001.773561268106,0.0645741603910735,-0.1087973620002037,-1.0444740638235612,4.868053853956553,-0.981863262586728,0.3850924342402777,185860.83365954645,1680187.9693097328,1753350.6833754163,1.0092766265418858e-05,0.0003405070660001
5560,1724557162788003734,-1.4983209371566772,-0.246415689587593,0.1689659655094146,-0.0004670238413382,0.0632434114813804,0.4951530992984772,-0.8665007948875427,0.0,0.0,0.0,1283.0805748897092,565.4848783930906,-177.51186423278972,10.497403242,-1.4595968223735154,-1.3486645657227208,9.337067784505424,11912.80186680107,21690.04611066229,7883.911617451542,0.0638643304137867,-0.1093562672415792,-1.041806054166747,5.519570263418245,-0.7505577265883403,0.2318349694631933,-3510976.086898583,-441884.36087817536,2522797.3695712015,-0.0001173868060415,0.0002217165310191
5562,1724557162788291096,-1.4966981410980225,-0.2465419322252273,0.1690266281366348,-0.0007236748933792,0.0620759949088096,0.4942672550678253,-0.8670904636383057,0.0,0.0,0.0,-555.4239384094781,-120.91666611352956,170.8875344349663,10.497690604,-2.0873544286040775,8.18727128689135,7.257635595819373,-9912.36889726458,808.9443893026767,-5641.322554841483,0.0630220894096562,-0.1071404903164354,-1.0395621922861906,5.605353979562551,-0.6569031369927529,0.2831041210013723,-4653044.531405168,-1874643.778066122,556913.8334458473,-0.0001232498495751,0.0002258245436294
5564,1724557162788573101,-1.4951289892196655,-0.2467873990535736,0.1691263914108276,0.000226176896831,0.0616537928581237,0.4935815632343292,-0.8675113916397095,0.0,0.0,0.0,-1384.7292360399897,-507.3309465263089,146.53397609645472,10.497972609,-7.021348487456447,-0.5444408627778901,6.108155781113876,-16189.556004532462,-28827.241752922848,-3898.695300500363,0.0608579278449296,-0.107400364030872,-1.0378426461095882,5.2123940932116355,-0.814660991274855,0.3292125698819363,-2730322.154202845,-1264840.485377516,-84088.8952685178,-8.353416938575266e-05,0.0002523651441775
5566,1724557162792408588,-1.4934927225112915,-0.2470025718212127,0.1691083312034607,0.0015844083391129,0.06024631857872,0.4930134415626526,-0.8679318428039551,0.0,0.0,0.0,-879.9167735124867,139.57253066767933,-57.587126481105315,10.501808096,-0.9583464376229934,0.3005594258552943,0.4090418885996292,1146.5134179515494,156.9463260688197,-1030.0482615719911,0.0570069010673223,-0.1063419826600865,-1.0361992651932876,0.3562105433039093,-0.0435212163783198,0.0060820901639688,122348.77097625005,111326.14150350956,-34587.367700666866,-0.0001998665309699,0.0001435566255793
5568,1724557162800938248,-1.4917898178100586,-0.2471351772546768,0.1693648993968963,-0.0014264796627685,0.0598528645932674,0.4918645918369293,-0.8686109781265259,0.0,0.0,0.0,-12.117784287828735,1.5338474702645506,0.8181721471279912,10.510337756,0.5837413127200817,0.4372963645761684,0.2699227346057189,52.85836550429119,-27.670443402605656,-9.970498080049117,0.061721657262694,-0.1027551709579571,-1.0336659625494908,0.1766670702591142,-0.0192517881148006,0.0206037740180038,56569.57544242122,-8974.538158689436,3749.5963763999207,6.779607505207131e-05,0.0004212671164705
5570,1724557162811410006,-1.4902352094650269,-0.2473844140768051,0.1694588363170623,0.0020257218275219,0.060431595891714,0.4908999502658844,-0.8691151738166809,0.0,0.0,0.0,-0.4350207322216253,0.2318009922771358,0.25857482727984,10.520809514,-0.5074497219746079,-0.4142865864972121,0.2470156324631218,-2.595957488355115,-17.683606377383505,-11.146190781011022,0.0561625411685809,-0.1072383103508804,-1.03132628752766,0.1645967094431029,-0.0200497847449465,0.0178026076018511,556.5087203718483,-58.369885956881426,-22.38953043955478,-8.262566392864549e-05,0.0002457342105248
5572,1724557162821229028,-1.488470435142517,-0.2475467473268509,0.1697149574756622,0.0003292195906396,0.0614096783101558,0.4905444383621216,-0.8692495822906494,0.0,0.0,0.0,-0.1186011967001263,0.2660403828725369,0.3246005639431718,10.530628536,0.4025559516904464,-0.002006525097857,0.0550886315778447,11.352516642595162,20.217463684971207,-8.62526908350921,0.0600572216431778,-0.1072893845815347,-1.0307842370142362,0.1669325027993551,-0.0149379260940811,0.0251850908792032,44.47978236577565,-6.188093970395727,-24.66621145841483,5.647765331000495e-05,0.0004334804695081
5574,1724557162831621442,-1.486876368522644,-0.2476844489574432,0.1699668020009994,0.0021256702020764,0.0605977736413478,0.4902762472629547,-0.8694553971290588,0.0,0.0,0.0,0.4784432811488521,0.0953114695446781,-0.2770138999475923,10.54102095,-0.3739847115326407,-0.0313575522986444,0.0855764742070744,-13.116725000631696,2.9329780888791013,-1.8139010188581777,0.0560768713373056,-0.1076663455135487,-1.0299103932196223,0.1617788603235084,-0.0149731842090439,0.0238589761633445,50.70528167360749,21.98204704629336,-3.8857664909634058,7.665072122556491e-05,0.0004136154512381
5576,1724557162842198577,-1.4850748777389526,-0.2478613704442978,0.1702151298522949,0.0012788680614903,0.0607042722404003,0.4901582598686218,-0.869516134262085,0.0,0.0,0.0,0.942151753941312,0.7413104772318565,0.263246454053369,10.551598085,0.1504659447843652,0.0616425764970009,0.0152824077810618,-10.543263685785671,11.453397358300707,-0.2415494927409929,0.0576469853749825,-0.1070245813504585,-1.0297107874267075,0.177328406651128,-0.0129024980260439,0.0193205455146987,-36.487372985804235,23.792802046584413,9.39429763646146,4.765599950773368e-05,0.0004287977754839
5578,1724557162851192839,-1.4834263324737549,-0.2479481697082519,0.1703571081161499,0.0024686651304364,0.0590893030166626,0.4900258481502533,-0.8696993589401245,0.0,0.0,0.0,-0.000395377500391,0.6701646285718535,0.028932107189227,10.560592347,-0.4042279344779074,0.1850082016922637,0.0620916563436362,-8.467643696582059,5.727212022293916,9.7026330433664,0.0539419040901843,-0.1053942882019393,-1.0290566001100832,0.1817644049758939,-0.002062518665129,0.0269833457711818,-92.77666028744837,-57.02809344689328,-64.87194943816189,-2.986294993464984e-05,0.0003097569772714
5580,1724557162861177233,-1.48162841796875,-0.2478846609592437,0.1707506328821182,0.0017162340227514,0.0586664676666259,0.4890908896923065,-0.8702560067176819,0.0,0.0,0.0,-0.7935166222090739,-0.443626395875875,-1.0490419922273428,10.570576741,0.1009192589071731,0.1536466117904051,0.2088234458683888,9.436980996487858,-0.3100583670978381,7.580863379566741,0.0547220353000037,-0.1039757254536105,-1.0268796194248828,0.1762896460128757,-0.0013015254537922,0.0181501053466917,-26.909735863103055,-45.556506719844926,13.459269507242436,0.0002140816908061,0.000580871265084
5582,1724557162870998945,-1.479933500289917,-0.2479714751243591,0.1707234531641006,0.0022226111032068,0.0574139840900898,0.4882335662841797,-0.8708195090293884,0.0,0.0,0.0,-0.5503234133562351,-0.2534303820443226,0.2563223056518133,10.580398453,-0.2040362749104167,0.1779535505712767,0.2145352260670736,-17.530314840886927,-7.520867043973942,-2.998101398197549,0.0524905138741575,-0.1023433079275028,-1.0246699954242606,0.1661270551088947,-0.0106812692890692,0.0062589427037815,60.95000565015729,42.18549859541735,70.22775660352931,-0.000198007212815,0.0001416295711013
5584,1724557162881946591,-1.4781934022903442,-0.2481108903884887,0.1709021180868148,0.0034374722745269,0.0569205656647682,0.4876473844051361,-0.8711764216423035,0.0,0.0,0.0,0.558540321486861,0.4868739586202558,0.2603102039273615,10.591346099,-0.2309866305869376,-0.0263561117344459,0.138031871180065,-3.126533186945774,-5.050935834093556,-7.670016301924594,0.0498080071061654,-0.1027087434917438,-1.0231678464919969,0.1660130704478035,-0.0048947130858909,0.0269666539168085,5.395520568671387,2.820769895306089,-118.77184032116352,2.1867357018029953e-06,0.0003490076394271
5586,1724557162891962178,-1.476465940475464,-0.248088076710701,0.1712697595357895,0.0045073707588016,0.0560557059943676,0.4874844253063202,-0.8713187575340271,0.0,0.0,0.0,-0.2660705986492715,-0.0786425625655625,-2.020889556074052,10.601361686,-0.2683920352213063,0.047776296593301,0.0549639293141077,7.433483572404653,5.1221162309277215,6.193746103477154,0.047060966614002,-0.1022574397212098,-1.022591724581741,0.1768204204634713,-0.0004004061293887,0.0146272147404022,23.81504579989788,-51.52352751811969,-74.77701303186006,0.0002055867844873,0.0005427218362447
5588,1724557162901554645,-1.4747298955917358,-0.24811652302742,0.1712072193622589,0.0047911293804645,0.0555119290947914,0.4864768087863922,-0.8719149827957153,0.0,0.0,0.0,0.937577918755748,-0.5274943684111534,-1.3326513359436658,10.610954153,-0.0944818294074587,0.0759669500338178,0.2474781507671538,3.0937783191469137,-5.235701720142148,11.818331766860863,0.0459085872712992,-0.1016398226605859,-1.0201739050186824,0.1619101969015801,-0.0059998827852325,-0.0120055887989414,113.77261045276812,-18.695734946045405,128.4838474576482,-0.0002238882582738,0.0001126970494142
5590,1724557162914227488,-1.4729973077774048,-0.248243361711502,0.1709632277488708,0.0069706947542726,0.055260494351387,0.4851476848125458,-0.872656524181366,0.0,0.0,0.0,2.1834153702378813,-0.2940215832304709,1.245502391122273,10.623626996,-0.3070152167877941,-0.1272456227418007,0.2591087617101575,22.311338946947988,11.538286777878405,-8.801680795428865,0.0416875973474601,-0.1033946186992129,-1.0169471102481022,0.2155131375412224,-0.0117431014748312,-0.0047217622813136,-278.23010530608497,22.16798149170969,52.82360017404116,-0.0004062058952051,-6.891432990361937e-05
5592,1724557162921299978,-1.4711620807647705,-0.2483332604169845,0.1709871888160705,0.0068777003325521,0.0550702176988124,0.4846590757369995,-0.8729407787322998,0.0,0.0,0.0,-1.270570787300609,-0.1224575056466474,1.024611993813291,10.630699486,0.0050398493664197,0.0631925369857764,0.1584960254678385,8.749570688473895,20.111783427647524,-15.503851907967697,0.0416053279346087,-0.1029947540021634,-1.0158024716601997,0.2228783782851096,-0.0131943193336887,0.0067344877069039,-318.7099020792656,23.873475712109183,-68.6962697824732,-0.000146279857719,0.0002087788435488
5594,1724557162931839839,-1.4693880081176758,-0.2484799176454544,0.1711107343435287,0.0085495617240667,0.0531268306076526,0.4849115312099457,-0.8729062676429749,0.0,0.0,0.0,-1.9648648863189848,0.1231266834848849,-0.287888784481101,10.641239347,-0.4583469006330365,0.168126472227945,-0.0249849566265848,-0.2726310779253542,4.386173785367921,4.275090224277127,0.0367942561011781,-0.1012137699513717,-1.0159972151020529,0.1731723758383765,-0.0131854823389954,0.0081845353594669,85.15882634992667,34.81077470170865,-23.216519272096896,-3.674974028507579e-05,0.0002967169064201
5596,1724557162941786283,-1.467620015144348,-0.2486042231321334,0.1711589395999908,0.0084445243701338,0.0523022301495075,0.4839715957641601,-0.8734784722328186,0.0,0.0,0.0,0.2998150686360876,0.5774104399935707,0.432137042288256,10.651185791,-0.0509413447742512,0.1594732977038293,0.2210667081496421,3.2560384744630753,-3.1048356431401647,13.778849213493643,0.0360602467281892,-0.0997086963203469,-1.0137305473621896,0.1794523315280969,-0.0108129586612228,0.0013274529957829,15.48856455021668,31.044793912068727,92.06077672879618,-0.0001072819816083,0.0002194677136605
5598,1724557162951345426,-1.4658889770507812,-0.2486921101808548,0.1711392998695373,0.0097836097702384,0.0509886927902698,0.4830138981342315,-0.8740720748901367,0.0,0.0,0.0,-1.5015818672142514,0.7397840283602076,1.492870546426862,10.660744934,-0.3661990677111065,0.1092622528274325,0.2521030261792943,5.213447131608198,-5.4107292443059425,-2.704295503784783,0.0323163622480658,-0.0987472267122888,-1.0112742854186656,0.1792722729801568,-0.0021801397093312,0.0157617907733076,2709.5356497266025,-89.1077020276818,432.9880172702934,-0.000163302642725,0.0001482978361233
5600,1724557162961629358,-1.464065432548523,-0.2486369311809539,0.1714985072612762,0.0092020565643906,0.0510207004845142,0.4822752773761749,-0.8744843006134033,0.0,0.0,0.0,58.42544442219348,-1.35038212263771,9.508444373912855,10.671028866,0.1099723220644447,0.0518699895540369,0.1584516007132929,31.51884455480483,-3.329479906492142,-8.765526541484766,0.0332846301431917,-0.0982675290993612,-1.0096201786005965,0.1474254907885601,0.0036209238724751,0.0309248183795722,-8633.41003715522,297.4348836963269,-1397.5770972256155,0.0002143440308031,0.0005380108101108
5602,1724557162987892968,-1.4621986150741575,-0.2486588507890701,0.1720421314239502,0.0090562589466571,0.0493601933121681,0.4828859269618988,-0.8742441534996033,0.0,0.0,0.0,-1138.2430866356772,40.043636199156936,-173.21581176640257,10.697292476,-0.0538151035819343,0.1154273001974463,-0.0488873469771217,-1855.6125663798043,20811.297600399757,5247.564624312424,0.0319861753321016,-0.0951957165202893,-1.0108101643209395,5.808385008075675,-0.1602549424883363,0.8195181281589612,-111290.27372774808,3133.879142003614,-15349.25652297656,0.0003947046538825,0.0007176328929032
5604,1724557162988218490,-1.46028470993042,-0.2487116605043411,0.1723121255636215,0.0086163086816668,0.0483130514621734,0.4826620817184448,-0.8744306564331055,0.0,0.0,0.0,-1174.735702889831,41.07006791349172,-178.246191019167,10.697617998,-0.6653194103482184,6.973919133757178,1.6805143426426363,-1765.5383977603497,19178.118978592734,4850.976175184422,0.0317111903660584,-0.0929441177730706,-1.010188313429542,5.432399780506046,-0.1470331208911082,0.7623125600125245,-98998.14719168516,2707.1739950751576,-13476.442307416924,0.0001196426442969,0.0004446567056965
5606,1724557162991835175,-1.458603024482727,-0.2486327439546585,0.1723726391792297,0.012342544272542,0.0455646067857742,0.4818196296691894,-0.8749980330467224,0.0,0.0,0.0,-1006.1131680825208,32.93898090763132,-147.55162719810772,10.701234683,-2.5102072983971166,0.3456007498109638,0.6714570583168576,-297.2330089567668,-1302.8614352899683,-215.1034546456039,0.0224045630799994,-0.0917603584580811,-1.0077165180636052,0.3916167596986994,0.0196982817133033,0.0167403532543239,64054.20816135103,-2641.8333420585723,10652.62786837076,-4.867895750559435e-05,0.0002161000151017
5608,1724557163001011232,-1.4567174911499023,-0.2485013902187347,0.1725264489650726,0.011907978914678,0.042017325758934,0.4811726808547973,-0.8755373358726501,0.0,0.0,0.0,-12.544029171499664,-0.4664488100370627,0.6170192257933305,10.71041074,-0.2817705818478784,0.725765798481838,0.185244555784712,114.9251534885837,-4.999760422564474,-35.21234898217627,0.0196558737330343,-0.0851378789798108,-1.0058696854272864,0.1842179526650156,0.0155323236907918,0.02697890865565,58521.84852813657,-1949.9839570197355,8593.844981855158,4.415177030857765e-05,0.0003161318778985
5610,1724557163011587313,-1.455028414726257,-0.2483222782611847,0.1729363203048706,0.0145394233986735,0.0399280749261379,0.4811791181564331,-0.8755918145179749,0.0,0.0,0.0,-0.1307259161037279,-0.4827416027099838,-0.5683535837386781,10.720986821,-0.6257213924229289,0.1069211957569135,0.0295047953700035,8.594365207051009,-27.536147858900012,-3.528269784887728,0.013010163582605,-0.0840123176007001,-1.0055380146455817,0.1741571299788233,0.0104474132760969,0.0274246783590044,593.2815966150022,27.703887944279263,-86.27348347232862,0.0003253651872102,0.0005524495229659
5612,1724557163021547377,-1.453158259391785,-0.2482790797948837,0.1731031984090805,0.0149373970925807,0.0390134081244468,0.4807850420475006,-0.8758427500724792,0.0,0.0,0.0,0.3339748795275516,0.0675014395844055,-1.1855747300872068,10.730946885,-0.1544564201889827,0.1232256876484294,0.099393701782716,6.928008737988417,-3.475812085538208,0.6672893726430199,0.0113877608669671,-0.0827971438822299,-1.0045295892628727,0.1805518368576741,0.0056210024357667,0.0160373715695021,39.72190065529773,56.66872903240679,-4.642288209409266,6.810325385976645e-05,0.0003214525430523
5614,1724557163032162606,-1.4513232707977295,-0.2482048869132995,0.1732653230428695,0.017372028902173,0.0375056229531765,0.480735719203949,-0.8758909106254578,0.0,0.0,0.0,0.6771784861959382,0.6851611075026514,-0.5862817413993378,10.741562114,-0.537837013401305,0.0284855477706303,0.0346407220570434,-5.733115401724902,0.795383964914679,8.418905314073397,0.005647819109786,-0.0824979251380647,-1.0041582316433058,0.1806118247152852,0.0125834716490818,0.0029739105136652,7.65150538417517,11.836951117165142,118.29533456251048,7.659141330703027e-05,0.0003131993615183
5616,1724557163041926616,-1.4494901895523071,-0.2480317801237106,0.1731839030981063,0.0184996835887432,0.0362030155956745,0.4797466695308685,-0.8764646053314209,0.0,0.0,0.0,0.5302378802618275,0.3844724870929696,1.1241375003316978,10.751326124,-0.3209442042780865,0.1235502699430852,0.2472380671551111,10.01884390079407,19.275006177887175,-2.186052407223543,0.0023155672289099,-0.0813011823407834,-1.0017310992965358,0.1932548224380497,0.0195362373230381,0.0030364083380032,-57.673259671442565,-44.895303254540664,46.77922304287107,-0.0001533160146902,6.811627530683708e-05
5618,1724557163051182448,-1.44765305519104,-0.247835099697113,0.1733118146657943,0.0190058853477239,0.0338929593563079,0.4797664284706116,-0.8765352964401245,0.0,0.0,0.0,-0.3775639371657036,-0.1547830745591326,0.4305525042795562,10.760581956,-0.3352086084165062,0.3856506227841025,0.0167801559746827,-10.108458798520552,23.11008829580931,-19.40265538601569,-0.000799665322959,-0.0777317770424321,-1.0015725281133885,0.1914537676111649,0.0202203796483573,0.02324837241623,-104.5769407187997,-43.53617373945428,-143.96577522637003,6.482158415201191e-05,0.0002700284356149
5620,1724557163061350191,-1.4457849264144895,-0.2476409971714019,0.1736535131931305,0.0199915058910846,0.0300960578024387,0.4804397523403168,-0.8762832283973694,0.0,0.0,0.0,-1.5134552519116369,-0.432976931206304,-1.8042945451545245,10.770749699,-0.533681625858641,0.5624659013314152,-0.119113327256625,-14.301725660118226,-12.401147607538412,9.846233510542602,-0.0061336950660326,-0.0720170056123426,-1.0028070684712205,0.1855710222131392,0.0160921454349729,0.0080443375346348,-22.264767217451094,2.4928153659718975,-46.86762058782486,0.0002905708457079,0.0004740397017938
5622,1724557163070853663,-1.444005012512207,-0.2475146949291229,0.1735029071569442,0.0222014486789703,0.0279064625501632,0.4797913730144501,-0.8766576647758484,0.0,0.0,0.0,-0.9304956638126392,-0.1441121022654861,-0.7136307207953204,10.780253171,-0.6232469970417557,0.1799906835368662,0.1806375442805415,-2.597828144415653,-25.041896137656053,16.019982396032802,-0.0121779526248972,-0.0702908235230628,-1.00110181344408,0.1628837271914349,0.0117378500943319,-0.0118472172929529,119.07990177270798,25.265254330812404,127.80062909274824,-0.000191093931546,-2.6748644761365906e-05
5624,1724557163085032072,-1.4422118663787842,-0.24738110601902,0.1734195500612259,0.0249233730137348,0.0252290088683366,0.4794191122055053,-0.876869261264801,0.0,0.0,0.0,1.9792051029388649,0.1055841842156559,1.3741267581613594,10.79443158,-0.5156754581256167,0.1465460135459855,0.0794546258944296,1.942654038342752,-10.392225758053014,4.543681588792996,-0.0195652642537718,-0.068195413603787,-1.000005736485597,0.1805058481391626,0.0163380470421152,0.0072142357701743,162.3465539208255,-29.701462111834523,87.09212030624039,-0.0001105630110088,3.643469766001655e-05
5626,1724557163093567300,-1.440393567085266,-0.2472061216831207,0.1735484004020691,0.0268847998231649,0.0240675006061792,0.4788093268871307,-0.8771770596504211,0.0,0.0,0.0,3.144579020209064,-0.3910209589584473,1.8083853175278763,10.802966808,-0.5280956722162728,0.0165696647846261,0.1782494828425073,10.971857959068126,3.5462195953078357,-5.964479140062904,-0.0241762293906984,-0.0680207458224152,-0.9984842138735768,0.2011821069821593,0.0161146727566396,0.0190954600775317,3.3264179780876546,-40.08672602292627,-78.88156544777603,0.0001108398842413,0.0002478812580454
5628,1724557163104265883,-1.438400149345398,-0.2470925450325012,0.1738063246011734,0.0272299256175756,0.0220225490629673,0.4794503450393677,-0.8768699765205383,0.0,0.0,0.0,1.3937784329499046,-0.5772163193997644,-0.7756510252989026,10.813665391,-0.2440625781407309,0.3062794491158959,-0.120770434089426,8.76787738382945,31.236093490719565,-18.19085522591535,-0.0266959259667334,-0.0647779123953758,-0.9998622845192802,0.244508438429932,0.0070385657247058,0.0440261646767332,-423.4063961280409,40.82295284217249,-289.36841659387494,0.0002401740332013,0.000383305365932
5630,1724557163111408671,-1.4363762140274048,-0.2470593303442001,0.1742157787084579,0.0271071046590805,0.019866531714797,0.4801627993583679,-0.8765353560447693,0.0,0.0,0.0,-2.86926046493371,-0.0079550704203428,-3.0706768160304607,10.820808179,-0.266228537473034,0.5492153245102213,-0.2041668724038842,-34.9967045433049,0.1692253652332547,5.668335998246681,-0.0284990094528987,-0.0608967127588695,-1.0014313689145615,0.2417982143561943,0.0042085986897522,0.0236742800717824,-383.542085291656,77.66413656746435,-107.91697010420134,0.0003929391301594,0.0005307593126441
5632,1724557163121556835,-1.4345215559005735,-0.2470229864120483,0.1739708632230758,0.0317724980413913,0.0169375538825988,0.4798131585121155,-0.8766316175460815,0.0,0.0,0.0,-3.6862902755872673,0.7508783594163648,-1.089167108180781,10.830956343,-1.0812227557749103,0.0629944316215219,0.1034226584890388,-2.616319337934243,-2.852170874431163,10.81245480555709,-0.0395337757540393,-0.0602221104732819,-1.000402292866635,0.1767820060862561,0.0097256014834385,-0.0106794023719754,210.4489113700003,2.814925794605948,129.5963631313389,-0.0002401930923854,-0.0001340903897651
5634,1724557163134273203,-1.4323687553405762,-0.2468014061450958,0.1740494519472122,0.0288042072206735,0.0131772588938474,0.4803336262702942,-0.8765138387680054,0.0,0.0,0.0,3.6261448176611335,-0.3599815040131898,-0.4874572533459519,10.843672711,0.1235102650896739,0.7447346835099955,-0.0697639327199729,-18.265355433259316,-0.2722226646935244,-7.074875813342187,-0.0378935388960037,-0.0507931959905456,-1.0016574060098116,0.1732541234044049,0.0225762023910824,0.0120566904338712,299.59714220227386,-71.21612112842028,-60.1394637702288,0.0001022653950282,0.0001793480078065
5636,1724557163145309542,-1.4304187297821045,-0.2465029060840606,0.1742388010025024,0.0338122136890888,0.0090233832597732,0.4808554649353027,-0.8761012554168701,0.0,0.0,0.0,4.2943238019882735,-0.9913480327340196,-2.18043068596017,10.85470905,-1.1604561367909627,0.2256201085953727,-0.085161497189336,-17.312101717344405,-47.45915578713495,36.73516333520875,-0.050648769198065,-0.0483472029487183,-1.0027077204955357,0.2506629574399142,0.0054759500033831,-0.0151174096932784,-450.47972622476055,115.7133191269252,139.42658096194248,0.0002417391559524,0.0002680322867539
5638,1724557163151931301,-1.4284650087356567,-0.2465523481369018,0.1740104705095291,0.0365224741399288,0.0078470343723893,0.4799713790416717,-0.8764885067939758,0.0,0.0,0.0,-0.7189544962350798,0.4618989267506351,-0.0937733899200138,10.861330809,-0.8816524740601276,-0.0903208333920418,0.3095828105572535,31.851588133420037,-2.1850056456467755,22.327190159509257,-0.0565879764807526,-0.04883456335295,-1.000626189957687,0.2682936001471177,0.0011288363052628,-0.028436065178667,-566.5410792274348,171.98095080169554,276.3904325151248,-0.0001896093921438,-0.0001295290419501
5640,1724557163161184740,-1.4263283014297483,-0.24643075466156,0.173825517296791,0.0383792631328105,0.0043043093755841,0.479936420917511,-0.8764528632164001,0.0,0.0,0.0,-3.4973938484053235,1.439291603996285,1.9629588054863472,10.870584248,-0.7194921343562588,0.4781780515037923,0.0340396399853274,13.22683242948441,31.3318566422516,-24.576128613020753,-0.0632480881204318,-0.0443988464129244,-1.0005766755638057,0.2179147159865451,0.0198648958775518,-0.0045075978533173,-91.33755085610304,-5.006308369269877,56.14191911239965,-0.0001131258419236,-9.724317926505642e-05
5642,1724557163171837239,-1.4241663217544556,-0.2461366802453994,0.1739673316478729,0.0401903502643108,0.0006571210105903,0.4808025956153869,-0.8759070038795471,0.0,0.0,0.0,-1.9083303496819877,0.0292828688507997,0.5238066481297691,10.881236747,-0.6312939330461769,0.4427647650590854,-0.1639741415000185,-13.485550254677564,5.711092881257997,-7.647575598179902,-0.0698863261417465,-0.0398089169388854,-1.0026349558787324,0.2045343244240172,0.0280172098768467,0.008763637069121,187.42718659862967,-89.30117480335979,-103.54418265344952,0.0002433123218695,0.000206880646448
5644,1724557163182564794,-1.421955108642578,-0.2458316832780838,0.1740121990442276,0.0433877930045127,-0.0047494834288954,0.4815267324447632,-0.8753439784049988,0.0,0.0,0.0,0.515572189242274,-0.4634852964661719,-0.2460678228595468,10.891964302,-1.0110926441621615,0.6016426415664198,-0.1278177920709892,-9.412330003695622,3.452841691916447,2.980908968599792,-0.0806650895868947,-0.0334761531208098,-1.0044890590947675,0.177016254532635,0.0203800915753635,0.0065826499155581,199.16509002259892,-22.277615623335603,-86.2605413267708,0.0001772494501941,9.41433639500309e-05
5646,1724557163201599574,-1.4195687770843506,-0.2457156777381897,0.1742185652256012,0.0446932278573513,-0.0085103707388043,0.4823274612426758,-0.8748087286949158,0.0,0.0,0.0,3.401940162186603,-0.088513886815595,-2.377568560778505,10.910999082,-0.3123852832063996,0.2837702664329791,-0.0842325171724589,-44.150115269887664,18.745965309903863,-1.0798207726058342,-0.0865480661017333,-0.0282273974238965,-1.0065387472462772,0.2908822460709075,0.0199484913204202,0.0004545579344181,-361.64449169245415,-1.093789726954478,103.42939418706328,0.0003520461101178,0.000262839315584
5648,1724557163213611055,-1.4148203134536743,-0.2453710585832595,0.174145296216011,0.0500921048223972,-0.0167787708342075,0.4830828607082367,-0.8739795684814453,0.0,0.0,0.0,-4.832401363983671,-0.2592546778823903,0.4974792631266684,10.923010563,-1.4555557699453754,0.7775993080194799,-0.1227428560919174,-37.92441557520897,-5.681840179588306,51.39418204915762,-0.1039761438675343,-0.0190698246017066,-1.0088955274051077,0.3121888354492341,0.0183862718809706,-0.0436843529920665,-510.63168154793414,2.611371013796127,365.0795411251147,0.0003208063026118,-1.8074317370848667e-05
5650,1724557163221645032,-1.4127589464187622,-0.2452787160873413,0.1735923737287521,0.0542190372943878,-0.0214015766978263,0.481022447347641,-0.8747683763504028,0.0,0.0,0.0,-7.994922876963153,-0.1478580258107306,4.106094364338376,10.93104454,-1.452608365511295,0.4804947439700613,0.5835565532164527,31.3208853985777,-13.115856710467668,4.277449190639803,-0.1157180668855556,-0.0147188344780894,-1.0046580481474017,0.2378661303816045,0.0156091891837544,-0.0172678870952074,275.55012939173935,48.289739728208446,218.34010339895497,-0.000357600227938,-0.0005294860062448
5652,1724557163231605448,-1.4106208086013794,-0.2450724244117736,0.1740570217370987,0.0560214631259441,-0.0259163174778223,0.4828803241252899,-0.8735081553459167,0.0,0.0,0.0,3.013399960590774,0.75822317048198,3.430392690230471,10.941004956,-0.7583946804201307,0.6445610673051436,-0.4066489391549317,53.354916234040864,1.0567839450895575,-58.62891612361295,-0.1232157001622113,-0.0088272098326801,-1.0094450104395087,0.1737449940032931,0.016579166051855,0.0337318435388489,438.05211379806144,9.246750529061655,-92.31127444830192,0.0006886211023717,0.0004546277642543
5654,1724557163250509271,-1.408804416656494,-0.244907259941101,0.1742312312126159,0.0582999587059021,-0.0283432863652706,0.4832810461521148,-0.8730619549751282,0.0,0.0,0.0,-12.64157455018119,-1.9989370214317896,0.8073426513529167,10.959908779,-0.3361046654295845,0.1114853155900178,-0.0516914705470474,-345.6215915630052,-153.20308763542502,431.40069489475593,-0.1295596923242133,-0.0068596938565404,-1.010680081840941,0.5697876032801332,0.0546217498658876,0.0379518971982832,-3996.9360592662497,-403.6803862586794,-190.04446009270117,0.0003772836420307,0.0001638667940757
5656,1724557163252950647,-1.407263994216919,-0.2447594404220581,0.1743329465389251,0.0598199144005775,-0.028866458684206,0.4820076525211334,-0.8736458420753479,0.0,0.0,0.0,-23.398710515169604,-3.0657651221470115,0.3272020950845454,10.962350155,-1.295913716190052,-0.3019543126974712,1.1316187974483465,-271.23494210017117,-119.69128916486518,352.82828876535774,-0.132743503972508,-0.0072292527878347,-1.0078447553399326,0.5283333218957651,0.0484768220253872,0.0401070905227038,-3570.891047713921,-328.9000526177721,-196.50885879797312,0.0002786829292805,9.238986431421587e-05
5658,1724557163261522633,-1.405824065208435,-0.2447071969509124,0.1746299117803573,0.0592722594738006,-0.0294386465102434,0.4813543856143951,-0.8740240931510925,0.0,0.0,0.0,-28.8684316716579,-2.632225983136621,-1.3524791030843302,10.970922141,0.0481631639718201,0.1665579578078855,0.1873733613218922,92.59086126123896,30.456294888208618,-71.41735223993001,-0.132339635622809,-0.0056017807437727,-1.0064412185191165,0.1345702464434239,0.0056805595429176,0.0261904970206936,442.6965675530135,139.8917328220874,-107.7861270158584,0.0004545604013029,0.0002955364384718
5660,1724557163274502768,-1.4047340154647827,-0.2446416020393371,0.1748037189245224,0.0590668469667434,-0.0299736838787794,0.4812617599964142,-0.8740708231925964,0.0,0.0,0.0,-1.87906701208398,0.939098712377346,-1.018679786612744,10.983902276,-0.0120128305738153,0.0862311467688975,0.0217579666307441,8.65187706714551,9.279138531041836,-7.1563917751957975,-0.1324962290817846,-0.0044549991096214,-1.0063090538293606,0.095320936409621,0.017906942285915,0.0139620403709379,791.1596334435002,64.07529082475904,-32.18757284734153,0.0002962523029525,0.0001684726199204
5662,1724557163282414340,-1.4039251804351809,-0.2444379478693008,0.1749169379472732,0.0582051277160644,-0.0305522922426462,0.4813576340675354,-0.874055802822113,0.0,0.0,0.0,-1.8313519467931427,0.4282470880618734,-1.552558233814587,10.991813848,0.1205141199331789,0.2342316816530079,-0.0078426856528905,7.459195391105073,-6.539402957113065,1.0799977091443695,-0.1315416907765395,-0.0026261515062195,-1.0066145018115509,0.0859747001339883,0.0253230347391273,0.0055333501254057,-9.642969496476113,-79.53118552646839,-50.71316755493194,0.0002154939930528,8.765290902619279e-05
5664,1724557163291743996,-1.4033019542694092,-0.2442062944173813,0.1748719960451126,0.0580736584961414,-0.0299437418580055,0.4811162650585174,-0.8742184638977051,0.0,0.0,0.0,-2.0937618121038217,-0.4783513032331462,-1.841219551158955,11.001143504,0.0878778681883121,-0.1045358725047462,0.0552783653810617,4.087371860174974,-16.66184823655322,-1.143592550095354,-0.1307237804524681,-0.0035256266309287,-1.0059756416592578,0.0617374090338529,0.0237170723976927,-0.0143115751470261,33.96710939846768,-63.23948324998959,0.0086328316815809,3.974384240694369e-05,-7.255716657333995e-05
5666,1724557163301093316,-1.4027721881866455,-0.2439949810504913,0.1746492385864257,0.0574434548616409,-0.0291807986795902,0.4812435507774353,-0.874215841293335,0.0,0.0,0.0,-1.1944365375459192,-0.7516657254623261,-1.551178543413268,11.010492824,0.1971606774023638,-0.0762210121502192,-0.0295152053697189,6.906843475483418,6.190078371906116,-4.98615460303088,-0.128879755122247,-0.0042679643956867,-1.006157030684338,0.0468852201991936,0.0163758666688487,-0.0288474915115619,77.29256452864487,-3.9637588742122567,62.72279431790994,-0.0001493005058128,-0.0002458054277663
5668,1724557163313380605,-1.4023540019989014,-0.2438943088054657,0.1742136925458908,0.0561974123120307,-0.0288398191332817,0.481431245803833,-0.8742048144340515,0.0,0.0,0.0,-0.5499101484701061,-0.3922993654845833,-0.268576302850573,11.022780113,0.2048048211916801,0.0508922421197604,-0.0248417851513136,24.168631033325433,9.522080070323833,7.375560793867934,-0.1263617407015224,-0.0036865713237958,-1.006539398585094,0.0385737375741115,0.0076816675080166,-0.0478494913824114,49.72046221899019,26.808538840751908,153.92285434383336,-0.0003812596098128,-0.0004432160215214
5670,1724557163321522483,-1.4020154476165771,-0.2438345253467559,0.1737571954727172,0.0540644638240337,-0.0282616354525089,0.4812608659267425,-0.8744519948959351,0.0,0.0,0.0,-0.159843625385377,-0.1871830692544247,1.2519053632694093,11.030921991,0.5286167894869982,0.1239796377289086,0.0729484594222956,13.94140460770836,3.132888711443501,2.8787754505590564,-0.1220592668412471,-0.0026113373185226,-1.006075104412867,0.034779009808048,0.0061885415454536,-0.0431419106514594,39.4314052516943,10.321175657498516,129.12782084880678,-0.0004147212555039,-0.0004594941111822
5672,1724557163335010772,-1.401698350906372,-0.2437768429517746,0.1734641194343567,0.0531436949968338,-0.0279855113476514,0.4818443655967712,-0.8741959929466248,0.0,0.0,0.0,0.1825903195184763,-0.3802801106230786,1.7060636793841384,11.04441028,0.1394848390961342,0.0356537970580587,-0.0922803832316108,-17.3528961971974,0.3924900110763394,-31.114579694371496,-0.1201746959312216,-0.0022843382277659,-1.0073688568681416,0.0394658765565054,0.003578968567325,-0.011201452963931,-70.88875043348864,-25.980349990958068,-52.14853474863655,-0.0002554023525279,-0.0002971524466717
5674,1724557163341765426,-1.40137779712677,-0.2437550276517868,0.1734240651130676,0.0528971552848815,-0.0280026327818632,0.4829422235488891,-0.873604416847229,0.0,0.0,0.0,-0.6219017401757116,-0.595224425535773,1.0635275460503888,11.051164934,0.0611607161723968,0.0617828975640539,-0.3662604173943529,-9.52537696374464,-1.2937460812224089,-13.298377277049225,-0.1197560062644294,-0.0021660939160813,-1.009875037521995,0.0401414678269915,0.0003784044177859,-0.001916689727321,-103.49929342960245,-17.7146724314435,-111.13607984818718,-6.279710528099924e-06,-4.167926950524385e-05
5676,1724557163351400241,-1.4010915756225586,-0.2437905669212341,0.1734607517719268,0.0529727078974247,-0.0278861485421657,0.483440101146698,-0.8733280897140503,0.0,0.0,0.0,-1.4046707564374723,-0.5720287226610185,-0.2272900287181825,11.060799749,-0.0021636064679174,-0.0216245972853988,-0.1197065985386834,-0.0085729000329952,-6.1743212538509855,16.21050783770292,-0.1197742212307002,-0.0025107514941762,-1.0109951549866592,0.0242281597890539,-0.0070247913737002,0.0040554866368385,-13.74404083209442,39.17633020367785,-78.35554722344297,6.269456868574618e-05,4.1388842489722155e-05
5678,1724557163362085080,-1.4008976221084597,-0.2439051568508148,0.1735070198774337,0.0527791865170002,-0.0274033304303884,0.4837037324905395,-0.8732091188430786,0.0,0.0,0.0,-0.7516988852290172,0.2822489880236254,-0.4054633404430128,11.071484588,0.0755221015302953,-0.0581795791141595,-0.05763897137693,-4.79713453234642,-10.50287561143796,13.684366167210676,-0.1189657473168824,-0.0032013084632369,-1.0115326277022547,0.0121459673103601,-0.0108102057076493,-0.0084111291520532,52.50806883185825,64.9509080908642,51.53095061305864,5.7601603205693165e-05,6.0161821015089805e-05
5680,1724557163371555940,-1.400833010673523,-0.244008257985115,0.173320397734642,0.0535529926419258,-0.0267032328993082,0.4830689132213592,-0.8735350966453552,0.0,0.0,0.0,-0.3266306728553531,0.771455914118143,0.6551578935230962,11.080955448,-0.0712176285112374,-0.2171001537581309,0.1380764178189726,-9.159769004831904,-1.3861609429958022,6.669148958003918,-0.119646644049354,-0.0050871715897492,-1.0099895440571305,0.0082090385195101,-0.0027935335821869,-0.0058602963532656,3.620120092941448,112.4814596869852,140.63353193625835,-0.0001859146341856,-0.0001726507372048
5682,1724557163386420158,-1.400678634643555,-0.2438609898090362,0.1735562682151794,0.0535217262804508,-0.0276699215173721,0.4836848080158233,-0.873166024684906,0.0,0.0,0.0,-1.2354084869506936,3.8624462177583454,3.413838355189549,11.095819666,-0.0596040076784347,0.1214162314596107,-0.0893002145498172,3.486653100916916,9.127382368268297,-7.438157635794275,-0.1205260569570254,-0.0034544279222552,-1.011523560954225,0.0054315552726791,0.0069238695525957,0.0128789496587184,18.25361470672176,-120.65651433865852,-137.99748274014706,0.000259433152573,0.0002169846416059
5684,1724557163401027075,-1.4006704092025757,-0.2438026815652847,0.1737014800310135,0.053138680756092,-0.0279054269194602,0.4842567145824432,-0.872864842414856,0.0,0.0,0.0,0.170822271745056,-2.6167913389038233,-3.246705973904099,11.110426583,0.0301578721064193,0.0588559150620521,-0.0851436585104034,-1355.9114994031188,710.5961301349248,-1028.4047390852395,-0.1200813845051673,-0.0027501972461234,-1.0128613824998371,-0.0276649352374533,0.1094002273420073,0.0936509727223438,309.3655171108021,-1347.1456761000477,-1113.3470206251532,0.0001488227412324,0.0001372033125176
5686,1724557163401927097,-1.400696873664856,-0.2436983734369278,0.1737904101610183,0.0534884110093116,-0.0284456182271242,0.4846777319908142,-0.8725923299789429,0.0,0.0,0.0,0.4610753582206632,-3.8793604991262063,-4.285197347585862,11.111326605,-1.2657263735168711,0.738052320376865,-1.0677774305240573,-1307.8015611361284,684.2903871038443,-990.0256011443024,-0.1212180050659193,-0.0022064286888448,-1.013895380694417,-0.0273760658512856,0.1065108844520117,0.0902421619179874,298.8945383272981,-1303.3719534940726,-1062.873322794571,9.245210231246204e-05,7.560591140669253e-05
5688,1724557163411677432,-1.4007495641708374,-0.2436511069536209,0.1737654060125351,0.0538346208631992,-0.0285286996513605,0.4845418334007263,-0.8726438283920288,0.0,0.0,0.0,0.882430413033013,-6.082973708578707,-5.038615263965413,11.12107694,-0.0704547957502302,-0.0213403738564776,0.0283354246716441,72.68980815104977,-43.74140454628519,58.238724364668414,-0.1219056558259318,-0.0023794666667237,-1.0135959504204517,-0.0080798901228291,-0.0019865583744884,-0.0041142006324079,-27.802806213441833,156.97361937395286,193.72309348043535,-2.7056643677407612e-05,-3.069166454056741e-05
5690,1724557163422034961,-1.400862693786621,-0.2437468767166137,0.1737057417631149,0.0534741468727588,-0.0277575217187404,0.4843736886978149,-0.8727841973304749,0.0,0.0,0.0,-0.1869074920085239,-0.2433917351300394,-0.0505008187277103,11.131434469,0.1334281818102481,-0.0987408260963553,0.0354356415790662,4.098533030439032,-3.5943358434246395,-0.9958126022951316,-0.1205250669645961,-0.0033502931826432,-1.013107948507863,-0.0110054338486946,-0.0094878894591321,-0.005265136399446,-48.30446708171177,299.21552536452134,243.13642187787383,-7.693713232374453e-05,-4.8095440420056286e-05
5692,1724557163432558726,-1.4009793996810913,-0.2438493072986602,0.17365562915802,0.0536700040102005,-0.0272975154221057,0.4843162596225738,-0.8728185296058655,0.0,0.0,0.0,-0.1078174072929738,0.0763605613133597,-0.0415285379563021,11.141958234,0.0099043892684976,-0.0950949057071711,0.0069780895326175,-1.3675495833054256,1.8440064422355085,0.3650507853261333,-0.1204215728481706,-0.0043349702241562,-1.0129147356423784,-0.0119507383629127,-0.0069077414262928,-0.0051484069288676,7.588663584437691,1.0009005012128416,4.301229480238035,-6.826573400627309e-05,-3.795019539804272e-05
5694,1724557163441737555,-1.401095986366272,-0.2438900917768478,0.173605278134346,0.0534907728433609,-0.0268623623996973,0.484170138835907,-0.8729240298271179,0.0,0.0,0.0,-0.0375756636688801,-0.1496854936803306,0.0255608798955565,11.151137063,0.0803722197127669,-0.06617995606271,0.0348999428560877,6.066074834421786,-0.4552543811834617,3.1505021901151085,-0.1196856406593793,-0.0048996861591553,-1.012523847723367,-0.0130844135133401,-0.0075583192073622,-0.0059508584004834,2.6508163535759435,-14.428653198533802,1.7720328457910144,-6.424457982847225e-05,-4.569184688886558e-05
5696,1724557163451106179,-1.4012222290039062,-0.2439906895160675,0.1735450774431228,0.0532224513590335,-0.0261734910309314,0.4838913977146148,-0.8731159567832947,0.0,0.0,0.0,-0.060569765205605,-0.1873430324517534,-0.0107854058061639,11.160505687,0.1217967321227168,-0.1049214506609324,0.0654534990286716,0.7483018529030816,-2.4121979999266663,-0.3772483198222638,-0.1185484684381605,-0.0058028199942475,-1.0117982508227883,-0.012614714240712,-0.0097142498692797,-0.0046309863090439,2.461726624749835,-0.6281410104344172,-6.867820957327857,-7.885081366441589e-05,-4.861212299145347e-05
5698,1724557163461159676,-1.401339769363403,-0.2440773099660873,0.1735178828239441,0.0530948303639888,-0.0254759732633829,0.4837751686573028,-0.8732088208198547,0.0,0.0,0.0,0.0172162272992441,-0.1570701779184405,-0.1120695167439111,11.170559184,0.0896904044719312,-0.1105835636483257,0.0224069763074927,-3.4839943751527955,-9.235600633382276,-0.804503826817283,-0.1176490277505756,-0.0068802861666489,-1.0114436419562074,-0.0144179872952747,-0.0111361795219089,-0.006375673327339,19.209180662524982,13.204262725372915,2.68790681050628,-4.417064953427395e-05,-1.764761917300001e-05
5700,1724557163471417311,-1.4015161991119385,-0.2442179173231125,0.1734140664339065,0.0535947829484939,-0.0240373611450195,0.4834741950035095,-0.8733856678009033,0.0,0.0,0.0,0.3343217221412658,0.0850543341005471,0.0490725159140416,11.180816819,0.0509130763795516,-0.2960836355428735,0.0505472035903219,2.1558106897386287,-4.1809901669280745,0.018156581331125,-0.1171340414669378,-0.009835774241917,-1.010572863820296,-0.0121839578070535,-0.0129109707170727,-0.0068818932059198,6.593336722506983,38.29729262514502,14.572545548089533,-0.0001295463308797,-8.84038348085231e-05
5702,1724557163481686451,-1.4015897512435913,-0.2443423122167587,0.1733766943216323,0.0534774363040924,-0.0228314138948917,0.4833345413208008,-0.8735024929046631,0.0,0.0,0.0,0.1519962322351806,0.6293880057767671,0.1870316715439955,11.191085959,0.1340789128260916,-0.1960857181749888,0.0227169306256581,3.411691544286916,7.181021793404069,-2.160516968184064,-0.1157622024004101,-0.011808664827091,-1.0101071588536858,-0.0075527576716183,-0.0093843466883329,-0.0053661068497978,-7.473546952687068,30.06564849024755,13.19698614761704,-5.273160257586995e-05,-2.3620842142373917e-05
5704,1724557163497872047,-1.4017219543457031,-0.2444245815277099,0.1732457876205444,0.053551610559225,-0.0215338226407766,0.4832717776298523,-0.8735657334327698,0.0,0.0,0.0,0.2933123753866695,0.5307737798779684,0.3945775888786555,11.207271555,0.069732153745835,-0.1450796729116702,0.0017676476532284,124.61165096535905,-68.64865418117706,-29.429924139579388,-0.1146374373976245,-0.0141380159101563,-1.0098089583052103,-0.0127199678834699,0.0080979431363488,-0.0013331083132399,36.03547279386652,-50.557280382807434,1.623782971760107,-0.0001478360576814,-0.0001224939428502
5706,1724557163501009515,-1.4017646312713623,-0.2443911582231521,0.1732457131147384,0.0531230866909027,-0.0205623917281627,0.4834032654762268,-0.8735424280166626,0.0,0.0,0.0,0.4229784786154043,0.3451096094734681,0.3928611254052632,11.210409023,0.5389009893989752,-0.4041297156920778,-0.1076792239894475,121.80937244870285,-65.62351338701586,-28.69528028159184,-0.1129437928650314,-0.0154361169611849,-1.0100004815393056,-0.0114271649630808,0.009429132821813,-6.7014811344634495e-06,32.778332892797685,-52.48528817756536,-0.6537044780861745,-1.3614501316845325e-06,-4.499247527052799e-06
5708,1724557163517523225,-1.4017642736434937,-0.2443418204784393,0.1732470840215683,0.0521785914897918,-0.0198736749589443,0.4837349057197571,-0.8734316825866699,0.0,0.0,0.0,0.2211270463290926,0.0599642314503892,0.3727989311687959,11.226922733,0.1403586164440448,-0.0151578670128432,-0.0436488477007966,33.41969410458719,-10.035340405634354,-19.03671420437114,-0.1106152068171338,-0.0157652704044568,-1.0106889214712504,-0.0034925946478097,0.0082461504282278,0.0038818403015987,-7.801108736929926,-8.204577034588393,-5.224519320619919,4.941282099219193e-06,-4.077708498115778e-06
5710,1724557163522772848,-1.4017884731292725,-0.244289755821228,0.1732738018035888,0.0514011532068252,-0.0190417896956205,0.484155923128128,-0.8732630610466003,0.0,0.0,0.0,0.1875539825330693,0.0320172384150395,0.3386807778511312,11.232172356,0.4118466776349148,-0.123895253320224,-0.1818241476634279,30.940348148566432,-12.831071865503436,-17.644362192652927,-0.1084390059031526,-0.0165161133194222,-1.0115667881461456,-0.0027645828505846,0.0087805588209839,0.0060680665999339,-13.740270710881456,6.114624675813658,-4.595682941987408,2.82619945875179e-05,2.052354985938491e-05
5712,1724557163535813692,-1.401764750480652,-0.2442120909690857,0.1733846366405487,0.0507202930748462,-0.0183444060385227,0.4849061667919159,-0.872901439666748,0.0,0.0,0.0,-0.229573049367348,0.4823035320721336,0.340413168574177,11.2452132,0.1423083747326246,-0.0358730790173164,-0.1308385776430689,12.291057935417676,-2.0859949104116797,2.565332615513249,-0.1065554563283904,-0.0171642916964943,-1.0132132087965038,0.001264607895834,0.0069374704101186,0.007965256739828,-22.97766362459612,5.444852408116404,-2.677220787154347,0.0001176119496622,0.0001023384022473
5714,1724557163543219426,-1.4017577171325684,-0.2441565841436386,0.1734413802623748,0.0496848635375499,-0.0173684768378734,0.4852940738201141,-0.8727654218673706,0.0,0.0,0.0,-0.3618529947308056,0.4003099755363736,0.3087683079004238,11.252618934,0.3719493794698575,-0.088481145136976,-0.1174942411659615,-1.8964652926830496,-8.328797479015368,-9.557340572130814,-0.1037869370329123,-0.0179072846794731,-1.0140099426611593,-0.0027004464894133,0.0131320590451409,0.0113060792417343,11.346085613347768,-60.37568517744215,-43.89292019192091,6.085983486938305e-05,5.0805550712595e-05
5716,1724557163551062450,-1.4018092155456543,-0.2440067678689956,0.1735603213310241,0.0497297383844852,-0.0165919419378042,0.4862489700317383,-0.872246265411377,0.0,0.0,0.0,-0.0302605047689177,-0.4827440935945639,-0.3645731408525324,11.260461958,0.083761938115905,-0.1639799807029983,-0.2868040145582718,-16.194019076934197,0.4221055078491464,-8.893167061051042,-0.1030906943718955,-0.0194187697662992,-1.0161147985126957,-0.0040969360099154,0.012648991901262,0.0125454227057231,32.39742866813511,-74.3633035075192,-68.67908360584144,0.0001248857762248,0.0001018729001459
5718,1724557163561251295,-1.4018182754516602,-0.2439633011817932,0.1736534684896469,0.0489657446742057,-0.0159477591514587,0.487188309431076,-0.8717772960662842,0.0,0.0,0.0,0.1690410957769127,-0.7344270214470429,-0.8370242957623453,11.270650803,0.1907748363810905,-0.0266763622707641,-0.2093917507251949,3.827832045730068,-4.712828135920356,12.370116862930862,-0.1011057392371189,-0.019906602747898,-1.018209962465359,-0.0024490045820897,0.0021558940562123,0.0019136665149339,14.282482341805704,14.121082276297637,13.573543174551345,9.5004445218905e-05,8.808639194777611e-05
5720,1724557163571660712,-1.4018603563308716,-0.2439633011817932,0.173596516251564,0.048926368355751,-0.0143140461295843,0.4872678220272064,-0.8717633485794067,0.0,0.0,0.0,0.2615801219450521,-0.1745624741688108,-0.0582520203936729,11.28106022,0.1596320647554635,-0.2691667389434762,-0.0298730158024198,7.096412735912651,-7.784900509028766,6.690055339675297,-0.0994434312236113,-0.022725524372469,-1.0182387711812142,-0.0006117269917638,-0.0023471885103258,-0.0046037648794019,0.6963003774861765,36.02538935663436,68.94887353102955,-5.971288278953767e-05,-5.7612464384706026e-05
5722,1724557163581332524,-1.4018354415893557,-0.2440070956945419,0.1735597848892212,0.0480691716074943,-0.012683754786849,0.487493634223938,-0.8717101216316223,0.0,0.0,0.0,0.1946827423678172,0.0142771862854889,0.555899862153392,11.290732032,0.3189245829929626,-0.2050771424896978,-0.060026984945135,5.64013753872553,9.171080370127058,-7.403502639246431,-0.0963497484297025,-0.0247562441219276,-1.018622936360214,0.0026827836377378,-0.0017167035796443,-6.413442526831403e-05,-8.886743877185092,-1.4796800313793064,20.688076541542895,-3.795978412718332e-05,-3.1721291350763844e-05
5724,1724557163592383125,-1.4018044471740725,-0.2439905703067779,0.1736062169075012,0.047097984701395,-0.0116282003000378,0.488434761762619,-0.8712508678436279,0.0,0.0,0.0,0.0716056793876624,-0.2672749142065163,0.2439851570445814,11.301782633,0.2445171318224248,-0.0716025874300712,-0.1959522441455158,15.0779042514062,-9.081041776379406,-7.554177889570923,-0.0935951253090082,-0.0257492719760619,-1.020704133029362,0.0029914209470973,-0.0022017278079875,0.0071714510513274,1.852697130796514,-12.64374323220328,-35.79771399162245,4.9435986833084965e-05,4.5467537654424e-05
5726,1724557163601407671,-1.4017760753631592,-0.2440376877784729,0.1736928224563598,0.0456637516617774,-0.0091696288436651,0.4892960488796234,-0.870873212814331,0.0,0.0,0.0,0.1840632594532336,-0.2867878035369859,-0.1348758555676301,11.310807179,0.5413362561057343,-0.3094996482299622,-0.2291468632757209,11.47923210511663,-9.563014226433726,3.4268957930523634,-0.0886606250810639,-0.0287189659046701,-1.022510000929471,0.0039595214659442,-0.0062600903954024,0.0063458516072234,-0.1659188730855185,21.06451298676143,-11.834005085533487,8.462609547929893e-05,9.12147792590222e-05
5728,1724557163611428993,-1.401727318763733,-0.2441119849681854,0.1737202405929565,0.0443799123167991,-0.0071650203317403,0.4897688925266266,-0.8706926107406616,0.0,0.0,0.0,0.0418823911676325,0.1827778413151704,0.0820152710024971,11.320828501,0.4181079406562157,-0.2184012184151487,-0.1157372973485255,-8.818708093511052,5.026016492702176,8.682229877601921,-0.0844417686013486,-0.0309997052808452,-1.0234767937033653,0.006658602708498,-0.0073211349614794,0.0045113416442763,-19.812618741957575,34.46914124349521,19.40557184579758,2.4814767112637985e-05,3.508183763580953e-05
5730,1724557163621128409,-1.4016458988189695,-0.2441821247339248,0.1737806648015976,0.043333176523447,-0.0054079168476164,0.4899733364582062,-0.870642900466919,0.0,0.0,0.0,-0.2030930628629346,0.4008162405035288,0.2492336681223177,11.330527917,0.3652216701459087,-0.2078081836630237,-0.05625793997719,-11.060560532987388,10.736200568133292,-2.2425977838633315,-0.0808872241415325,-0.0330534916863558,-1.0238542224277265,0.0049295571917298,-0.0028384322259427,0.0077953351688666,1.5257444751552685,-5.342464785777304,14.080263746749058,5.949716843663005e-05,6.854860382871024e-05
5732,1724557163631174852,-1.4016324281692505,-0.2441649287939071,0.1738752722740173,0.0424805656075477,-0.0048917969688773,0.4907040596008301,-0.8702763915061951,0.0,0.0,0.0,0.0909305349945351,0.0576308746087762,0.3578098809370234,11.34057436,0.195745760422465,0.0004075296823794,-0.1659359037892646,-15.490734239532095,9.408033471257474,-4.260395222287844,-0.078865614515117,-0.0331824302155781,-1.02551726240876,0.0026308139237301,0.0005499869808502,0.0093695565426044,25.003053599171757,-32.42255724026272,3.5991906239803786,9.612669122886384e-05,9.335437725164363e-05
5734,1724557163642605584,-1.401585578918457,-0.2441737502813339,0.1739817559719085,0.0424121208488941,-0.0045628598891198,0.4913323521614074,-0.869926929473877,0.0,0.0,0.0,0.3212851866631921,-0.2903873820620183,0.3052026491799973,11.352005092,0.0366039117741476,-0.0392416396821192,-0.1280599065219466,4.71510102195591,-3.173310858255987,-2.336504090268619,-0.0783995291488589,-0.0337445885882382,-1.0269420782972127,0.0078287069486151,-0.0024282411860063,0.0160752452065739,9.028395892917668,-28.81346766819915,-24.260535107789657,0.0001078092426732,0.0001083672883535
5736,1724557163651203456,-1.4014941453933716,-0.2442053407430648,0.1741636842489242,0.0418129451572895,-0.0038700106088072,0.4920147955417633,-0.8695735335350037,0.0,0.0,0.0,0.3269715578886426,-0.5275652035824687,-0.0305178512845243,11.360602964,0.1976730889834583,-0.0646154020022337,-0.1846880216362078,7.240496452504181,-2.606437157777145,-0.4003450043939516,-0.0766474507573223,-0.0344214546221385,-1.028483135330872,0.0097280803365791,-0.0051179430735155,0.0168792823617494,-2.1946566737842605,-12.773214919109206,-26.51695086675949,0.0001834872129219,0.0001868508678094
5738,1724557163664625509,-1.401382565498352,-0.244304284453392,0.1743005514144897,0.0418041571974754,-0.0031355305109173,0.492342859506607,-0.8693912029266357,0.0,0.0,0.0,0.2376723431364005,-0.3886426725842959,-0.1238887027476809,11.374025017,0.0540398229327581,-0.0923759883563771,-0.0604470664340594,40.755406557840935,-2.4174674956422724,-6.371951995343203,-0.0758970563152799,-0.03571954649602,-1.0291980510792396,0.0163389787644518,-0.0166982331680465,0.0138707881228015,180.65522175428313,-82.070307395161,201.2495036477222,0.0001347009403022,0.0001478683786829
5740,1724557163671047118,-1.4012529850006104,-0.2444401681423187,0.1744009107351303,0.0406551547348499,-0.0020622182637453,0.4927493631839752,-0.869218647480011,0.0,0.0,0.0,1.9732439365104488,-1.1996133530188298,1.8081358849941709,11.380446626,0.4738473873855993,-0.108972835673366,-0.149381049110886,49.55455686357416,-1.5655770942131084,-10.408400895541766,-0.0728215252937815,-0.0364886625034256,-1.0301033658879712,0.0170821783384322,-0.0177372325116809,0.01338324625673,-255.5255055600271,130.06858783921453,-249.27602286719417,9.63553658315519e-05,0.0001146338140524
5742,1724557163697900271,-1.4011420011520386,-0.2445320785045623,0.1745081841945648,0.0405700951814651,-0.0014258187729865,0.4932261109352112,-0.8689534664154053,0.0,0.0,0.0,-63.93082277730838,31.07976707618957,-66.66162399588876,11.407299779,0.0281324859286269,-0.0365937027224041,-0.0425099685416326,7118.165171362624,1534.1419413603426,-4503.441404903527,-0.0720265450174906,-0.0375513447942762,-1.031171528374088,0.2786524765808735,-0.1664885032818688,0.2735010075520279,-6377.523717197808,4012.7542421486287,-6085.033007906182,0.0001052854731918,0.0001176961074332
5744,1724557163698580614,-1.4009476900100708,-0.2446481585502624,0.1746989041566848,0.0389219783246517,-0.0008494969806633,0.4941829442977905,-0.8684858083724976,0.0,0.0,0.0,-68.33735187160663,33.85826396723323,-70.86247052382264,11.407980122,4.993907930913034,1.033546504198298,-3.184089022633589,5376.990253855761,1123.7489671706105,-3405.2820630252136,-0.0685465351524289,-0.0370020465384119,-1.0333833158273775,0.2338877149263964,-0.1447123977769813,0.2268322260845341,-4722.938264678582,3212.0323787914713,-4349.658414975337,0.0001901532492217,0.0002052753181903
5746,1724557163701136337,-1.4008464813232422,-0.244769275188446,0.1747650206089019,0.038863867521286,-0.0002060282422462,0.4944377243518829,-0.8683437705039978,0.0,0.0,0.0,-63.56852070610475,33.696229797991954,-64.45839827141583,11.410535845,0.2841839462245187,-0.4069994244762734,-0.2476491111358773,-1498.3818302186403,-450.9182336602905,933.1845033102773,-0.0677991825511861,-0.0380829224186257,-1.033944294323531,0.0348506916601394,-0.0404119375133991,0.0239674595156205,2591.3654029788067,-600.0481064068955,3150.0121606148573,6.169252095399422e-05,7.796948298569411e-05
5748,1724557163712142235,-1.4006880521774292,-0.2448832988739013,0.1749386340379715,0.0383737832307815,0.0002847876457963,0.4954076111316681,-0.8678126931190491,0.0,0.0,0.0,-0.6664116292168968,1.657476419611401,0.7441608842363554,11.421541743,0.117718633114194,-0.0265453649030902,-0.2042093919886771,-9.761999257989135,15.896327164738585,-1.644637616435853,-0.0664184090157483,-0.0385251422713552,-1.0361689472147524,0.0134720992301566,-0.0067414731038404,0.0216037041686742,2719.095359460588,-1448.7331507467743,2736.0797562664766,0.000171421032163,0.0001867661781848
5750,1724557163721831796,-1.4005653858184814,-0.2449177503585815,0.1751976907253265,0.038160104304552,0.0006336048245429,0.496527224779129,-0.8671817183494568,0.0,0.0,0.0,0.120742900974033,0.0944448569479447,0.0576981102841813,11.431231304,0.0688799479174051,-0.0318003449921086,-0.2678451430083759,9.07822135345116,9.84874896683225,-8.704187624489787,-0.065651331503664,-0.0390038510930789,-1.0387400308108188,0.0179004587952391,-0.0026398304577099,0.0369946258453861,9.132067146696944,-108.95738968308731,-148.98083138834835,0.000260513860503,0.0002653436958412
5752,1724557163731374074,-1.4003453254699707,-0.2449343353509903,0.1756471097469329,0.0365879088640213,0.0007225770386867,0.4980889856815338,-0.8663533926010132,0.0,0.0,0.0,-0.4697068352082501,-0.4532789082088643,-2.098173420332519,11.440773582,0.288182283951614,0.1598265925798006,-0.3709823016421205,4.070320806567976,-1.8616972868144048,5.475566956210752,-0.0627620869709243,-0.0377090191807685,-1.04237330195543,0.0158925113274719,-0.004828989940508,0.0231608115388413,-25.5571185087364,-18.9477695956124,-70.32081756050086,0.0004548971939736,0.000457551079578
5754,1724557163741892872,-1.4002612829208374,-0.2450209707021713,0.1756131798028946,0.0363775677978992,0.0015595279401168,0.4986338913440704,-0.8660476207733154,0.0,0.0,0.0,-0.3173961754848682,-0.2067270303967606,-1.033554958593863,11.45129238,0.1117094241588802,-0.1141975859986906,-0.1245687425167654,0.4505329350024638,-19.578816014230256,17.726530087664813,-0.0615397208371877,-0.0389893049193444,-1.043607351905869,0.0079453385222763,-0.0121926758861157,-0.0064282087769012,26.827583898882683,46.871407833034425,153.44291192930328,-3.661167137912304e-05,-2.5239946265227884e-05
5756,1724557163751377991,-1.40018630027771,-0.245170459151268,0.175524815917015,0.0358742177486419,0.0031875728163868,0.4986102879047394,-0.866077721118927,0.0,0.0,0.0,0.0426770222282006,0.4382702469148705,0.868609549150636,11.460777499,0.2633293798631206,-0.2445491071268318,-0.0051783317409544,10.573648003251376,2.0166168557367423,2.2422349100715735,-0.0590456506474145,-0.0413076260170988,-1.0435165029023803,0.0086820881306977,-0.0099341043403473,-0.0010122642152303,9.295682449343795,33.34738476586897,89.0834793727702,-9.563054010747788e-05,-7.622418484118815e-05
5758,1724557163761550955,-1.4000895023345947,-0.2452079504728317,0.1756051182746887,0.0346309281885623,0.0042253248393535,0.4990145862102508,-0.8658910393714905,0.0,0.0,0.0,-0.1755266262511035,0.3994174704286838,0.5587634308156983,11.470950463,0.3118527563617524,-0.052088676978207,-0.0952380865539521,-4.43657645743837,8.552986518867371,-6.215231618136764,-0.0558341897816089,-0.0418922705848576,-1.044454188853668,0.0087343959058188,-0.0032917907778813,0.0110712622633872,-10.499206968477784,-20.321410130055902,-55.181125447385114,8.033759316261378e-05,8.625115105268197e-05
5760,1724557163771002632,-1.40001380443573,-0.2452356070280075,0.175737664103508,0.0340014584362506,0.004947455599904,0.4995356202125549,-0.8656116724014282,0.0,0.0,0.0,-0.1786025613889654,0.0624315629321998,-0.1798993774456975,11.48040214,0.1890732671794026,-0.0622764599157953,-0.1308200945632674,-11.182764634337293,-1.6267659579569669,-1.7305888129221616,-0.0539963370699938,-0.0425478662749117,-1.0456575379471016,0.0054888291845074,-0.0017429231926158,0.0108285407173251,14.728799116923202,-26.22844684913638,-34.53662023110552,0.0001323912711833,0.0001369439564841
5762,1724557163783059854,-1.3999863862991333,-0.2452384233474731,0.1758190840482711,0.0338417626917362,0.0056905974633991,0.5001426935195923,-0.8652627468109131,0.0,0.0,0.0,0.2305356317823386,-0.1088426621922366,0.0745271640722283,11.492459362,0.082040935296003,-0.0903331587591213,-0.1204006190862722,13.61998411165684,-0.1724788845229783,-0.2861130273039354,-0.0529471015728729,-0.0437130647338913,-1.047050246050632,0.0058699076440547,-0.0025504350477412,0.0062874039300346,11.91273784543247,-0.0968984234166929,25.03280330719581,8.17053472231408e-05,8.257522975864757e-05
5764,1724557163791545711,-1.399915099143982,-0.2452739030122757,0.1758696585893631,0.0327873118221759,0.0067034638486802,0.5005989074707031,-0.8650322556495667,0.0,0.0,0.0,0.2001128018256802,-0.0254059326089891,0.3104304828651704,11.500945219,0.3319778829044677,-0.0789294942732915,-0.1296984019487113,3.0924985408270027,1.2396363554644694,-0.7793049425106764,-0.0500830288948286,-0.0444386345959226,-1.048115961271488,0.0090142754920634,-0.0037241162171977,0.0096143050259076,52.95039476055689,-0.8638813706267401,95.41585418914596,4.972395030304065e-05,5.540255385307057e-05
5766,1724557163801055992,-1.3998228311538696,-0.245304450392723,0.1760000437498092,0.0326146893203258,0.0071964962407946,0.5011356472969055,-0.8647239804267883,0.0,0.0,0.0,1.3062626608177874,-0.1476271522412105,1.9385415901207543,11.5104555,0.0804245378478284,-0.0682508838992735,-0.1337377681604105,-18.398420037791684,1.5358488717116232,1.26270425313724,-0.0492626719727787,-0.0451500710275276,-1.0493552848530898,0.00910090440426,-0.0027623570312726,0.0116966285422046,17.894790841881246,-4.630642251831217,25.728388430592588,0.0001300186608939,0.0001357614642943
5768,1724557163820374438,-1.3996706008911133,-0.2453401684761047,0.176146999001503,0.0323776826262474,0.0075953365303575,0.5014858841896057,-0.8645264506340027,0.0,0.0,0.0,-2.210083932730278,0.0855182100998526,-3.272819327295757,11.529773946,0.0409821377210724,-0.0223737369622815,-0.0431257390404587,-206.81803137899308,116.52201621796654,-426.7161379052195,-0.0484341295750031,-0.0456224651206449,-1.0501672071891142,0.0852387615846055,-0.0153759458965225,0.1166262403064166,-626.3965334785926,76.58969270829719,-885.5373927805808,0.000147302803192,0.0001553003950618
5770,1724557163822045900,-1.3995169401168823,-0.2453678250312805,0.176357701420784,0.0325348563492298,0.0073408926837146,0.502084493637085,-0.8641751408576965,0.0,0.0,0.0,-3.321346532468787,0.2228658589328763,-4.842013484626618,11.531445408,-0.3343205827209585,0.1888960717178568,-0.818754485962964,-187.6440064896498,106.25557973899856,-388.9796338366704,-0.0489299924006223,-0.0453736951037537,-1.0515507595253768,0.0806551070333227,-0.0151262129601805,0.1098970393121598,-570.4482134413558,70.46635569439614,-807.8384724503464,0.0002115451846011,0.0002185547141629
5772,1724557163832330767,-1.399401068687439,-0.2454335242509842,0.1764651834964752,0.0322010219097137,0.0075033111497759,0.5023897290229797,-0.864008903503418,0.0,0.0,0.0,-3.2144499291266184,0.2068007892068556,-4.861652694125625,11.541730275,0.0704705288710464,0.006993878207982,-0.0690289791211162,19.29195356565523,-17.006032024829032,33.031897024995175,-0.0481728752427196,-0.0453363095899533,-1.052264198944149,0.0098506972852163,-0.0081854048696374,0.0084521769732468,207.62851034217888,-16.931154854241974,265.2199553642019,0.0001053426337892,0.0001156589049404
5774,1724557163841134466,-1.3993250131607056,-0.2455191314220428,0.1765245348215103,0.0321638397872448,0.0082347942516207,0.502666175365448,-0.863842785358429,0.0,0.0,0.0,0.099779921675444,-0.0580754209247079,-0.513690913271905,11.550533974,0.0890970591418114,-0.1375950217569639,-0.0786355016234681,-2.2072083607839827,-5.633570098865423,-0.9111743132417433,-0.0473593463538626,-0.0465793253856318,-1.0528984670187234,0.0092072717367699,-0.0098919851755336,0.0033448291213407,204.1364586453452,-4.911583426793564,277.1512585427636,5.513188434954563e-05,6.681019897676366e-05
5776,1724557163851094648,-1.3992269039154053,-0.2456195503473281,0.1765195727348327,0.0322617031633853,0.0086048273369669,0.5030224323272705,-0.8636282086372375,0.0,0.0,0.0,0.1911874911606343,0.1766947488979015,-0.1954284341948333,11.560494156,0.0183991076219418,-0.0721174419142473,-0.0856824234885648,4.455894638055338,5.869667617771377,3.6440979258437474,-0.0471376295097265,-0.047337140932191,-1.053718030174174,0.0121490501062737,-0.0089404610636236,-0.0010228772320441,-11.578871923351665,18.16479988456277,33.742816454405535,-9.689969224284344e-06,4.417911161779583e-06
5778,1724557163861681828,-1.3990724086761477,-0.2457013577222824,0.176502838730812,0.0314152166247367,0.0092071741819381,0.5030016303062439,-0.8636652827262878,0.0,0.0,0.0,-0.1649827488758457,0.3081707291875569,0.1819493964865448,11.571081336,0.1955985822713684,-0.0178997809785166,0.0018697528489481,0.0745755754614641,1.793400971841182,0.17243988696932,-0.0450681420591883,-0.0475255325214008,-1.053689435833595,0.0130009346688524,-0.0061563940052469,-0.0003562832730548,-23.79269195701008,5.286669610582134,19.903368372107344,-1.9469534900834546e-05,-5.676935124827819e-06
5780,1724557163871473995,-1.3989595174789429,-0.2457474172115326,0.1765104383230209,0.0312950685620307,0.0094586312770843,0.5032898783683777,-0.8634989261627197,0.0,0.0,0.0,-0.308764164413544,0.2953475226927278,0.234278739777431,11.580873503,0.045418130993787,-0.0304766841286967,-0.0697768471517764,-11.37929363286881,-2.1665724837232685,-3.627124035207115,-0.0445914568328538,-0.0478542809512321,-1.0543593125691249,0.0091624228365745,-0.0027293210394301,0.0025030436163291,5.710486086353082,-3.9557376287025257,-10.774226891254964,6.367567282619177e-06,1.5034440665640215e-05
5782,1724557163882345559,-1.3988884687423706,-0.2457532584667205,0.1765584945678711,0.03161196783185,0.0096897091716527,0.5035839676856995,-0.8633133769035339,0.0,0.0,0.0,-0.0005302900592512,0.2204029772924304,-0.0774000510840989,11.591745067,-0.0305257776972455,-0.064678680171419,-0.0646760740218676,-2.3905340779037747,1.216678958803396,0.733308224061807,-0.0448909421645566,-0.0485881871386895,-1.055031124268898,0.0068103035735518,-0.0001778552350844,0.0043533101608073,14.97424426254238,-12.424840969983292,-35.168708456177626,4.8648748253426896e-05,5.16637671961169e-05
5784,1724557163897932144,-1.3987761735916138,-0.2457479983568191,0.1766248494386673,0.0311704035848379,0.009489974938333,0.5039125680923462,-0.8631399869918823,0.0,0.0,0.0,-0.0660860233670161,-0.0968611724091548,-0.7708020337330357,11.607331652,0.034896691587863,0.0517760007873735,-0.0473440645729402,-46.86013688618454,-24.816237274263287,-11.555822177167386,-0.0443097316757951,-0.0478148874164961,-1.0558053429637029,0.011624973730818,0.0029381713311025,-0.0023859406424548,-33.83432978710264,-22.785387563077695,12.16913371696532,6.823534484559114e-05,7.134858173830504e-05
5786,1724557163901939576,-1.3987250328063965,-0.2457335442304611,0.1766084432601928,0.0316055007278919,0.0094291316345334,0.5040958523750305,-0.8630176782608032,0.0,0.0,0.0,-0.2322022035621531,-0.1906762458323578,-0.6636597665789714,11.611339084,-0.2054987950505436,-0.0809407580747169,-0.1067054057720177,-39.40372654718256,-24.36007243500992,-7.285412535994466,-0.0451134260882815,-0.0481580307338339,-1.0562183252501989,0.0109737763984654,0.0022442235751949,-0.0058235728494109,-27.36985429072669,-14.264626137239253,42.10715114086193,-1.4647320196377276e-05,-1.4559695268555132e-05
5788,1724557163912765903,-1.3986585140228271,-0.2457491010427475,0.1764948070049286,0.03198928758502,0.0097547518089413,0.5039206147193909,-0.8631022572517395,0.0,0.0,0.0,-0.1166418554200278,-0.0776179345106637,0.2417845657603695,11.622165411,-0.0300647787075183,-0.0885290638645213,0.0345817194288042,10.24607667938202,2.4719003837313593,5.315194837837197,-0.0454592308687266,-0.0490985438680798,-1.0558004364357327,0.0064211539530134,-0.0003322628744015,-0.0073299413866152,23.206742290712917,9.592267271921772,54.33089578094564,-0.0001133695644776,-0.0001094112892595
5790,1724557163923979461,-1.3985832929611206,-0.245739996433258,0.1764493882656097,0.031981598585844,0.0099140675738453,0.5038944482803345,-0.8631160259246826,0.0,0.0,0.0,0.2891514328777396,0.0200656530415664,0.5106872732016392,11.633378969,0.015626545631079,-0.0239591906279554,0.0043431761173825,1.9334267845391155,4.318161016425677,-7.278701664879152,-0.0452870010372529,-0.0493647280063803,-1.0557395577190447,0.0086425494943824,0.0006599513179494,-0.0001943817864411,9.79071092728725,-0.6355433769511842,-12.457981610542554,-4.358619379580373e-05,-4.201681850273712e-05
5792,1724557163932768652,-1.398494005203247,-0.2457352429628372,0.176474243402481,0.0319008268415927,0.009951002895832,0.5042401552200317,-0.8629167675971985,0.0,0.0,0.0,0.1933555077589692,-0.0499097305451349,0.1501705116841391,11.64216816,0.0178689776554727,0.0040735865740429,-0.0911966509980065,2.6464799064627225,1.2374164873587892,-3.1031342253745944,-0.0450903148261147,-0.0493651776578479,-1.0565430253697814,0.0118112136940737,0.0003649840055697,0.0034285748063922,-12.434366806099453,-3.9943211750147825,-30.068311765035833,2.6448134239481793e-05,2.899154033746755e-05
5794,1724557163941164285,-1.398381590843201,-0.2457335889339447,0.1765078455209732,0.0316863693296909,0.0100881289690732,0.5044365525245667,-0.8628082275390625,0.0,0.0,0.0,0.076650260761936,-0.0516287924607288,-0.014457236937509,11.650563793,0.0592657129407605,-0.0011923210111329,-0.0549603074350939,2.5558909034108344,-0.9333012271915264,3.784977384606543,-0.044569978309592,-0.0493958519493012,-1.057004016507724,0.0120939605396515,-0.0001851577872482,0.0025879065616329,-5.355532390764346,0.6732768447668681,-8.542891254753442,3.527175089901721e-05,3.900474381541371e-05
5796,1724557163953164304,-1.3982586860656738,-0.2457423657178878,0.1765146404504776,0.0314839147031307,0.0103319231420755,0.5045267343521118,-0.8627600073814392,0.0,0.0,0.0,0.1589491640384311,-0.0284895772889217,0.0728273702093199,11.662563812,0.0492033424320089,-0.017641808884199,-0.0186501327112045,-3.453145086788582,1.944517696248535,-4.3968619812402805,-0.0439689223573829,-0.0496172495547444,-1.0572184688067534,0.0137508205852867,-0.0005663222600027,0.0038838915741905,-8.958993500045223,0.8853586089069334,-7.424256892361864,7.925114460518205e-06,1.326100982393842e-05
5798,1724557163962058619,-1.398113250732422,-0.2457463145256042,0.1765710562467575,0.0314259380102157,0.0102671450003981,0.5049389600753784,-0.8625216484069824,0.0,0.0,0.0,-0.0250083042882016,-0.0274901667524163,-0.0901010528690086,11.671458127,0.0012534095360701,0.021509144760929,-0.1066905960228784,-5.174793649393835,1.1836913739891972,-3.59221217752542,-0.0439103475335195,-0.0494678032516576,-1.0581759922312577,0.0153021985995067,-0.0007981335230926,0.0042997787135821,-3.8516383743139624,-1.275248272793231,-7.75757692302682,5.8077202055797474e-05,6.36570293164159e-05
5800,1724557163972310849,-1.3979687690734863,-0.2457586824893951,0.1765909940004348,0.0316513814032077,0.0101701859384775,0.5052458643913269,-0.8623348474502563,0.0,0.0,0.0,0.1344029235440166,-0.0569623720881597,-0.0448329918274624,11.681710357,-0.0492438506044824,-0.0043851960009387,-0.0689943569059118,-4.288152205776037,-2.2377531644148227,3.346863457516949,-0.04438029570945,-0.0495439365427292,-1.058881585365446,0.0126890295439308,-0.0010968362084434,0.0017587065068609,228.5306700470142,-250.87999505132117,-169.16354880327296,2.117821714357294e-05,2.759698407411676e-05
5802,1724557164051893590,-1.397826075553894,-0.2457783073186874,0.1766160428524017,0.0316303595900535,0.0103999311104416,0.5054622888565063,-0.8622060418128967,0.0,0.0,0.0,149.89299588254187,-173.2303044014243,-120.73740163718988,11.761293098,0.0032149605561016,-0.0045727484467875,-0.0065138349925191,958.413895283537,861.2692521328855,-1876.9181065728496,-0.0440994625376414,-0.0499304186789283,-1.0593840002241972,0.2638732749342125,-0.0228204430131313,0.1236098979530027,307618.99608987605,83347.09526767448,126180.50121214148,2.5720295459420304e-05,3.297918460781227e-05
5804,1724557164052622881,-1.3976318836212158,-0.2457951009273529,0.1767070144414901,0.0312863253057003,0.0103486869484186,0.5059031248092651,-0.8619606494903564,0.0,0.0,0.0,376.2800562771285,-111.87445204939138,-27.86167590885792,11.762022389,0.7085784308071222,0.6292991943530143,-1.3878823364629944,10071.86085968376,-2644.365825600255,1444.62116391955,-0.0435313823090883,-0.0495162533196954,-1.0604166125814076,0.3741695550024815,-0.1503116490330285,0.0347400556437946,-93444.345555228,383197.1662522139,-1772.929728584204,9.237523685647124e-05,0.0001011156620401
5806,1724557164052992575,-1.3974733352661133,-0.2458745241165161,0.1767029911279678,0.0304019842296838,0.0110844336450099,0.5059215426445007,-0.8619722723960876,0.0,0.0,0.0,266.0474199687377,85.83812742548429,-52.71568756534346,11.762392083,6.138356579912882,-1.006763856069933,-0.2281127869890559,-997.1150582254896,-216.3272658225946,-2773.6889296326926,-0.0412586568376844,-0.0498916820894208,-1.0604850815943592,0.5554523699784113,-0.1798754625529568,0.042055229174025,-732212.1566454344,152363.56084184983,27365.44157595742,-7.220772129207025e-06,7.163963434849481e-06
5808,1724557164053267963,-1.3972944021224976,-0.2459168881177902,0.1767254322767257,0.0300986655056476,0.0113020883873105,0.5061782598495483,-0.861829400062561,0.0,0.0,0.0,-24.63332811277587,49.344578966234735,-25.774672711639603,11.762667471,2.646298208711068,-0.2028833683571969,-2.2044864430506914,-9428.462562744417,384.70220260927454,-2637.6968316484,-0.0404997015889139,-0.0499723205237906,-1.0610901879580563,0.5827036292007506,-0.1222233484423327,0.0126648322701043,-476905.5813221276,-341453.2292168967,363575.2323957299,2.1678610377464637e-05,3.3045857857621866e-05
5810,1724557164053564525,-1.397143006324768,-0.2459430396556854,0.1767072081565857,0.0300499256700277,0.0114904372021555,0.5063691735267639,-0.8617164492607117,0.0,0.0,0.0,18.726946307778917,-118.64423854529112,166.9176161721907,11.762964033,0.888759227258617,-0.8981854314194384,-1.5371367210529596,-5186.13231539851,-3602.1655111340697,505.4520826709063,-0.0402138225873528,-0.0502568629374401,-1.0615354806343664,0.535928376405991,-0.1586891747732011,0.0308732167904963,381338.71795698727,-182868.7447997283,83455.23826356835,-1.8235784245199167e-05,-9.530877452433404e-06
5812,1724557164053845101,-1.39698588848114,-0.2460062801837921,0.1767403781414032,0.0302509535104036,0.011743115261197,0.5065849423408508,-0.861579179763794,0.0,0.0,0.0,188.1368098472632,-68.12937798816898,40.00822597635161,11.763244609,-0.3698451262667478,-2.242704942258075,-1.8584885176067596,-1855.306166855384,-95.98328847536322,-146.72887480963757,-0.0402924974001445,-0.050906586698455,-1.0620318185475297,0.5880221901725236,-0.1908317705932631,0.1057165936288697,158644.87616825738,79820.46597803466,-591929.5662865825,3.06873976952083e-05,4.363913573191365e-05
5814,1724557164054121605,-1.3968156576156616,-0.246049627661705,0.1767662018537521,0.0303374007344245,0.011856167577207,0.5067748427391052,-0.8614628911018372,0.0,0.0,0.0,110.70381446730312,-73.36758936557277,-161.70575530591705,11.763521113,-0.1660619198913948,-0.9896226219946704,-1.6269500268857455,215.31972807005923,4855.268810668669,-462.3546834149952,-0.0403160088379656,-0.0511981240007022,-1.0624708340029836,0.6407156654199753,-0.1970180702443826,0.0549941767653763,-288589.2870277376,-95101.28942246753,-318528.35733979504,2.473926743561739e-05,3.622544670142844e-05
5816,1724557164054397374,-1.3966320753097534,-0.2461150288581848,0.176770806312561,0.030333038419485,0.0117954639717936,0.5070279240608215,-0.8613149523735046,0.0,0.0,0.0,28.769284952862616,-120.53945061466248,-136.50973378873243,11.763796882,-0.2501640046117938,0.4382541765624888,-2.1119264573530576,-296.56142694628204,5045.2799357080685,-1709.164697158844,-0.0403549557545721,-0.0511008509914279,-1.0630584136170305,0.6492781657257929,-0.2312758472619221,0.0163789613754212,-289694.23294349655,-166407.91391620075,89373.39501738721,2.311672906767774e-06,1.6606936054078243e-05
5818,1724557164064989372,-1.396440029144287,-0.2461711317300796,0.1768149882555008,0.0302815269678831,0.0120523581281304,0.5074325799942017,-0.8610749244689941,0.0,0.0,0.0,-21.550205519134852,7.718425344188834,-0.6773252462167457,11.77438888,0.0306960432095157,-0.0350653068826424,-0.0903771012632329,3.068240776301008,-13.668852104555045,66.42796650829189,-0.0399814757453452,-0.0515104093716074,-1.0640013198654463,0.0263322700527339,-0.0080962507975286,0.001550592618976,498.08803977680816,3644.3823147473704,4760.5865645407775,4.239192474773948e-05,5.621558642202969e-05
5820,1724557164071138914,-1.3962488174438477,-0.2462309151887893,0.1768151670694351,0.0303803477436304,0.0120329996570944,0.5077669620513916,-0.860874593257904,0.0,0.0,0.0,0.2527116170151082,-0.0915103067438359,-0.1911094391681713,11.780538422,-0.0341526696430833,-0.0083793724564369,-0.126124957108325,-7.585320659400709,2.818813624962529,-2.618791236706321,-0.0401516194670557,-0.0515929667385822,-1.0647753008525014,0.0268482007136547,-0.0083030095116498,-3.4608685177239806e-05,2515.398901018779,-900.4638881870276,55.587591494858735,-1.741402060945712e-06,1.243579957350187e-05
5822,1724557164086172859,-1.396001219749451,-0.2463036030530929,0.1768123060464859,0.0307145155966281,0.0120352683588862,0.5080766677856445,-0.8606799244880676,0.0,0.0,0.0,0.210570127486112,-0.0470470950142061,-0.218307959858069,11.795572367,-0.0393995636712981,-0.0218925830312665,-0.0480927727432198,-45.90519053790759,7.882156261214583,-27.259599277622215,-0.0407072024460602,-0.051951050594678,-1.065485338957438,0.0368520295590144,-0.0118063971548991,-0.000457501128519,3.5405102377357736,-1.0960164015717524,47.890919848743295,-4.988607434309753e-06,1.2956490628914225e-05
5824,1724557164091375097,-1.3957728147506714,-0.2463775724172592,0.1768094450235366,0.0314670018851757,0.0115008726716041,0.5086463093757629,-0.8603234887123108,0.0,0.0,0.0,0.2404081029728438,-0.0600457885210475,0.1202993162416022,11.800774605,-0.3602170310846079,0.0349193477988818,-0.2483183979293271,-37.53372152378193,7.201874068109118,-23.374071253763137,-0.0425137128728064,-0.0518232839951253,-1.0667852979187056,0.0371286768207248,-0.0117163478670834,-0.001935540475813,21.430516956170827,-1.6008669112168576,69.28107580600778,-4.933378190362548e-06,1.2116343844691798e-05
5826,1724557164104992128,-1.3955087661743164,-0.2464479207992553,0.1767337024211883,0.0315280593931674,0.0114659909158945,0.5088105797767639,-0.8602245450019836,0.0,0.0,0.0,1.0916424055830314,-0.0498442992561596,1.2131283378720776,11.814391636,-0.0110559195288248,0.000438285800874,-0.0278846686443608,66.79596440890825,21.219919133361177,-28.600972516904555,-0.0426445668315558,-0.0518334811309587,-1.0671653771518428,0.0470757517302331,-0.0152911780948628,0.0141171689517349,-64.21323696778222,36.31581521960819,-70.05033444525597,-7.694596212417783e-05,-5.889663938545872e-05
5828,1724557164111817738,-1.3950927257537842,-0.2465869337320327,0.1768973916769027,0.0294004492461681,0.0118583757430315,0.5099153518676758,-0.8596403002738953,0.0,0.0,0.0,0.219771875738715,0.3197200726129116,0.2207428124410416,11.821217246,0.5856720828730134,0.2265420580423734,-0.3763438751463174,32.512539013030356,19.461633463704977,-28.153575697324666,-0.0385124832993833,-0.0503926815563136,-1.0697983457521794,0.0557625219501929,-0.0149037308689372,0.0225147204192817,-126.19167768610264,36.857564647575046,-143.31967707978578,0.0001586444665107,0.0001896623733562
5830,1724557164121744901,-1.3946141004562378,-0.2466560155153274,0.1770997196435928,0.0283249430358409,0.0112492004409432,0.5113276243209839,-0.8588452935218811,0.0,0.0,0.0,-1.0106682825350826,0.4360316173992003,-1.1721021990190978,11.831144409,0.1156019761160002,0.2224568536011871,-0.3252240731265799,-23.14760413432342,-9.718561299498193,13.609580294535442,-0.0372014038093791,-0.0483080843760543,-1.0731121194354554,0.0427423824013999,-0.0079332385010992,0.0101300159013604,-36.106182192986154,-3.3074295487329888,-51.33834477984887,0.0002024121782139,0.00022763093175
5832,1724557164131985852,-1.3942341804504397,-0.2467475533485412,0.1770951598882675,0.0276645291596651,0.0115065099671483,0.5117475390434265,-0.8586133122444153,0.0,0.0,0.0,-0.4524238044914634,0.2434377873380546,-0.7579380960318625,11.84138536,0.1342586751424307,0.0246038164850755,-0.0964710453713481,-4.314905073537937,-10.423740643569458,10.614174784088824,-0.0357784011388149,-0.0480923311294846,-1.0741098251970869,0.035571070109583,-0.0062794531768748,-0.0010762681454075,41.29862723443827,-15.666290584993146,42.961261422687706,-6.727916255236572e-06,1.6983220602409763e-05
5834,1724557164141909670,-1.3938958644866943,-0.2467842996120453,0.1770784109830856,0.0275034140795469,0.0115745160728693,0.5121890306472778,-0.8583542108535767,0.0,0.0,0.0,-0.1696406004186921,0.1181637571112177,-0.3073714540968288,11.851309178,0.0324249324832811,0.006709434348681,-0.1038713722088309,-13.530341530233638,-4.11513298456364,-1.096321732973866,-0.0354069383813767,-0.0480624651296814,-1.0751434240799194,0.0334646017260382,-0.0030755452403283,-0.0053636466334019,23.058639115075533,-18.844042041825105,54.47849217300055,-1.6080438129494065e-05,8.34259946482619e-07
5836,1724557164151228534,-1.3935894966125488,-0.2468074709177017,0.1769962608814239,0.0281098745763301,0.0115051865577697,0.5126573443412781,-0.858055830001831,0.0,0.0,0.0,-0.0023362555558845,-0.1118753224348788,0.2797278510131843,11.860628042,-0.1222669919341219,-0.0518703827569988,-0.1171559420408908,-4.095492988240656,-1.1849660604316945,0.7663191354812908,-0.0364944011158302,-0.0485847637345873,-1.0762183008603854,0.0322567315585899,-0.0037655620567296,-0.0071371465050207,14.861605573978462,-16.91471968480508,52.2177599187924,-8.060865664533905e-05,-6.627513589001297e-05
5838,1724557164162232336,-1.393242597579956,-0.2468655258417129,0.1769395321607589,0.0281238611787557,0.011497413739562,0.5130366683006287,-0.8578287959098816,0.0,0.0,0.0,0.1210263327048819,-0.1970351722873524,0.7142087031618265,11.871631844,-0.0048587153532976,0.0013722269559348,-0.0802436136198739,-4.495486792797872,-1.0769022155497838,-1.5598015145734916,-0.0365049304353248,-0.0486019011078758,-1.0771023923856586,0.0338848143823042,-0.0054881580493173,0.0020483471687668,15.355192219781,-10.801777464152726,-16.06264365084907,-5.6942356457705155e-05,-3.765434936442727e-05
5840,1724557164171503814,-1.3929100036621094,-0.2469180673360824,0.1770147979259491,0.0289033204317092,0.0113403350114822,0.513567328453064,-0.8574873805046082,0.0,0.0,0.0,0.295766298531716,-0.321108630664395,0.1313561466901086,11.880903322,-0.1650077535699666,-0.0548231260972404,-0.1330952315826886,-2.509967661538578,0.9067684580051054,-6.608132533505787,-0.037975400412083,-0.0491557838300373,-1.0783180586762708,0.0347965331720487,-0.0076312652765384,0.0077284144769231,-2.157356446442544,-3.3532958831783226,-68.16386216400039,7.530974501123908e-05,9.345537880374174e-05
5842,1724557164182833218,-1.3925306797027588,-0.2470317184925079,0.1770969629287719,0.0286849550902843,0.0111560942605137,0.5146458745002747,-0.8568502068519592,0.0,0.0,0.0,-0.0194625887768133,-0.2202571626673445,-0.7142562053299075,11.892232726,0.0109410850898286,0.0519139794597974,-0.2205274632262654,21.375310308250196,6.504735773814978,-2.7085514059199234,-0.0377281450762798,-0.0486625945647265,-1.0808399209667077,0.0408806384431841,-0.0125146245899223,0.0025536693607648,-48.25687106041749,15.988823781660503,-33.43773908971786,7.906511426403017e-05,0.000104742694572
5844,1724557164191255747,-1.3921400308609009,-0.2471526712179184,0.177089050412178,0.0276621133089065,0.0113557903096079,0.515410304069519,-0.8564216494560242,0.0,0.0,0.0,-0.5538480320102585,-0.0412151311101321,-0.7379067623725051,11.900655255,0.2275738657081828,0.0884385920753856,-0.2119781651952579,11.48079387817889,4.096857157885546,3.919897793369236,-0.0357237900019089,-0.047983776996912,-1.0826536047068027,0.0372323080802559,-0.0130499684883904,-0.0050745257741273,792.1498438455559,-611.2318094327599,-216.3563152567877,-1.1504221744161826e-05,1.5154246390393364e-05
5846,1724557164206938452,-1.3918232917785645,-0.2473190575838089,0.1768887192010879,0.0271224752068519,0.0103585282340645,0.5158833265304565,-0.8561667799949646,0.0,0.0,0.0,36.85359025156304,-28.09637663138044,-10.36680756410716,11.91633796,-0.0081954188274096,0.1456894619519138,-0.0656788051865068,-0.3470567385538077,-3.226460573361451,8.283261441807005,-0.0358002179515603,-0.0457372656047062,-1.0837659862630449,0.0250223437444319,-0.0130438105688259,-0.0117474601377232,-368.82909563173655,272.08705748744785,168.26750582458754,-0.0002062536208194,-0.0001795625844336
5848,1724557164220744777,-1.3914191722869873,-0.2475287318229675,0.1767390072345733,0.02608422935009,0.0108374748378992,0.5156617760658264,-0.8563265204429626,0.0,0.0,0.0,-1.7130993847463287,0.7105912655424618,1.46416035137986,11.930144285,0.1655211900816595,0.0175573490707799,0.0359757814182114,11301.266028380354,-460.32002210133265,1150.4472171668476,-0.0335372470162857,-0.0454777890995592,-1.0832774194354846,0.9912330008287428,-0.7424522166998031,-0.2757061164265906,-10142.082523838562,7615.058070761277,2874.169981509196,-0.0001578128815545,-0.0001240776387659
5850,1724557164221086190,-1.3910726308822632,-0.2477883547544479,0.1766426414251327,0.0254955068230628,0.011219086125493,0.5155892968177795,-0.8563829660415649,0.0,0.0,0.0,-5.237780959338867,3.357147071261506,2.4624703777454986,11.930485698,4.119227442254822,-0.1434098862364223,0.4384041497511844,11280.0282686654,-459.2116571197878,1147.8512374132097,-0.0321377729777905,-0.0455218097282321,-1.083126042731419,0.990042815254847,-0.7417575713827658,-0.2750324580718254,-10112.930646650064,7593.78814739436,2865.590877890389,-0.0001081052949041,-7.211290245931235e-05
5852,1724557164234255204,-1.390722632408142,-0.2480684518814087,0.1766898930072784,0.0249087922275066,0.0112971318885684,0.5162808299064636,-0.8559826016426086,0.0,0.0,0.0,-31.299618762299133,23.110828265635575,10.502790419387305,11.943654712,0.0796910206215958,0.0377865749999951,-0.1225927733686854,-137.75147621552256,6.948650747713579,-23.946297895275393,-0.0310144692882582,-0.0450754229797657,-1.084757212137165,0.0312675383275831,-0.0257605240134992,0.0059503332494958,840.3471894867521,-647.3160180584932,-260.28105907586513,3.42022190366023e-05,7.162872316238154e-05
5854,1724557164244621397,-1.3903602361679075,-0.2483721375465393,0.1767708510160446,0.0246145762503147,0.0111668640747666,0.5172555446624756,-0.8554040789604187,0.0,0.0,0.0,0.4174217147822201,-1.1213773093092758,0.6987777290197592,11.954020905,0.0307089015494676,0.054243321794628,-0.2186141095350052,3.767131478145613,11.132559763901272,-25.383792682610828,-0.030593740617915,-0.0445831821486754,-1.0870417968196888,0.0454930178182166,-0.0412598277087674,0.0264208841080968,1237.108286765509,-944.0212770455802,-528.2044679353936,6.684774164406007e-05,0.0001062713431368
5856,1724557164252432541,-1.3899428844451904,-0.2487648427486419,0.1770867705345153,0.0238255597651004,0.0107790743932127,0.5189782381057739,-0.8543873429298401,0.0,0.0,0.0,-0.6466414514842502,-0.2927433748970429,-0.9693830720803344,11.961832049,0.1101190675265412,0.1973820078722875,-0.5117757164963724,-0.5495900767620923,-3.2770849352720326,-5.657921547136708,-0.0295561293642617,-0.0431623040532034,-1.09108777966027,0.0431333049082454,-0.0478189284738785,0.0243689926112136,-67.84432145319067,85.4511337882957,-122.1506145182695,0.0002977396124958,0.0003450900547624
5858,1724557164262450616,-1.3896430730819702,-0.2492123395204544,0.1771243512630462,0.0242522545158863,0.0111956810578703,0.5196464657783508,-0.8539637327194214,0.0,0.0,0.0,-0.44773512676533,0.2982159053284356,-1.0185983858542125,11.971850124,-0.0330699116823752,-0.1130025436738479,-0.1589319822056342,-6.2850774143078,-8.72241551517035,17.77504174861215,-0.029819223525688,-0.0443411365577308,-1.0926471880573545,0.0322282909587983,-0.043723920571864,0.0055776338433872,54.54458430118001,10.35244687221104,38.79991394189174,1.5608393012408316e-05,6.414563525170518e-05
5860,1724557164271786791,-1.3893221616744995,-0.2496123313903808,0.1771923154592514,0.0243345163762569,0.0111615480855107,0.5202245116233826,-0.8536098003387451,0.0,0.0,0.0,0.3633281906620018,-0.0283060563572861,-0.2760261218884253,11.981186299,-0.022073493457666,-0.0007588468766851,-0.1447704481040917,-3.2347757336263134,7.0550378546935235,0.2956902306622417,-0.0299653375682137,-0.0443886128671503,-1.0939992708141195,0.0336235485929421,-0.0419015515684026,0.0035255919797503,46.16363435084977,-42.70791923580978,18.008153202185177,4.8614311750727534e-05,9.407919777293624e-05
5862,1724557164282065411,-1.38898503780365,-0.250032365322113,0.1771860718727111,0.0247457791119813,0.010831388644874,0.5209146738052368,-0.8531813025474548,0.0,0.0,0.0,0.3771491325625096,-0.5548048351483232,-0.7872010376777172,11.991464919,-0.1052564450073048,0.0155449744372903,-0.1555499974401509,-11.100528724204572,0.1821557067976541,-2.052439684331258,-0.030976121653169,-0.0442776218055007,-1.0956039214143996,0.0397783903796948,-0.0447216746733101,5.209841027564721e-05,-30.559055271654618,-29.716019867194927,-24.823607292121643,-2.6249844469983283e-05,2.1683882870680825e-05
5864,1724557164291269862,-1.3885613679885864,-0.2504757940769195,0.1771919876337051,0.0256349314004182,0.0102732852101325,0.5216438174247742,-0.8527162671089172,0.0,0.0,0.0,-0.1670975404151937,-0.6510547626206342,-0.8103814696601765,12.00066937,-0.232221927941596,0.0056488297881573,-0.1827146515346558,2.0174913240133665,-8.95754361743672,11.908096661351324,-0.033039043221621,-0.0442794699446465,-1.0972880646039658,0.0414228720309424,-0.0521398609736447,-0.0108967569821167,-4.638742843412853,-7.469463351530571,64.23667285494119,-1.4324012909009037e-05,3.9293921502285073e-05
5866,1724557164301786260,-1.3881810903549194,-0.2510717511177063,0.1769387423992157,0.0262383967638015,0.011020990088582,0.5210770964622498,-0.8530349731445312,0.0,0.0,0.0,0.4388343491710675,-0.6937116645341597,0.6672419054177781,12.011185768,-0.0210256423253985,-0.1832619464734814,0.1210557883480328,23.707166467900137,-0.6394041657168139,4.9598843844418425,-0.0333206258616944,-0.0461634296147543,-1.095950327497531,0.0355111938421828,-0.0571256767594761,-0.0148636021671082,53.99021977040143,11.239068350312431,68.86067289600105,-0.0002831093856556,-0.0002154534986436
5868,1724557164313215500,-1.3877832889556885,-0.2517303228378296,0.1768833547830581,0.0247197058051824,0.0117971710860729,0.5216436386108398,-0.8527237176895142,0.0,0.0,0.0,1.01084199565084,-0.375269917669641,0.5643301401900546,12.022615008,0.2949515351981762,0.0246176216763543,-0.1194430387744703,17.99176835574444,6.607914685660498,-23.558306647115216,-0.0298862760935759,-0.0459253518513089,-1.0973252613291418,0.0529601463900348,-0.0677821502995783,0.0057358817682064,-50.40333426183073,59.93613296422289,-98.85891214186518,-8.891862100520275e-05,-1.738318376538637e-05
5870,1724557164321542063,-1.3872321844100952,-0.2523563504219055,0.1769953072071075,0.0233119670301675,0.0126365786418318,0.5227990746498108,-0.8520434498786926,0.0,0.0,0.0,-0.0181973035754758,0.3183589011880889,-0.8038979764283275,12.030941571,0.3861946295601459,0.0093897202051804,-0.3308645677149301,1.105016712668478,5.842598042313389,-2.5045387496340887,-0.0265439350044565,-0.045924919363201,-1.1000842292034052,0.0582477425482821,-0.0675272956400601,0.0029247835509638,-94.61501802585686,64.24147558350201,-57.60588199732875,8.021984537499827e-05,0.0001536932913475
5872,1724557164332442953,-1.386710524559021,-0.2529831826686859,0.1768770515918731,0.0215931385755538,0.0125268623232841,0.5229502320289612,-0.8519975543022156,0.0,0.0,0.0,-0.636149305580505,0.7466168488542677,0.0910894044826559,12.041842461,0.2576261035811516,0.1825591871663338,-0.0315477410480344,1.1070502580938992,7.546281092838195,11.011304315456115,-0.0237178698273089,-0.0439441277337685,-1.1004783520556003,0.0487271249389209,-0.0599503636468767,-0.0124929288921151,5.574298119535099,-9.974728573130951,104.23989170910872,-0.0001487388230846,-8.034033434094351e-05
5874,1724557164342038465,-1.386235594749451,-0.2535791099071502,0.176743283867836,0.0195842646062374,0.0127256903797388,0.5232105255126953,-0.8518834114074707,0.0,0.0,0.0,-0.0567636914211662,0.2348214868022071,1.2783092440039578,12.051437973,0.3772195841217568,0.1845301827524698,-0.0648050201485322,-12.299744096099108,-1.9843021675841364,-8.498938288622577,-0.0200697934150226,-0.0421875088278925,-1.1011395270993336,0.0446267031397198,-0.0523508437365869,0.0010967730986912,77.25151149093436,-81.80100575216815,10.123813963677794,-0.0001620060490032,-0.0001016429315699
5876,1724557164354675149,-1.3857526779174805,-0.2540783286094665,0.1770073920488357,0.020181318745017,0.011466072872281,0.5246174931526184,-0.8510215282440186,0.0,0.0,0.0,1.2001952306683696,-1.2725626650108977,-0.4843041753977168,12.064074657,-0.1903109450316484,0.1230146481280014,-0.2559614732851101,-31.23425875462203,-7.0756663611484525,-5.656353846755119,-0.0223392266319192,-0.0407019326082399,-1.1044089166978357,0.0500762082995862,-0.0586556673915126,0.0149546914271248,7.644391255059396,-19.52674513418654,-147.38338993639823,0.0002414710522356,0.0002946158194074
5878,1724557164362763925,-1.3852862119674685,-0.2546519339084625,0.1770975738763809,0.0213351119309663,0.0105100134387612,0.5255079865455627,-0.8504561185836792,0.0,0.0,0.0,0.7865932834153901,-0.913989950125242,-1.7173564027223955,12.072163433,-0.3721427119294502,0.0543507136338189,-0.2526782370656878,10.611894048676966,-1.0281860982497388,3.01895625981704,-0.025266172694059,-0.0403110704742746,-1.1064643353041437,0.0637656726977553,-0.0729547378913544,0.0028516812269483,-100.17658600370176,93.03010890424196,-41.45665110110007,6.504899002156197e-05,0.0001233579510738
5880,1724557164372092225,-1.384625792503357,-0.2553544342517853,0.1770349144935608,0.0206904541701078,0.0102366842329502,0.5262951254844666,-0.849988579750061,0.0,0.0,0.0,-0.6754854256866922,0.4777309441164701,-0.910144334956914,12.081491733,0.0828379495366492,0.1250189542213635,-0.196405855382605,16.495444699693003,-5.443557299556188,12.332290868064996,-0.0244194411424022,-0.0391907312238301,-1.1083264580021732,0.0613587652619003,-0.0722959754015537,-0.0155467078228266,-56.807679377471416,80.78210055398822,174.3783160983935,-9.19810356652354e-05,-1.957711578023508e-05
5882,1724557164382178323,-1.3841098546981812,-0.2560507655143738,0.1767818182706833,0.0213216859847307,0.0102722337469458,0.5263070464134216,-0.8499651551246643,0.0,0.0,0.0,-0.1586912717231734,0.5464505366545032,1.8066384056532383,12.091577831,-0.102802291748271,-0.0718660574303186,-0.0033183763355173,-10.198340957298878,-6.86181605420177,5.094292935630211,-0.0254557057929706,-0.0399161875634664,-1.1083418332620978,0.0499931246483313,-0.0630378010551986,-0.0131430061435811,40.34626852767069,-1.3837683358980186,151.11066465453737,-0.0002830105929882,-0.0002145143141681
5884,1724557164393200078,-1.3835728168487549,-0.2566732764244079,0.1767808943986892,0.0218457002192735,0.0099251540377736,0.5268591642379761,-0.8496138453483582,0.0,0.0,0.0,0.1548099311265263,0.4324717905836444,2.0479335812049193,12.102599586,-0.1163564853035855,0.0049677427103541,-0.1163870185580707,4.021093442979817,16.38491827666753,-32.13121895872416,-0.026686901726392,-0.0398948932547315,-1.1096266397873655,0.059904920041788,-0.061488945635066,0.0256584966342252,1519.7771773055547,-2117.052669603734,-194.73089572675977,-2.7236344706902777e-05,3.709427498710903e-05
