seq,stamp,px,py,pz,ox,oy,oz,ow,lx,ly,lz,ax,ay,az,timestamp,wx,wy,wz,aa_x,aa_y,aa_z,roll,pitch,yaw,vx,vy,vz,jx,jy,jz,fw
26,1724915512023252394,-0.5023839473724365,0.1186123564839363,0.1554133296012878,-0.0050816009752452,0.0107373567298054,-0.3468299210071563,0.9378528594970704,0.0,0.0,0.0,-319.3057937172747,421.0087913817528,45.5483990881147,0.0,0.0,0.0,0.0,9305.114969895443,215.7290571217085,-3882.9160996347296,-0.0169828217598265,0.0166159834717436,-0.7085715292384309,0.0927312469937278,-0.1551725428709701,0.0029895110041607,751294.7709441603,-987062.7671090344,-214459.9168093455,0.0
28,1724915512023780749,-0.5023349523544312,0.1185303702950477,0.1554149091243744,-0.0038588854949921,0.0103123681619763,-0.3473519682884216,0.9376702308654784,0.0,0.0,0.0,77.64455498492713,-100.51075693414104,-67.76257025768703,0.000528355,4.916404019919106,0.1139815259755403,-2.0515581358225075,-18867.4683834628,-1999.955953444196,6174.119967385564,-0.0144032634037069,0.0166591888823803,-0.7096564380737854,-0.0759755656457628,0.0672695570995358,0.0270552354043616,347188.7243521104,-414727.015563597,70067.66896981711,2.652050752946472e-06
30,1724915512024134047,-0.5024016499519348,0.118606686592102,0.1554301530122757,-0.0053149829618632,0.0106449294835329,-0.3469204604625702,0.9378191828727722,0.0,0.0,0.0,104.83894254144307,-111.82341831170532,24.209474061440723,0.000881653,-8.40497345791657,-1.1160360783496377,2.505637272230099,24656.08791974526,4771.046078374564,-5075.394130752433,-0.0173580451133475,0.0162790044630882,-0.7087649969372833,0.0452323205761331,-0.0914453504670405,-0.0236539197541105,-544366.8656936286,916973.8907135896,408584.5131135179,1.385905341887272e-05
32,1724915512024390424,-0.5023465156555176,0.1185260415077209,0.1554116606712341,-0.0041005788370966,0.0104176262393593,-0.3471914827823639,0.9377274513244628,0.0,0.0,0.0,-150.3210845990899,299.82276602365033,156.54415525029972,0.00113803,9.518366249434356,1.6424971843154013,-2.1396174232866803,11569.617188611175,2880.156851898077,-3867.822979264219,-0.0149269063582844,0.016691191116466,-0.7093202499603101,0.0277880028324943,-0.0573401493382448,0.01376000133763,-440530.6950006485,758093.7689746288,94102.00263025195,-1.7290340098314293e-05
34,1724915512024693020,-0.5024049878120422,0.1186005547642707,0.1554464995861053,-0.0052225622348487,0.0107867559418082,-0.346926212310791,0.9378158450126648,0.0,0.0,0.0,-85.50629992147498,226.52426078294764,34.27783518647162,0.001440626,-7.816853785725486,-0.3001271617908305,1.7797074690781831,-21694.157537253883,-2990.331449601719,5194.44247580543,-0.0172832641468374,0.016609057428385,-0.7087802141051389,-0.0470844243922101,0.0929554765008191,0.0649193029033483,182332.62406873435,-334198.9641057111,-342733.3591288195,3.360622872939699e-05
36,1724915512025149363,-0.5023258924484253,0.1185374781489372,0.1554415673017501,-0.0037197619676589,0.0103975031524896,-0.3471977114677429,0.9377269744873048,0.0,0.0,0.0,-24.228552788964556,10.72268038912165,-79.92206966965921,0.001896969,6.779358340478471,0.6954852684441729,-1.188887671125158,3102.336406557147,567.847138310202,-229.6354550767635,-0.0141987297727997,0.0169178596718251,-0.7093278180355831,0.0253350302792796,0.0103998398572713,-0.0122018948640914,71517.47961438082,-282461.9271683656,-9684.72781083169,-3.1690425451387933e-06
38,1724915512025615273,-0.5023844838142395,0.1186130195856094,0.1554352194070816,-0.0049046641215682,0.0108869718387722,-0.3468151688575744,0.937857449054718,0.0,0.0,0.0,-20.762576354995176,-30.295189331178907,29.997294284816384,0.002362879,-5.5141519745138705,0.1923680408887403,1.689260495715131,-7667.716435359309,-319.051952241579,689.0446448400487,-0.0167544958268985,0.0170196531068511,-0.7085420541463966,-0.0729660319656204,0.1065495773386544,-0.0070668149669188,149852.41822715197,-233298.55285532583,115706.05118071107,-7.617390777196501e-06
40,1724915512026010080,-0.5023956298828125,0.1186364889144897,0.1554346233606338,-0.0053043700754642,0.0111025432124733,-0.3467873930931091,0.9378630518913268,0.0,0.0,0.0,86.04529122951608,-171.000688927929,35.459315770319726,0.002757686,-2.2791163408841837,0.3209360625060651,0.1251172043550817,7058.488715354993,-83.15902732113352,-2393.241654306965,-0.0176535014737919,0.0171471930561359,-0.7084948794520918,-0.0175226128021677,0.0154113565587294,0.0111247376399887,70538.08239245434,-99683.99748583372,-8930.171834597062,-8.162077529418133e-07
42,1724915512026432274,-0.5023981928825378,0.1186231151223182,0.1554450243711471,-0.0052600954659283,0.0111086089164018,-0.3468230366706848,0.9378501176834106,0.0,0.0,0.0,25.532704113408975,-97.18858115983782,21.41116569257082,0.00317988,0.1882884991395311,0.1012584041838909,-0.1771246355300847,5329.962317331761,-479.5974519854004,-648.4288877119837,-0.0175753061574632,0.0171886221740194,-0.7085704968067803,-0.0057492266750998,-0.0297666967061362,0.0213017327673212,-131290.3906653152,161550.25789422583,-30874.45999299679,1.0306213054874234e-05
44,1724915512030839226,-0.5024087429046631,0.1185798048973083,0.1553855389356613,-0.0053235362283885,0.010807286016643,-0.3466808199882507,0.9379057884216307,0.0,0.0,0.0,0.720714244952183,3.88556258390633,-4.263249629997682,0.007586832,0.0198417411692649,-0.1388555775829066,0.0682540227360131,-26.511537657305983,-32.89913508274766,34.54167644591973,-0.0174826023681656,0.0165820563170955,-0.708258892342654,-0.0014902977669493,-0.0063807855665443,-0.008259546554691,-3881.714938028184,15615.765846220484,-3840.278203445497,-5.9828939305747736e-05
46,1724915512040463078,-0.5024040937423706,0.1185908392071724,0.1554161459207534,-0.005279934965074,0.0107799423858523,-0.3468779921531677,0.9378334879875184,0.0,0.0,0.0,0.1104801245020282,0.3416588407650994,0.5089999966142748,0.017210684,0.010831295325322,-0.0018078007107593,-0.0435726655107875,-2.7557091644071745,8.202792175282228,-5.00380636263544,-0.0173853078390882,0.016557351968623,-0.7086779725181599,0.0002820639817748,0.0011482156846582,0.002088921303387,-39.62645792326838,-215.2783081350977,239.57264669391805,3.073595446498232e-05
48,1724915512051676393,-0.5024035573005676,0.1186037361621856,0.1554253101348877,-0.0054893004707992,0.0109241735190153,-0.3469453155994415,0.9378057718276978,0.0,0.0,0.0,-0.0231443774896473,-0.0738131469601865,-0.1532913391118522,0.028423999,-0.0438409489121423,0.0112892115244299,-0.0132427788566127,13.557679014168755,6.464973637470955,-5.472059121491361,-0.0178794169942186,0.0166813054177571,-0.7088287693730099,0.0005582183322516,-0.0007781168360985,0.0003977056119985,-7.624291712322648,-7.283352578126786,-19.516745340704645,9.209532451691574e-06
50,1724915512060141575,-0.5023955702781677,0.1185848265886306,0.1554259955883026,-0.004598693922162,0.0110408356413245,-0.3474000096321106,0.9376407861709596,0.0,0.0,0.0,-0.0602552121339888,0.0547679840060664,-0.0657820170006363,0.036889181,0.1887265000478845,0.099867070987264,-0.1118194871844898,2.026264089816851,-0.7439104813222679,2.117226447484205,-0.0162982387926156,0.0175103978042817,-0.7097897059198152,5.7009045473677133e-05,-0.0007768337222646,-0.0009157132951465,-1.6320100449520052,6.529908013090108,6.543989513948229,8.581312896187725e-07
52,1724915512070369066,-0.5024059414863586,0.1185948848724365,0.1554043143987655,-0.005179735366255,0.0110075594857335,-0.3470098376274109,0.93778258562088,0.0,0.0,0.0,-0.0429418759348428,0.0145498209406255,-0.0457293649168898,0.047116672,-0.104992270806527,-0.046231231102695,0.0798894089581091,-14.55640978200513,-7.552596834994052,8.449840493182986,-0.0173577889231189,0.0170513832036783,-0.7089646364621071,-0.0005721865889789,0.000458182998885,-0.000484139398849,2.2330629026745568,-1.1834961647229036,-1.3962962772326106,-2.1905296934987843e-05
54,1724915512083507989,-0.5024060010910034,0.1185920387506485,0.155425563454628,-0.0056034666486084,0.0109424535185098,-0.3468989431858063,0.937821924686432,0.0,0.0,0.0,-0.0044830540009852,0.045398403429999,-0.1207377763031787,0.060255595,-0.0572029104170009,-0.0318293358953049,0.0171466778443228,16.05692029591751,1.994539475781735,3.1391024540037056,-0.0181054536248909,0.016637239836351,-0.708731918029087,-0.0008228131107301,-0.0011432940526781,-0.0025691031730072,9.066335701247375,7.666151114820529,18.271565394059397,2.1232872091029128e-05
56,1724915512090157752,-0.5024142265319824,0.1185813173651695,0.1553943902254104,-0.005334133747965,0.0107898069545626,-0.3467003405094147,0.9378986954689026,0.0,0.0,0.0,0.0764676994648586,0.1142752635946184,0.081470512872454,0.066905358,0.0913705384510982,-0.0155424847446801,0.0646571796150533,7.792876800221453,3.23007774370304,1.4990668211884728,-0.0174906982020361,0.0165415541085968,-0.7083001236974081,-0.0008035144260212,-0.0002783991845447,-0.0032442649860673,8.72793306985887,2.8677945873520505,23.715576107274188,-3.138816081388373e-05
58,1724915512100655984,-0.5024154782295227,0.1186005026102066,0.1553842574357986,-0.005612505134195,0.0110672656446695,-0.3467622101306915,0.937870979309082,0.0,0.0,0.0,0.1109892332195221,0.0202431583095708,0.219516475742566,0.07740359,-0.0679656275022078,0.0313092265350136,-0.0131755920213226,1.2938205646378904,0.5207931371523984,-3.698585358037706,-0.0182066260772736,0.0168677250240296,-0.7084443260350021,0.0012185331694567,0.0006596069995916,0.0006441020435534,-6.926141214805198,-5.338119584497052,-3.1072401695176453,-1.0105805542539744e-05
60,1724915512110235067,-0.5023921132087708,0.118596613407135,0.1554044932126999,-0.0052132378332316,0.0109283030033111,-0.3468393683433532,0.9378463625907898,0.0,0.0,0.0,-0.0446353966189214,0.000738893952676,0.0476618707699172,0.086982673,0.0883934247530934,0.0018430310713781,-0.0161313410411102,5.928752186433725,-2.4256296410411,1.339616760199183,-0.0173625102034611,0.0168826281861919,-0.7085991377146971,0.0015683234876995,0.0002495049293536,0.001428233301322,-10.761083949513129,-1.5283468665644586,-14.276831728071173,2.0784730878469355e-05
62,1724915512120370775,-0.5023855566978455,0.1186061725020408,0.1554116308689117,-0.0050642052665352,0.0107887117192149,-0.3467691242694855,0.9378747940063475,0.0,0.0,0.0,-0.0948794571616258,-0.0093061664080437,-0.0577510718774758,0.097118381,0.0370109270302135,-0.0157663821670682,0.0151228180342976,-4.354436639384347,0.95737897895318,0.0859331090761296,-0.0169847572960737,0.0167254813033013,-0.7084431424076731,0.0002455889914081,0.0007240660906866,0.001544570165171,8.395717157666109,-10.022183431200332,-4.4458380194612035,7.310618768722609e-06
64,1724915512130771623,-0.502387285232544,0.1186113655567169,0.1554366648197174,-0.0050268699415028,0.0109014036133885,-0.3468476235866546,0.937844693660736,0.0,0.0,0.0,0.1349570814185403,-0.209933901325892,-0.0404415770917009,0.107519229,-0.0006475889286343,0.0229519565341077,-0.0159769485074511,-3.036351347110199,1.2406075577215103,-1.0333109647300234,-0.0169943608353625,0.0169613445265726,-0.708613408497754,-0.0003610365752386,2.8236070920506503e-05,0.0002050342705901,1.5838307738332178,-1.341610175432462,-0.2308659650018301,2.4995056779309492e-05
66,1724915512142702026,-0.5023942589759827,0.1186052560806274,0.1554089784622192,-0.0051806760020554,0.0109822871163487,-0.3468543887138366,0.9378404021263124,0.0,0.0,0.0,-0.1268795941229808,0.0196759011678074,-0.0691302113424972,0.119449632,-0.0288755161304638,0.0037869112423739,-0.0015260604759854,25.778032256424748,-1.2421772302758702,-6.477224714552111,-0.0173391794693958,0.017006204433639,-0.7086323798279155,0.0038940957160846,-0.0044337464525288,0.0009316029269754,-33.72052239311713,33.50281686090442,-9.550836322268411,-2.785973205939785e-05
68,1724915512150888926,-0.5023372173309326,0.1185469254851341,0.1554348766803741,-0.0038848828990012,0.0104804141446948,-0.3472445011138916,0.9377080798149108,0.0,0.0,0.0,-0.4690900540244147,0.37405658835318,-0.1874693344006525,0.127636532,0.3402808816518342,-0.0043364343837032,-0.0977486017749471,-4.580876226326657,-4.019175376003313,2.1602582541952353,-0.0145669140871191,0.0169579423576148,-0.7094321377719037,0.0001387900840867,-0.0020609742385984,-0.0003648758474747,2.8064793798262415,8.602183987492852,8.915472332441329,2.7166385098982993e-05
70,1724915512160640481,-0.5024151802062988,0.1185856461524963,0.1553903371095657,-0.0053000757470726,0.010598580352962,-0.346839964389801,0.9378495216369628,0.0,0.0,0.0,0.0763897568861347,0.055076746529146,0.170920506507314,0.137388087,-0.2813419114511697,-0.0786882651903577,0.0849258409424968,-31.495787020470896,-2.2725135651619617,9.322741896044938,-0.0172965024656637,0.0162038999519224,-0.7085917367311825,-0.0045562864034671,0.0025650238769765,-0.0025311035060493,28.74062501692582,-16.113638643043437,16.689903712169308,-4.626331900654574e-05
72,1724915512175635695,-0.5024042129516602,0.118591696023941,0.1553993374109268,-0.0053419880568981,0.0106997154653072,-0.34678515791893,0.937868356704712,0.0,0.0,0.0,-0.1197633628242968,0.1961521631503507,-0.0414147342016948,0.152383301,-0.0099853435882313,0.0106464034805021,0.0077391078899007,75.12544086220548,21.822179501329725,-39.75780734626507,-0.0174443887839442,0.0163655352999572,-0.7084784067483618,0.0094526045674285,-0.0062777328336984,0.0090953210421282,-57.86790200508652,27.047044879750526,-72.92310134749992,9.274196784298422e-06
74,1724915512180600973,-0.502342939376831,0.1185495406389236,0.155458465218544,-0.0041600256226956,0.0106409704312682,-0.3473730385303497,0.9376574754714966,0.0,0.0,0.0,-0.4807287077544409,0.359448981881289,-0.5001116782107227,0.157348579,0.4567964581233395,0.1450830109645027,-0.2465732062805378,46.47498299610302,13.791462153740545,-25.9968196553527,-0.0151969285084804,0.0170658378321887,-0.7097145323444863,0.0071250604142658,-0.0040117360417761,0.0075468357450185,-46.699066130864765,14.006559931470663,-60.693433480349455,6.049496208766593e-05
76,1724915512191636840,-0.5023922324180603,0.1186151131987571,0.1554347723722458,-0.0052251294255256,0.0108713777735829,-0.3469199538230896,0.9378172159194946,0.0,0.0,0.0,-0.3583831044131161,0.0508980106638855,-0.392672794765861,0.168384446,-0.1962503857816318,-0.0285486975857297,0.0851682155932143,0.6371075606702838,-6.289576487954762,3.7744253478262655,-0.0173467362902503,0.0167661126440309,-0.7087694694933375,0.0015263299583061,-0.0024221878622734,-0.0025897763544175,9.131816425519116,0.3479538182063511,34.512212036887504,-2.472175456485857e-05
78,1724915512200671387,-0.5023341178894043,0.1185313686728477,0.1554080992937088,-0.004186064004898,0.0104090925306081,-0.3472500443458557,0.9377054572105408,0.0,0.0,0.0,-0.2903360625343748,0.2634038198953683,0.1023824726280792,0.177418993,0.2518851249832147,-0.015524141926735,-0.0751460651471357,0.8730994178403577,-0.1704093497606034,-1.2441686806256935,-0.0150823592637332,0.0166148683409614,-0.7094460566990815,-0.0006099282564733,-0.0026512015202557,-0.0022481821975928,20.409351760659924,11.717624760110995,32.068020844506854,-2.54149843435025e-05
80,1724915512210364758,-0.502413272857666,0.1185745000839233,0.1553936302661895,-0.0053589758463203,0.0106713147833943,-0.3468530476093292,0.9378434419631958,0.0,0.0,0.0,0.0414282247811761,0.2542243206521272,0.1768553351731221,0.187112364,-0.2464482760838457,-0.0339416703054173,0.084401999894609,-18.59502663630013,1.7348483943922193,6.023498509952536,-0.0174577223511589,0.0162992126417293,-0.7086225371683116,-0.0039846457552243,0.0029051640145016,-0.0005841794289045,29.891958314513605,-23.11248698300331,-2.308597118265716,-1.6229278080361736e-05
82,1724915512222098882,-0.5024006366729736,0.1185866519808769,0.1553996801376342,-0.0052730217576026,0.010877882130444,-0.3468166887760162,0.937855064868927,0.0,0.0,0.0,0.3306227028756218,-0.3318307140742942,0.0078420609457397,0.198846488,0.0014721601490989,0.0380467074636733,0.0068440671355005,11.976241977562772,0.82640381552216,-2.9465698553502326,-0.0174392517338741,0.0167469926147346,-0.7085500962544575,0.0020352058090438,0.0013571842529556,0.0015648035232391,-19.171944457359785,-11.577886878887522,-14.660665244667094,6.380647309499632e-06
84,1724915512231008703,-0.5023760199546814,0.11860091984272,0.15542072057724,-0.0050648008473217,0.010846204124391,-0.3467966914176941,0.9378639459609984,0.0,0.0,0.0,-0.1366348497771978,-0.1754257860911219,-0.124521170751314,0.207756309,0.0462628368785106,0.0094958258392679,0.0053722063406667,13.186850847892428,-3.8354326208000264,-4.532946727948746,-0.017026278104742,0.0168324100877987,-0.7085036550331938,0.0037470153386571,-0.0029518165239403,0.0004487337250331,-39.10994933019532,32.49164254529062,-0.5463062170965043,2.1649913927288655e-05
86,1724915512240504028,-0.502330482006073,0.118526816368103,0.1554056257009506,-0.0039926678873598,0.0102776354178786,-0.3471732437610626,0.9377362728118896,0.0,0.0,0.0,-0.3730755379522266,0.2842492895038755,0.0150944168720776,0.217251634,0.2540471482951362,-0.0333081796991305,-0.0818682049620185,-11.42794735929852,-1.412110067690257,0.6672233468319295,-0.0146268925190658,0.016503877341955,-0.7092761102149355,-0.0008772097328879,-0.0014987924594018,-0.0007261297245086,9.179632054324298,15.995754574968563,9.21688608637638,-1.4113275171579852e-05
88,1724915512251260251,-0.502409040927887,0.1185875236988067,0.1554083377122879,-0.0053959139622747,0.0107372486963868,-0.3469285368919372,0.9378146529197692,0.0,0.0,0.0,0.1409169723316173,0.0613417535467301,0.047379955033402,0.228007857,-0.2747511350683863,-0.0107762816615137,0.0453867524505856,-8.003786192347821,2.2745221894160705,3.85541474705678,-0.017574116926052,0.0163958398349194,-0.7087860429442215,-0.0035019719537281,0.0031575636734357,0.0011277521139039,37.88666984680554,-33.11598136397673,-2.011189553362594,9.97124289559954e-07
90,1724915512260290988,-0.5024118423461914,0.1185971871018409,0.1554251611232757,-0.0055255969054996,0.0108396243304014,-0.3468435406684875,0.9378441572189332,0.0,0.0,0.0,0.4080073911510875,-0.3316796979652675,-0.0087895451039097,0.237038594,-0.0349670278830553,0.0111271601911115,0.0197340614027152,19.653397167566386,3.08275866297258,-1.89272777530296,-0.0178869932276187,0.0164994701045901,-0.708609613791108,0.0006892434009557,0.0008943610794425,0.0006080660193577,-4.63075185945624,-12.644651728059262,-1.8446990911346388,1.677822685540493e-05
92,1724915512271558071,-0.5023900270462036,0.1186047941446304,0.1554143726825714,-0.0049443817697465,0.0109562389552593,-0.3467886447906494,0.9378662705421448,0.0,0.0,0.0,-0.1250157607285616,-0.0401202449237933,0.0319280729405661,0.248305677,0.0894942068663318,0.0551010456805838,0.0117329677506475,11.2291544651047,-2.9036663222718877,-8.375165381645813,-0.0168766111855488,0.0171224996798906,-0.7084881178177037,0.004497711444575,-0.0039823021725835,0.001194419393407,-40.30960662003752,35.86740196809919,-8.917266647285487,-1.0249441660139308e-05
94,1724915512280750801,-0.5023294687271118,0.1185332536697387,0.1554414927959442,-0.0041499687358736,0.0105464626103639,-0.3473268747329712,0.937675714492798,0.0,0.0,0.0,-0.443081183303491,0.3645291529187248,-0.1440328903662522,0.257498407,0.1940911495641532,-0.022642457898115,-0.1227475830292346,-14.811423019599832,-5.665156655922067,2.1137221700095497,-0.0151115216593826,0.0168963363181603,-0.7096132981546243,-0.0001244019856585,-0.0014057288206519,0.0013370708805915,3.732502751631288,13.116055183551724,-2.577840777737888,2.8452806303308532e-05
96,1724915512290616951,-0.5024017691612244,0.1185869053006172,0.1554376035928726,-0.0052908859215676,0.0107144527137279,-0.3469649255275726,0.9378020167350768,0.0,0.0,0.0,-0.0003601379214346,0.1667120725725948,0.0059227750027955,0.267364557,-0.2293601756034681,-0.0489725130874462,0.0753938782810253,-11.30694278456925,0.9843491193467944,8.279417372662198,-0.0173618996552752,0.0164253056025117,-0.7088615487093666,-0.0038635405922704,0.0030828361923473,-0.001773446446994,32.35714157777511,-23.892915216218224,14.324700208814166,-5.472984710012288e-06
98,1724915512301202285,-0.5024033188819885,0.1185927912592887,0.1554031670093536,-0.0052343406714499,0.0107115134596824,-0.3468217253684997,0.9378553628921508,0.0,0.0,0.0,0.2000122435942139,-0.1298452918259976,0.1476250796117143,0.277949891,0.0099753120225815,0.0029349191138279,0.0289821641041162,7.458537473199385,3.294401221153599,-5.058317521095778,-0.017251273032188,0.0164616780329866,-0.7085553379633044,0.0004326860534149,0.001574083625961,0.0019370345725935,3.353919265999856,-18.739531297376843,-10.81554274698958,-3.444950096008983e-05
100,1724915512310089205,-0.5023951530456543,0.118614375591278,0.1554591059684753,-0.0053575066849589,0.0108519168570637,-0.3469079136848449,0.937821090221405,0.0,0.0,0.0,0.113610499611844,-0.2271710788511643,-0.129064833512111,0.286836811,-0.0367873329222382,0.020204903627808,-0.0209978387792692,-0.948295470957326,0.3976447815000379,-1.8225233245202823,-0.017581336186598,0.0166379576763219,-0.7087449641184335,0.0006743010455529,0.0005148172753068,0.0017350872296253,-16.2481000775953,3.0833733968461345,-16.4395758799552,5.617351856288856e-05
102,1724915512320662561,-0.5023910999298096,0.1185957416892051,0.1554200947284698,-0.0053110248409211,0.0108630834147334,-0.3468710482120514,0.9378349184989928,0.0,0.0,0.0,-0.1402792142783186,-0.0180123219043728,-0.118026671301413,0.297410167,0.0074511650739386,0.004965231945581,0.0075538171284091,12.485869830979976,0.1117311947993643,-2.098933182489291,-0.0175012386624006,0.0166918514878279,-0.7086660868772586,0.0029627284875601,-0.0032454773556978,-0.0009673084069188,-14.136772900973536,16.839349450448868,3.4887566095734335,-3.894751140944315e-05
104,1724915512332191033,-0.5023245215415955,0.1185396835207939,0.1554431617259979,-0.0038817536551505,0.0104886973276734,-0.3473035395145416,0.9376861453056335,0.0,0.0,0.0,-0.1791216028695194,0.1391349320972206,-0.0470758747260363,0.308938639,0.2557480594903024,0.0257750648312812,-0.0769698951680652,-33.877743965748735,-8.516806655434745,9.774502233331692,-0.0145678706040792,0.0169747339410794,-0.7095582508675142,-0.0031383062836098,0.0007907864381522,-0.0005988805597354,16.519612005550684,-3.3571886984002735,2.84777651092336,2.455067755020841e-05
106,1724915512340250817,-0.5024000406265259,0.1185779124498367,0.1554236859083175,-0.0052643008530139,0.01056969165802,-0.3469165563583374,0.937821626663208,0.0,0.0,0.0,0.0660918124673691,0.0163511345870614,-0.0427554098357123,0.316998423,-0.3295517632281442,-0.1010298713175872,0.0981999467979322,-17.968213995980562,-1.6829915219681024,7.071685978245355,-0.0172106528172329,0.0161731296596798,-0.7087536988656088,-0.0026092998119473,0.0007233761773877,-0.0014236389411372,8.97806578188547,-4.842519505100102,2.9305256209521304,-2.1146272417763315e-05
108,1724915512350924439,-0.502332329750061,0.118528813123703,0.1554225236177444,-0.0038617034442722,0.010502140969038,-0.3471006453037262,0.937761127948761,0.0,0.0,0.0,-0.1412255399680568,0.1115508219983733,0.0223701393558557,0.327672045,0.2511702055361048,0.0796060265810663,-0.0335708318908384,-8.24230360664801,-0.6341103558200958,-0.4346247789928577,-0.0145359269799063,0.0170170208904708,-0.7091255576610392,-0.0018974081485083,0.0012472508822192,-0.0010378974189624,10.61696060530958,-11.915936663249507,2.3703702874458163,3.555721619916464e-07
110,1724915512360123424,-0.502415120601654,0.1185866445302963,0.1554056107997894,-0.0053494200110435,0.0107339592650532,-0.3468383252620697,0.9378483295440674,0.0,0.0,0.0,0.194601589077057,-0.1632459649839892,0.0145941164415166,0.33687103,-0.3213409351616813,-0.0654259136763429,0.0568611151242684,-13.698772718752643,-1.858734981694816,-2.04566514635001,-0.0174830344953226,0.0164236221053951,-0.7085929474394934,-0.0048449610961363,0.002768668964717,-0.000941281034378,22.126398337173676,-12.238788309335098,-0.0152898651580468,-1.873238521343668e-05
112,1724915512370453862,-0.5024169683456421,0.1185744330286979,0.1554062962532043,-0.0047321035526692,0.0109231797978281,-0.3473401963710785,0.9376636147499084,0.0,0.0,0.0,0.2563470686081856,-0.0851081788108462,0.0240653127794349,0.347201468,0.1002318050053157,0.0767124506409665,-0.1020492415258975,25.252541045662724,2.0760093139230733,-1.930188887185678,-0.016465540343879,0.0171980847319786,-0.7096604987188381,0.003140171237618,-0.0027302553342725,-0.0007430554445466,-23.428403154581098,20.409768740117975,0.2620695110727635,6.256293753538329e-07
114,1724915512381455362,-0.5023435354232788,0.1185262575745582,0.1553886383771896,-0.0037915157154202,0.0103574441745877,-0.3471737205982208,0.9377359747886658,0.0,0.0,0.0,-0.3459192519724696,0.2899347642530263,0.0192772628654266,0.358202968,0.1957881533123116,-0.0373301691034432,0.0343278490254391,-26.98436120018876,-4.3497808845450665,8.013398895378689,-0.0143050511022876,0.0167932560930462,-0.7092765299488104,-9.247580589644144e-05,0.001572831734883,-0.0004211633941881,-7.898478282476383,-6.243154332846874,-4.227374891199355,-1.6029924766911768e-05
116,1724915512390729428,-0.5023972988128662,0.1185873746871948,0.1553939878940582,-0.0052866847254335,0.0107621410861611,-0.3468333184719085,0.9378501772880554,0.0,0.0,0.0,-0.0529379022765839,-0.0832853155311282,-0.0495742822867974,0.367477034,-0.3333309461099785,-0.0306355424437855,0.0743802581305237,-12.547842584729043,1.353713503045889,-0.5392719217973319,-0.017384822428928,0.0165201064548108,-0.7085822604246513,-0.0037077265764793,0.0034705246364143,-0.0003204201168234,29.86465722029697,-24.407807631276583,3.332982156037171,4.215312078117828e-06
118,1724915512400405862,-0.5024120807647705,0.1185894608497619,0.155381828546524,-0.0053288955241441,0.0107211032882332,-0.3467414677143097,0.9378843307495116,0.0,0.0,0.0,0.218611163303014,-0.1595854648508099,0.091283337644937,0.377153468,-0.0054073807861947,-0.0111571200345763,0.0201141402300935,18.309027692563077,1.9750443807811815,-3.4211514982748787,-0.0174339093258415,0.0164155486944576,-0.7083857011771203,-0.0008186902782085,-0.0002421834254722,-0.001410311878355,7.2564617094679935,5.74365389778602,11.03888640566719,-1.2502415618925574e-05
120,1724915512411125008,-0.5024124383926392,0.1185814291238784,0.1553648859262466,-0.0052811712957918,0.01075857039541,-0.3466947972774505,0.937901496887207,0.0,0.0,0.0,0.0493337164640725,0.0638130136621508,0.167838659669818,0.387872614,0.005851123627852,0.0095632692952702,0.009410264194601,-1.996985852437033,3.2774695909122453,-3.024259183032974,-0.0173695610187487,0.0165198007087333,-0.7082867049144703,0.0005752554626496,0.0007082102362732,0.0019895220074435,-8.878282919735858,5.696666360273739,-6.068492902866473,-1.6965930024304613e-05
122,1724915512420456200,-0.502402126789093,0.1185998767614364,0.1554124504327774,-0.0053645917214453,0.0110418777912855,-0.3468484282493591,0.9378408193588256,0.0,0.0,0.0,0.0226490942328763,-0.0060476178850965,0.0039047639117211,0.397203806,-0.0375362421149707,0.0510668214842454,-0.0352642173813664,-1.05218570784034,0.2878804387548667,-1.455913871189699,-0.0177254685534355,0.0169904644609345,-0.7086239889580739,0.0003800030923937,0.0011018048591497,0.0023426128668724,7.0120969981942975,-14.81909133256124,-12.209193135147729,4.784642950037472e-05
124,1724915512433692083,-0.5024107098579407,0.1185980290174484,0.1553917378187179,-0.0053175194188952,0.0108611145988106,-0.3467990458011627,0.9378615617752076,0.0,0.0,0.0,0.3007990123019446,-0.3398518613871115,-0.0570786195347382,0.410439689,0.0160789809981148,-0.0232238526566849,0.008017205362854,2.564118253916132,3.909619476045555,-4.360661691115068,-0.0175107745814222,0.0166849966223066,-0.7085125834902237,0.0014978606357658,0.0001162992407657,0.0017571811948329,-19.437090690943315,5.949791409277079,-8.360944080163563,-2.091758062883479e-05
126,1724915512441587404,-0.5023887753486633,0.1186001524329185,0.1554212570190429,-0.0051397685892879,0.0110140014439821,-0.3470321893692016,0.937774419784546,0.0,0.0,0.0,-0.0431766132917789,-0.1460798874407003,-0.1407686217943117,0.41833501,0.0293220448982925,0.05249101792897,-0.0623492316907667,15.358293594730007,-1.7153249457224726,-5.358618450896696,-0.0172876988253938,0.0170907993463803,-0.7090119284889381,0.0048916578633146,-0.0038168510123899,0.0012460179931004,-46.468422173650595,41.83328544381307,-2.4341350514479148,3.0046071369897137e-05
128,1724915512450387459,-0.5023249983787537,0.1185264885425567,0.1554077714681625,-0.0040232357569038,0.0102530186995863,-0.3473527133464813,0.9376699328422546,0.0,0.0,0.0,-0.4805595595942139,0.3916500487990288,-0.0820950530199686,0.427135065,0.2986650991985545,-0.0734902406548967,-0.0746480107551287,-12.239301960371764,-5.047793000213751,7.411166108447454,-0.0146702691945815,0.0164336706824379,-0.709658634290732,-0.0001279549081978,-0.0016489758183242,-0.0007384525886831,4.517708937966768,16.10971436431758,12.712150386304836,-1.21088218342886e-05
130,1724915512460175034,-0.5024065375328064,0.1185835227370262,0.1554091870784759,-0.0053754202090203,0.0106426812708377,-0.3469071388244629,0.93782377243042,0.0,0.0,0.0,0.1538920679433403,0.0595071803185905,0.1081285915830693,0.43692264,-0.2875487762381469,-0.0220034141030226,0.0937805661613907,-18.153330234971392,6.676719815307113,6.996557872768785,-0.0174696280789232,0.0162330886363741,-0.708737305532613,-0.003853396557929,0.0037660746596595,1.92015262348022e-05,30.830785558829703,-25.937067112188593,3.8727284504537383,-3.626757809909133e-07
132,1724915512471349987,-0.5023924708366394,0.1185993105173111,0.1554078012704849,-0.0050150547176599,0.0109325861558318,-0.3466933071613312,0.9379013776779176,0.0,0.0,0.0,0.0647291936172275,-0.1282908078909566,-0.0471554913035078,0.448097593,0.0421533171470543,0.0706790787348621,0.0416738839068759,24.575841390442264,0.5730026564708721,-12.165747263516828,-0.0169910438265043,0.0170308267068883,-0.7082850625164442,0.0046862980119506,-0.0018686925073838,0.0016194743603783,-38.10577233140691,14.04891531990487,-17.78036478003338,-1.0191806241655455e-06
134,1724915512480711499,-0.502321720123291,0.1185560822486877,0.155436635017395,-0.0039712009020149,0.0106184817850589,-0.347280740737915,0.9376927614212036,0.0,0.0,0.0,-0.5282646394432509,0.2451975609589903,-0.244071292900801,0.457459105,0.2335746108383569,0.0154942783144376,-0.1310565749577312,-12.851692633505628,-7.280745097073581,0.9537447028534064,-0.0148254459321907,0.0171563454537989,-0.7095144347623115,-0.0001930911138678,-0.0001214267739824,-0.0003148206975609,2.268402877627101,4.5005619627471205,5.1774202067275645,3.0427267496281255e-05
136,1724915512490468636,-0.5024024248123169,0.1186006218194961,0.1553990393877029,-0.0051395213231444,0.010691818781197,-0.3469213843345642,0.9378191828727722,0.0,0.0,0.0,0.1611106538591996,-0.0708447035645761,0.0730083115626522,0.467216242,-0.2304585664210426,-0.0696386842164596,0.0755867382763191,-24.579781512735995,-3.2864708305202823,11.78095724835045,-0.0170614714079395,0.0164887129430708,-0.7087659794622352,-0.0054191016292328,0.0028664634556814,-0.0030770968407773,40.25486610155391,-19.443518534522376,21.559540484684653,-3.9392351142925695e-05
138,1724915512505700103,-0.5024171471595764,0.1186039000749588,0.1553706228733062,-0.0055291941389441,0.0109162749722599,-0.3466914296150207,0.93789941072464,0.0,0.0,0.0,0.051457758772772,-0.059145734176802,0.1413246795506109,0.482447709,-0.0584786213515568,0.0096213779225256,0.0315762087606925,104.55728765907848,11.38551714021122,-42.05849011829737,-0.0179442619754225,0.0166436556890191,-0.7082875956327813,0.0136009063367197,-0.00717830106068,0.0065022670065708,-92.4922496091844,47.33578766390442,-46.12857307013673,-2.8756725945056527e-05
140,1724915512510421392,-0.5023316144943237,0.1185591891407966,0.1554135680198669,-0.0042100208811461,0.0106058297678828,-0.3472034037113189,0.9377204775810242,0.0,0.0,0.0,-0.5100475825980078,0.2324899556004448,-0.1505326537156581,0.487168998,0.5716574464219364,0.0724224998631621,-0.2243162171925508,86.32666798327428,7.5818743844527745,-35.216129703697476,-0.0152631956831578,0.0169679545506731,-0.7093524145745187,0.012091697234668,-0.0065789908599285,0.0064559287439327,-84.39248687105815,46.50073361184896,-44.87403899930021,4.4861575203509704e-05
142,1724915512524173418,-0.502406656742096,0.1185845211148262,0.1553965955972671,-0.0051660682074725,0.0105783315375447,-0.3468582332134247,0.9378437399864196,0.0,0.0,0.0,-0.2871433406121066,0.2603220335021157,-0.08895425123225,0.500921024,-0.1294499528294102,-0.0524270408719416,0.051805476155754,-16.784009350935584,0.6364691643003801,6.95392683118449,-0.017031366481772,0.0162585737341682,-0.7086283349155565,-0.0025487310220455,0.000846263505859,-0.0012508642133131,30.741073256824663,-10.926087771990842,15.831622868453309,-1.866604534651193e-05
144,1724915512534540411,-0.502410352230072,0.1185855120420456,0.1553834974765777,-0.0052866949699819,0.0107902688905596,-0.3467533588409424,0.9378793835639954,0.0,0.0,0.0,0.1451212374412418,0.0458452544332033,0.1639044679195908,0.511288017,-0.0361853294666916,0.0300964602425817,0.0213249676152293,3.596373274377437,2.492112543428889,-6.506362713471143,-0.0174029570360467,0.0165743418376414,-0.7084125727192271,0.0005504310289765,0.0013597640344187,0.001511470125493,-1.0712066563711948,-21.190132365496712,-14.902701283736477,-1.3180272582608075e-05
146,1724915512540605589,-0.5024037957191467,0.1185982450842857,0.1554025113582611,-0.0053559406660497,0.0108984429389238,-0.3468402624130249,0.9378456473350524,0.0,0.0,0.0,-0.0131324153225681,-0.0844569281982905,-0.0659124994975582,0.517353195,-0.0335338766953831,0.0258084718238106,-0.0307916818921406,2.2676489711615684,-0.327630049671059,-4.773872801757599,-0.0176095024775866,0.0167275828994088,-0.7086021189666778,0.0008847863023611,0.0016247406624105,0.0021416890959526,-18.52793618300815,-14.737976679286454,-22.59444868788792,1.919831748246208e-05
148,1724915512552137168,-0.502397894859314,0.1186065748333931,0.1554054319858551,-0.005118298344314,0.0109969889745116,-0.3468546867370605,0.9378405213356018,0.0,0.0,0.0,-0.0609450953201489,-0.1065120117094511,0.008915124300865,0.528884774,0.0327486517402183,0.030347624901255,-0.0021138396579081,8.945490253039504,1.3394023017164924,-3.2089868618295725,-0.0172323748852664,0.017077062215543,-0.7086326307703037,-0.0007632203238685,-0.0021587265172318,-0.0023416469906329,16.425764077095735,6.742093386456431,20.258449790655572,3.078858714149282e-06
150,1724915512560180614,-0.5024111866950989,0.1185730472207069,0.1553720384836197,-0.0045936126261949,0.0109997866675257,-0.3470868468284607,0.9377572536468506,0.0,0.0,0.0,0.1865922667182769,-0.0037259705237953,0.2491156796121136,0.53692822,0.1226409694492017,0.0464272275179194,-0.0598814604497745,-2.165513119367425,-3.0672529252682574,-1.4331951396271951,-0.0162543378047595,0.0174423788496195,-0.7091204729056406,-0.0007935572600565,-0.0017722693795869,-3.865802320213163e-05,10.14617188868688,15.440565562469724,7.677790033875835,-3.373345506578365e-05
152,1724915512570691636,-0.5024077296257019,0.1185873299837112,0.1554281264543533,-0.0051053315401077,0.0108789196237921,-0.3470608294010162,0.9377655982971193,0.0,0.0,0.0,0.0098889712615832,0.1951303353301999,0.0250913462683346,0.547439242,-0.0833724097077776,-0.0554020635931482,0.0040167995827626,4.226057956978225,-2.891294729668716,1.238954561458633,-0.0171297747395699,0.0168608308185197,-0.7090684715803207,0.0037824811878941,-0.0025225553435248,0.0020687964952852,-27.724043141979692,17.432528718818492,-17.11623545043303,5.618346598852069e-05
154,1724915512581647943,-0.5023268461227417,0.1185153648257255,0.1554134786128997,-0.0039181518368422,0.0103824045509099,-0.3472678959369659,0.93770033121109,0.0,0.0,0.0,-0.4184933631602711,0.3691521601925658,-0.1145072453765168,0.558395549,0.2350311410244557,-0.0094601225069104,-0.0376862686438128,-18.260997079848515,3.468160261932895,7.402635453632084,-0.0145616134809645,0.0167506550015057,-0.7094798010192109,-0.000968201763321,0.0026590320541872,0.0003404640549877,9.620586638042024,-21.200963455196888,-1.70208330607932,-1.285909972301475e-05
156,1724915512590301014,-0.5023922920227051,0.1186014339327812,0.1554278880357742,-0.0048896688967943,0.010817595757544,-0.3468391001224518,0.9378495216369628,0.0,0.0,0.0,-0.0022939884871202,-0.067735632853737,-0.0537926266622893,0.56704862,-0.2463835520192196,0.0155952056465764,0.102971415503169,-22.024707121202663,-0.6754224936373399,5.6217435146753525,-0.0166786323694574,0.0168995016783471,-0.7085908511519354,-0.0044861978543586,0.0051440987376505,-0.000354868940847,43.69536509792199,-43.15405151234923,7.986228172668487,1.2998975071528263e-05
158,1724915512600648817,-0.5024006366729736,0.1185952350497245,0.1553992182016372,-0.0052351485937833,0.0107504473999142,-0.3466914594173431,0.9379029870033264,0.0,0.0,0.0,0.395371168333731,-0.4235151409149409,0.0408466507453981,0.577396423,-0.0583803116753682,-0.0355826648768008,0.0295604876276417,14.921343450691856,0.5457090240812905,-6.3981689280493885,-0.0172775213455605,0.0165365445063547,-0.7082786780786329,0.0004926405387877,5.118547436389065e-05,-0.0005827874527586,-0.8068240919892509,-4.1732448027470355,2.366056119200255,-2.8874868928215546e-05
160,1724915512610341802,-0.5023840665817261,0.1186016350984573,0.1554134339094162,-0.0049455827102065,0.0107433414086699,-0.3468137085437774,0.9378594756126404,0.0,0.0,0.0,0.0312965923566635,-0.1896816115067459,0.0022231055080516,0.587089408,0.0567698676565965,0.019567356726597,-0.0261358263732769,11.67521739540624,0.8451249866574653,-7.008081074259644,-0.0167315190825689,0.0167218766059712,-0.7085352768863902,0.0035461356407182,-0.0034305507056213,0.0003839953922613,-22.074556410484437,22.294526732231265,-3.135400132783122,1.4614162591873307e-05
162,1724915512620343100,-0.5023296475410461,0.1185251101851463,0.1554061025381088,-0.0041855829767882,0.0103402771055698,-0.3473345637321472,0.9376749396324158,0.0,0.0,0.0,-0.0296704117390821,0.0144135385203707,-0.0203707834684119,0.597090706,0.1714266016969221,-0.0219733247529857,-0.1092492259980644,-0.1044429580952883,-0.5735703324695904,-1.6587997513074058,-0.0150351130174606,0.0164847887557134,-0.7096244390265353,0.0009312701357266,-0.003578264956356,-0.0006000930545875,5.391667852456896,9.320067123085217,2.430688301562036,-6.167037055376937e-06
164,1724915512634679772,-0.5024089813232422,0.1185575202107429,0.1554002314805984,-0.0045331791043281,0.0108008068054914,-0.3473061323165893,0.9376786351203918,0.0,0.0,0.0,0.2837133642980531,-0.0798163912746769,0.1108585837609363,0.611427378,-0.0678216787353734,0.0433765653340174,0.0036656124327322,25.765321838395547,-8.31761729410357,1.8976449990333424,-0.0160067289190369,0.0171074042027889,-0.7095815040626551,0.0052693320667032,-0.0027718718131986,0.0007113826452531,-47.09696744830739,24.363836245029784,-6.396052565480217,-7.693811762449309e-06
166,1724915512640685856,-0.5023501515388489,0.1185282096266746,0.1554073244333267,-0.004028265364468,0.0104889785870909,-0.3473117649555206,0.9376823902130128,0.0,0.0,0.0,-0.1726574376283172,0.144355324428039,0.0333187735770103,0.617433462,0.1937450553397877,-0.0389771586099424,2.080027631639027e-05,20.582867391399787,-9.384430513844515,-1.3292837567652198,-0.0148430161850098,0.0168733337726916,-0.7095777633187017,0.0069258547192063,-0.0035936097420661,0.0014259753584218,-54.60956846999253,24.7502689613512,-14.50651242720668,8.40512371929202e-06
168,1724915512651175209,-0.5023300647735596,0.1185140833258628,0.1554267704486847,-0.0041902461089193,0.010222690179944,-0.3474434614181518,0.9376358389854432,0.0,0.0,0.0,-0.3539006746558897,0.1736272646588518,-0.1480880919446509,0.627922815,-0.0110984069796014,-0.0581414287831653,-0.0271568581586003,-22.185319190855132,2.77395841413679,5.552084820999614,-0.0149639998855248,0.0162592905297094,-0.709853547979771,-0.0031007183467792,0.0030714410626702,0.0002062584602349,22.31152996473559,-18.58408838415675,-3.60174249289828,1.9874170898693617e-05
170,1724915512661002533,-0.5024067163467407,0.1185849457979202,0.1554136276245117,-0.0053338017314672,0.0107106007635593,-0.3469589650630951,0.9378039836883544,0.0,0.0,0.0,0.2298730653371621,-0.2058033368032003,-0.0574143856021957,0.637750139,-0.2535803980925069,0.011480739909655,0.1023790758398139,13.861610355553111,3.632011075945942,-1.5836027582491166,-0.0174396247321848,0.0163884010590789,-0.7088492712853497,-0.0010361349482899,0.0005260528622965,-0.0015418976948211,25.59223070453625,-16.062747067308607,9.410499959360347,-1.478036305495774e-05
172,1724915512670923216,-0.5023492574691772,0.1185232177376747,0.155396282672882,-0.0040593948215246,0.0103046903386712,-0.3472580015659332,0.9377042055130004,0.0,0.0,0.0,0.1451517871356677,-0.1393500470206619,0.0377850101221412,0.647670822,0.2698702904835869,0.0129358381232407,-0.061199806140548,13.3301904684905,0.0192072557821349,-4.702775015623069,-0.0147723452673676,0.0165069378896873,-0.70945845983576,0.0014425287031407,-0.0009827825937636,-0.0009049599184471,-10.777901734256044,7.631495366318821,5.57754951311107,-1.6096443497863654e-05
174,1724915512683120022,-0.5023968815803528,0.1185897961258888,0.155397891998291,-0.0049402965232729,0.0107069155201315,-0.3469154834747314,0.9378223419189452,0.0,0.0,0.0,-0.0198638971297606,-0.0322791654713666,0.0455552646880539,0.659867628,-0.1588532479104847,0.0112587351880022,0.0581725803277073,17.054021754560026,1.4981688942375704,-6.007417974870042,-0.0166981223197656,0.0166554084935551,-0.7087512088066334,0.001642980757694,-0.0024913724917841,-0.0008402453103268,-12.744700568751847,15.946695353055231,-3.5356490834884036,6.115648122774542e-07
176,1724915512691060373,-0.50235515832901,0.1185289174318313,0.1553861945867538,-0.0039822696708142,0.0104838050901889,-0.3471913933753967,0.9377272725105286,0.0,0.0,0.0,-0.1170048397643542,0.1313973601466018,-0.0040891586852165,0.667807979,0.2464233437528303,0.0316100332679584,-0.0711757548478848,13.963985291810191,-0.9220582963724993,-5.9677955207647955,-0.0147509802498238,0.0168974844914098,-0.7093202789888081,0.0012976149236969,-0.0022751626858337,-0.0002704585562032,3.032150831518046,0.1567594917780095,-3.874175650503671,-1.0770230269505478e-05
178,1724915512702709730,-0.5024076700210571,0.1185945644974708,0.1554035991430282,-0.0052849221974611,0.0107274176552891,-0.3469813764095306,0.9377958178520204,0.0,0.0,0.0,0.1792267668519682,-0.2163959266944062,-0.0085788201111779,0.679457336,-0.2245689264503971,-0.0386944206076573,0.0357187722797595,-0.8658917061330276,1.474043870005376,6.529104289541223,-0.0173600057527169,0.0164534580301592,-0.708896942317644,-0.0013217628747526,0.001035855847574,-0.0016143952259302,18.091020947628525,-20.421542323818844,11.55846489069981,1.631245318806679e-05
180,1724915512711920310,-0.5023966431617737,0.1185706108808517,0.1553660929203033,-0.0049938475713133,0.010768155567348,-0.3466540575027466,0.937917947769165,0.0,0.0,0.0,0.2924177075876683,-0.3357912796942207,0.1848608406894881,0.688667916,0.0555811752954859,0.0295662866811827,0.0765799514073635,22.53784969410735,0.6089722466828416,-7.225455883267321,-0.0168364418152714,0.0167377992114166,-0.7081962100712089,0.003271663554937,-0.004602964299055,-0.000915750606282,-2.2862843750536266,21.7260629280309,11.990804945104154,-3.7280300829141256e-05
182,1724915512721744950,-0.5023427605628967,0.1185044050216674,0.1553901731967926,-0.0041649839840829,0.0102695282548666,-0.3472005724906921,0.9377254843711852,0.0,0.0,0.0,0.1172096560100093,0.2411867276257407,0.2082331835783521,0.698492556,0.1944460135550214,-0.0357348242050194,-0.1166188624705693,9.871329161051902,-5.084602273604312,-14.95008857509514,-0.0149449537288264,0.0163685579940622,-0.7093364645409587,0.0039826729903538,-0.0050052119275058,0.0020428096591422,244.08243611131977,15.856876462659958,22.07863431921259,2.522295480542235e-05
184,1724915512760116457,-0.5024150013923645,0.1185721457004547,0.1554073840379715,-0.0053212335333228,0.0107668247073888,-0.3468946516513824,0.9378272891044616,0.0,0.0,0.0,48.73513409166327,-5.575201868735903,4.007722374497794,0.736864063,-0.0656541286870851,0.003260617801551,0.0162836201998133,1001.2229812263514,734.673722958144,463.14086584217137,-0.0174539668704188,0.0165037783411327,-0.7087136827095677,0.0152000886598671,0.0465309007267364,-0.003889991071361,-153636.5488732406,-131506.1008274024,-131385.15725621686,1.5650373409526188e-05
186,1724915512760770553,-0.5024048686027527,0.1186030805110931,0.1554047912359237,-0.005080098286271,0.0108501631766557,-0.3467981219291687,0.9378633499145508,0.0,0.0,0.0,-53.48508997589313,-93.05741680772928,-83.39682951873203,0.737518159,0.6004810155646386,0.4919880281235657,0.3243476011132354,-85.0915486436615,317.51394237598,192.2409559383672,-0.0170577510021775,0.0168291980665139,-0.7085070646307202,0.0476176811986306,0.0428070447415507,-0.0012221459169552,-191457.40883108208,-122894.52776410565,-128316.45773332746,-2.288162585629459e-06
188,1724915512761162007,-0.5023787021636963,0.1186187863349914,0.1554049551486969,-0.0049877306446433,0.0109241940081119,-0.3467378914356231,0.9378851652145386,0.0,0.0,0.0,-136.67361275087484,-138.6229597527022,-132.38282970830792,0.737909613,0.308653306246398,0.5156215128127968,0.3343011714923686,-1546.6859681276824,-1625.9267745389234,-240.5467633845426,-0.0169347670569102,0.0170332322235573,-0.7083795215272359,0.0025399591265795,-0.0140876393952851,-0.054361210611006,-126113.33791414232,-43188.167725631065,-51779.57475731644,8.185147070886789e-07
190,1724915512761555988,-0.502403199672699,0.1185917407274246,0.1553618162870407,-0.0051559023559093,0.0108199398964643,-0.3467110097408294,0.93789541721344,0.0,0.0,0.0,-152.1008532328593,-126.60770458026636,-123.69436667926716,0.738303594,-0.6184025574789037,-0.7936218384555457,0.1340651829245424,-2261.4010893142145,-3194.1015804412823,-489.6116675066869,-0.0171774249889599,0.0167215070988131,-0.7083213875520468,-0.0598396660461446,-0.0660382123153469,-0.1051831917288588,-37084.04506947497,29832.95940567206,21705.209020730847,-4.376990281372264e-05
192,1724915512771549790,-0.5024080872535706,0.1185931041836738,0.1554036438465118,-0.0051078777760267,0.010748035274446,-0.34688600897789,0.9378317594528198,0.0,0.0,0.0,2.8739612507116217,3.1888092146005107,5.056485450565694,0.748297396,0.014316358382817,-0.0098455648333745,-0.0372336652376454,25.20744788420355,39.216812882836344,-6.2482826158151035,-0.0170405232347968,0.0166167596756335,-0.7086917619281794,-0.0003920955336838,0.0003049141681437,0.0026345195149897,7418.102896338212,5976.856147666447,5985.054124870749,4.170275667331908e-05
194,1724915512780821975,-0.502410888671875,0.1185973808169364,0.15541473031044,-0.0054281959310173,0.0109478794038295,-0.346888780593872,0.9378266334533693,0.0,0.0,0.0,2.0690458198790393,-1.7046847671092382,1.2096356161514294,0.757569581,-0.0797490699099184,0.0164741183629931,-0.0014666356260313,-5.601763166685271,1.6122998573703646,2.9366735720663413,-0.0177802431032265,0.0167692511644344,-0.7087080327053739,-0.0001929652258141,0.0001962067061918,0.0002089018865802,-234.42198010089447,-219.57677154883424,-390.3627651537636,1.1026136950007086e-05
196,1724915512801188875,-0.5024099349975586,0.1185895204544067,0.1553748399019241,-0.0053560389205813,0.0108626130968332,-0.346725732088089,0.9378883838653564,0.0,0.0,0.0,-9.309148523144527,7.610466412428991,-5.64398632974374,0.777936481,0.009407307876382,-0.005547790932849,0.0171512483894144,9669.6306894881,286.1191936385685,-4276.85482024183,-0.0175827749168518,0.0166624552616909,-0.7083567848690232,0.1335494042361915,-0.1102610813642286,0.0906643038615016,-1438.099601344049,1181.136045405312,-998.3116929392418,-3.987549323302538e-05
198,1724915512801740319,-0.5023342967033386,0.1185270771384239,0.1554262191057205,-0.0039296182803809,0.0103750629350543,-0.3473638892173767,0.937664806842804,0.0,0.0,0.0,-10.115310483844484,8.272603117515146,-6.204380465801345,0.778487925,5.485975375480427,0.1565190030907376,-2.4051644322064565,9279.77052349753,274.3492633078656,-4105.0772448586495,-0.0145797301162853,0.0167274278518153,-0.7096845051000411,0.1281788945432835,-0.1058697319999522,0.0874013819473376,-1363.0895851305545,1119.9603337530946,-952.819535036385,5.303463469070512e-05
200,1724915512810180019,-0.5024130940437317,0.1185850501060485,0.1554184705018997,-0.0054062595590949,0.0106878653168678,-0.346960186958313,0.9378033876419068,0.0,0.0,0.0,-8.854902482096833,7.291615678213736,-6.055285708745902,0.786927625,-0.3547269874493183,-0.0527630728388972,0.0977722700742461,-381.8754534262096,-11.979665212577189,166.95115011942565,-0.0175597782073809,0.0162954401229047,-0.7088521595596257,-0.005799104708295,0.0038921247481571,-0.0020753847402996,444.1669884382573,-362.2933441402754,244.4613929654036,-9.463690960868166e-06
202,1724915512821422780,-0.5024253129959106,0.1185842230916023,0.1553778052330017,-0.005409272853285,0.0107178352773189,-0.3467833995819092,0.9378684759140016,0.0,0.0,0.0,0.5542836364979891,-0.4667296436194207,0.0898056456422591,0.798170386,-0.0026260197394952,0.0045200683699514,0.0335335171211602,17.737933867585948,3.576955240860107,-4.088400193023958,-0.0175831645315603,0.0163528764432202,-0.7084761249528959,-0.000218052414624,0.0002955047543697,-0.0020599522721553,445.2572296206344,-367.44354620345143,306.798873447074,-4.094727970280213e-05
204,1724915512835818280,-0.5024124383926392,0.1185952797532081,0.1553768515586853,-0.0053226994350552,0.0109012154862284,-0.34675332903862,0.937877893447876,0.0,0.0,0.0,-0.2551053721568889,0.1905853338605037,0.08656321793353,0.812565886,0.002407685516839,0.0280289182007734,0.0046386568356856,54.29187260624612,-4.538924756494702,-23.02032003387983,-0.0175475138993672,0.0167574748103468,-0.7084163376884308,0.0088278297541819,-0.0091296164971588,0.0008628720033847,-70.67840655925978,73.04613591753488,-5.56577803365325,-6.158075645025163e-07
206,1724915512841594549,-0.5023430585861206,0.1185196042060852,0.1553839892148971,-0.0041461363434791,0.0104229552671313,-0.3472462594509125,0.9377069473266602,0.0,0.0,0.0,-0.6968620324614161,0.6759912485157258,0.0420357103377574,0.818342155,0.4410371064006469,-0.0124943201391015,-0.1770361944427024,25.246158386991752,-5.131051897786756,-11.965287620128702,-0.0150170366509097,0.0166686663304144,-0.7094378633402394,0.0053065612194451,-0.0060695152241283,0.0010929255815881,-30.203126350613047,35.29323467145194,-9.873173465536611,8.65118601132442e-06
208,1724915512851907502,-0.5024117827415466,0.1185864806175232,0.1553926318883896,-0.0053195212967693,0.010691006667912,-0.3469506204128265,0.9378073811531068,0.0,0.0,0.0,-0.1563004332626782,0.1425078450631651,-0.0996398283010279,0.828655108,-0.2319483253694078,-0.0307133082472152,0.0583691769458478,-27.009335716806095,2.5217395868168304,9.114450958232496,-0.0173990820650012,0.0163617175131643,-0.7088307022295773,-0.0034867030264784,0.0035942630141558,0.0015670995841832,28.625364311367115,-28.74664315918812,-11.27927974509134,7.179589388763869e-06
210,1724915512865683040,-0.5024013519287109,0.1185828074812889,0.1554276347160339,-0.0044820113107562,0.0109858121722936,-0.3474025130271911,0.9376410245895386,0.0,0.0,0.0,-0.1997309149091889,0.1694068951902281,-0.2097826241164577,0.842430646,0.0997545567653042,0.0829336405996105,-0.0683797167378303,28.91556328183555,-32.2406362382949,10.704533898273208,-0.0160411736531256,0.0174882637964429,-0.7097917516477473,0.007173352609854,-0.0090627840608128,-0.0024849701277673,-57.9490566409427,77.78276174907154,21.30251081551359,3.523750989079504e-05
212,1724915512870632053,-0.5023544430732727,0.1185223162174224,0.1554064005613327,-0.0040257950313389,0.0104250442236661,-0.3473612368106842,0.937664806842804,0.0,0.0,0.0,-0.5839487237682177,0.6891797274962239,-0.0522646719627036,0.847379659,0.2514571830027347,-0.1486173585687613,0.0199889661044389,3.882269351635347,-28.421906040302197,14.384758290060413,-0.0147948212715464,0.0167543677130043,-0.7096815040259177,0.0044538859936658,-0.0062895585663196,-0.0033731835690575,-38.675412447434155,57.88482887812994,28.271235847553985,-2.0199150826451515e-05
214,1724915512880784407,-0.5024138689041138,0.1185820326209068,0.1553912609815597,-0.0053865290246903,0.0106368921697139,-0.3468994796276092,0.9378265738487244,0.0,0.0,0.0,-0.1652009449854645,0.2950738083461308,0.1606769840077825,0.857532013,-0.2666697279942611,-0.0546807661462326,0.0937382978330403,-9.064136641192338,9.952179364632066,0.6907717638524007,-0.01748631450067,0.016214662552936,-0.7087209268342402,-0.0021920796799008,0.0033901079617519,-0.0012545004302282,35.39714041924059,-44.62046970878854,8.782811283217134,-1.638034018990774e-05
216,1724915512890440157,-0.5024014115333557,0.1185918822884559,0.1553813219070434,-0.0051628737710416,0.010802200064063,-0.3467210233211517,0.937891960144043,0.0,0.0,0.0,0.1228689330264571,-0.1890461983008122,0.1335190018069769,0.867187763,0.0312474126636143,0.0478386992718796,0.0400410057995941,13.974352336088018,1.6261939805527843,-5.822054923622793,-0.0171783706405319,0.0166832133241548,-0.7083423459931031,0.0007073592534396,0.0001931965925523,-0.0001439576629849,6.42094189935079,-14.567994857357006,-7.115852527156984,-9.617599618909104e-06
218,1724915512900246364,-0.502400279045105,0.1185855418443679,0.1553887277841568,-0.0052068778313696,0.0106829442083835,-0.3468107283115387,0.9378598928451538,0.0,0.0,0.0,-0.0473370645756724,0.0223390234741542,0.0208835773672002,0.87699397,0.0001796637088065,-0.0257585237898804,-0.0196493995175431,-4.781258342651644,-1.817241568535302,-3.496424132701355,-0.017179726033779,0.0164273464662903,-0.7085306623921522,0.0001453884839861,-0.0002460253814202,0.0013496525546203,-6.682126662565581,10.508644343619103,-13.479169204686505,7.415625601976021e-06
220,1724915512910388184,-0.5023984909057617,0.1185872480273246,0.1554086506366729,-0.0054914052598178,0.0108705023303627,-0.3469404280185699,0.937808096408844,0.0,0.0,0.0,-0.0031384672439837,0.0130381756180121,-0.1367244977111884,0.88713579,-0.0652305316840951,0.0154715316314996,-0.0279371378224618,-1.9670797425109776,0.9937008351526266,1.8000717557462114,-0.0178460018372749,0.0165792687318011,-0.7088166824096139,-0.0002301147421484,0.000684645976106,0.0001829002117679,3.260265146154813,-4.16978938400216,-3.231463287998403,1.9964917972135515e-05
222,1724915512920569449,-0.5024049878120422,0.118599496781826,0.1553923040628433,-0.0056890142150223,0.0109129240736365,-0.3468562364578247,0.937837541103363,0.0,0.0,0.0,0.0188348081468391,-0.0626610659638343,-0.043816784259118,0.897317055,-0.0394431551853921,-0.0058062509507213,0.0171404886547062,6.702923975631038,-0.3129655137064869,1.432205557380258,-0.0182446762977936,0.0165233114943774,-0.7086410753054943,8.42836729333385e-05,1.2727676384827191e-05,-0.0014307247594445,-0.0178074145969663,-0.0934101268546743,11.0455178424908,-1.6462273410372616e-05
224,1724915512930680573,-0.5023968815803528,0.1185876727104187,0.1553795933723449,-0.0053405086509883,0.0108319260179996,-0.3468530178070068,0.9378417134284972,0.0,0.0,0.0,-0.0031956180884982,0.0101162945624574,0.087147011395081,0.907428179,0.0702048344967602,0.0088723009974216,0.0015444740330913,3.414260396562055,-0.2467814862862285,-0.016645621889184,-0.0175345941522585,0.0166132852324886,-0.708627056473482,0.0001537724277405,-0.0005873629079946,-0.0007222781440949,0.7954984992365801,6.156364993181652,7.745506547123261,-1.2541849628342316e-05
226,1724915512941835439,-0.5024031400680542,0.1185882836580276,0.1553781181573867,-0.005279732402414,0.0107225961983203,-0.3467482924461365,0.937882125377655,0.0,0.0,0.0,0.0422811971833227,0.0659740506417368,0.1094686675131759,0.918583045,0.0168538684361898,-0.0147829057071785,0.0201360133558408,-4.981637485575394,-0.8910934107054695,-0.7414656072653055,-0.0173428335044164,0.0164523284407694,-0.7083996749136524,-5.776120566736154e-06,0.0003803539390778,0.0004600392710543,9.140495677364518,-7.814186498119909,-1.1673223075530803,-1.622078667965537e-06
228,1724915512950369685,-0.5023995637893677,0.118593655526638,0.1553859114646911,-0.0054089589975774,0.0107049727812409,-0.3467543721199035,0.9378792643547058,0.0,0.0,0.0,0.1533503884056467,-0.0844305105902808,0.0788191064197814,0.927117291,-0.026959227445885,-0.0143597952142462,-0.0019152866464693,0.5378775504256086,2.105053655204979,-1.625623538329566,-0.0175731404552486,0.0163295093407208,-0.7084137850371746,0.0007245169416094,0.0008077216586377,0.0014169773303089,-4.599970254355815,-4.646995795168603,-9.240965811788056,7.890913525573298e-06
230,1724915512960795360,-0.5023881196975708,0.1186043471097946,0.1554071009159088,-0.0050995205529034,0.0107778897508978,-0.3467907309532165,0.9378668069839478,0.0,0.0,0.0,-0.1189509146709565,0.0323959500096357,-0.0894792453411515,0.937542966,0.0508846595998775,0.0337659608048323,-0.0066591196424375,10.534788648040369,2.2059255664959703,-4.3157001651173434,-0.0170438827319104,0.0166802906612408,-0.7084894105615598,0.0031865431556603,-0.0017856485633593,0.0018144726186051,-25.4773569592759,16.549243135343392,-9.563189854989496,2.1477607571082232e-05
232,1724915512972353730,-0.5023245215415955,0.118547685444355,0.1554252803325653,-0.0039003628771752,0.0105037549510598,-0.3473790287971496,0.93765789270401,0.0,0.0,0.0,-0.405214021519694,0.2921517086391274,-0.1157036936039088,0.949101336,0.2119663645755055,0.0283788336088248,-0.1060128933602805,-27.878660890057223,-3.4350810631034134,12.683872318106674,-0.0146146096218653,0.016988866143072,-0.7097199130435555,-0.0027386472910038,0.0021914153490456,-0.0008549187255937,21.78005258645051,-8.681240347851169,13.310356351473905,1.959898395272966e-05
234,1724915512980910530,-0.5024001598358154,0.1186113730072975,0.155402585864067,-0.0050929374992847,0.0108597092330455,-0.3468143939971924,0.937857151031494,0.0,0.0,0.0,0.0760135584925902,0.0205127799773836,0.0968801205907248,0.957658136,-0.2914715000055987,-0.0198222029982254,0.1373210266062759,-25.30513639915711,-2.708037887492764,11.38292241629509,-0.017088756656254,0.0168378994808796,-0.7085422244347274,-0.0055255217140164,0.004362315989959,-0.0011149289029441,43.02242427213607,-25.161423385055816,14.29128957972743,-2.4367201776916677e-05
236,1724915512992562115,-0.502411961555481,0.1186133250594139,0.1554139852523803,-0.0053999428637325,0.0109423510730266,-0.3468142449855804,0.937854528427124,0.0,0.0,0.0,0.3675998968189375,-0.1681986348313046,0.0959728477198291,0.969309721,-0.0543451437872493,-0.0049675502534825,-0.0006321722931938,17.98671455158545,2.0488748860870913,-7.647305527394844,-0.0177220706080453,0.0167799002242796,-0.7085485829960994,0.0017334749809592,0.0009015739983357,0.0020330473698706,-183.01322638360023,85.94170331390592,-30.05171635081999,1.1114519215594322e-05
238,1724915513000608026,-0.502382755279541,0.1186246573925018,0.1554362028837204,-0.0050881770439445,0.0108934240415692,-0.3469645977020263,0.93780118227005,0.0,0.0,0.0,-2.2607797333561805,1.090763044923205,-0.3123565234819086,0.977355632,0.0772359334770644,0.0158177284945312,-0.0388676770822485,12.680927616402048,1.656518398944991,-3.4545998112081846,-0.0171059392282851,0.0169017019878769,-0.7088634664614243,0.0032721093445999,0.0002639939173041,0.0018373576304857,62.39964015363452,-29.953644547686338,-5.39070412952271,2.2933550118575858e-05
240,1724915513025268037,-0.5023291110992432,0.1185446679592132,0.1554116755723953,-0.0038497913628816,0.0102564012631773,-0.3472789824008941,0.9376978874206544,0.0,0.0,0.0,28.684384334920992,-13.738105567267212,2.9829933775282313,1.002015643,0.1123505623086993,-0.0133819766321609,-0.0259870948539074,-20916.37627158038,-3382.897773938841,4932.397942770321,-0.0143460070871156,0.016561665442861,-0.7094991214628306,-0.2378036646059627,0.1155921602763214,-0.0276352558399253,3149.2254718785553,-1556.3546450810318,360.0056951499,-2.3353845366405663e-05
242,1724915513025670950,-0.5024265050888062,0.1185920238494873,0.1554003655910492,-0.0055403034202754,0.0105850920081138,-0.3468832671642303,0.9378322958946228,0.0,0.0,0.0,29.965718900761733,-14.371468075221015,3.1295345933324756,1.002418556,-8.452832953884293,-1.398657567409835,1.9938071012631555,-19784.177243640566,-3198.276951086084,4665.663680461361,-0.017738537304478,0.0160110892557447,-0.7086868250870545,-0.2259931655111504,0.1099356725796161,-0.0264058639131292,2941.943634569064,-1456.463312459744,338.39357748540664,-1.3470423195496074e-05
244,1724915513031475643,-0.5024227499961853,0.1185947582125663,0.1553862988948822,-0.0055243102833628,0.0108779529109597,-0.3467978239059448,0.9378606081008912,0.0,0.0,0.0,27.120042761245305,-13.167260034055747,2.977136927649417,1.008223249,-0.030091938723289,0.0962769592099938,0.0316103900016885,1011.0167537434208,175.866869943104,-236.3085816386075,-0.017910383860017,0.0165731281700649,-0.7085132665549791,0.002552258895017,-0.0012912828064726,-0.0016939145010135,-985.0824756155632,460.83206067571115,-86.86106740584194,-1.3963798328380382e-05
246,1724915513044538202,-0.502333402633667,0.1185260862112045,0.1553856134414672,-0.0040611596778035,0.0102825621142983,-0.3472116887569427,0.9377216696739196,0.0,0.0,0.0,-0.2937612197648456,0.3004930030127684,0.060955093059897,1.021285808,0.2422872903706876,-0.0072234613511017,-0.0648730658473379,-40.29766349857319,-6.545367459343189,11.527952276343145,-0.0147594627310795,0.0164649423239302,-0.7093591436857515,-0.0033554784855027,0.0029145092019007,-0.000433737179371,-736.7015196712257,351.66198516319986,-81.44554996710053,1.257005840001547e-06
248,1724915513052149163,-0.5024041533470154,0.118584506213665,0.1553806215524673,-0.0053218118846416,0.0105458786711096,-0.3468165397644043,0.9378586411476136,0.0,0.0,0.0,0.138899087326392,-0.0356743365439403,0.069905110180177,1.028896769,-0.3355882022458574,-0.0509288435998852,0.1067419753452075,-24.43603511714225,2.3574484950947063,7.779471812517263,-0.0173002871761873,0.0160903964080863,-0.7085404975955444,-0.0048883891307269,0.0051062951134364,-0.0001273143490534,38.063712840187584,-37.65499827847137,-2.7401068491115073,-6.495369589743758e-06
250,1724915513061402507,-0.5023998022079468,0.1186028495430946,0.1553853899240493,-0.0051454380154609,0.0107870604842901,-0.3467643558979034,0.9378762245178224,0.0,0.0,0.0,0.2798010993691942,-0.3108273281047457,0.0004939086135674,1.038150113,0.0175744392613593,0.0620101614688288,0.0125755262971807,22.786069326259874,6.411087089249962,-6.880410754510358,-0.0171359223999134,0.0166661176407873,-0.7084340707792793,0.0002253974792338,0.0011350592244676,0.0008530451267776,2.166418281397372,-11.257438199294985,-7.407765677893365,4.910389731461199e-06
252,1724915513076594507,-0.5024024844169617,0.118598960340023,0.1554067730903625,-0.0052485303021967,0.010945082642138,-0.346832662820816,0.9378484487533568,0.0,0.0,0.0,-0.013047263854378,-0.0209701077518058,-0.1097143818120315,1.053342113,-0.0198644476052975,0.0148904136747929,-0.0097411866190628,-7.371899542914109,-8.977174667044434,-0.1991071581350161,-0.0174402477624222,0.0168897370656044,-0.7085858278770475,-0.0023290609253336,-0.0006353858005034,-0.0017696496459258,9.755754614858011,10.303596767722883,8.431045263420923,2.1303274878020596e-05
254,1724915513081533846,-0.5024174451828003,0.1185952126979827,0.1553929299116134,-0.0054306746460497,0.0109098572283983,-0.3468505442142486,0.9378412365913392,0.0,0.0,0.0,0.0817630421445749,0.0158293357724655,-0.0428811485314992,1.058281452,-0.0641578179620589,-0.0388865468372079,-0.008685339069565,-5.648669845900744,-7.899115361892922,0.2479416952916546,-0.0177578095034843,0.0166969388816059,-0.7086253800551272,-0.0021444319569514,-0.0005854903314264,-0.0022105184472986,13.0938297677797,5.189420793210932,11.095641752631382,-1.4211388053132064e-05
256,1724915513097049338,-0.5024076104164124,0.1185945719480514,0.1553874909877777,-0.0054010669700801,0.0107679972425103,-0.3468738198280334,0.9378345012664796,0.0,0.0,0.0,-0.0124318405110737,-0.0138424762871943,0.010589686645322,1.073796944,0.0099499092928218,-0.0158000561434728,-0.0031726175899957,4.1828923563341,2.514966564060115,2.052636550443736,-0.0176041777984842,0.0164509632071635,-0.7086703456352945,0.0012873102774904,-6.073789595184565e-05,-0.0006156201581486,-7.249404631199753,1.212948334384367,2.73755332846794,-5.203564463313139e-06
258,1724915513104866231,-0.50239497423172,0.1185940206050872,0.1553816348314285,-0.0052417730912566,0.010742730461061,-0.3468039631843567,0.937861442565918,0.0,0.0,0.0,-0.0737404235878449,0.0079473962282547,0.0291976817329043,1.081613837,0.0403098714574612,0.0079037573099068,0.0195571336333309,-0.5369940210385522,0.4574761552628199,1.3306822408231929,-0.0172865750361592,0.0165154007859434,-0.7085184438327985,0.0002701046095729,-0.0003566542783328,-0.0008959646272055,8.390590831396924,-6.1969232475658576,10.624835280493924,-5.555229726990826e-06
260,1724915513115489799,-0.5024115443229675,0.1185861006379127,0.1553699970245361,-0.0054317051544785,0.0106752514839172,-0.3467471897602081,0.937882125377655,0.0,0.0,0.0,0.2497792337465634,-0.1876035457232344,0.2611031640686743,1.092237405,-0.0292236034230077,-0.0244126843988312,0.0109237100198213,4.505122844494782,5.453333258543374,-2.255908367257211,-0.0175950583507889,0.0162581143371975,-0.7083978750027242,0.0003008579347181,0.0003890844003429,0.0003535775506424,2.063886115972756,-7.621125385872476,-1.6008200739235772,-1.2050748618965356e-05
262,1724915513122884520,-0.502399742603302,0.1185948178172111,0.1553800702095031,-0.0051443418487906,0.0108036352321505,-0.3467965126037597,0.937864065170288,0.0,0.0,0.0,0.1189158603684582,-0.1884408967013267,0.1286652298748078,1.099632126,0.0609690724019778,0.0596403693238818,-0.013186791298383,13.316394847286835,3.017173590273551,-6.844561610986629,-0.017145942845877,0.0166973787568345,-0.7085030798803298,0.0034186753924387,-0.0023251470854166,0.0030229036984517,-21.419927623206977,22.53184782420125,-18.810206329842774,1.0370362698669235e-05
264,1724915513132747623,-0.5023420453071594,0.1185257881879806,0.1554317325353622,-0.0042285360395908,0.0103517547249794,-0.3473981022834778,0.9376511573791504,0.0,0.0,0.0,-0.1413296255849212,0.3316990614884166,-0.0687070842361461,1.109495229,0.2070374867062541,-0.0204416941595835,-0.1278452872194894,-8.302182374061772,-4.074215931138082,3.046898042146772,-0.0151247725747594,0.0164754441460725,-0.7097608944874386,0.0006092507536088,-0.001834079426862,0.0012357753392677,-3.800281686465034,15.99978493272176,-8.587688437085571,5.2888073654895245e-05
266,1724915513143943819,-0.5024018287658691,0.1185708940029144,0.1553947031497955,-0.0051946542225778,0.0106264501810073,-0.3469002842903137,0.9378274083137512,0.0,0.0,0.0,0.1031711415983318,0.0439388184062373,-0.019670031562963,1.120691425,-0.1796536107275604,-0.0146458062810224,0.0927403198069355,4.39665348718073,12.288064214027475,1.7068326773458904,-0.0171191334594458,0.0163282239498556,-0.7087197684212562,0.0008508609487449,0.005462623769926,0.0018961576943627,-1.4256778027283306,-49.26733601580581,-14.264375300652995,-3.831913006397192e-05
268,1724915513150445962,-0.5023729205131531,0.1186118274927139,0.1554266810417175,-0.0050820321775972,0.0109660848975181,-0.3467925488948822,0.9378639459609984,0.0,0.0,0.0,0.0060559922640496,-0.3653907964483682,-0.1828211408149296,1.127193568,-0.0040461686302606,0.109699048995022,0.0358876094736874,15.749246036737183,6.45072702394898,-6.249100707686451,-0.0171417520920729,0.0170453949210298,-0.7084986269406361,0.0018297913561298,0.0034533102727287,0.0014712602401614,-11.41767807761754,-29.597323744947097,-9.331113513894213,3.274393304606216e-05
270,1724915513160946927,-0.5023980736732483,0.1185998916625976,0.155383676290512,-0.0052952943369746,0.0108357314020395,-0.3467279374599457,0.937888205051422,0.0,0.0,0.0,-0.0541754345525119,-0.1105096358684981,-0.0135186674885483,1.137694533,-0.0295954740095229,-0.0374834038793953,0.0125718913494177,5.217201177808743,-4.742354114461425,-2.1945409336687645,-0.0174501952262868,0.0166541262365968,-0.7083598452671371,-0.0005571836481941,-0.0013395862244669,-0.0024407847572263,-1.118523172350977,23.746823432496612,18.19308308986983,-4.3624721890596584e-05
272,1724915513170441834,-0.5023875832557678,0.118585430085659,0.1553747057914734,-0.0049192397855222,0.0106817027553915,-0.3467680513858795,0.9378771781921388,0.0,0.0,0.0,-0.0251553052146154,0.1104540585735738,0.1769988644503884,1.14718944,0.0856205198189925,-0.0028944217786322,-0.0080435751663141,0.6281945907284363,2.68494886484676,-1.6254722158118011,-0.016638498945761,0.0166253459571596,-0.7084357359606613,0.0004148272118449,0.0005808946961138,0.0005131521596934,8.860582659867234,-5.260901991131586,2.8972639585597295,-8.748346979063816e-06
274,1724915513180814988,-0.5023910999298096,0.1186152994632721,0.1553965508937835,-0.0050810263492167,0.0108186285942792,-0.346857339143753,0.9378417134284972,0.0,0.0,0.0,0.1325336966370685,-0.2674689512889087,0.0124942746961627,1.157562594,-0.038259944188557,0.0141008722938516,-0.01872016598448,-6.9810033523442385,-0.993831136611422,0.1046875353986671,-0.0170386580550014,0.0167683255958762,-0.7086323677801266,-0.0012913310601092,0.0006861993760276,0.0008293841371092,0.3337273666411762,-4.4696661020520825,-10.09946052868446,2.1815599859726534e-05
276,1724915513191365024,-0.5024149417877197,0.1185990050435066,0.1553916037082672,-0.0054166670888662,0.0108040012419223,-0.3468802869319916,0.9378315806388856,0.0,0.0,0.0,-0.0234772422650753,0.0283381967611273,-0.0322592897017212,1.16811263,-0.0586742079790171,-0.0246276645608143,-0.0054486107819861,20.96854959798723,-0.2621780063231945,-4.524665937745129,-0.0176585565219109,0.0165075467609289,-0.7086854209982111,0.0032938229040091,-0.0051144585191176,0.0007681532896022,-29.93537081177486,40.12748718447282,-4.21680215721357,-5.561897908772104e-06
278,1724915513200994144,-0.5023344159126282,0.1185183823108673,0.1554098725318908,-0.003861553966999,0.0102386698126792,-0.3473485708236694,0.9376723170280457,0.0,0.0,0.0,-0.4448550612881881,0.5209757810099105,-0.0726416705076935,1.17774175,0.3445243568111035,0.0028059968609193,-0.0998383232098066,-17.217521996201228,-0.46934896099147,6.483951978133561,-0.0143569711507025,0.0165191752804077,-0.7096472634965382,-0.0009581860644871,0.0002396402391351,0.0002250186948948,0.8026634297483284,6.060448383160159,1.7543539420949756,2.0016250294598425e-05
280,1724915513210211687,-0.502425491809845,0.1185965836048126,0.1553971916437149,-0.005356119479984,0.010644587688148,-0.3468838632106781,0.9378324151039124,0.0,0.0,0.0,-0.0442483324652884,0.1788888969722406,-0.0039871602402191,1.186959293,-0.3355660964913589,-0.030800165507585,0.1036324784249771,-26.53408700676645,3.484053461210469,7.107130644060208,-0.017434341383059,0.0162504911493287,-0.7086874426552576,-0.0050875707624946,0.0047324364062522,-0.0005878204911162,32.17279510415502,-34.72494996511837,3.41258272086759,-1.4625982232450833e-05
282,1724915513222641962,-0.5024083852767944,0.1185925230383873,0.1554030925035476,-0.0043373513035476,0.0111391833052039,-0.3472397923469543,0.9377002120018004,0.0,0.0,0.0,0.1664409273951803,-0.2127282906467119,-0.0292167623119014,1.199389568,0.1266178269198803,0.1320253476765521,-0.0589154341093165,-1.9517260209148288,-7.384633359773444,4.979007406165987,-0.0158734093647449,0.0178791797046451,-0.7094471205082789,0.0011302790619183,0.0017842664384293,0.000773990806353,-0.5220982105949519,-22.251232262086273,-4.433256907540761,6.3064471190208385e-06
284,1724915513231201828,-0.5024001598358154,0.1186202391982078,0.1554114818572998,-0.0048948996700346,0.01111192535609,-0.3468712568283081,0.9378342032432556,0.0,0.0,0.0,0.0589829280375622,-0.3486480901283721,-0.0813328768675842,1.207949434,-0.1207664219222318,-0.0519292672752654,0.0901355381187108,-9.027799793830416,-12.5483280610574,4.825609125879844,-0.0168933982849173,0.0174473725057863,-0.7086682992415152,0.0005875127525243,0.0001074532139302,-0.0002941085756589,-12.891567118327012,9.714438373576115,5.234957197107626,8.627058038497426e-06
286,1724915513240327371,-0.5023984313011169,0.1185907647013664,0.1553964018821716,-0.0050620501860976,0.0107877627015113,-0.3468188047409057,0.9378564357757568,0.0,0.0,0.0,-0.061946586122758,-0.0110128011702008,0.0765996502773801,1.217074977,-0.0098165733934105,-0.0794460841204206,0.0117163615052891,13.104586978039332,-1.0091440182105855,-7.694038114502616,-0.0169809413261856,0.0167242965902061,-0.7085490229676399,0.0023164593490072,-0.0045602487336191,-0.0006136362363173,-11.208626482228102,29.913478933727284,8.420230964639016,-1.5093953919556128e-05
288,1724915513253226684,-0.5023297667503357,0.1185076832771301,0.155407428741455,-0.0041244938038289,0.0100526446476578,-0.3472592830657959,0.9377062916755676,0.0,0.0,0.0,-0.1692762976921334,0.2456567195392592,0.0231827833144293,1.22997429,0.176480373872321,-0.0558825995889023,-0.0711332918109077,-43.4382341727823,7.949158906248353,10.300915642804158,-0.0147192887983757,0.0159889999964469,-0.7094552973216379,-0.0030667199341607,0.0044233930232095,0.0024095865461486,29.398158550856635,-39.88244933792116,-14.05952074719509,1.2452878733116749e-05
290,1724915513260319999,-0.5023842453956604,0.118581436574459,0.1554305851459503,-0.0052807102911174,0.0105749042704701,-0.3470232188701629,0.937782108783722,0.0,0.0,0.0,0.1863799643802985,-0.270421638073993,-0.1152338067699166,1.237067605,-0.3574101359213207,0.0243844853910648,0.06716693089255,-26.218989894450797,7.643937334199928,7.1855515932270215,-0.0172468954001889,0.0161695584793602,-0.7089815901786565,-0.0032999181813941,0.0044075728781027,0.0017502682694159,21.473350267650417,-36.76963178542966,-12.862812430932228,2.2058907017809432e-05
292,1724915513271287354,-0.5023461580276489,0.118528202176094,0.155424103140831,-0.004236543085426,0.0104540102183818,-0.3473580777645111,0.9376646876335144,0.0,0.0,0.0,-0.064214655233076,-0.0634654761843664,-0.1435248507035775,1.24803496,0.1867497497527119,0.0459523733631581,-0.0627989125578206,18.203614264022477,-3.378390318982805,-2.391323454812071,-0.0152101812433686,0.0166622885131513,-0.7096783943424678,0.0024621440644132,-0.0031060158965097,0.00010857407878,-25.123614388821313,31.42047020247483,0.1591530826720362,-5.657889369698206e-06
294,1724915513280713007,-0.5023311376571655,0.1185130849480629,0.155430793762207,-0.0038257634732872,0.010154815390706,-0.3474011123180389,0.93765389919281,0.0,0.0,0.0,-0.319445902807295,0.3343585978673568,-0.1198392461698558,1.257460613,0.1038666403037232,-0.0291887910508186,-0.0087150865264903,-16.427453412058338,-0.6273856506587547,4.630612563897209,-0.0142324634957474,0.0163859887860563,-0.7097566146249011,-0.0029192578904826,0.0013313293620358,-0.0011943062947734,7.956257929349626,8.0345114338432,7.454735866711548,7.013213643179823e-06
296,1724915513291305251,-0.5024157762527466,0.1185621246695518,0.1553954780101776,-0.0045289327390491,0.010707788169384,-0.3472585082054138,0.937697410583496,0.0,0.0,0.0,0.1818535589438198,0.0127050468017691,0.0179470508614813,1.268052857,-0.1610073212771566,0.0515901781069865,0.0271527349148701,-9.04532146344213,1.1619512712795594,4.208386146992474,-0.0159332373366302,0.0169367193372258,-0.7094772087666652,-0.003309418453508,0.0032491634774673,-0.0022447985255196,30.435096554011785,-26.705762060637824,20.654691522817316,-3.7220259547864666e-05
298,1724915513302319933,-0.5023986101150513,0.1185820996761322,0.1553832292556762,-0.0049443868920207,0.010808833874762,-0.346825361251831,0.9378544092178344,0.0,0.0,0.0,0.3236067975876214,-0.2395159429406023,0.3330342854457773,1.279067539,-0.0778209073921334,-0.0096530239626357,0.0829236690567153,6.120664555006793,-4.168196109770295,3.21117345303506,-0.0167749521626545,0.0168453441528594,-0.7085620372657345,0.001198487206202,0.0014607707355602,-0.0007055983365988,-556.2504661232913,139.39705055092412,-1048.3092500033486,-1.180290000259672e-05
300,1724915513336190297,-0.502395510673523,0.1185948401689529,0.155401661992073,-0.0052906591445207,0.010830950923264,-0.3468406200408935,0.9378466606140136,0.0,0.0,0.0,-77.7918002338163,21.38533717792743,-147.3365093484749,1.312937903,-0.0196217019995713,-0.0058572874433957,-0.0012182555185375,3600.3851523637,2211.3893066865985,-2558.7310237846405,-0.0174401817239668,0.0166462800793722,-0.7085999531318531,0.0032378628435481,-0.014687206921053,0.0307063069131174,18607.054210158774,-565.6089435251342,25252.14957413185,1.853243172632259e-05
302,1724915513336805338,-0.5023934841156006,0.1185856387019157,0.1554208844900131,-0.0045043430291116,0.0109876496717333,-0.3473125994205475,0.9376742243766784,0.0,0.0,0.0,-66.11413168451278,21.024017053769597,-131.4746854671193,1.313552944,2.234953884656467,1.378934078982907,-1.6034917530351975,-10413.174774110932,-7396.5824209826815,7545.071480469058,-0.0160826605688351,0.0174777314051198,-0.7096003459425727,-0.0454767607864141,-0.001290184641931,-0.0615675477027366,34270.49273389191,-4912.148177498966,54897.84492179332,1.925767745603725e-05
304,1724915513337141002,-0.5024176836013794,0.1185877099633216,0.155383214354515,-0.0052707972936332,0.0107616996392607,-0.3468643724918365,0.9378387928009032,0.0,0.0,0.0,-51.81091989082065,18.58294179366607,-107.7151188261707,1.313888608,-3.839510955716339,-2.871287552008577,2.7885518704546683,-16360.263699756357,-11443.834298826056,11830.251187039696,-0.0173552587936715,0.0165297279359918,-0.7086482615114019,-0.0652706683613981,0.005627905601905,-0.1022999118714098,40587.37820676386,-7148.567478735913,67915.55749907799,-3.823126695982114e-05
306,1724915513340525009,-0.5024057626724243,0.118588238954544,0.1553756594657898,-0.0052220430225133,0.0106829116120934,-0.3468213677406311,0.937855899333954,0.0,0.0,0.0,16.475538540464445,-1.3839676732241852,24.259415802461813,1.317272615,0.0429548563148977,-0.0339184365305824,0.0274080839129094,937.7723873245288,684.6883778903492,-667.131492474715,-0.0172083397288864,0.0164165685257771,-0.7085535648049521,0.003619611776207,-0.0006479595583499,-0.0016883936937017,16265.309454378776,-4795.648072153343,31534.7466281284,-7.269437981845322e-06
308,1724915513355551865,-0.5023449063301086,0.1185248345136642,0.155386596918106,-0.0041617252863943,0.0102357156574726,-0.3473117351531982,0.9376847147941588,0.0,0.0,0.0,-0.2703300956176886,0.2681931257000578,0.0239324909495273,1.332299471,0.1535739712035037,-0.0062920743614902,-0.0679147285105848,-99.37559194246808,2.388531571984277,36.54403270770234,-0.0149172768851322,0.0163056387039798,-0.7095726036574073,-0.0078455634343441,0.009957234120403,-0.0022825693221442,-196.40787585817813,-51.92975331631258,-370.5078885769136,1.2234836441285394e-05
310,1724915513360255674,-0.5023993253707886,0.118592545390129,0.1553714275360107,-0.0051917862147092,0.0106347911059856,-0.3469316363334656,0.9378158450126648,0.0,0.0,0.0,0.1574674063095009,-0.2144251237689781,0.1103245530386041,1.33700328,-0.4710313831883952,0.0057530487711393,0.1671298085054404,-78.45396819597197,2.9303011731928676,29.841341936577876,-0.0171200928215778,0.0163452892558883,-0.708786897866166,-0.0083917592994122,0.0105744975450012,-0.002076536046391,70.1412988787944,-81.49297014602314,13.062470513657,-1.6286950003190253e-05
312,1724915513370681470,-0.5024133920669556,0.1186145097017288,0.1553763151168823,-0.0052733714692294,0.0109148304909467,-0.3468667566776275,0.9378361105918884,0.0,0.0,0.0,0.4079601360639061,-0.5762691829925204,0.1239460745936981,1.347429076,-0.0334269409266831,0.0448442507580746,0.0131332326672222,24.700853637377712,-0.287963698846269,-7.648392696563008,-0.0174664572920378,0.0168151222309907,-0.7086579870711062,-0.000427936443117,0.000351514119397,0.000610925646594,3.8339682271395943,-2.541146629824736,-2.5936131047804425,4.597639776051437e-06
314,1724915513381506266,-0.5024076700210571,0.1185985878109932,0.1553845256567001,-0.0050774388946592,0.0108218258246779,-0.3468162715435028,0.9378569722175598,0.0,0.0,0.0,0.2225197296093667,-0.2422667885742849,0.0520368774073134,1.358253872,0.0398292669973735,-0.0036498730850255,0.0103893152261365,-2.3530213142429135,-3.5283467429484734,-0.3439325540709696,-0.0170334143290771,0.016777559849121,-0.7085448829589476,-1.1805544215093278e-05,-0.0013427767258509,0.0004485561104488,-16.795052259754016,28.622482088521757,-4.537072115945428,8.312373861215145e-06
316,1724915513390332676,-0.5024116635322571,0.1185876578092575,0.1553862541913986,-0.0053126770071685,0.0107776075601577,-0.3467856347560882,0.9378674030303956,0.0,0.0,0.0,0.0766980607090606,-0.005702549027644,0.0271471274244277,1.367080282,-0.0465789997236825,-0.0279441470860245,0.0067026750135233,10.69212654039655,-1.2271806304299535,-5.0283053283772965,-0.0174434802509531,0.0165319665273704,-0.7084813436768983,0.0032770402830983,-0.0040982422032334,0.0013903143692939,-26.055728512479547,29.50108159285513,-12.2549555291029,1.6053708623221703e-06
318,1724915513400390005,-0.5023359656333923,0.1185136660933494,0.1554139256477356,-0.0039632124826312,0.0101518295705318,-0.3472567200660705,0.9377067685127258,0.0,0.0,0.0,-0.2946193933062682,0.3219323269679586,-0.2042296788812252,1.377137611,0.2956755973177432,-0.0228068280146184,-0.0967059657147526,-6.912391419707243,1.2657071658977253,1.9936939092450776,-0.0144856722063275,0.0162870943353838,-0.709450329036393,0.0006572453453514,-0.0006433427422249,0.0007516987421274,-4.904190401323794,4.137063129813903,-4.4339172522634325,2.9286174569779212e-05
320,1724915513411183590,-0.5024084448814392,0.1185844913125038,0.1553988754749298,-0.0052416552789509,0.0106257479637861,-0.346903383731842,0.9378260374069214,0.0,0.0,0.0,0.0233106014607027,0.0371484005041803,-0.0369558009848916,1.387931196,-0.2532041267774668,-0.0004007031254517,0.0670106369810945,-3.4211501155249806,3.13336793018438,6.3679903493870125,-0.0172068705905931,0.016294231325003,-0.7087269934325283,-0.0029181446793522,0.002581388533092,-0.0030828760906391,28.7725269483815,-26.598866398089793,25.457131997971153,-1.6579877750494912e-05
322,1724915513420245741,-0.5024060010910034,0.1185775995254516,0.1553580909967422,-0.0048564178869128,0.0106597505509853,-0.3466624319553375,0.9379168152809144,0.0,0.0,0.0,0.2788555267834809,-0.2055251308245698,0.2695178467774473,1.396993347,0.0766717698159948,0.0360402508171913,0.0577641371670459,12.755093999817165,0.9706886670135542,-5.161470968338881,-0.0165035330744147,0.0166296097653843,-0.708209030816767,-9.22907583600363e-06,0.0009275429782897,-0.0009959374508534,11.070201705446433,-16.527752393661334,11.684155581594757,-4.072803953370592e-05
324,1724915513430786373,-0.5024095177650452,0.118608072400093,0.1553905606269836,-0.0052323616109788,0.0108463466167449,-0.3468925654888153,0.9378275871276855,0.0,0.0,0.0,0.1855360044938012,-0.25405690111429,0.1212947963212977,1.407533979,-0.0787941272381795,0.0088713459576294,-0.0474126100321993,1.6271159441466114,-2.601377716683261,-6.138055206877539,-0.0173424318243854,0.0167146497454573,-0.7087104006603383,0.0024134266170996,-0.0015211133409795,0.0023258756757282,-115.40454617725148,104.50086711432462,-44.360429952122814,3.244565806359946e-05
326,1724915513443357511,-0.5023379921913147,0.1185228005051612,0.1554084867238998,-0.0041862381622195,0.0102934036403894,-0.3472992181777954,0.9376885890960692,0.0,0.0,0.0,-2.8627310120717047,2.695428418092709,-0.8906233982027231,1.420105117,0.1871872929049522,-0.024188320202639,-0.0670001512932052,13.258257612540572,-1.783044108585582,-0.4651300498904092,-0.0150031371931472,0.0163969945347715,-0.7095477948492781,0.0040815892158612,-0.005040998394403,0.0009443537824325,8895.140717100974,-6966.115912797399,2852.5477729468485,1.9450604396564984e-05
328,1724915513473503248,-0.5023311972618103,0.1184967756271362,0.1554021388292312,-0.0040509589016437,0.0099742086604237,-0.3473289608955383,0.9376815557479858,0.0,0.0,0.0,925.8450124109182,-727.8435205143091,297.1307276034135,1.450250854,0.0157888126271771,-0.016727154608037,-0.0020086306398644,-34836.531162641826,661.1656319261751,13325.017824509938,-0.0145280274425977,0.0158919012110924,-0.7096008274605257,-0.2987565952039404,0.2913077063652167,-0.0823427740790521,-11675.723381537944,-7174.569456057157,-7212.131622956833,-6.217595084180433e-06
330,1724915513473786873,-0.502416729927063,0.1185801774263382,0.1553785651922226,-0.0053611821494996,0.0104898046702146,-0.3468075692653656,0.9378623366355896,0.0,0.0,0.0,922.420120578234,-729.8328862518655,295.0395607851874,1.450534479,-9.957667573143873,0.1725595911428718,3.812851271609371,12397.392155520376,5983.337204822931,-4899.86163219097,-0.0173350642678081,0.0159580656429035,-0.7085202060523593,-0.0336664024634956,0.082904623205934,0.0027311869126265,-91180.62367284855,55333.298415065045,-32738.687831423653,-2.5336220111711233e-05
332,1724915513474080906,-0.5023449659347534,0.1185401901602745,0.1554055362939834,-0.0040564066730439,0.0105597013607621,-0.34726682305336,0.9376981258392334,0.0,0.0,0.0,871.4969287564151,-694.5581625125108,277.68126242991065,1.450828512,8.185449893893502,3.5522826848393567,-3.2214398320773925,59155.17326615874,11007.738775700733,-22934.954380208743,-0.0149441500211786,0.0169871303973923,-0.7094842490857223,0.2338275121491975,-0.1301811478066831,0.0879850493503764,-171362.6620612763,119216.48273665248,-58304.479717118935,2.8576639248864013e-05
334,1724915513481045042,-0.5024056434631348,0.118592694401741,0.1554008722305297,-0.0051782405935227,0.0107738692313432,-0.3469023406505584,0.937825083732605,0.0,0.0,0.0,-20.701318673187156,11.625900115097709,-7.829831014653218,1.457792648,-0.3244189353084437,-0.0550161619444583,0.107661668612975,-733.627579886135,-314.6773234638381,288.5903717494283,-0.0171907484018327,0.016616086654007,-0.7087283315454921,-0.0051288611194166,0.0045895942537086,-0.0013040413506821,-77368.52914423129,61407.55812142364,-24713.829155973504,-5.989414178532889e-06
336,1724915513491926401,-0.5024005174636841,0.1185924857854843,0.1553758978843689,-0.0052434070967137,0.0106685142964124,-0.3467637300491333,0.9378771781921388,0.0,0.0,0.0,0.1841106156142355,-0.1768489182850702,0.1018523667532803,1.468674007,-0.0047403127925207,-0.0225504794207742,0.0269849639646126,17.466733772606055,4.002935162427843,-4.540837436729319,-0.0172374160202914,0.0163757972591345,-0.7084304674489558,0.0010281162873155,-0.0002655769892951,-0.0016389334843918,855.3776743431271,-483.7261425234185,334.0585231456809,-2.484657674084764e-05
338,1724915513500871057,-0.5023872256278992,0.1185882985591888,0.1553660631179809,-0.0049428003840148,0.0106566082686185,-0.3467358350753784,0.9378893375396729,0.0,0.0,0.0,0.0119510650157368,-0.0850362591026041,0.1865818308567353,1.477618663,0.0639100961607434,0.0207491772397077,0.0074956664265788,-0.7676350306688529,3.115001473500958,-1.8455911288738456,-0.0166647123568465,0.0165625037191281,-0.7083666637854302,-0.0001317134240856,0.0001329540736101,0.0002472764490448,-15.83898933964946,10.326451291818849,-4.126728498997314,-9.52867389354468e-06
340,1724915513511206986,-0.5024079084396362,0.1185968518257141,0.1553847044706344,-0.0051027149893343,0.0108935143798589,-0.3467709720134735,0.9378726482391356,0.0,0.0,0.0,-0.11105332930876,0.0224368126060367,-0.0184971563379919,1.487954592,-0.044859846242654,0.0323328687190804,-0.0075996082866892,5.276979350138629,-0.187364668218935,-3.8476294013161425,-0.0171297851850019,0.016895315274498,-0.7084507131442235,0.0016832460174427,-0.0022937638874536,0.0018856175389219,-6.655182445986536,9.142984864169556,-14.15129560976512,1.815738668390526e-05
342,1724915513523212507,-0.502336323261261,0.1185257881879806,0.1554084867238998,-0.0037391963414847,0.0104603674262762,-0.3472768366336822,0.937696933746338,0.0,0.0,0.0,-0.1178050664827812,0.1147020550298251,-0.1090438500152683,1.499960113,0.2388273958021401,0.01184245777824,-0.0870809341676932,-36.52397495686846,-8.158694811885919,13.132840516058195,-0.0142803063587929,0.0170210582370263,-0.7094985655120892,-0.0036472923387762,0.0015625060339896,-0.000804771617016,33.62479056851078,-18.11020923094107,10.84193556532879,2.538457058414993e-05
344,1724915513530963080,-0.5024126768112183,0.1185753345489502,0.1553883105516433,-0.0051017557270824,0.0106225637719035,-0.3468486368656158,0.9378470778465272,0.0,0.0,0.0,0.3138668701972034,-0.1547337218665021,0.0669745153038923,1.507710686,-0.3452422163834701,-0.083675357333546,0.1135443250114225,-22.936195256697523,-2.8851561661463236,8.007192852607188,-0.016941261600557,0.0163863400583452,-0.7086082893011039,-0.0029281487311578,0.0014182297366414,-0.0010742436942097,14.589968090580712,-6.734180812109365,10.74669733652443,-2.1853083367418186e-05
346,1724915513541797861,-0.5023395419120789,0.1185153573751449,0.1553998291492462,-0.0040357415564358,0.0103867370635271,-0.3472188115119934,0.9377179145812988,0.0,0.0,0.0,-0.1506504096834065,0.1968408152464489,0.0022073197406372,1.518545467,0.2002491220783404,0.0280276561719678,-0.0704853452278019,14.492774954269088,1.6293786276569535,-5.404927449328247,-0.0147843098990478,0.0166778612134677,-0.7093767933533185,0.0038210886247078,-0.0023199720293662,0.0011924331526227,-34.94299978325167,24.230423304286923,-8.162390457530838,1.312400377815955e-05
348,1724915513551544029,-0.5023279786109924,0.118520937860012,0.1554125845432281,-0.0039671389386057,0.0101932324469089,-0.3473184406757355,0.9376834630966188,0.0,0.0,0.0,-0.4216908312175028,0.3609455337858861,-0.0964976408220266,1.528291635,0.0271725526114383,-0.0321916695994421,-0.0216402246483971,-28.033083830799075,-1.798705895269865,9.288679993537183,-0.0145228905268498,0.0163610599050555,-0.7095831462769416,-0.0044290437148788,0.0043489170359798,-0.0006007776382084,30.768070129271155,-31.728457039308587,3.510328337326631,1.300725651843936e-05
350,1724915513560504672,-0.5024139285087585,0.1185910180211067,0.1553914695978164,-0.0052784918807446,0.0106239067390561,-0.3468970060348511,0.9378283023834229,0.0,0.0,0.0,0.3366017605654819,-0.3234721364408982,0.047311997016031,1.537252278,-0.3086689817674091,-0.0122243833626043,0.0968277093886603,-7.633534928016762,4.133695845154399,3.427574912818089,-0.0172745851080866,0.0162653319699119,-0.7087138716573186,-0.0047079031502903,0.0049196376649085,-0.0007446475933763,37.14708573467313,-36.333020042510725,9.020265765821346,-2.295918215222416e-05
352,1724915513571067762,-0.5024028420448303,0.1186068579554557,0.1554036736488342,-0.0052642500959336,0.0109298098832368,-0.3468425869941711,0.9378448724746704,0.0,0.0,0.0,0.1377923137932325,-0.2085866629196798,0.055070950410807,1.547815368,-0.0176560483157147,0.0551660109577421,0.0110857414332713,26.81321127188918,-0.3854207931276099,-8.524441246148522,-0.0174593123508282,0.0168499974058507,-0.7086067452951271,0.0034265675023981,-0.0033182353305534,0.0005441753034531,-33.52691930300417,34.168953821986165,-5.332779857018069,1.2504535581570744e-05
354,1724915513581750624,-0.50234055519104,0.1185193583369255,0.1554028838872909,-0.0040034186094999,0.0103337885811924,-0.3472795188426971,0.9376961588859558,0.0,0.0,0.0,-0.379252209048384,0.4080911071587132,-0.0674496163781178,1.55849823,0.2608257284281728,-0.0220427705070835,-0.084380282427479,-25.95635939800725,-4.5415521270288925,7.796587741181689,-0.014687958474844,0.0166000595221447,-0.7095043971101822,-0.0019326947289499,0.000625639591564,0.0004092609579249,4.365594250380923,3.489716829605066,-7.936443944009787,5.61818037109155e-07
356,1724915513590152143,-0.5024080872535706,0.1185828670859336,0.1554095149040222,-0.005246982909739,0.0106071969494223,-0.346904307603836,0.9378259181976318,0.0,0.0,0.0,0.0060630128994894,0.0790520425209115,-0.1107876575316371,1.566899749,-0.300991396198929,-0.0424526726869238,0.0916835934927118,-23.964333227899875,1.256567510346756,8.717230736458754,-0.0172039993136873,0.0162557224061801,-0.7087285062304339,-0.004310136538173,0.0043113393865166,-0.0005196375588107,32.089324829131144,-32.80811614642274,1.644459968570757,5.197375797903455e-06
358,1724915513600538274,-0.5024049878120422,0.1185859441757202,0.1553873121738433,-0.0052083800546824,0.0106933452188968,-0.3467827141284942,0.9378701448440552,0.0,0.0,0.0,0.162504732115471,-0.1800876481962532,-0.0063629668201799,1.57728588,0.0010128589235795,0.0179232203002101,0.0250791008506363,12.191754063247776,2.4754951532847795,-5.165397890097221,-0.0171892738697446,0.0164463275105234,-0.7084712621764812,-0.0005360139084515,0.0005147377870979,-0.0016731750885217,-14.571108199243348,-29.17032416048391,-22.12553735621687,-2.2115842743555897e-05
360,1724915513610151062,-0.5024175643920898,0.1185928359627723,0.1553753614425659,-0.0053333900868892,0.0108005898073315,-0.3468421101570129,0.9378462433815002,0.0,0.0,0.0,-0.2412158010117531,-0.4980392285184449,-0.5053554625824924,1.586898668,-0.0320246513558811,0.0120246328344345,-0.0134763360600999,-1.838793147216268,-0.7658741890828543,-2.4359541702373804,-0.0174992907096788,0.0165596534370068,-0.7086028034174552,-0.0007610920156659,0.0004336154264952,-0.0008028024518438,-11.050298812713484,13.576114678227942,6.920153971633727,-1.2231266955325587e-05
362,1724915513630628110,-0.5024092793464661,0.1185893565416336,0.1553781330585479,-0.005369100254029,0.0107018807902932,-0.3467902541160583,0.9378662705421448,0.0,0.0,0.0,0.8824564851045764,1.814918705926182,2.202484975723081,1.607375716,2.8571939780483236e-05,-0.0102995846065287,0.005339354706214,1231.5466941737589,-34.57763555601325,680.7122807456007,-0.0174968433890225,0.0163506913026973,-0.7084896865853461,-0.015200967449573,-0.0311211033516087,-0.0371440707076544,163.35510242016107,319.85057980752117,378.6982141706094,2.9587720929968662e-06
364,1724915513631140382,-0.502417266368866,0.1185730174183845,0.1553586274385452,-0.0052152867428958,0.0106381066143512,-0.3467048704624176,0.9378995299339294,0.0,0.0,0.0,0.967528955132858,1.981420679189163,2.399639968201215,1.607887988,0.6466782258354382,-0.0284418956247586,0.362761055258921,1189.765624255949,-33.1825029778092,657.5472595963223,-0.0171625300650234,0.0163393467778461,-0.7083037250220308,-0.0147285635046152,-0.0301483639630556,-0.0359648294981027,157.08066474124482,307.4050062712781,363.6901438818253,-1.972772463219168e-05
366,1724915513640040212,-0.5024149417877197,0.1185748279094696,0.1553650796413421,-0.0051086377352476,0.0107007529586553,-0.3466912806034088,0.9379043579101562,0.0,0.0,0.0,0.9757616141661972,1.9926561800428728,2.362558055716077,1.616787818,0.0175704188429829,0.0214856849443533,0.0035688473625189,-38.381395480531886,3.140439195513836,-22.531203438002436,-0.0170056857889067,0.0165310782642561,-0.708275145053739,0.0008950088726606,0.0002494056016955,0.0004912472360123,-39.73699731948196,-77.9901614797914,-95.43160614086432,6.509199209220134e-06
368,1724915513651262838,-0.5023959279060364,0.1185782775282859,0.1553672850131988,-0.0048344265669584,0.0107298446819186,-0.3466787040233612,0.9379101395606996,0.0,0.0,0.0,-0.0456269542215729,-0.0041538016197995,1.3652533965791136e-05,1.628010444,0.0440169636616142,0.0217820246192175,0.0030087364776693,-6.60633459197115,0.1969343007048569,-2.3365877872162284,-0.0165112061589937,0.016776061659867,-0.7082454905285712,0.0008111528935472,0.002476007741313,0.002470504869537,-43.54813745167224,-91.78941049434953,-108.72804123340195,2.6568116407964985e-06
370,1724915513660860961,-0.5023953914642334,0.1186198443174362,0.1554096639156341,-0.0052131256088614,0.0109964786097407,-0.346846342086792,0.9378430247306824,0.0,0.0,0.0,-0.0739910705859546,-0.1780747996448278,-0.2080159196307974,1.637608567,-0.092965615698539,0.0250720556514731,-0.0381889420495379,-1.2316898879651028,-1.837126025816884,0.5280327987457192,-0.0174097618288221,0.0170104547580524,-0.708616093490852,6.001487760087798e-05,0.0007733970599002,0.0010230233233556,2.655357757149108,-1.1419143448892255,-4.741505151707752,4.246872344703413e-05
372,1724915513670171853,-0.5023947954177856,0.1185949146747589,0.1553885489702224,-0.0051732505671679,0.0109239919111132,-0.3468019068241119,0.9378604888916016,0.0,0.0,0.0,0.001408434466626,-0.0353537826809501,-0.0992250607754166,1.646919459,0.0133479557986356,-0.0117226841895288,0.0102656725622388,4.413776078812592,-2.27693747965364,2.6176203916007412,-0.0172838264896214,0.0169029793486728,-0.7085185737780968,-0.0005903603599151,-0.0008908237901046,-0.0014304996962053,4.641046435063601,11.18456041170325,12.545544785813368,-2.1147440534792635e-05
374,1724915513680232715,-0.5024078488349915,0.1186053752899169,0.1553832590579986,-0.0052882079035043,0.0108788199722766,-0.346760481595993,0.9378758072853088,0.0,0.0,0.0,0.0105201041805278,0.0321239303110971,0.036357196032377,1.656980321,-0.018392362821915,-0.0164228554531751,0.0084831804815067,0.2663012651111183,0.2549632439559242,-0.8536813837696301,-0.0174673894744618,0.016739262809589,-0.7084304984710025,0.0001984882800272,0.0003122633785341,-0.0006427967679263,-3.7950025715630313,1.927023075722894,9.597336611222309,-5.577764438634165e-06
376,1724915513692650201,-0.5023824572563171,0.1185981035232544,0.1553734838962555,-0.005076291039586,0.0107852546498179,-0.3468356132507324,0.9378502368927002,0.0,0.0,0.0,-0.1086471195152675,-0.0172050341139173,0.0960839668161489,1.669397807,0.0373471052506199,-0.0021892951658705,-0.0124856755164613,-4.922910802221466,-3.5227123055047516,-0.3640513280352602,-0.0170062159833418,0.0167094077706359,-0.708585020083025,-0.0007113311565305,-0.0006292143664836,-0.000834056849774,3.641666807112803,0.1352411439112441,5.07692022887457,-9.184139482059971e-06
378,1724915513700750378,-0.5024027824401855,0.1185927763581276,0.1553664803504943,-0.0053529748693108,0.0106480820104479,-0.3468641936779022,0.9378396272659302,0.0,0.0,0.0,-0.0091985039042174,0.0055955872618287,0.1386188703843847,1.677497984,-0.0522599071904099,-0.0553942680498737,-0.0084354676694239,-2.6023803650015163,0.3190413673043741,1.7746472720770987,-0.0174305272186525,0.0162595923309436,-0.7086455377132035,-0.0017783256935537,-0.000458868862573,0.0005333245414513,18.237722574690267,-3.88347744116294,-1.0418834607216372,-7.497112561752205e-06
380,1724915513710618436,-0.5024115443229675,0.1185906380414962,0.1553885489702224,-0.0051894416101276,0.0107494359835982,-0.3467533588409424,0.9378804564476012,0.0,0.0,0.0,0.2424268421183516,-0.1132523909072509,0.0526845283467115,1.687366042,0.0237635988387947,0.0305530340246387,0.0244002100895089,6.774643922207819,6.892001771812129,-3.1579696046601624,-0.0171921633505894,0.0165652168259427,-0.708410077276614,-0.000396112035105,-0.0005891986325368,0.0015382864727113,10.769743207747393,-7.793613882265674,-12.33900412409011,2.184925470959397e-05
382,1724915513721697284,-0.502409815788269,0.118579477071762,0.1553969085216522,-0.0045796083286404,0.0110171660780906,-0.3472349345684051,0.9377022981643676,0.0,0.0,0.0,0.1785380911688773,-0.1467331753726808,-0.1291764254702913,1.69844489,0.0872593490434253,0.0843002398976982,-0.0912536597109626,4.7365627789722025,-5.199174963120491,-1.9352205292593108,-0.0162429045633155,0.0174821343873581,-0.7094366355426155,0.003562839497782,-0.0030882862430257,0.0015105661774015,-33.046863210956154,22.636471941463924,-12.509117340164549,8.387919524229498e-06
384,1724915513730619391,-0.5023535490036011,0.1185369715094566,0.1554158180952072,-0.0041231727227568,0.0106831435114145,-0.3474385142326355,0.9376327991485596,0.0,0.0,0.0,-0.3123233819031148,0.2395940198418766,-0.2127183918568638,1.707366997,0.1223723529396276,-0.0343025124764775,-0.0474172010870019,0.6067755007382054,-10.414486845016908,6.571004939954011,-0.0151583296038036,0.0171694770544746,-0.7098548157284887,0.0038710205248051,-0.0038309745020832,-0.0005521430463035,-31.94146105471498,32.38923587645178,5.730474211009248,2.0179941769667497e-05
386,1724915513740444899,-0.5023418664932251,0.1185094267129898,0.1553814858198166,-0.0038761347532272,0.0100403912365436,-0.3472795486450195,0.9376999139785768,0.0,0.0,0.0,-0.3764856959551915,0.4397761244755895,0.0069087763622672,1.717192505,0.0923160964537094,-0.1054820879468884,0.0350839038842448,-20.949766656101374,0.7206661340580784,7.039245165684299,-0.0142452842514641,0.0161382438485487,-0.7094949340658394,-0.002950923601567,0.0020163605681222,-0.0024423305870415,24.46881708955901,-13.47387691436804,18.647834158891143,-3.408103509616466e-05
388,1724915513750233800,-0.5024111270904541,0.118576169013977,0.155367836356163,-0.0052252230234444,0.0104351034387946,-0.3468481600284576,0.9378487467765808,0.0,0.0,0.0,0.1653526716897628,-0.0222146115158162,0.1533186010347718,1.726981406,-0.2872375243919856,-0.0207491377011281,0.0907526267136324,-10.198959700127087,8.695768322018116,-1.1503047322848567,-0.0170427230411462,0.0159490555401915,-0.7086034244112368,-0.0035367497075462,0.0048063262733659,-0.0004311947041673,28.70608790813049,-35.278061126712586,1.8124111566118413,-1.5081436794851895e-05
390,1724915513760983682,-0.5024073719978333,0.1186040863394737,0.1553745716810226,-0.0053890361450612,0.0109150260686874,-0.3468585610389709,0.9378384947776794,0.0,0.0,0.0,0.1593755671702494,-0.2607634386135588,0.0176306056912766,1.737731288,-0.0595424666630445,0.0731985496104921,-0.0023278703383305,15.74927465793198,-0.3463897160899671,-2.1056098097787643,-0.0176834292998554,0.016735377768713,-0.7086420930743793,0.0008992874673658,0.0009406355061036,0.0006015329764252,-11.945785739244466,-2.61493861911166,-7.413175505377688,6.895047864827176e-06
392,1724915513771116251,-0.5023930072784424,0.1185977980494499,0.1553804278373718,-0.0051880860701203,0.010750270448625,-0.3466757833957672,0.9379090666770936,0.0,0.0,0.0,-0.0704462664892524,-0.1002958953248607,-0.0077333073533405,1.747863857,0.0481597322223791,-0.0170871174602153,0.0389239646088925,2.702944706183382,-3.5464485874919287,-1.941101245123076,-0.0171888285076445,0.0165691427692739,-0.7082446258356655,9.513454684650924e-05,-0.0007575796653034,3.103674851701044e-05,-0.6196913769256929,9.485143822145105,6.0108745894037225,6.181506414618707e-06
394,1724915513780478519,-0.5024035573005676,0.1185895204544067,0.155375987291336,-0.0051744640804827,0.0107244895771145,-0.3468131721019745,0.9378586411476136,0.0,0.0,0.0,0.1145982630651179,-0.066438673994596,0.1221934005333232,1.757226125,0.0048982031225885,-0.0038885506578573,-0.0312588224251108,2.7365200555539246,4.582225968695233,-7.038716427316726,-0.0171478024915736,0.0165277182969467,-0.7085366486828681,-0.0004872662584709,-0.0011143636360575,0.0003787907664154,-1.0187441351376645,10.520720737264906,-0.7200898366080304,-4.708143418742016e-06
396,1724915513790419476,-0.5024016499519348,0.1185760125517845,0.1553887575864792,-0.0045383893884718,0.0108831152319908,-0.3472702205181122,0.9376909732818604,0.0,0.0,0.0,-0.1149092912523266,0.1110258770411212,-0.0390506708131137,1.767167082,0.1097618065141296,0.0751498383213122,-0.0963999445367135,6.1208193248071705,0.7393178457305554,-0.8837547485322573,-0.0160730628684251,0.0172587596443447,-0.7095073775151847,0.0025182055906327,-0.002073862153848,0.0024912396611052,-19.848135132012978,14.235782318641055,-18.92705537929505,1.2798819525896611e-05
398,1724915513802836925,-0.5023342967033386,0.1185391694307327,0.1554384082555771,-0.0039173844270408,0.0104698603972792,-0.3473904728889465,0.9376540184020996,0.0,0.0,0.0,-0.3111337757799324,0.2317094470030137,-0.3160625114051933,1.779584531,0.1170873098093055,-0.0275259213026145,-0.0194419859815791,-45.540344649582735,-9.255679096055768,17.940420680619056,-0.0146231745904193,0.0169132956468529,-0.7097436593654302,-0.0053804601137912,0.0025240120813201,-0.0018954365785752,36.1283785051031,-16.94052113930857,14.9813106386491,5.114135073654849e-05
400,1724915513810294293,-0.5024228096008301,0.118582583963871,0.1553978770971298,-0.0055419476702809,0.0106751164421439,-0.3467880487442016,0.9378664493560792,0.0,0.0,0.0,0.1908637774759149,-0.0140180361949323,-0.0373375863265527,1.787041899,-0.4291212048663181,-0.1009693198548848,0.1669374573260073,-26.9829780943982,-0.5181760883506894,9.339247659016074,-0.0178024897882472,0.0161806107080125,-0.7084864880152894,-0.0062453437581169,0.0036313788355339,-0.004085807898563,42.72494364144216,-24.69028082012413,30.048679628620025,-4.250214450312189e-05
402,1724915513821569095,-0.502397358417511,0.1185861900448799,0.1553748100996017,-0.0051474594511091,0.0108434734866023,-0.3467644155025482,0.937875509262085,0.0,0.0,0.0,0.2533964767549432,-0.1515812416931284,0.176554806000983,1.798316701,0.0552366199257098,0.0522355130581197,0.0054015893435275,16.396054178571738,3.0750860284015347,-7.819165987816892,-0.0171788743498927,0.0167705310106321,-0.7084358950705926,0.0011371344142787,0.0007031031306805,-0.0001364042270957,-14.324084700600604,-2.0735368415157045,-2.0999884356431027,-2.2444124559988253e-05
404,1724915513831504671,-0.5023958683013916,0.1185965314507484,0.1553901731967926,-0.0052314740605652,0.0108248041942715,-0.3468347191810608,0.9378492832183838,0.0,0.0,0.0,-0.0628946249364187,-0.0835132996202895,-0.0287937664858131,1.808252277,-0.0144317873082976,-0.0092589462855683,-0.0153061013510094,-2.8800665378704604,-4.290529783673284,-0.0259022616333795,-0.0173247796123844,0.016675928917086,-0.7085864056409465,0.0001405199753108,0.0001438445241044,9.668048434896548e-05,-13.082236951123416,8.826826824627652,-10.85987048176132,1.5418143673285986e-05
406,1724915513842007957,-0.5023944973945618,0.1185880824923515,0.1553750932216644,-0.0052857110276818,0.0106591051444411,-0.3467980027198791,0.937864363193512,0.0,0.0,0.0,0.0079100780946701,0.0311366207173449,-0.0339540709069674,1.818755563,0.0011968682330408,-0.0332405148950167,0.0072759726642139,1.6943448984189522,-0.5318544480010632,2.070190857651513,-0.0173108447750125,0.0163281671921343,-0.7085038267117785,-0.0001046670093423,-0.0010356083950133,-0.0007859405906813,10.021250419016642,1.2079933075869604,3.271041795451419,-1.506457413553894e-05
408,1724915513850980478,-0.5023972392082214,0.1185770183801651,0.1553730219602584,-0.0052471039816737,0.0105282729491591,-0.3466921150684356,0.9379053115844728,0.0,0.0,0.0,0.12296709449347,-0.0324321865585978,0.024233242667609,1.827728084,0.0179811873130989,-0.0245884454989886,0.0252390716892724,-0.0557555542188159,3.6734224387439554,-1.5857796508241973,-0.0171457770818793,0.016111484114121,-0.7082737007459929,0.000205862958726,0.0003431378267597,-0.000706747759775,-1.7301309774046243,-0.0296905933707769,6.675451616783026,-2.1629415965248256e-06
410,1724915513860749263,-0.5023897886276245,0.1185971349477768,0.1553610563278198,-0.0051946244202554,0.0107164597138762,-0.3468230962753296,0.9378549456596376,0.0,0.0,0.0,-0.0487199315481082,0.042314237271324,0.0914692727395121,1.837496869,-0.0030520228321461,0.0401100350883477,-0.0284107970444272,6.330442116236313,1.35805452201461,-4.28967935283174,-0.0171802230859308,0.016498486505709,-0.7085578395572867,0.0023468534354798,-0.0019529423175255,-0.000306153020265,-18.4708018045187,17.95157695889157,0.0935410339279526,-1.173915545802295e-05
412,1724915513872631746,-0.5023390054702759,0.1185159385204315,0.1553706973791122,-0.0041541149839758,0.0102025661617517,-0.3471801280975342,0.9377337694168092,0.0,0.0,0.0,-0.2811454843356916,0.4044951539225906,-0.0055471349359541,1.849379352,0.1947865148712054,-0.019849669208261,-0.0620055061698254,-27.73460800516139,0.5823723665814573,9.687657474234417,-0.014877677510312,0.0162508445759725,-0.7092908595614503,-0.0021039643047302,0.0025586398395383,0.0015100777694421,25.07776054679959,-28.10568094936308,-6.196891848826983,1.0699529930838822e-05
414,1724915513880733224,-0.5023912787437439,0.1185885444283485,0.1553867906332016,-0.0051729707047343,0.0106514487415552,-0.3468436300754547,0.9378482699394226,0.0,0.0,0.0,0.1685840048904873,-0.1468069100036849,-0.0448819885720317,1.85748083,-0.2750648763281365,0.0159575433780644,0.0856060170019557,-25.603298587000054,3.323001688534149,8.49581080022319,-0.0170948264269531,0.0163911956383223,-0.7085994404677594,-0.0038656215066374,0.0059726980632817,0.0005902203253356,28.11579858281805,-43.260716519152105,-0.5465489207543981,1.502482159826989e-05
416,1724915513892507331,-0.5023925304412842,0.1186077147722244,0.1553698480129242,-0.0052203643135726,0.0108979269862174,-0.3467371165752411,0.937884509563446,0.0,0.0,0.0,0.0308279077891845,-0.2319852793341142,0.0224121609356229,1.869254937,-0.0222325956003006,0.0363142662604201,0.0192342737828346,36.21630337936555,-0.0369717757659651,-15.880427878839464,-0.0173529553568403,0.0168225991285861,-0.7083802791072948,0.0047249610994626,-0.0054789772296253,0.0012366593564401,-51.75661347898323,53.554858830189985,-6.541223572354726,-1.6924949795265148e-05
418,1724915513900095929,-0.5023330450057983,0.1185313761234283,0.1553923189640045,-0.0040350770577788,0.0105652241036295,-0.3472894728183746,0.9376898407936096,0.0,0.0,0.0,-0.5578483699000616,0.47173944083158,-0.0871735232904073,1.876843535,0.3247045872994766,0.0273966791708386,-0.1513757635915992,5.849041072216565,-4.310151198210187,-4.2777668156205735,-0.014908393156521,0.0170119475961081,-0.7095324579066575,0.0015411467941852,-0.0036170206177148,0.0012478222997955,-48.36009967360985,62.64349541983782,-12.468975513255788,2.379307888831118e-05
420,1724915513910900490,-0.502413272857666,0.1185914054512977,0.155379444360733,-0.0052987374365329,0.0106485150754451,-0.3468571305274963,0.937842607498169,0.0,0.0,0.0,-0.630951809054172,0.6856727976607578,-0.1915614155832779,1.887648096,-0.225423123592219,-0.0673999429659259,0.0824545250084118,-45.004982241727255,-7.712393481355243,19.14581685923665,-0.0173289588986109,0.0162981741024184,-0.7086298074979188,-0.0066136243935478,0.0049623685099753,-0.0010577049116096,201.0353253672593,-280.14402225588367,17.62629329219103,-1.4615095802724349e-05
422,1724915513997834681,-0.5024204254150391,0.1186076253652572,0.1553811430931091,-0.005356075707823,0.0108801266178488,-0.3468165397644043,0.9378546476364136,0.0,0.0,0.0,162.1983490142581,-233.47288680813153,20.42795514428402,1.974582287,-0.0030938074220485,0.0045317887691825,0.0009860478532653,1394.7728769068442,461.7988595331669,233.84254901287144,-0.0175966165037757,0.0166935786813909,-0.7085509836892891,0.0251310739607788,-0.0112384768573008,-0.0024460841028712,-847107.8466169195,966273.7948455064,97283.89533242604,1.5662345364503474e-06
424,1724915513998409574,-0.5024058818817139,0.1186011210083961,0.1553797274827957,-0.0051117995753884,0.010873444378376,-0.3467827141284942,0.937868595123291,0.0,0.0,0.0,-328.0256342841723,325.71492429722474,76.72473280258151,1.97515718,0.8040442095356233,0.2717692181389677,0.1363130657526965,10243.158531905372,-2221.010407752716,-3630.76706727756,-0.0171331082792384,0.0168511540464682,-0.7084753309089049,0.1189930185706771,-0.1463473019694277,0.0093755269847406,-201654.07311760844,497100.909019534,-173204.61261480994,-1.0803276070762033e-06
426,1724915513998775336,-0.50234055519104,0.11851616948843,0.1553859114646911,-0.0040565617382526,0.0102525055408477,-0.3471531569957733,0.937743604183197,0.0,0.0,0.0,-250.27469331730737,396.86442596303425,-49.720947089499845,1.975522942,6.607544493412576,-1.1656108741235076,-2.0913680147954334,-36041.74808629848,-386.8299903856757,7351.280098675749,-0.014728925222089,0.0164126834219949,-0.7092333834249606,-0.1153140724331933,0.1032729689992493,0.0505077331470715,1348833.808698224,-1440310.2434837408,-612831.6046786888,7.58100472736632e-06
428,1724915513999017131,-0.5024154186248779,0.1185947731137275,0.1554034948348999,-0.0052629229612648,0.0106115257367491,-0.3469316363334656,0.9378156065940856,0.0,0.0,0.0,257.49100938572224,-212.71366568150003,-240.59915298707193,1.975764737,-10.404446537268578,-0.6928185605688636,1.8347245475841956,-14704.283892978958,5391.55063397068,7528.560612491299,-0.0172373805053549,0.0162522754019871,-0.7087870915351305,-0.1134381454999129,0.1535810734053768,0.0125624295121724,1363431.349119226,-1896475.0280060451,196358.6722149068,1.6012189466572604e-05
430,1724915513999272169,-0.5023915767669678,0.1185878068208694,0.1553905159235,-0.0050923083908855,0.0107684889808297,-0.3467649519443512,0.9378764629364014,0.0,0.0,0.0,407.0804214215343,-528.371355784637,74.66089774695227,1.976019775,0.816356764539402,1.6065931061490346,1.4120937136742613,18634.722604259947,-1143.1229494818149,-4464.77666160903,-0.0170233682964107,0.0166681283613657,-0.7084340482921151,0.0194115121576032,-0.0138600302062172,-0.0713065667134742,-854522.5015984962,401600.4614853928,821880.6733924595,-1.242395965492457e-05
432,1724915513999520683,-0.5024046897888184,0.1185876205563545,0.1553678512573242,-0.0052227303385734,0.0106655908748507,-0.3468072712421417,0.9378612637519836,0.0,0.0,0.0,-154.24304581152384,-31.602820702427763,178.59649252019764,1.976268289,-0.6942055759771496,-1.1375801519084343,-0.3773570420573442,16408.194095331382,-1726.3854555003825,-11504.408294206094,-0.0171973575426345,0.0163838603379589,-0.7085229762915775,0.0930141560560287,-0.1141322562789639,0.0449604171324153,-2284339.9112870176,2069222.8219552888,-775449.2301408633,-2.2968557840691575e-05
434,1724915513999773872,-0.5023435354232788,0.1185294762253761,0.1554143577814102,-0.0040928018279373,0.0103544471785426,-0.3473424613475799,0.9376722574234008,0.0,0.0,0.0,-739.2215672535195,510.4271166962983,-325.6501708003194,1.976521478,9.260624014740705,0.8283837055989995,-4.400321515605655,-17865.94223019662,-304.0992492442829,8574.709461562858,-0.0148710827342751,0.0165757070291531,-0.709640426989649,-0.0622236699097129,-0.026205435445604,0.0155658816610753,-875588.1176749268,1036889.843183104,-1116415.0995315309,4.7828328171665824e-05
436,1724915514000026827,-0.5024360418319702,0.1185742616653442,0.1553758084774017,-0.0052957697771489,0.0106303449720144,-0.3468601703643799,0.9378416538238524,0.0,0.0,0.0,-598.0879193917702,493.7291487075474,-386.87970047337006,1.976774433,-9.710195424659585,-1.287723658965832,3.951236896159872,-55819.645930227925,-6036.19508854223,24674.26274663327,-0.0173108280045568,0.0162660946912084,-0.7086356824871441,-0.2810794213962708,0.1441410474963795,-0.1197674374487078,661777.9412856274,-206846.37871515748,-60354.39535028366,-4.060818540305925e-05
438,1724915514000908838,-0.5024237036705017,0.1186001896858215,0.1553705185651779,-0.0051969201304018,0.0108535764738917,-0.3468368351459503,0.9378482699394226,0.0,0.0,0.0,304.9537949282183,-121.83798221765824,118.6992848437868,1.977656444,0.0341541668217822,0.5520314297259359,0.0598917594097966,10112.135511120314,1904.2301903977104,-4039.0235483708448,-0.0172799702692428,0.0167538329401114,-0.7085912673854788,0.012871739170631,0.0269718042881144,-0.0054380347885736,934464.232816156,-637769.7543187395,523640.3752969048,-4.935186628308438e-06
440,1724915514010446568,-0.5024161338806152,0.1186073645949363,0.1553763598203659,-0.0053586671128869,0.0108156343922019,-0.3468600511550903,0.9378392100334167,0.0,0.0,0.0,-0.7777941550487616,-1.6756368737215677,0.3884257430993692,1.987194174,-0.0290068020454998,-0.0191795622317445,-0.0056340698142039,-2.639515761402195,-35.18374053898842,-3.5446914260761337,-0.0175574714580399,0.0165699951766482,-0.7086418139597284,0.0005875523040703,-2.7471550032576175e-05,-1.693272623182196e-05,-18773.74442035148,7439.471253964555,-7280.875400391966,6.03954135071e-06
442,1724915514023968054,-0.5024121403694153,0.1185920462012291,0.1553640663623809,-0.0053340732119977,0.0106534818187356,-0.3467955887317657,0.937865138053894,0.0,0.0,0.0,-0.0364654271535696,0.0201335030045502,0.1560933656908083,2.00071566,0.0116482925230168,-0.0213243219483232,0.0101831795195109,-1.8317091214742316,5.763675640787934,-0.0664112318778242,-0.0173976277655667,0.0162841119466129,-0.7084991983149302,-0.0001499691201516,-0.0005412893610845,0.0017854880729188,31.2229833641294,27.08560312302767,-2.524965767361085,-1.2235465451443176e-05
444,1724915514030499016,-0.5024145245552063,0.1185903772711753,0.1553842276334762,-0.0053419405594468,0.0107784140855073,-0.3467777371406555,0.9378702640533448,0.0,0.0,0.0,0.092995146099457,-0.1131448270187674,0.1858399040577419,2.007246622,-0.0155772791368649,0.0349998743820517,0.0058498708682929,-3.851363254454317,7.975415370574229,-0.6227848602629626,-0.0174988012280535,0.0165133265034155,-0.708464979255981,-0.0003310933840973,-0.000226416040087,0.0028768279120099,-164.73840657493577,189.17151904812215,-65.52420083329262,2.0094153585449173e-05
446,1724915514114602975,-0.50240558385849,0.118602879345417,0.1553985178470611,-0.0051322123035788,0.0108392015099525,-0.3468761146068573,0.9378343224525452,0.0,0.0,0.0,-213.65426412616415,242.78487922538383,-81.22521374067873,2.091350581,0.0041968660330716,0.0031069340703226,-0.0024289887804871,11779.514906064034,-2007.9996792441652,-4248.106879838787,-0.017149302094035,0.0167710528645783,-0.7086737536116118,0.1382471392769275,-0.1845031871004607,0.0388006217839915,40999.97861935827,-57685.46182303026,20714.01184464537,1.4526044188717231e-05
448,1724915514115054122,-0.5023428797721863,0.1185191944241523,0.1554161161184311,-0.0040767854079604,0.0102265626192092,-0.3472959697246551,0.9376909732818604,0.0,0.0,0.0,-195.05187542521625,216.6136667705456,-71.82767849118099,2.091801728,5.34699581944448,-0.9076545873338282,-1.929229946511006,744.8562570857516,-828.6971459549261,-210.4086882577516,-0.0147513237159843,0.0163477367698528,-0.7095375779912589,0.0413366230129099,-0.074378669494024,0.0019585096196266,119952.26367117398,-122338.42700378648,58871.76636710335,1.8928770838530422e-05
450,1724915514115672030,-0.5023999810218811,0.1185672730207443,0.1553859710693359,-0.0051552741788327,0.010493435896933,-0.3468848764896393,0.9378347992897034,0.0,0.0,0.0,-54.311956846830824,86.57829996603587,-3.255477836288444,2.092419636,-3.5849703255311427,-0.412543370737563,1.3771867677781993,-2657.8440058655565,2100.894933626052,623.0539628940369,-0.0169526301998925,0.0161063417629788,-0.7086824674028149,-0.062466684961123,0.0362075571034381,-0.0341004772206616,193571.9055301491,-160337.23277354497,85766.09200476657,-3.135002737153223e-05
452,1724915514116286543,-0.5024200677871704,0.11856409907341,0.155373990535736,-0.0044067590497434,0.0107613895088434,-0.3472192883491516,0.9377119541168212,0.0,0.0,0.0,43.74176230271327,18.671400047572018,34.04295110899463,2.093034149,1.9915292569729897,1.6727322374651918,-1.129350695287709,-5692.323346262866,-2844.7570904042404,2631.3917243395085,-0.0157406226282498,0.0171227803796222,-0.709393440292525,-0.0263683369325917,0.0329478533432734,-0.0024267181786399,90037.133261852,-107694.24771413078,-10358.22602249587,-1.2446669777927369e-05
454,1724915514116678849,-0.5024288296699524,0.1185865700244903,0.1553773134946823,-0.0051966048777103,0.0108461305499076,-0.3469187021255493,0.937818169593811,0.0,0.0,0.0,61.65113128983416,-22.873692762808304,12.183937779121491,2.093426455,-3.93997674358993,-1.0056163110581444,1.583544234296261,-10946.495508942911,-5070.381183129141,5104.5919577628565,-0.0172756712919183,0.0167385793847338,-0.7087656745806131,-0.0129652264223949,0.0462774971876847,0.00654570530412,-36347.913733355555,-7659.565764388259,-33706.12339685316,3.1620783587015417e-06
456,1724915514118015370,-0.5024034976959229,0.1185983270406723,0.1553772985935211,-0.0048749069683253,0.0108827305957674,-0.3468213379383087,0.9378553628921508,0.0,0.0,0.0,-360.29699225452174,414.20636820145165,67.36764817112446,2.094762976,0.4311704168120016,0.2170079521921512,0.1614524996604978,20598.07441506868,-6637.681781089059,-9843.826974819836,-0.0166958388477001,0.0170322344782515,-0.7085546690488362,0.1945857883918051,-0.2431551975935804,-0.0258315647988069,-470881.6627520053,605531.9821734503,73145.92719918591,6.066142779971326e-07
458,1724915514118278124,-0.5023432970046997,0.1185214221477508,0.1553691774606704,-0.0041361115872859,0.0103376246988773,-0.347184270620346,0.9377308487892152,0.0,0.0,0.0,-492.0388092699093,587.69877982139,88.23263889553107,2.09502573,6.738472263792545,-1.917201410669225,-2.8785840704827295,968.09385343338,-3509.1751521495175,-2734.931994747641,-0.0149378331498728,0.0165165843344823,-0.7093031471569563,0.0732829181537226,-0.1017379574787895,-0.0033991110397266,-272521.82067730336,380151.3211596272,38831.710027782014,-6.823591328879537e-06
