seq,stamp,px,py,pz,ox,oy,oz,ow,lx,ly,lz,ax,ay,az
198,1724813202696857611,-1.911669135093689,-0.630544126033783,0.15064576268196106,0.010388447903096676,-0.029677754268050194,-0.4866250455379486,0.8730449676513672,0.0,0.0,0.0,0.0,0.0,0.0
200,1724813202705155346,-1.911193609237671,-0.6307659149169922,0.15087275207042694,0.010371226817369461,-0.029913298785686493,-0.48638975620269775,0.8731681704521179,0.0,0.0,0.0,0.0,0.0,0.0
202,1724813202714264507,-1.9106967449188232,-0.6309760212898254,0.1510612815618515,0.00990358181297779,-0.030487682670354843,-0.48623794317245483,0.8732382655143738,0.0,0.0,0.0,0.0,0.0,0.0
204,1724813202726327432,-1.9102367162704468,-0.6311604380607605,0.15128852427005768,0.009489787742495537,-0.030727500095963478,-0.48612338304519653,0.8732982873916626,0.0,0.0,0.0,0.0,0.0,0.0
206,1724813202734596248,-1.909741759300232,-0.6313639283180237,0.15149272978305817,0.00897340476512909,-0.031344909220933914,-0.485959529876709,0.8733730316162109,0.0,0.0,0.0,0.0,0.0,0.0
208,1724813202744292296,-1.9092832803726196,-0.631610631942749,0.15170788764953613,0.008610819466412067,-0.031993355602025986,-0.48590952157974243,0.8733810186386108,0.0,0.0,0.0,0.0,0.0,0.0
210,1724813202756031735,-1.9088338613510132,-0.6318257451057434,0.151907816529274,0.008007984608411789,-0.03247399255633354,-0.48583248257637024,0.8734117746353149,0.0,0.0,0.0,0.0,0.0,0.0
212,1724813202764271226,-1.9084362983703613,-0.6320785880088806,0.1521855592727661,0.007350831292569637,-0.03286653757095337,-0.48567014932632446,0.8734931349754333,0.0,0.0,0.0,0.0,0.0,0.0
214,1724813202775195848,-1.9080229997634888,-0.6322996616363525,0.15248411893844604,0.00685515534132719,-0.0330892913043499,-0.4858427941799164,0.8733927607536316,0.0,0.0,0.0,0.0,0.0,0.0
216,1724813202785633232,-1.9076353311538696,-0.6324957013130188,0.15281444787979126,0.006487271748483181,-0.03299099579453468,-0.4861489236354828,0.873228907585144,0.0,0.0,0.0,0.0,0.0,0.0
218,1724813202795325710,-1.9072680473327637,-0.6327144503593445,0.15311726927757263,0.006270894780755043,-0.03326352685689926,-0.4864269495010376,0.8730652928352356,0.0,0.0,0.0,0.0,0.0,0.0
220,1724813202804796931,-1.906904935836792,-0.6329426169395447,0.15333683788776398,0.005869490560144186,-0.03367158770561218,-0.48669153451919556,0.8729050755500793,0.0,0.0,0.0,0.0,0.0,0.0
222,1724813202816148962,-1.9065088033676147,-0.6332431435585022,0.1536465436220169,0.006038927473127842,-0.03407907113432884,-0.48697400093078613,0.8727304339408875,0.0,0.0,0.0,0.0,0.0,0.0
224,1724813202824901522,-1.9060946702957153,-0.6334922909736633,0.15389712154865265,0.005491356831043959,-0.034460972994565964,-0.48714688420295715,0.8726226687431335,0.0,0.0,0.0,0.0,0.0,0.0
226,1724813202834749047,-1.9057936668395996,-0.6337218880653381,0.15414169430732727,0.004598202649503946,-0.03494848683476448,-0.48713362216949463,0.8726157546043396,0.0,0.0,0.0,0.0,0.0,0.0
228,1724813202844850295,-1.9054739475250244,-0.6340993046760559,0.154241144657135,0.005412575788795948,-0.03636116534471512,-0.48647207021713257,0.8729224801063538,0.0,0.0,0.0,0.0,0.0,0.0
230,1724813202854954769,-1.905291199684143,-0.6342070698738098,0.15431439876556396,0.004497443325817585,-0.03649602085351944,-0.486926794052124,0.8726683855056763,0.0,0.0,0.0,0.0,0.0,0.0
232,1724813202864671661,-1.905121922492981,-0.6343339681625366,0.15439046919345856,0.004358503967523575,-0.03714152052998543,-0.48684778809547424,0.8726860284805298,0.0,0.0,0.0,0.0,0.0,0.0
234,1724813202874777624,-1.9049570560455322,-0.634468674659729,0.15450246632099152,0.0035757895093411207,-0.03740059956908226,-0.48651957511901855,0.8728614449501038,0.0,0.0,0.0,0.0,0.0,0.0
236,1724813202884720950,-1.904758334159851,-0.634593665599823,0.15462876856327057,0.003290258813649416,-0.037767428904771805,-0.48614683747291565,0.8730543851852417,0.0,0.0,0.0,0.0,0.0,0.0
238,1724813202896837994,-1.9045050144195557,-0.6347045302391052,0.1551678478717804,0.002783762291073799,-0.03792630881071091,-0.48640984296798706,0.8729028105735779,0.0,0.0,0.0,0.0,0.0,0.0
240,1724813202905795646,-1.9042456150054932,-0.6347563862800598,0.1554194539785385,0.002373182913288474,-0.0379239022731781,-0.4862823188304901,0.8729751706123352,0.0,0.0,0.0,0.0,0.0,0.0
242,1724813202914635540,-1.9039902687072754,-0.6348382234573364,0.15567943453788757,0.0022187535651028156,-0.038133807480335236,-0.48602741956710815,0.8731083869934082,0.0,0.0,0.0,0.0,0.0,0.0
244,1724813202929731328,-1.9037095308303833,-0.6348933577537537,0.1559019237756729,0.0017361240461468697,-0.03814925625920296,-0.4859752655029297,0.8731378316879272,0.0,0.0,0.0,0.0,0.0,0.0
246,1724813202934396178,-1.903433084487915,-0.6349289417266846,0.1559721678495407,0.0007185412687249482,-0.039513830095529556,-0.48591792583465576,0.8731104731559753,0.0,0.0,0.0,0.0,0.0,0.0
248,1724813202945381905,-1.9031457901000977,-0.6349658966064453,0.1561923772096634,8.83669126778841e-05,-0.039775170385837555,-0.48617273569107056,0.8729569911956787,0.0,0.0,0.0,0.0,0.0,0.0
250,1724813202959462104,-1.9027276039123535,-0.634861946105957,0.1566050797700882,0.0010942842345684767,-0.038504377007484436,-0.4872014820575714,0.8724396824836731,0.0,0.0,0.0,0.0,0.0,0.0
252,1724813202964630159,-1.9024012088775635,-0.6350250840187073,0.1567954123020172,0.0009979018941521645,-0.03922506421804428,-0.48739391565322876,0.8723001480102539,0.0,0.0,0.0,0.0,0.0,0.0
254,1724813202976585068,-1.9021378755569458,-0.6351447701454163,0.15698237717151642,0.0008463466656394303,-0.039450712502002716,-0.4868824779987335,0.8725757598876953,0.0,0.0,0.0,0.0,0.0,0.0
256,1724813202985137255,-1.9018974304199219,-0.6352090239524841,0.1571682095527649,0.0004122947866562754,-0.03948436304926872,-0.4865671694278717,0.8727504014968872,0.0,0.0,0.0,0.0,0.0,0.0
258,1724813202995274900,-1.901716947555542,-0.6354791522026062,0.1573774367570877,1.802578663046006e-05,-0.03931508958339691,-0.48510655760765076,0.8735707998275757,0.0,0.0,0.0,0.0,0.0,0.0
260,1724813203006429662,-1.9014902114868164,-0.6356784701347351,0.15745367109775543,-0.000495778804179281,-0.039897412061691284,-0.48425382375717163,0.8740172982215881,0.0,0.0,0.0,0.0,0.0,0.0
262,1724813203014958615,-1.9012385606765747,-0.6358804702758789,0.15749657154083252,-0.0006773287896066904,-0.04044719412922859,-0.4836466908454895,0.8743280172348022,0.0,0.0,0.0,0.0,0.0,0.0
264,1724813203028227616,-1.9009544849395752,-0.6359588503837585,0.15754608809947968,-0.001053817686624825,-0.040923334658145905,-0.48330506682395935,0.8744943737983704,0.0,0.0,0.0,0.0,0.0,0.0
266,1724813203035427226,-1.900665521621704,-0.6360491514205933,0.15754422545433044,-0.0011884960113093257,-0.041398271918296814,-0.48285621404647827,0.8747197389602661,0.0,0.0,0.0,0.0,0.0,0.0
268,1724813203045064100,-1.9003452062606812,-0.6361643671989441,0.1575690507888794,-0.0013989944709464908,-0.04202873259782791,-0.48214325308799744,0.8750825524330139,0.0,0.0,0.0,0.0,0.0,0.0
270,1724813203055152706,-1.900014042854309,-0.6362338066101074,0.15763354301452637,-0.0016109909629449248,-0.04246697947382927,-0.4817153513431549,0.8752967119216919,0.0,0.0,0.0,0.0,0.0,0.0
272,1724813203064179348,-1.8996785879135132,-0.6363712549209595,0.15776583552360535,-0.0018064529867842793,-0.04295442998409271,-0.4811995029449463,0.875556230545044,0.0,0.0,0.0,0.0,0.0,0.0
274,1724813203076550854,-1.899275541305542,-0.6364510655403137,0.15768876671791077,-0.0016585661796852946,-0.043991588056087494,-0.48060667514801025,0.8758305907249451,0.0,0.0,0.0,0.0,0.0,0.0
276,1724813203084753670,-1.8990373611450195,-0.6365198493003845,0.15777087211608887,-0.0018594941357150674,-0.044634975492954254,-0.4797506332397461,0.8762668967247009,0.0,0.0,0.0,0.0,0.0,0.0
278,1724813203094405799,-1.898758888244629,-0.63658207654953,0.15790671110153198,-0.0020521662663668394,-0.04517617076635361,-0.47943729162216187,0.8764101266860962,0.0,0.0,0.0,0.0,0.0,0.0
280,1724813203104816900,-1.8984947204589844,-0.6366602778434753,0.1579897701740265,-0.0016836125869303942,-0.046145036816596985,-0.47902655601501465,0.876585066318512,0.0,0.0,0.0,0.0,0.0,0.0
282,1724813203114615248,-1.898245096206665,-0.6367019414901733,0.15813091397285461,-0.001276644878089428,-0.04662914574146271,-0.4788894057273865,0.8766350746154785,0.0,0.0,0.0,0.0,0.0,0.0
284,1724813203124921807,-1.897976040840149,-0.6367673873901367,0.15839095413684845,-0.0014743282226845622,-0.04725896567106247,-0.47855547070503235,0.8767833709716797,0.0,0.0,0.0,0.0,0.0,0.0
286,1724813203134410148,-1.8977105617523193,-0.6368598937988281,0.15855485200881958,-0.0012750464957207441,-0.04821530357003212,-0.4781210720539093,0.8769686222076416,0.0,0.0,0.0,0.0,0.0,0.0
288,1724813203144435796,-1.8973815441131592,-0.6369465589523315,0.15881037712097168,-0.0012100421590730548,-0.04901542514562607,-0.47797146439552307,0.877005934715271,0.0,0.0,0.0,0.0,0.0,0.0
290,1724813203154716383,-1.8970080614089966,-0.6370866894721985,0.15905235707759857,-0.0014754493022337556,-0.04958494380116463,-0.4780622720718384,0.8769240379333496,0.0,0.0,0.0,0.0,0.0,0.0
292,1724813203164381304,-1.8966606855392456,-0.6372216939926147,0.1591997742652893,-0.0010259936098009348,-0.050722636282444,-0.4774361252784729,0.8772006034851074,0.0,0.0,0.0,0.0,0.0,0.0
294,1724813203178969921,-1.8962777853012085,-0.6373555064201355,0.15935930609703064,-0.0008340107742697,-0.05106102675199509,-0.47733649611473083,0.8772353529930115,0.0,0.0,0.0,0.0,0.0,0.0
296,1724813203184172678,-1.8959153890609741,-0.637437105178833,0.1595047265291214,-0.00047196788364090025,-0.05179941654205322,-0.47709062695503235,0.8773261308670044,0.0,0.0,0.0,0.0,0.0,0.0
298,1724813203194676972,-1.8955967426300049,-0.6374144554138184,0.15956726670265198,-0.0010746378684416413,-0.05352270230650902,-0.4769335687160492,0.8773075342178345,0.0,0.0,0.0,0.0,0.0,0.0
300,1724813203204735481,-1.8952176570892334,-0.6374455690383911,0.15971359610557556,-0.0008400711813010275,-0.054224755614995956,-0.47692933678627014,0.8772670030593872,0.0,0.0,0.0,0.0,0.0,0.0
302,1724813203214278436,-1.8948262929916382,-0.6374730467796326,0.1602354645729065,0.00034745066659525037,-0.052928414195775986,-0.47704118490219116,0.8772857785224915,0.0,0.0,0.0,0.0,0.0,0.0
304,1724813203226447720,-1.8944616317749023,-0.6375911831855774,0.16040951013565063,0.0007166079012677073,-0.05370360612869263,-0.47666749358177185,0.8774414658546448,0.0,0.0,0.0,0.0,0.0,0.0
306,1724813203234313334,-1.8940986394882202,-0.6377744674682617,0.16054165363311768,0.001000083633698523,-0.055069733411073685,-0.47594699263572693,0.877747654914856,0.0,0.0,0.0,0.0,0.0,0.0
308,1724813203244333954,-1.8936964273452759,-0.6379417777061462,0.16068044304847717,0.0011219321750104427,-0.05606450140476227,-0.4751901924610138,0.8780944347381592,0.0,0.0,0.0,0.0,0.0,0.0
310,1724813203259224326,-1.893263339996338,-0.638087272644043,0.1608986258506775,0.00170708738733083,-0.05696846917271614,-0.4747393727302551,0.8782792091369629,0.0,0.0,0.0,0.0,0.0,0.0
312,1724813203264414830,-1.8928781747817993,-0.6382913589477539,0.16106140613555908,0.00183220359031111,-0.05797172337770462,-0.4739428758621216,0.8786433339118958,0.0,0.0,0.0,0.0,0.0,0.0
314,1724813203275469449,-1.8925241231918335,-0.6383868455886841,0.1611962467432022,0.001853081164881587,-0.059052661061286926,-0.47336500883102417,0.8788827657699585,0.0,0.0,0.0,0.0,0.0,0.0
316,1724813203285199718,-1.8922252655029297,-0.6385303735733032,0.1613703817129135,0.001802878687158227,-0.059902895241975784,-0.4724067449569702,0.8793408274650574,0.0,0.0,0.0,0.0,0.0,0.0
318,1724813203294725277,-1.8918228149414062,-0.6386352777481079,0.16156534850597382,0.0017417450435459614,-0.06094205752015114,-0.47165781259536743,0.8796715140342712,0.0,0.0,0.0,0.0,0.0,0.0
320,1724813203307778420,-1.8913967609405518,-0.6386579871177673,0.161850243806839,0.0017575073288753629,-0.06169681251049042,-0.47130635380744934,0.8798072934150696,0.0,0.0,0.0,0.0,0.0,0.0
322,1724813203314345653,-1.8910191059112549,-0.6387255191802979,0.16210733354091644,0.0020167925395071507,-0.06276699155569077,-0.4705401360988617,0.880141019821167,0.0,0.0,0.0,0.0,0.0,0.0
324,1724813203326807206,-1.8906478881835938,-0.6387801766395569,0.16241863369941711,0.0017908354056999087,-0.06339740008115768,-0.4700181186199188,0.8803752660751343,0.0,0.0,0.0,0.0,0.0,0.0
326,1724813203335440545,-1.8902411460876465,-0.6389203071594238,0.1626759022474289,0.001684451592154801,-0.06442867964506149,-0.4689694344997406,0.8808596730232239,0.0,0.0,0.0,0.0,0.0,0.0
328,1724813203345115391,-1.889776587486267,-0.6390160322189331,0.1629534512758255,0.0018888488411903381,-0.06522161513566971,-0.4681815207004547,0.8812199831008911,0.0,0.0,0.0,0.0,0.0,0.0
330,1724813203355222960,-1.8893206119537354,-0.639078676700592,0.1632043719291687,0.001811477355659008,-0.06647923588752747,-0.467369943857193,0.8815569281578064,0.0,0.0,0.0,0.0,0.0,0.0
332,1724813203364737494,-1.888870358467102,-0.6391538381576538,0.16344448924064636,0.0015521440654993057,-0.06717079877853394,-0.4667593538761139,0.8818284273147583,0.0,0.0,0.0,0.0,0.0,0.0
334,1724813203374786741,-1.8883651494979858,-0.6393415331840515,0.16343723237514496,0.0022540467325598,-0.06815863400697708,-0.46582213044166565,0.8822466135025024,0.0,0.0,0.0,0.0,0.0,0.0
336,1724813203384620371,-1.887970209121704,-0.6394184231758118,0.16361254453659058,0.002159966854378581,-0.06877576559782028,-0.46509885787963867,0.8825804591178894,0.0,0.0,0.0,0.0,0.0,0.0
338,1724813203394388080,-1.8875603675842285,-0.6395370364189148,0.16379600763320923,0.002825182629749179,-0.07006420195102692,-0.4643320143222809,0.8828810453414917,0.0,0.0,0.0,0.0,0.0,0.0
340,1724813203406267871,-1.887113332748413,-0.6396727561950684,0.16385382413864136,0.0029276821296662092,-0.07078643143177032,-0.46386539936065674,0.8830682635307312,0.0,0.0,0.0,0.0,0.0,0.0
342,1724813203414735649,-1.886580467224121,-0.6397933959960938,0.16406795382499695,0.003151198383420706,-0.07158520817756653,-0.4637066721916199,0.8830865025520325,0.0,0.0,0.0,0.0,0.0,0.0
344,1724813203425318911,-1.8860440254211426,-0.6399394869804382,0.16426900029182434,0.0036251575220376253,-0.07238513976335526,-0.4634433388710022,0.8831577897071838,0.0,0.0,0.0,0.0,0.0,0.0
346,1724813203434948319,-1.8855928182601929,-0.6401625871658325,0.16452361643314362,0.0033902053255587816,-0.0728469118475914,-0.4629317820072174,0.883388876914978,0.0,0.0,0.0,0.0,0.0,0.0
348,1724813203445217683,-1.8850945234298706,-0.640372633934021,0.16468197107315063,0.003881247714161873,-0.07345059514045715,-0.4624641537666321,0.883581817150116,0.0,0.0,0.0,0.0,0.0,0.0
350,1724813203455447080,-1.8844799995422363,-0.6406427621841431,0.1651315838098526,0.0041723367758095264,-0.07403985410928726,-0.462099552154541,0.8837220668792725,0.0,0.0,0.0,0.0,0.0,0.0
352,1724813203464740492,-1.8839298486709595,-0.6408296823501587,0.16538557410240173,0.003781184321269393,-0.07469897717237473,-0.46148577332496643,0.883989155292511,0.0,0.0,0.0,0.0,0.0,0.0
354,1724813203476246581,-1.8834733963012695,-0.6409754157066345,0.1654987335205078,0.003653867868706584,-0.07548938691616058,-0.460708886384964,0.8843276500701904,0.0,0.0,0.0,0.0,0.0,0.0
356,1724813203484873616,-1.8829983472824097,-0.6410784721374512,0.16568610072135925,0.003941444214433432,-0.07574041187763214,-0.4604334533214569,0.8844483494758606,0.0,0.0,0.0,0.0,0.0,0.0
358,1724813203494848130,-1.8825322389602661,-0.6411722898483276,0.1659620702266693,0.0036683364305645227,-0.07593772560358047,-0.4602254331111908,0.8845409750938416,0.0,0.0,0.0,0.0,0.0,0.0
360,1724813203506515417,-1.8820253610610962,-0.6413278579711914,0.16597327589988708,0.00413340050727129,-0.07695139199495316,-0.4595179855823517,0.8848190307617188,0.0,0.0,0.0,0.0,0.0,0.0
362,1724813203514827283,-1.8815315961837769,-0.6414894461631775,0.16602656245231628,0.00396392960101366,-0.07771654427051544,-0.4588133692741394,0.8851184844970703,0.0,0.0,0.0,0.0,0.0,0.0
364,1724813203524897677,-1.8810046911239624,-0.6416314244270325,0.16612273454666138,0.004397228360176086,-0.07825598865747452,-0.4583720266819,0.8852975964546204,0.0,0.0,0.0,0.0,0.0,0.0
366,1724813203536210316,-1.8804227113723755,-0.6417855024337769,0.16627801954746246,0.0042985971085727215,-0.07873706519603729,-0.45790719985961914,0.8854959011077881,0.0,0.0,0.0,0.0,0.0,0.0
368,1724813203544624400,-1.8798776865005493,-0.6419239640235901,0.1664637178182602,0.00431709224358201,-0.07904750853776932,-0.45750170946121216,0.885677695274353,0.0,0.0,0.0,0.0,0.0,0.0
370,1724813203556448619,-1.87937593460083,-0.6420040726661682,0.16629549860954285,0.005233841948211193,-0.07983304560184479,-0.45660069584846497,0.8860672116279602,0.0,0.0,0.0,0.0,0.0,0.0
372,1724813203564415508,-1.8788964748382568,-0.6421476602554321,0.16633352637290955,0.0054536741226911545,-0.0808933675289154,-0.4553541839122772,0.8866111040115356,0.0,0.0,0.0,0.0,0.0,0.0
374,1724813203576508476,-1.8783652782440186,-0.642214298248291,0.16648973524570465,0.0056928121484816074,-0.08165375888347626,-0.45463842153549194,0.886907160282135,0.0,0.0,0.0,0.0,0.0,0.0
376,1724813203585334996,-1.8778619766235352,-0.6422832608222961,0.1665910929441452,0.005938615184277296,-0.08229443430900574,-0.45409658551216125,0.8871238231658936,0.0,0.0,0.0,0.0,0.0,0.0
378,1724813203594539698,-1.8774210214614868,-0.6423435807228088,0.16669920086860657,0.006070056464523077,-0.08275905251502991,-0.4533050060272217,0.8874844908714294,0.0,0.0,0.0,0.0,0.0,0.0
380,1724813203604624700,-1.8769032955169678,-0.6424475312232971,0.16666612029075623,0.0058630481362342834,-0.08316702395677567,-0.45260971784591675,0.8878025412559509,0.0,0.0,0.0,0.0,0.0,0.0
382,1724813203636115414,-1.8762781620025635,-0.6425337791442871,0.16707196831703186,0.0058440957218408585,-0.08328958600759506,-0.45237764716148376,0.887909471988678,0.0,0.0,0.0,0.0,0.0,0.0
384,1724813203636492154,-1.8756753206253052,-0.6425372362136841,0.16738368570804596,0.005709459073841572,-0.08380334824323654,-0.4518946409225464,0.8881078958511353,0.0,0.0,0.0,0.0,0.0,0.0
386,1724813203636775902,-1.8751776218414307,-0.642652690410614,0.1675722897052765,0.005287547595798969,-0.08452746272087097,-0.4509551227092743,0.8885193467140198,0.0,0.0,0.0,0.0,0.0,0.0
388,1724813203644908103,-1.8746780157089233,-0.6427142024040222,0.1677655577659607,0.005360454320907593,-0.08522659540176392,-0.4502326250076294,0.8888185620307922,0.0,0.0,0.0,0.0,0.0,0.0
390,1724813203654718128,-1.8740780353546143,-0.642765998840332,0.16790546476840973,0.006083112675696611,-0.08565496653318405,-0.4498092234134674,0.8889870643615723,0.0,0.0,0.0,0.0,0.0,0.0
392,1724813203674979701,-1.8735278844833374,-0.6428463459014893,0.16800740361213684,0.006589739117771387,-0.08624973893165588,-0.4490465521812439,0.8893114328384399,0.0,0.0,0.0,0.0,0.0,0.0
394,1724813203675314025,-1.8729525804519653,-0.6428678631782532,0.16810041666030884,0.007217612583190203,-0.08677016198635101,-0.4484480917453766,0.8895578384399414,0.0,0.0,0.0,0.0,0.0,0.0
396,1724813203684762296,-1.8723944425582886,-0.64285808801651,0.1681894212961197,0.006795895751565695,-0.08697845786809921,-0.4479265809059143,0.8898035883903503,0.0,0.0,0.0,0.0,0.0,0.0
398,1724813203695199025,-1.8718219995498657,-0.6428416967391968,0.16822212934494019,0.006975121796131134,-0.08754454553127289,-0.44724041223526,0.8900917172431946,0.0,0.0,0.0,0.0,0.0,0.0
400,1724813203708510837,-1.8712385892868042,-0.6428266167640686,0.1681910902261734,0.007110153324902058,-0.08776405453681946,-0.44665539264678955,0.8903628587722778,0.0,0.0,0.0,0.0,0.0,0.0
402,1724813203716129704,-1.8707046508789062,-0.6427924633026123,0.16792312264442444,0.006964486092329025,-0.0879695788025856,-0.44552311301231384,0.8909107446670532,0.0,0.0,0.0,0.0,0.0,0.0
404,1724813203728899672,-1.870238184928894,-0.6427645683288574,0.16796594858169556,0.006556642707437277,-0.08859223872423172,-0.4441929757595062,0.8915161490440369,0.0,0.0,0.0,0.0,0.0,0.0
406,1724813203734419058,-1.8696638345718384,-0.6427550911903381,0.16793979704380035,0.006677425000816584,-0.0892719179391861,-0.4428764283657074,0.8921022415161133,0.0,0.0,0.0,0.0,0.0,0.0
408,1724813203744444167,-1.8689918518066406,-0.6426911354064941,0.16827553510665894,0.006376189179718494,-0.0890878438949585,-0.4428366720676422,0.8921425938606262,0.0,0.0,0.0,0.0,0.0,0.0
410,1724813203755188953,-1.8681453466415405,-0.6424445509910583,0.16838814318180084,0.00633100513368845,-0.08917771279811859,-0.443622887134552,0.8917432427406311,0.0,0.0,0.0,0.0,0.0,0.0
412,1724813203764357708,-1.8675081729888916,-0.6425710916519165,0.16835473477840424,0.006396824028342962,-0.08939171582460403,-0.44187024235725403,0.8925910592079163,0.0,0.0,0.0,0.0,0.0,0.0
414,1724813203774898573,-1.8667500019073486,-0.642538845539093,0.16851277649402618,0.006460972595959902,-0.08920499682426453,-0.44146254658699036,0.8928110599517822,0.0,0.0,0.0,0.0,0.0,0.0
416,1724813203785671128,-1.8660783767700195,-0.6425585150718689,0.16879810392856598,0.0061884429305791855,-0.08900609612464905,-0.44087108969688416,0.8931249976158142,0.0,0.0,0.0,0.0,0.0,0.0
418,1724813203794811782,-1.8654181957244873,-0.6425443291664124,0.16893726587295532,0.005952825304120779,-0.08891747146844864,-0.4402274191379547,0.8934529423713684,0.0,0.0,0.0,0.0,0.0,0.0
420,1724813203804402604,-1.864769697189331,-0.6425546407699585,0.16910405457019806,0.005651636514812708,-0.08899852633476257,-0.4393901228904724,0.8938588500022888,0.0,0.0,0.0,0.0,0.0,0.0
422,1724813203814769989,-1.8641093969345093,-0.64254230260849,0.16919270157814026,0.005365483928471804,-0.09006629884243011,-0.4391520023345947,0.8938706517219543,0.0,0.0,0.0,0.0,0.0,0.0
424,1724813203825134920,-1.8633909225463867,-0.6424921751022339,0.1692763715982437,0.005948714911937714,-0.0900862067937851,-0.4391968250274658,0.8938429355621338,0.0,0.0,0.0,0.0,0.0,0.0
426,1724813203834743008,-1.8627666234970093,-0.6424171924591064,0.16953513026237488,0.005652011372148991,-0.08981338143348694,-0.43898460268974304,0.893976628780365,0.0,0.0,0.0,0.0,0.0,0.0
428,1724813203844539548,-1.8620837926864624,-0.6422010660171509,0.17002345621585846,0.0059776026755571365,-0.0885431170463562,-0.43963468074798584,0.8937817811965942,0.0,0.0,0.0,0.0,0.0,0.0
430,1724813203880554086,-1.8615316152572632,-0.6423223614692688,0.1703454703092575,0.005616059061139822,-0.08820608258247375,-0.4382385015487671,0.8945026993751526,0.0,0.0,0.0,0.0,0.0,0.0
432,1724813203880917639,-1.8609099388122559,-0.6424371004104614,0.17062465846538544,0.005956093315035105,-0.08854002505540848,-0.43695300817489624,0.8950962424278259,0.0,0.0,0.0,0.0,0.0,0.0
434,1724813203881382074,-1.860298752784729,-0.6425623893737793,0.17088070511817932,0.006089463829994202,-0.0887054055929184,-0.4358864426612854,0.8955988883972168,0.0,0.0,0.0,0.0,0.0,0.0
436,1724813203884299625,-1.8596949577331543,-0.6426443457603455,0.171098992228508,0.005784972105175257,-0.0888267457485199,-0.435082346200943,0.8959797620773315,0.0,0.0,0.0,0.0,0.0,0.0
438,1724813203895124096,-1.8591028451919556,-0.6427258253097534,0.17151817679405212,0.005425262730568647,-0.08860060572624207,-0.43443912267684937,0.896316409111023,0.0,0.0,0.0,0.0,0.0,0.0
440,1724813203904601160,-1.8583489656448364,-0.6425761580467224,0.17181143164634705,0.005758277140557766,-0.08830975741147995,-0.43535181879997253,0.8959001898765564,0.0,0.0,0.0,0.0,0.0,0.0
442,1724813203914402031,-1.8577316999435425,-0.6425556540489197,0.17202141880989075,0.0056253718212246895,-0.08808905631303787,-0.43522343039512634,0.8959850668907166,0.0,0.0,0.0,0.0,0.0,0.0
444,1724813203924733576,-1.8570905923843384,-0.6425002217292786,0.17222832143306732,0.005328694824129343,-0.08779874444007874,-0.43505850434303284,0.8960955142974854,0.0,0.0,0.0,0.0,0.0,0.0
446,1724813203934562847,-1.8565781116485596,-0.6428686380386353,0.17218129336833954,0.004600152373313904,-0.08932092040777206,-0.43266457319259644,0.8971075415611267,0.0,0.0,0.0,0.0,0.0,0.0
448,1724813203954972061,-1.8559664487838745,-0.6430287957191467,0.17226198315620422,0.004396372940391302,-0.08998222649097443,-0.4314543306827545,0.897625207901001,0.0,0.0,0.0,0.0,0.0,0.0
450,1724813203955306210,-1.8553707599639893,-0.6431419849395752,0.17223574221134186,0.004218267742544413,-0.09085674583911896,-0.4302259683609009,0.8981274366378784,0.0,0.0,0.0,0.0,0.0,0.0
452,1724813203964164520,-1.8547172546386719,-0.6432192921638489,0.1721438467502594,0.003850014181807637,-0.09109661728143692,-0.42911142110824585,0.8986378312110901,0.0,0.0,0.0,0.0,0.0,0.0
454,1724813203978336853,-1.8539966344833374,-0.6432424187660217,0.17227177321910858,0.003974953666329384,-0.09102575480937958,-0.42851781845092773,0.8989276885986328,0.0,0.0,0.0,0.0,0.0,0.0
456,1724813203984488319,-1.8533377647399902,-0.6431451439857483,0.17220988869667053,0.003976345993578434,-0.09236757457256317,-0.42797404527664185,0.8990498781204224,0.0,0.0,0.0,0.0,0.0,0.0
458,1724813203994885260,-1.8527268171310425,-0.6431472301483154,0.17235811054706573,0.004400954581797123,-0.09172385185956955,-0.42734605073928833,0.8994125127792358,0.0,0.0,0.0,0.0,0.0,0.0
460,1724813204005878622,-1.8521085977554321,-0.6431431174278259,0.17242777347564697,0.004564264323562384,-0.09161008894443512,-0.42664387822151184,0.8997564911842346,0.0,0.0,0.0,0.0,0.0,0.0
462,1724813204014124500,-1.851448893547058,-0.6431358456611633,0.17254185676574707,0.005032866727560759,-0.0919075682759285,-0.42579683661460876,0.9001248478889465,0.0,0.0,0.0,0.0,0.0,0.0
464,1724813204025156744,-1.8508392572402954,-0.6431092619895935,0.1726720929145813,0.00579039566218853,-0.09192390739917755,-0.4251517355442047,0.9004234671592712,0.0,0.0,0.0,0.0,0.0,0.0
466,1724813204036106212,-1.8502871990203857,-0.6430599093437195,0.17283102869987488,0.0057539003901183605,-0.09198588132858276,-0.4244442880153656,0.9007511138916016,0.0,0.0,0.0,0.0,0.0,0.0
468,1724813204045842222,-1.8497178554534912,-0.6430325508117676,0.17290090024471283,0.005983065813779831,-0.09235521405935287,-0.423877090215683,0.9009788632392883,0.0,0.0,0.0,0.0,0.0,0.0
470,1724813204055196247,-1.849199652671814,-0.6430204510688782,0.17318987846374512,0.005781858693808317,-0.09226632863283157,-0.4236751198768616,0.9010843634605408,0.0,0.0,0.0,0.0,0.0,0.0
472,1724813204065542675,-1.8486343622207642,-0.6430591940879822,0.1733829826116562,0.005777411162853241,-0.09217453002929688,-0.42319557070732117,0.9013190269470215,0.0,0.0,0.0,0.0,0.0,0.0
474,1724813204074738575,-1.8481091260910034,-0.643091082572937,0.17353953421115875,0.005969490390270948,-0.09232984483242035,-0.4227583110332489,0.9015070796012878,0.0,0.0,0.0,0.0,0.0,0.0
476,1724813204085087001,-1.8476125001907349,-0.6431534290313721,0.17364928126335144,0.00640902342274785,-0.09293383359909058,-0.4221108555793762,0.9017453789710999,0.0,0.0,0.0,0.0,0.0,0.0
478,1724813204095609065,-1.8471102714538574,-0.6431750059127808,0.1738315373659134,0.006407748907804489,-0.09300980716943741,-0.42163601517677307,0.9019596576690674,0.0,0.0,0.0,0.0,0.0,0.0
480,1724813204106775471,-1.8465681076049805,-0.6432284712791443,0.17402279376983643,0.00700437230989337,-0.0930938795208931,-0.42120179533958435,0.9021493792533875,0.0,0.0,0.0,0.0,0.0,0.0
482,1724813204114799662,-1.8461008071899414,-0.6432777643203735,0.1741657704114914,0.007068601902574301,-0.09334380179643631,-0.4204169511795044,0.9024890661239624,0.0,0.0,0.0,0.0,0.0,0.0
484,1724813204125982224,-1.8455324172973633,-0.6433238387107849,0.17419299483299255,0.007682959083467722,-0.09360941499471664,-0.4198468029499054,0.9027219414710999,0.0,0.0,0.0,0.0,0.0,0.0
486,1724813204134427276,-1.8450303077697754,-0.6433153748512268,0.1741160750389099,0.007800682447850704,-0.09391523897647858,-0.419275164604187,0.9029548168182373,0.0,0.0,0.0,0.0,0.0,0.0
488,1724813204146590814,-1.8446205854415894,-0.6433290243148804,0.1740301251411438,0.00779896043241024,-0.09532926976680756,-0.4181242883205414,0.9033402800559998,0.0,0.0,0.0,0.0,0.0,0.0
490,1724813204154697709,-1.8440698385238647,-0.6432459354400635,0.17429406940937042,0.008165556006133556,-0.09548596292734146,-0.41876986622810364,0.9030213952064514,0.0,0.0,0.0,0.0,0.0,0.0
492,1724813204164387287,-1.8435262441635132,-0.6431739330291748,0.17444509267807007,0.00823683850467205,-0.09546483308076859,-0.4189317524433136,0.9029479026794434,0.0,0.0,0.0,0.0,0.0,0.0
494,1724813204175492109,-1.8430819511413574,-0.6430700421333313,0.1746971309185028,0.0076582711189985275,-0.09493964910507202,-0.4189796447753906,0.9029861092567444,0.0,0.0,0.0,0.0,0.0,0.0
496,1724813204184846601,-1.84258234500885,-0.6431031227111816,0.17494529485702515,0.00758534437045455,-0.09400924295186996,-0.41838520765304565,0.903359591960907,0.0,0.0,0.0,0.0,0.0,0.0
498,1724813204194534269,-1.842029333114624,-0.6433039307594299,0.17482267320156097,0.008353784680366516,-0.09529398381710052,-0.41675910353660583,0.9039696455001831,0.0,0.0,0.0,0.0,0.0,0.0
500,1724813204204372229,-1.8415738344192505,-0.6432018876075745,0.1749524474143982,0.007304467260837555,-0.0944870263338089,-0.4169800281524658,0.9039615988731384,0.0,0.0,0.0,0.0,0.0,0.0
502,1724813204214566396,-1.8409913778305054,-0.6432437300682068,0.1748497188091278,0.007488547824323177,-0.09477117657661438,-0.41641199588775635,0.9041920900344849,0.0,0.0,0.0,0.0,0.0,0.0
504,1724813204225901416,-1.8404223918914795,-0.6432668566703796,0.17489121854305267,0.007499635219573975,-0.09469835460186005,-0.4161797761917114,0.9043065309524536,0.0,0.0,0.0,0.0,0.0,0.0
506,1724813204234440130,-1.839870572090149,-0.6433043479919434,0.17494404315948486,0.007680567447096109,-0.09478744864463806,-0.41613927483558655,0.9043143391609192,0.0,0.0,0.0,0.0,0.0,0.0
508,1724813204244409611,-1.8393203020095825,-0.6433969736099243,0.17475207149982452,0.007972275838255882,-0.09525132924318314,-0.4158366322517395,0.9044023156166077,0.0,0.0,0.0,0.0,0.0,0.0
510,1724813204255324452,-1.8387809991836548,-0.6435039639472961,0.17480391263961792,0.008216435089707375,-0.09518108516931534,-0.4157058298587799,0.9044676423072815,0.0,0.0,0.0,0.0,0.0,0.0
512,1724813204264377880,-1.838266134262085,-0.6436243057250977,0.17489072680473328,0.00832272507250309,-0.09552051872015,-0.41553953289985657,0.9045073390007019,0.0,0.0,0.0,0.0,0.0,0.0
514,1724813204274980334,-1.8377379179000854,-0.6437340378761292,0.17499129474163055,0.008566822856664658,-0.09608630836009979,-0.4154980778694153,0.9044641256332397,0.0,0.0,0.0,0.0,0.0,0.0
516,1724813204284518369,-1.8372867107391357,-0.6439580321311951,0.17522676289081573,0.008802836760878563,-0.09647136181592941,-0.415005087852478,0.904647171497345,0.0,0.0,0.0,0.0,0.0,0.0
518,1724813204294479801,-1.8366962671279907,-0.6441026926040649,0.17558956146240234,0.008784386329352856,-0.09616256505250931,-0.41489720344543457,0.9047297239303589,0.0,0.0,0.0,0.0,0.0,0.0
520,1724813204305641338,-1.8360692262649536,-0.6442785859107971,0.17568008601665497,0.008697044104337692,-0.09611356258392334,-0.41479262709617615,0.9047837257385254,0.0,0.0,0.0,0.0,0.0,0.0
522,1724813204314242785,-1.8354895114898682,-0.6444487571716309,0.1756625473499298,0.00836404599249363,-0.09644895792007446,-0.41449403762817383,0.9048880338668823,0.0,0.0,0.0,0.0,0.0,0.0
524,1724813204324933122,-1.8349016904830933,-0.6446199417114258,0.17561675608158112,0.008053917437791824,-0.09669259190559387,-0.41421762108802795,0.9049914479255676,0.0,0.0,0.0,0.0,0.0,0.0
526,1724813204335202481,-1.8342483043670654,-0.644787609577179,0.17557990550994873,0.008105124346911907,-0.09660984575748444,-0.4143529236316681,0.9049379229545593,0.0,0.0,0.0,0.0,0.0,0.0
528,1724813204344137192,-1.8336025476455688,-0.6449475288391113,0.17553706467151642,0.007912357337772846,-0.09688183665275574,-0.4141506850719452,0.9050031304359436,0.0,0.0,0.0,0.0,0.0,0.0
530,1724813204354598869,-1.8329205513000488,-0.6450934410095215,0.17545302212238312,0.007790252100676298,-0.09694932401180267,-0.4139523506164551,0.9050875902175903,0.0,0.0,0.0,0.0,0.0,0.0
532,1724813204364397597,-1.832226276397705,-0.6452671885490417,0.17530414462089539,0.007330649066716433,-0.09737613797187805,-0.4133438766002655,0.9053236842155457,0.0,0.0,0.0,0.0,0.0,0.0
534,1724813204375173714,-1.8314917087554932,-0.6453269720077515,0.17542150616645813,0.007315177004784346,-0.09665240347385406,-0.41356348991394043,0.905301034450531,0.0,0.0,0.0,0.0,0.0,0.0
536,1724813204384500541,-1.83086359500885,-0.6454060077667236,0.17543825507164001,0.0066674803383648396,-0.09669076651334763,-0.41314294934272766,0.9054940342903137,0.0,0.0,0.0,0.0,0.0,0.0
538,1724813204394663382,-1.8302972316741943,-0.6455144286155701,0.1754409521818161,0.006805439479649067,-0.09688172489404678,-0.4125395119190216,0.905747652053833,0.0,0.0,0.0,0.0,0.0,0.0
540,1724813204406857687,-1.8297812938690186,-0.6457120180130005,0.1754828244447708,0.007252497598528862,-0.09754710644483566,-0.41203248500823975,0.9059035778045654,0.0,0.0,0.0,0.0,0.0,0.0
542,1724813204414583741,-1.829005479812622,-0.6457116007804871,0.17545217275619507,0.007857554592192173,-0.09846950322389603,-0.4130389392375946,0.9053401947021484,0.0,0.0,0.0,0.0,0.0,0.0
544,1724813204442076951,-1.8283240795135498,-0.6458689570426941,0.17563727498054504,0.007287068758159876,-0.09793682396411896,-0.4124060273170471,0.9056912064552307,0.0,0.0,0.0,0.0,0.0,0.0
546,1724813204442375761,-1.8275930881500244,-0.6459539532661438,0.17572930455207825,0.007246575318276882,-0.09797446429729462,-0.4125092923641205,0.9056404829025269,0.0,0.0,0.0,0.0,0.0,0.0
548,1724813204444956134,-1.8268662691116333,-0.646056056022644,0.17593054473400116,0.007280645426362753,-0.09811269491910934,-0.4123747646808624,0.9056864380836487,0.0,0.0,0.0,0.0,0.0,0.0
550,1724813204456213131,-1.826121211051941,-0.6461721062660217,0.17621192336082458,0.0073194666765630245,-0.09786491096019745,-0.4124036729335785,0.9056997895240784,0.0,0.0,0.0,0.0,0.0,0.0
552,1724813204464456783,-1.825336217880249,-0.6463267207145691,0.17636165022850037,0.0071427603252232075,-0.0984947681427002,-0.4118117392063141,0.9059022665023804,0.0,0.0,0.0,0.0,0.0,0.0
554,1724813204475966419,-1.82455575466156,-0.6463529467582703,0.17672541737556458,0.007068178616464138,-0.09836596995592117,-0.41197922825813293,0.9058406352996826,0.0,0.0,0.0,0.0,0.0,0.0
556,1724813204487534579,-1.8237941265106201,-0.6463762521743774,0.177102729678154,0.0077316067181527615,-0.09822795540094376,-0.412246972322464,0.9057283997535706,0.0,0.0,0.0,0.0,0.0,0.0
558,1724813204494417437,-1.8230869770050049,-0.6465399265289307,0.17730091512203217,0.007749398238956928,-0.098440982401371,-0.41172149777412415,0.9059441685676575,0.0,0.0,0.0,0.0,0.0,0.0
560,1724813204507068274,-1.8220713138580322,-0.6466701626777649,0.1775846630334854,0.00908008310943842,-0.09814699739217758,-0.4126109182834625,0.9055589437484741,0.0,0.0,0.0,0.0,0.0,0.0
562,1724813204514365285,-1.821149468421936,-0.6467604041099548,0.17776602506637573,0.009100215509533882,-0.09808286279439926,-0.4125854969024658,0.9055771827697754,0.0,0.0,0.0,0.0,0.0,0.0
564,1724813204526188037,-1.8202970027923584,-0.6468465328216553,0.1779051423072815,0.0092011122033,-0.0979599580168724,-0.4125049114227295,0.9056261777877808,0.0,0.0,0.0,0.0,0.0,0.0
566,1724813204536102038,-1.8194259405136108,-0.646955132484436,0.17805185914039612,0.009566673077642918,-0.09809453785419464,-0.41243526339530945,0.9056395888328552,0.0,0.0,0.0,0.0,0.0,0.0
568,1724813204545050866,-1.8184643983840942,-0.6470857858657837,0.17809118330478668,0.010392816737294197,-0.09841597080230713,-0.41215279698371887,0.905724287033081,0.0,0.0,0.0,0.0,0.0,0.0
570,1724813204556023434,-1.8175548315048218,-0.6472225785255432,0.1781308650970459,0.010326993651688099,-0.09886862337589264,-0.4115293323993683,0.9059591293334961,0.0,0.0,0.0,0.0,0.0,0.0
572,1724813204566596326,-1.8165464401245117,-0.6473197937011719,0.17820265889167786,0.011021017096936703,-0.09931030124425888,-0.4112567603588104,0.9060264229774475,0.0,0.0,0.0,0.0,0.0,0.0
574,1724813204575015285,-1.8155735731124878,-0.6474934816360474,0.1783178448677063,0.01135502103716135,-0.09937568008899689,-0.41111019253730774,0.9060816168785095,0.0,0.0,0.0,0.0,0.0,0.0
576,1724813204586792469,-1.814648151397705,-0.6476091742515564,0.17852860689163208,0.011586423963308334,-0.0992933064699173,-0.4108944535255432,0.9061856865882874,0.0,0.0,0.0,0.0,0.0,0.0
578,1724813204594430955,-1.8137166500091553,-0.6476477384567261,0.17864759266376495,0.011758887208998203,-0.09932489693164825,-0.41073182225227356,0.9062536358833313,0.0,0.0,0.0,0.0,0.0,0.0
580,1724813204604786967,-1.8126819133758545,-0.6477298736572266,0.1786448210477829,0.012393453158438206,-0.09970225393772125,-0.4105754494667053,0.906274676322937,0.0,0.0,0.0,0.0,0.0,0.0
582,1724813204615266686,-1.8117270469665527,-0.647854745388031,0.17874091863632202,0.012035766616463661,-0.09974438697099686,-0.4103931188583374,0.9063574075698853,0.0,0.0,0.0,0.0,0.0,0.0
584,1724813204624548938,-1.8107755184173584,-0.6479666829109192,0.17884139716625214,0.01177979726344347,-0.10009029507637024,-0.41017401218414307,0.9064217805862427,0.0,0.0,0.0,0.0,0.0,0.0
586,1724813204638011596,-1.8099442720413208,-0.6480621695518494,0.1788480430841446,0.011387474834918976,-0.09977242350578308,-0.4097878038883209,0.9066365957260132,0.0,0.0,0.0,0.0,0.0,0.0
588,1724813204645691967,-1.8091803789138794,-0.6481412053108215,0.17903976142406464,0.011102303862571716,-0.09932710230350494,-0.40988725423812866,0.9066439270973206,0.0,0.0,0.0,0.0,0.0,0.0
590,1724813204658032538,-1.8083391189575195,-0.6482409834861755,0.17915073037147522,0.011808186769485474,-0.09947912395000458,-0.4097249507904053,0.9066917896270752,0.0,0.0,0.0,0.0,0.0,0.0
592,1724813204675999439,-1.8074232339859009,-0.6484041810035706,0.17926374077796936,0.012330729514360428,-0.09940019249916077,-0.4101605713367462,0.906496524810791,0.0,0.0,0.0,0.0,0.0,0.0
594,1724813204676297567,-1.806634545326233,-0.6485763192176819,0.1793411374092102,0.012197146192193031,-0.09967635571956635,-0.40986335277557373,0.9066023826599121,0.0,0.0,0.0,0.0,0.0,0.0
596,1724813204684618491,-1.8058842420578003,-0.6487466096878052,0.17942862212657928,0.01198401115834713,-0.09977856278419495,-0.4097594916820526,0.906640887260437,0.0,0.0,0.0,0.0,0.0,0.0
598,1724813204695371287,-1.8051053285598755,-0.6489988565444946,0.17942403256893158,0.012321678921580315,-0.10020565241575241,-0.40940138697624207,0.9067510366439819,0.0,0.0,0.0,0.0,0.0,0.0
600,1724813204704992812,-1.8043675422668457,-0.6491937041282654,0.17957262694835663,0.012501796707510948,-0.10027340799570084,-0.4092177450656891,0.9068241119384766,0.0,0.0,0.0,0.0,0.0,0.0
602,1724813204714221789,-1.8037402629852295,-0.6494048833847046,0.179444819688797,0.012840434908866882,-0.10101911425590515,-0.40840357542037964,0.9071035385131836,0.0,0.0,0.0,0.0,0.0,0.0
604,1724813204726966785,-1.8030458688735962,-0.6495252251625061,0.17985142767429352,0.012899564579129219,-0.10042276233434677,-0.4085901975631714,0.9070848226547241,0.0,0.0,0.0,0.0,0.0,0.0
606,1724813204734433193,-1.8023420572280884,-0.6496974229812622,0.18001800775527954,0.013332086615264416,-0.1004994735121727,-0.4081719219684601,0.9072583913803101,0.0,0.0,0.0,0.0,0.0,0.0
608,1724813204744919737,-1.801722764968872,-0.6498904824256897,0.18013238906860352,0.013633901253342628,-0.10075803846120834,-0.4076686501502991,0.9074515104293823,0.0,0.0,0.0,0.0,0.0,0.0
610,1724813204755326349,-1.8011523485183716,-0.64999920129776,0.18025729060173035,0.013802488334476948,-0.10100580751895905,-0.4073343575000763,0.9075714945793152,0.0,0.0,0.0,0.0,0.0,0.0
612,1724813204778970238,-1.800628662109375,-0.6501232981681824,0.1802305281162262,0.014361191540956497,-0.10124371200799942,-0.40684065222740173,0.9077578186988831,0.0,0.0,0.0,0.0,0.0,0.0
614,1724813204779248617,-1.8001470565795898,-0.6502135992050171,0.18033036589622498,0.014494741335511208,-0.10138402134180069,-0.4061318039894104,0.9080573320388794,0.0,0.0,0.0,0.0,0.0,0.0
616,1724813204803448465,-1.7995831966400146,-0.6503130197525024,0.18046680092811584,0.014706181362271309,-0.10160200297832489,-0.4056468904018402,0.9082462787628174,0.0,0.0,0.0,0.0,0.0,0.0
618,1724813204803863368,-1.798940896987915,-0.6503786444664001,0.1804460734128952,0.014943629503250122,-0.10177787393331528,-0.40561068058013916,0.9082388877868652,0.0,0.0,0.0,0.0,0.0,0.0
620,1724813204805518307,-1.7983533143997192,-0.650402307510376,0.18083930015563965,0.014791719615459442,-0.10150272399187088,-0.40553587675094604,0.9083055853843689,0.0,0.0,0.0,0.0,0.0,0.0
622,1724813204814336429,-1.797735333442688,-0.6504189968109131,0.18111909925937653,0.014696385711431503,-0.1012406274676323,-0.4056382477283478,0.9082907438278198,0.0,0.0,0.0,0.0,0.0,0.0
624,1724813204825414976,-1.7971327304840088,-0.6504122018814087,0.181343674659729,0.0146774398162961,-0.1011400818824768,-0.4053325355052948,0.9084386825561523,0.0,0.0,0.0,0.0,0.0,0.0
626,1724813204838319890,-1.7965871095657349,-0.6504279971122742,0.18131890892982483,0.014135311357676983,-0.10168735682964325,-0.4041029214859009,0.9089339375495911,0.0,0.0,0.0,0.0,0.0,0.0
628,1724813204844601991,-1.7959859371185303,-0.6503966450691223,0.18153461813926697,0.01401294395327568,-0.10155066847801208,-0.40363723039627075,0.9091578722000122,0.0,0.0,0.0,0.0,0.0,0.0
630,1724813204861852083,-1.7952960729599,-0.6503204107284546,0.1818430870771408,0.014126199297606945,-0.10106629878282547,-0.4035917818546295,0.9092302918434143,0.0,0.0,0.0,0.0,0.0,0.0
632,1724813204864850958,-1.7947041988372803,-0.6502816677093506,0.1822429597377777,0.014274504035711288,-0.10025184601545334,-0.40368396043777466,0.9092772006988525,0.0,0.0,0.0,0.0,0.0,0.0
634,1724813204875285469,-1.794166922569275,-0.6501900553703308,0.18282610177993774,0.013848644681274891,-0.09915422648191452,-0.40396034717559814,0.9092814922332764,0.0,0.0,0.0,0.0,0.0,0.0
636,1724813204884882831,-1.793573021888733,-0.6501122713088989,0.18322496116161346,0.013690797612071037,-0.09858018904924393,-0.4037582576274872,0.9094359278678894,0.0,0.0,0.0,0.0,0.0,0.0
638,1724813204895949480,-1.7930771112442017,-0.6498783826828003,0.18386012315750122,0.011612729169428349,-0.09622707217931747,-0.4045877456665039,0.9093483090400696,0.0,0.0,0.0,0.0,0.0,0.0
640,1724813204905973575,-1.7924256324768066,-0.649850606918335,0.1840633898973465,0.011885025538504124,-0.09612362831830978,-0.4039384424686432,0.9096443057060242,0.0,0.0,0.0,0.0,0.0,0.0
642,1724813204914440667,-1.791796088218689,-0.6499278545379639,0.18415890634059906,0.0137527696788311,-0.097028449177742,-0.40272635221481323,0.9100592732429504,0.0,0.0,0.0,0.0,0.0,0.0
644,1724813204925448087,-1.7912427186965942,-0.6498982906341553,0.18450236320495605,0.013815014623105526,-0.09636569023132324,-0.4023047983646393,0.9103151559829712,0.0,0.0,0.0,0.0,0.0,0.0
646,1724813204934279417,-1.7907726764678955,-0.6497213840484619,0.1850300133228302,0.01143066305667162,-0.094480499625206,-0.40295735001564026,0.9102572202682495,0.0,0.0,0.0,0.0,0.0,0.0
648,1724813204944889062,-1.790268898010254,-0.6496922969818115,0.18539048731327057,0.01125955767929554,-0.09362907707691193,-0.4029526710510254,0.9103493690490723,0.0,0.0,0.0,0.0,0.0,0.0
650,1724813204957705663,-1.78981614112854,-0.649722695350647,0.18553507328033447,0.010706502012908459,-0.09305620193481445,-0.402657151222229,0.9105454683303833,0.0,0.0,0.0,0.0,0.0,0.0
652,1724813204965561630,-1.7893803119659424,-0.6497365236282349,0.18586817383766174,0.010777988471090794,-0.09225180000066757,-0.4028054475784302,0.9105610251426697,0.0,0.0,0.0,0.0,0.0,0.0
654,1724813204977349434,-1.7889455556869507,-0.6497536897659302,0.18644201755523682,0.010690604336559772,-0.09112360328435898,-0.40345248579978943,0.9103891849517822,0.0,0.0,0.0,0.0,0.0,0.0
656,1724813204984762343,-1.7885949611663818,-0.6497170925140381,0.187020406126976,0.00598372844979167,-0.08754746615886688,-0.4051397740840912,0.9100337028503418,0.0,0.0,0.0,0.0,0.0,0.0
658,1724813204994545467,-1.788179636001587,-0.6497246026992798,0.18743503093719482,0.004516745917499065,-0.08564697951078415,-0.4060676693916321,0.9098095893859863,0.0,0.0,0.0,0.0,0.0,0.0
660,1724813205005027625,-1.7877238988876343,-0.649780809879303,0.18777485191822052,0.0038909753784537315,-0.08411620557308197,-0.4065523147583008,0.9097387790679932,0.0,0.0,0.0,0.0,0.0,0.0
662,1724813205014591488,-1.7872201204299927,-0.6498327255249023,0.1881912648677826,0.0037945490330457687,-0.08286458998918533,-0.4067966639995575,0.9097447395324707,0.0,0.0,0.0,0.0,0.0,0.0
664,1724813205024943781,-1.786753535270691,-0.6499356031417847,0.1885269284248352,0.0031555057503283024,-0.08201903849840164,-0.40692517161369324,0.9097663760185242,0.0,0.0,0.0,0.0,0.0,0.0
666,1724813205035594824,-1.7862995862960815,-0.650027334690094,0.18890628218650818,0.003214207710698247,-0.0812019631266594,-0.4069567620754242,0.9098253846168518,0.0,0.0,0.0,0.0,0.0,0.0
668,1724813205045169483,-1.785807728767395,-0.6501539349555969,0.18925528228282928,0.0035650841891765594,-0.08047454804182053,-0.40685421228408813,0.9099345207214355,0.0,0.0,0.0,0.0,0.0,0.0
670,1724813205054848825,-1.7852935791015625,-0.6502635478973389,0.1897040158510208,0.003659224370494485,-0.079546719789505,-0.4071286916732788,0.9098929762840271,0.0,0.0,0.0,0.0,0.0,0.0
672,1724813205064463753,-1.7847706079483032,-0.6503359079360962,0.19012869894504547,0.0033452215138822794,-0.078245148062706,-0.4075435996055603,0.9098213315010071,0.0,0.0,0.0,0.0,0.0,0.0
674,1724813205076094005,-1.7842919826507568,-0.6504815816879272,0.19042058289051056,0.0028907335363328457,-0.07722208648920059,-0.40782368183135986,0.9097846746444702,0.0,0.0,0.0,0.0,0.0,0.0
676,1724813205084692076,-1.7837780714035034,-0.6505429744720459,0.19086052477359772,0.0027326978743076324,-0.07581829279661179,-0.4083142876625061,0.9096832275390625,0.0,0.0,0.0,0.0,0.0,0.0
678,1724813205094389133,-1.7832430601119995,-0.6506080627441406,0.19134989380836487,0.002519764704629779,-0.07432923465967178,-0.40893709659576416,0.9095269441604614,0.0,0.0,0.0,0.0,0.0,0.0
680,1724813205105753864,-1.782699465751648,-0.6507729887962341,0.19176149368286133,0.002379768528044224,-0.07333016395568848,-0.4092436730861664,0.9094705581665039,0.0,0.0,0.0,0.0,0.0,0.0
682,1724813205115486527,-1.782150387763977,-0.6509632468223572,0.1920156627893448,0.002413029782474041,-0.0729307308793068,-0.40918421745300293,0.9095293283462524,0.0,0.0,0.0,0.0,0.0,0.0
684,1724813205127326417,-1.7815922498703003,-0.6511258482933044,0.19227437674999237,0.0023109493777155876,-0.07237394154071808,-0.40934038162231445,0.9095037579536438,0.0,0.0,0.0,0.0,0.0,0.0
686,1724813205134561866,-1.7810076475143433,-0.6512649059295654,0.19252042472362518,0.0019802951719611883,-0.07196886837482452,-0.4095495641231537,0.9094425439834595,0.0,0.0,0.0,0.0,0.0,0.0
688,1724813205151491064,-1.7803980112075806,-0.6512505412101746,0.19296912848949432,0.0022690636105835438,-0.07133809477090836,-0.40977802872657776,0.9093886017799377,0.0,0.0,0.0,0.0,0.0,0.0
690,1724813205154380933,-1.7797671556472778,-0.6514564752578735,0.19302308559417725,0.0019521969370543957,-0.07177265733480453,-0.4094068706035614,0.9095224142074585,0.0,0.0,0.0,0.0,0.0,0.0
692,1724813205164462041,-1.7791599035263062,-0.6515873074531555,0.19316470623016357,0.0018080640584230423,-0.07168763875961304,-0.40929993987083435,0.9095775485038757,0.0,0.0,0.0,0.0,0.0,0.0
694,1724813205176950730,-1.7786097526550293,-0.6517216563224792,0.19336292147636414,0.001004719058983028,-0.07098808884620667,-0.40943118929862976,0.9095745086669922,0.0,0.0,0.0,0.0,0.0,0.0
696,1724813205184434302,-1.7780286073684692,-0.6518656611442566,0.19355450570583344,0.0007652594358660281,-0.07082032412290573,-0.4091043472290039,0.9097349047660828,0.0,0.0,0.0,0.0,0.0,0.0
698,1724813205196102507,-1.7773716449737549,-0.651984691619873,0.19362042844295502,0.0010008923709392548,-0.07114513963460922,-0.4083268344402313,0.9100586175918579,0.0,0.0,0.0,0.0,0.0,0.0
700,1724813205204566235,-1.7767442464828491,-0.6522946357727051,0.19344742596149445,-0.00027626013616099954,-0.0714852511882782,-0.407663494348526,0.9103298783302307,0.0,0.0,0.0,0.0,0.0,0.0
702,1724813205214273690,-1.7761491537094116,-0.6523591876029968,0.19366365671157837,-0.0008228921215049922,-0.07088478654623032,-0.4077306389808655,0.910346269607544,0.0,0.0,0.0,0.0,0.0,0.0
704,1724813205225465721,-1.775612235069275,-0.652434766292572,0.1938154101371765,-0.001452324679121375,-0.07097259163856506,-0.40728074312210083,0.9105400443077087,0.0,0.0,0.0,0.0,0.0,0.0
706,1724813205238319413,-1.7750978469848633,-0.652489423751831,0.19395698606967926,-0.0017170195933431387,-0.07099957764148712,-0.40714552998542786,0.9105979800224304,0.0,0.0,0.0,0.0,0.0,0.0
708,1724813205244923108,-1.7745752334594727,-0.6524899005889893,0.194146990776062,-0.0017776188906282187,-0.07071321457624435,-0.40721940994262695,0.9105871319770813,0.0,0.0,0.0,0.0,0.0,0.0
710,1724813205255077110,-1.7740628719329834,-0.6525784730911255,0.19418387115001678,-0.0023537427186965942,-0.07071251422166824,-0.40696659684181213,0.9106988310813904,0.0,0.0,0.0,0.0,0.0,0.0
712,1724813205264798237,-1.7735811471939087,-0.6526331901550293,0.19423747062683105,-0.0025475441943854094,-0.07038771361112595,-0.4069274961948395,0.9107409119606018,0.0,0.0,0.0,0.0,0.0,0.0
714,1724813205275892571,-1.7731181383132935,-0.6526013016700745,0.1943601369857788,-0.002774657681584358,-0.06988231092691422,-0.4072237014770508,0.9106467962265015,0.0,0.0,0.0,0.0,0.0,0.0
716,1724813205284349699,-1.7726439237594604,-0.6526023149490356,0.1943815052509308,-0.003277546726167202,-0.06960758566856384,-0.4072185456752777,0.9106684923171997,0.0,0.0,0.0,0.0,0.0,0.0
718,1724813205294432086,-1.7721843719482422,-0.6524472236633301,0.19477295875549316,-0.0033282097429037094,-0.06872092932462692,-0.4076578617095947,0.9105390906333923,0.0,0.0,0.0,0.0,0.0,0.0
720,1724813205306014785,-1.7716913223266602,-0.6524014472961426,0.19495224952697754,-0.0033078540582209826,-0.06777123361825943,-0.40810471773147583,0.9104102253913879,0.0,0.0,0.0,0.0,0.0,0.0
722,1724813205314269743,-1.7712299823760986,-0.6526635885238647,0.1946142166852951,-0.004624774679541588,-0.06791947782039642,-0.4073619842529297,0.9107259511947632,0.0,0.0,0.0,0.0,0.0,0.0
724,1724813205325239586,-1.770803689956665,-0.6527296900749207,0.1947057843208313,-0.005228164605796337,-0.06696811318397522,-0.40742722153663635,0.9107639789581299,0.0,0.0,0.0,0.0,0.0,0.0
726,1724813205335081949,-1.7704099416732788,-0.652811586856842,0.19490976631641388,-0.006116118282079697,-0.06559735536575317,-0.4078432619571686,0.9106720685958862,0.0,0.0,0.0,0.0,0.0,0.0
728,1724813205344608151,-1.770060658454895,-0.6529390811920166,0.195048987865448,-0.006715566385537386,-0.06462790817022324,-0.40795862674713135,0.9106853604316711,0.0,0.0,0.0,0.0,0.0,0.0
730,1724813205354349946,-1.7697720527648926,-0.6531082391738892,0.1951897144317627,-0.008674108423292637,-0.06311572343111038,-0.4084392189979553,0.9105595350265503,0.0,0.0,0.0,0.0,0.0,0.0
732,1724813205364378145,-1.7694072723388672,-0.6532459259033203,0.1955016851425171,-0.007984801195561886,-0.061918288469314575,-0.4089660942554474,0.9104115962982178,0.0,0.0,0.0,0.0,0.0,0.0
734,1724813205375186346,-1.7690932750701904,-0.6535026431083679,0.19572794437408447,-0.008479125797748566,-0.06081696227192879,-0.40935519337654114,0.9103063941001892,0.0,0.0,0.0,0.0,0.0,0.0
736,1724813205384566220,-1.768815517425537,-0.6537498235702515,0.1960419863462448,-0.008847733028233051,-0.059597477316856384,-0.40973395109176636,0.9102132320404053,0.0,0.0,0.0,0.0,0.0,0.0
738,1724813205395385439,-1.7685810327529907,-0.6540272235870361,0.19631530344486237,-0.009379272349178791,-0.058594848960638046,-0.40989917516708374,0.9101985096931458,0.0,0.0,0.0,0.0,0.0,0.0
740,1724813205420818374,-1.7683610916137695,-0.6543411612510681,0.1966637223958969,-0.00991034135222435,-0.057368721812963486,-0.4102492332458496,0.9101132750511169,0.0,0.0,0.0,0.0,0.0,0.0
742,1724813205426964759,-1.7681870460510254,-0.6546891331672668,0.19702699780464172,-0.010713012889027596,-0.05630931630730629,-0.4104360044002533,0.9100861549377441,0.0,0.0,0.0,0.0,0.0,0.0
744,1724813205427262904,-1.7680833339691162,-0.6552269458770752,0.19688701629638672,-0.012854833155870438,-0.05649251863360405,-0.41006162762641907,0.9102157950401306,0.0,0.0,0.0,0.0,0.0,0.0
746,1724813205435156331,-1.7679355144500732,-0.65556800365448,0.19703558087348938,-0.013801384717226028,-0.056245289742946625,-0.41037243604660034,0.9100771546363831,0.0,0.0,0.0,0.0,0.0,0.0
748,1724813205445351947,-1.7678024768829346,-0.6559351682662964,0.19710955023765564,-0.014680275693535805,-0.05617596581578255,-0.4106488525867462,0.9099431037902832,0.0,0.0,0.0,0.0,0.0,0.0
750,1724813205460914197,-1.7677440643310547,-0.6563137769699097,0.1971321552991867,-0.015572702512145042,-0.056000806391239166,-0.41059044003486633,0.9099653363227844,0.0,0.0,0.0,0.0,0.0,0.0
752,1724813205464911374,-1.7677236795425415,-0.6566494703292847,0.19716571271419525,-0.016608472913503647,-0.05577266588807106,-0.4104732275009155,0.9100139737129211,0.0,0.0,0.0,0.0,0.0,0.0
754,1724813205477806652,-1.7677810192108154,-0.6569705009460449,0.19714707136154175,-0.018510108813643456,-0.056567441672086716,-0.41037923097610474,0.9099706411361694,0.0,0.0,0.0,0.0,0.0,0.0
756,1724813205485041539,-1.767823338508606,-0.6572559475898743,0.19726631045341492,-0.019847718998789787,-0.05622059479355812,-0.41073620319366455,0.9098028540611267,0.0,0.0,0.0,0.0,0.0,0.0
758,1724813205495161985,-1.7679352760314941,-0.6573330163955688,0.19804570078849792,-0.018688464537262917,-0.0539398193359375,-0.41123199462890625,0.9097415804862976,0.0,0.0,0.0,0.0,0.0,0.0
760,1724813205507032716,-1.7680580615997314,-0.6575837731361389,0.1984115093946457,-0.019433360546827316,-0.05291038751602173,-0.4117043614387512,0.9095726013183594,0.0,0.0,0.0,0.0,0.0,0.0
762,1724813205514797090,-1.7681894302368164,-0.6578607559204102,0.19861572980880737,-0.020327169448137283,-0.05233294516801834,-0.4116882085800171,0.9095938205718994,0.0,0.0,0.0,0.0,0.0,0.0
764,1724813205525662655,-1.7684016227722168,-0.6581276059150696,0.19883963465690613,-0.021219683811068535,-0.05137715861201286,-0.41193079948425293,0.9095181822776794,0.0,0.0,0.0,0.0,0.0,0.0
766,1724813205534848750,-1.7685796022415161,-0.658174991607666,0.19957809150218964,-0.02110547013580799,-0.04914461448788643,-0.4133123755455017,0.9090172648429871,0.0,0.0,0.0,0.0,0.0,0.0
768,1724813205544224043,-1.7688369750976562,-0.6586289405822754,0.19943875074386597,-0.022618180140852928,-0.04874943569302559,-0.413064569234848,0.9091148376464844,0.0,0.0,0.0,0.0,0.0,0.0
770,1724813205555182183,-1.769090175628662,-0.6588819622993469,0.19963066279888153,-0.023767322301864624,-0.04752306640148163,-0.4132795035839081,0.9090527892112732,0.0,0.0,0.0,0.0,0.0,0.0
772,1724813205564556149,-1.769385814666748,-0.659204363822937,0.19985662400722504,-0.02494843117892742,-0.04643829166889191,-0.41327905654907227,0.9090772867202759,0.0,0.0,0.0,0.0,0.0,0.0
774,1724813205575168676,-1.7696901559829712,-0.6595187187194824,0.2001706063747406,-0.026057880371809006,-0.04521337151527405,-0.413239985704422,0.9091257452964783,0.0,0.0,0.0,0.0,0.0,0.0
776,1724813205585259763,-1.7699750661849976,-0.6598330140113831,0.20041103661060333,-0.02731303684413433,-0.0441574789583683,-0.41330912709236145,0.909109354019165,0.0,0.0,0.0,0.0,0.0,0.0
778,1724813205594423135,-1.7702815532684326,-0.6601017713546753,0.20065701007843018,-0.02816469967365265,-0.0431605689227581,-0.4130864441394806,0.9092323780059814,0.0,0.0,0.0,0.0,0.0,0.0
780,1724813205608350544,-1.7705994844436646,-0.6603992581367493,0.20078687369823456,-0.0294641200453043,-0.04270055890083313,-0.4126057028770447,0.9094312787055969,0.0,0.0,0.0,0.0,0.0,0.0
782,1724813205614885317,-1.7708556652069092,-0.6606116890907288,0.2010163962841034,-0.030041031539440155,-0.04169644042849541,-0.41231074929237366,0.9095926284790039,0.0,0.0,0.0,0.0,0.0,0.0
784,1724813205626437303,-1.7711762189865112,-0.6609492897987366,0.20078346133232117,-0.031894750893116,-0.04158307984471321,-0.41094771027565,0.9101514220237732,0.0,0.0,0.0,0.0,0.0,0.0
786,1724813205634510330,-1.771478533744812,-0.6612223386764526,0.20073916018009186,-0.032645050436258316,-0.041073478758335114,-0.40957316756248474,0.9107673764228821,0.0,0.0,0.0,0.0,0.0,0.0
788,1724813205645025538,-1.771787166595459,-0.6614289283752441,0.20086054503917694,-0.03298184275627136,-0.03995682671666145,-0.4085576832294464,0.9112608432769775,0.0,0.0,0.0,0.0,0.0,0.0
790,1724813205654192958,-1.7721184492111206,-0.6616252660751343,0.20097623765468597,-0.033834412693977356,-0.03890816494822502,-0.4077407717704773,0.9116407632827759,0.0,0.0,0.0,0.0,0.0,0.0
792,1724813205664409923,-1.7724683284759521,-0.6616976261138916,0.2011578381061554,-0.03439159318804741,-0.03762088343501091,-0.40746599435806274,0.9117968082427979,0.0,0.0,0.0,0.0,0.0,0.0
794,1724813205674464281,-1.7728328704833984,-0.6617449522018433,0.20121945440769196,-0.03499893844127655,-0.0364682637155056,-0.4069051742553711,0.9120709300041199,0.0,0.0,0.0,0.0,0.0,0.0
796,1724813205684503144,-1.773194432258606,-0.6613470911979675,0.2022600919008255,-0.033763546496629715,-0.03361174464225769,-0.4081621766090393,0.9116654396057129,0.0,0.0,0.0,0.0,0.0,0.0
798,1724813205694581021,-1.7736111879348755,-0.661337673664093,0.20237356424331665,-0.03442903608083725,-0.0324198454618454,-0.40747785568237305,0.9119898080825806,0.0,0.0,0.0,0.0,0.0,0.0
800,1724813205704849448,-1.7741554975509644,-0.6613944172859192,0.20239399373531342,-0.0362936295568943,-0.03132489323616028,-0.40630337595939636,0.9124796390533447,0.0,0.0,0.0,0.0,0.0,0.0
802,1724813205714555853,-1.7745728492736816,-0.6613432765007019,0.20261479914188385,-0.03607653081417084,-0.03001973405480385,-0.40564897656440735,0.9128233194351196,0.0,0.0,0.0,0.0,0.0,0.0
804,1724813205727066563,-1.7750667333602905,-0.6612799167633057,0.20289357006549835,-0.03684839606285095,-0.028253041207790375,-0.4050807058811188,0.9131010174751282,0.0,0.0,0.0,0.0,0.0,0.0
806,1724813205734622558,-1.7755892276763916,-0.6612102389335632,0.20312783122062683,-0.03753732144832611,-0.02689370885491371,-0.40453198552131653,0.9133573174476624,0.0,0.0,0.0,0.0,0.0,0.0
808,1724813205744439288,-1.7761998176574707,-0.661483645439148,0.20278754830360413,-0.03866979479789734,-0.02700813300907612,-0.40245646238327026,0.9142231941223145,0.0,0.0,0.0,0.0,0.0,0.0
810,1724813205758167516,-1.7768794298171997,-0.6616442203521729,0.20237860083580017,-0.04037759453058243,-0.027140194550156593,-0.40002283453941345,0.9152129888534546,0.0,0.0,0.0,0.0,0.0,0.0
812,1724813205778947751,-1.7775256633758545,-0.6616169214248657,0.20250175893306732,-0.04177402704954147,-0.025966642424464226,-0.39857175946235657,0.9158173203468323,0.0,0.0,0.0,0.0,0.0,0.0
814,1724813205779388740,-1.7782392501831055,-0.6616483926773071,0.20253866910934448,-0.04301389679312706,-0.024760214611887932,-0.3966113030910492,0.9166440367698669,0.0,0.0,0.0,0.0,0.0,0.0
816,1724813205785469481,-1.778850793838501,-0.6613937616348267,0.20315773785114288,-0.043151747435331345,-0.022303879261016846,-0.3969963788986206,0.9165339469909668,0.0,0.0,0.0,0.0,0.0,0.0
818,1724813205794854771,-1.7796159982681274,-0.6613298654556274,0.20330201089382172,-0.04395999759435654,-0.02099684439599514,-0.39601197838783264,0.9169521927833557,0.0,0.0,0.0,0.0,0.0,0.0
820,1724813205804925722,-1.780317783355713,-0.6612238883972168,0.20348438620567322,-0.04398728907108307,-0.018801946192979813,-0.39534881711006165,0.9172845482826233,0.0,0.0,0.0,0.0,0.0,0.0
822,1724813205814708342,-1.7811400890350342,-0.6612728238105774,0.2035769522190094,-0.04455292969942093,-0.017856167629361153,-0.39314213395118713,0.9182241559028625,0.0,0.0,0.0,0.0,0.0,0.0
824,1724813205824834946,-1.7819628715515137,-0.6612826585769653,0.20371019840240479,-0.04581576958298683,-0.016599075868725777,-0.39139509201049805,0.9189316630363464,0.0,0.0,0.0,0.0,0.0,0.0
826,1724813205835266224,-1.7829023599624634,-0.6612824201583862,0.20364856719970703,-0.047404173761606216,-0.016098549589514732,-0.3892756998538971,0.9197598695755005,0.0,0.0,0.0,0.0,0.0,0.0
828,1724813205844376472,-1.783728837966919,-0.6612032651901245,0.20369020104408264,-0.04811382666230202,-0.014807898551225662,-0.38816192746162415,0.920215368270874,0.0,0.0,0.0,0.0,0.0,0.0
830,1724813205859217016,-1.7845712900161743,-0.6612303256988525,0.20362289249897003,-0.048883892595767975,-0.013697374612092972,-0.3863137662410736,0.9209692478179932,0.0,0.0,0.0,0.0,0.0,0.0
832,1724813205864635489,-1.7854844331741333,-0.6611666083335876,0.20365169644355774,-0.049932487308979034,-0.012307992205023766,-0.38444796204566956,0.92171311378479,0.0,0.0,0.0,0.0,0.0,0.0
834,1724813205875053424,-1.7863198518753052,-0.6609470248222351,0.20399686694145203,-0.05088649317622185,-0.010355837643146515,-0.38332071900367737,0.9221543073654175,0.0,0.0,0.0,0.0,0.0,0.0
836,1724813205884787241,-1.7871860265731812,-0.6608789563179016,0.20407810807228088,-0.0520683228969574,-0.0090681416913867,-0.38165512681007385,0.9227925539016724,0.0,0.0,0.0,0.0,0.0,0.0
838,1724813205894855300,-1.7881319522857666,-0.6609179377555847,0.20387306809425354,-0.053331464529037476,-0.008876335807144642,-0.37933188676834106,0.923679769039154,0.0,0.0,0.0,0.0,0.0,0.0
840,1724813205906755040,-1.7890000343322754,-0.660851776599884,0.2038389891386032,-0.05434830114245415,-0.008004077710211277,-0.37761592864990234,0.9243313074111938,0.0,0.0,0.0,0.0,0.0,0.0
842,1724813205914547898,-1.7897971868515015,-0.660820484161377,0.20350190997123718,-0.05544412136077881,-0.006633613724261522,-0.37603387236595154,0.9249219298362732,0.0,0.0,0.0,0.0,0.0,0.0
844,1724813205928794415,-1.7907612323760986,-0.6608972549438477,0.2032429575920105,-0.05752493813633919,-0.00684307562187314,-0.3733168840408325,0.9258934259414673,0.0,0.0,0.0,0.0,0.0,0.0
846,1724813205934417953,-1.791723370552063,-0.6611831188201904,0.20242255926132202,-0.053023774176836014,-0.010054969228804111,-0.36825427412986755,0.9281574487686157,0.0,0.0,0.0,0.0,0.0,0.0
848,1724813205945046973,-1.7926243543624878,-0.6612499952316284,0.20213894546031952,-0.05320078134536743,-0.009806673042476177,-0.3657275140285492,0.9291485548019409,0.0,0.0,0.0,0.0,0.0,0.0
850,1724813205956096455,-1.7934359312057495,-0.6610749363899231,0.20204302668571472,-0.054198481142520905,-0.008766718208789825,-0.3642192482948303,0.9296934604644775,0.0,0.0,0.0,0.0,0.0,0.0
852,1724813205965442153,-1.7943915128707886,-0.6610521674156189,0.2018359750509262,-0.055731672793626785,-0.008136323653161526,-0.3619041442871094,0.9305124282836914,0.0,0.0,0.0,0.0,0.0,0.0
854,1724813205976581679,-1.7951796054840088,-0.6609122157096863,0.20174874365329742,-0.056753940880298615,-0.007178596220910549,-0.36060938239097595,0.9309609532356262,0.0,0.0,0.0,0.0,0.0,0.0
856,1724813205984896833,-1.7960374355316162,-0.6607590317726135,0.20167449116706848,-0.05748805031180382,-0.00604203948751092,-0.35920313000679016,0.9314675331115723,0.0,0.0,0.0,0.0,0.0,0.0
858,1724813205994499434,-1.7968831062316895,-0.6608320474624634,0.20138999819755554,-0.058577343821525574,-0.005430996883660555,-0.35684147477149963,0.9323108196258545,0.0,0.0,0.0,0.0,0.0,0.0
860,1724813206005614297,-1.7976100444793701,-0.6605580449104309,0.20143209397792816,-0.059554338455200195,-0.002207883633673191,-0.35623496770858765,0.9324939846992493,0.0,0.0,0.0,0.0,0.0,0.0
862,1724813206014958055,-1.7985749244689941,-0.6606629490852356,0.20062190294265747,-0.06106926500797272,-0.0043494016863405704,-0.35249531269073486,0.9338086843490601,0.0,0.0,0.0,0.0,0.0,0.0
864,1724813206025872603,-1.7993346452713013,-0.6605032682418823,0.2002938836812973,-0.061473481357097626,-0.0038518651854246855,-0.35095539689064026,0.9343642592430115,0.0,0.0,0.0,0.0,0.0,0.0
866,1724813206035533148,-1.8001056909561157,-0.6605327129364014,0.19985580444335938,-0.061971280723810196,-0.004040562082082033,-0.3484102189540863,0.9352827072143555,0.0,0.0,0.0,0.0,0.0,0.0
868,1724813206044799669,-1.8008207082748413,-0.6606203317642212,0.1993941366672516,-0.06234268099069595,-0.00406491756439209,-0.3459024727344513,0.9361881613731384,0.0,0.0,0.0,0.0,0.0,0.0
870,1724813206055076445,-1.8013910055160522,-0.6606104373931885,0.19911465048789978,-0.0626179426908493,-0.0032914800103753805,-0.3446274697780609,0.9366430044174194,0.0,0.0,0.0,0.0,0.0,0.0
872,1724813206067500009,-1.802019715309143,-0.6606355309486389,0.19895708560943604,-0.06277529895305634,-0.0019601285457611084,-0.34354326128959656,0.9370344281196594,0.0,0.0,0.0,0.0,0.0,0.0
874,1724813206074549522,-1.8027533292770386,-0.6606464982032776,0.19896884262561798,-0.06366213411092758,-0.00042809240403585136,-0.34243321418762207,0.9373827576637268,0.0,0.0,0.0,0.0,0.0,0.0
876,1724813206084961545,-1.8034437894821167,-0.6607455015182495,0.1989210695028305,-0.0646761804819107,0.0008750970591790974,-0.34159547090530396,0.9376187324523926,0.0,0.0,0.0,0.0,0.0,0.0
878,1724813206094325589,-1.8041720390319824,-0.6608714461326599,0.1988382637500763,-0.06472377479076385,0.0016534392489120364,-0.34056299924850464,0.9379898309707642,0.0,0.0,0.0,0.0,0.0,0.0
880,1724813206104868338,-1.8051503896713257,-0.6614841818809509,0.1978120356798172,-0.06627742946147919,-0.002974245697259903,-0.3348221182823181,0.9399428367614746,0.0,0.0,0.0,0.0,0.0,0.0
882,1724813206115534021,-1.8058290481567383,-0.6613856554031372,0.19783760607242584,-0.06594967842102051,-0.0011686705984175205,-0.3351970911026001,0.9398362636566162,0.0,0.0,0.0,0.0,0.0,0.0
884,1724813206124682989,-1.8066456317901611,-0.6614183783531189,0.19773586094379425,-0.06562324613332748,-0.00038717174902558327,-0.3341754376888275,0.9402235746383667,0.0,0.0,0.0,0.0,0.0,0.0
886,1724813206136849940,-1.8074908256530762,-0.6614810228347778,0.19770953059196472,-0.06551004946231842,0.00012817134847864509,-0.3329341411590576,0.9406716823577881,0.0,0.0,0.0,0.0,0.0,0.0
888,1724813206144703696,-1.8083606958389282,-0.6614975333213806,0.19767630100250244,-0.06604152917861938,0.0008686717483215034,-0.3319539725780487,0.9409804940223694,0.0,0.0,0.0,0.0,0.0,0.0
890,1724813206157142518,-1.809664011001587,-0.6619423627853394,0.19684821367263794,-0.06714652478694916,-0.0036367177963256836,-0.32765159010887146,0.9424025416374207,0.0,0.0,0.0,0.0,0.0,0.0
892,1724813206164407998,-1.810776948928833,-0.6623464822769165,0.19642102718353271,-0.06687876582145691,-0.003918448928743601,-0.3257157802581787,0.9430912137031555,0.0,0.0,0.0,0.0,0.0,0.0
894,1724813206177996891,-1.8119378089904785,-0.6626936793327332,0.19616129994392395,-0.06794814020395279,-0.004562439862638712,-0.32396119832992554,0.9436160922050476,0.0,0.0,0.0,0.0,0.0,0.0
896,1724813206184514151,-1.813096046447754,-0.6629326939582825,0.19569949805736542,-0.06709107011556625,-0.0037967150565236807,-0.32419252395629883,0.9436014294624329,0.0,0.0,0.0,0.0,0.0,0.0
898,1724813206194909546,-1.8142166137695312,-0.6634383201599121,0.19532376527786255,-0.066070057451725,-0.0038131496403366327,-0.32241344451904297,0.9442826509475708,0.0,0.0,0.0,0.0,0.0,0.0
900,1724813206208902308,-1.8153553009033203,-0.6639761328697205,0.19507350027561188,-0.06774943321943283,-0.0034141195937991142,-0.3200639486312866,0.9449642896652222,0.0,0.0,0.0,0.0,0.0,0.0
902,1724813206214455835,-1.8166598081588745,-0.6643065810203552,0.19488589465618134,-0.0679357573390007,-0.003451481694355607,-0.3197016417980194,0.9450733661651611,0.0,0.0,0.0,0.0,0.0,0.0
904,1724813206225947353,-1.8179649114608765,-0.6648957133293152,0.19447451829910278,-0.06726893782615662,-0.003772387746721506,-0.31788402795791626,0.945732831954956,0.0,0.0,0.0,0.0,0.0,0.0
906,1724813206236254903,-1.8192319869995117,-0.6654475331306458,0.19409236311912537,-0.06643738597631454,-0.004117271862924099,-0.3157031536102295,0.9465203881263733,0.0,0.0,0.0,0.0,0.0,0.0
908,1724813206244879431,-1.820462942123413,-0.6660313010215759,0.19343270361423492,-0.06792515516281128,-0.005738500971347094,-0.3119319975376129,0.9476559162139893,0.0,0.0,0.0,0.0,0.0,0.0
910,1724813206255129758,-1.8216698169708252,-0.6661242842674255,0.19313021004199982,-0.06876730918884277,-0.005898891948163509,-0.3105430603027344,0.948050320148468,0.0,0.0,0.0,0.0,0.0,0.0
912,1724813206264900574,-1.822809100151062,-0.6662169694900513,0.19270071387290955,-0.06832028925418854,-0.005564784165471792,-0.3091377913951874,0.9485437273979187,0.0,0.0,0.0,0.0,0.0,0.0
914,1724813206276161207,-1.823950171470642,-0.6663727164268494,0.1921299397945404,-0.06816588342189789,-0.0055769081227481365,-0.30707260966300964,0.9492253661155701,0.0,0.0,0.0,0.0,0.0,0.0
916,1724813206285725783,-1.824960708618164,-0.6660529375076294,0.19211415946483612,-0.0669649988412857,-0.002110953675583005,-0.30849677324295044,0.9488629698753357,0.0,0.0,0.0,0.0,0.0,0.0
918,1724813206303080143,-1.8260469436645508,-0.6660293340682983,0.19167305529117584,-0.06592507660388947,-0.0007302779122255743,-0.3074811100959778,0.9492674469947815,0.0,0.0,0.0,0.0,0.0,0.0
920,1724813206305717611,-1.8271788358688354,-0.666246235370636,0.19053925573825836,-0.06751415878534317,-0.003943449817597866,-0.30208805203437805,0.9508780837059021,0.0,0.0,0.0,0.0,0.0,0.0
922,1724813206315225871,-1.8281338214874268,-0.6659108400344849,0.1902453601360321,-0.06756287813186646,-0.0006145477527752519,-0.30228716135025024,0.9508193135261536,0.0,0.0,0.0,0.0,0.0,0.0
924,1724813206327618005,-1.8290009498596191,-0.6655105948448181,0.19012153148651123,-0.06547118723392487,0.0013995281187817454,-0.3023732602596283,0.9509374499320984,0.0,0.0,0.0,0.0,0.0,0.0
926,1724813206335374972,-1.8299272060394287,-0.6653102040290833,0.18968908488750458,-0.06449223309755325,0.0019116977928206325,-0.3012307584285736,0.9513659477233887,0.0,0.0,0.0,0.0,0.0,0.0
928,1724813206345475646,-1.8308494091033936,-0.6651630401611328,0.189187154173851,-0.06428548693656921,0.0028526613023132086,-0.29997488856315613,0.9517743587493896,0.0,0.0,0.0,0.0,0.0,0.0
930,1724813206357100129,-1.831794261932373,-0.6649410724639893,0.1889459490776062,-0.06392597407102585,0.0038583718705922365,-0.29873672127723694,0.9521843791007996,0.0,0.0,0.0,0.0,0.0,0.0
932,1724813206364721344,-1.8326674699783325,-0.6648622751235962,0.1885976493358612,-0.063249871134758,0.00427599623799324,-0.297148734331131,0.9527244567871094,0.0,0.0,0.0,0.0,0.0,0.0
934,1724813206375108584,-1.8335129022598267,-0.6646566390991211,0.188241109251976,-0.06353133916854858,0.005125598981976509,-0.29603904485702515,0.953046977519989,0.0,0.0,0.0,0.0,0.0,0.0
936,1724813206385526638,-1.8344136476516724,-0.6644877791404724,0.18778227269649506,-0.06392903625965118,0.006197208538651466,-0.29463115334510803,0.9534502029418945,0.0,0.0,0.0,0.0,0.0,0.0
938,1724813206394866488,-1.8351426124572754,-0.664348304271698,0.18732799589633942,-0.06354280561208725,0.007246551103889942,-0.29320573806762695,0.95390784740448,0.0,0.0,0.0,0.0,0.0,0.0
940,1724813206407451577,-1.8356961011886597,-0.6640686988830566,0.18678706884384155,-0.0640309602022171,0.008477052673697472,-0.29198211431503296,0.9542403817176819,0.0,0.0,0.0,0.0,0.0,0.0
942,1724813206421700505,-1.8363760709762573,-0.6638871431350708,0.18609249591827393,-0.06426040828227997,0.00929279625415802,-0.2905479669570923,0.9546549916267395,0.0,0.0,0.0,0.0,0.0,0.0
944,1724813206425322641,-1.8366756439208984,-0.6635440587997437,0.18547916412353516,-0.06464403122663498,0.010648194700479507,-0.2898815870285034,0.9548174738883972,0.0,0.0,0.0,0.0,0.0,0.0
946,1724813206436501609,-1.8370158672332764,-0.6633538603782654,0.18487046658992767,-0.06450409442186356,0.011506261304020882,-0.2890563905239105,0.9550671577453613,0.0,0.0,0.0,0.0,0.0,0.0
948,1724813206445478215,-1.8371297121047974,-0.6631128787994385,0.18432189524173737,-0.06463877111673355,0.012340281158685684,-0.2882033884525299,0.9553054571151733,0.0,0.0,0.0,0.0,0.0,0.0
950,1724813206485828004,-1.8372344970703125,-0.6632164120674133,0.18317319452762604,-0.0648069754242897,0.011374062858521938,-0.2858489751815796,0.9560131430625916,0.0,0.0,0.0,0.0,0.0,0.0
952,1724813206486295969,-1.8372666835784912,-0.6627844572067261,0.18300539255142212,-0.06410568952560425,0.014269749633967876,-0.28707918524742126,0.9556528925895691,0.0,0.0,0.0,0.0,0.0,0.0
954,1724813206486602055,-1.8370966911315918,-0.6627106666564941,0.18254172801971436,-0.06384401768445969,0.015165130607783794,-0.2865198850631714,0.9558244943618774,0.0,0.0,0.0,0.0,0.0,0.0
956,1724813206486906677,-1.8370929956436157,-0.6628310084342957,0.18205207586288452,-0.06275542825460434,0.015468817204236984,-0.2855915427207947,0.9561694860458374,0.0,0.0,0.0,0.0,0.0,0.0
958,1724813206494471183,-1.8368868827819824,-0.6627855896949768,0.1817113310098648,-0.06258509308099747,0.016590135172009468,-0.28537359833717346,0.9562269449234009,0.0,0.0,0.0,0.0,0.0,0.0
960,1724813206510463074,-1.8366360664367676,-0.6628214716911316,0.18134552240371704,-0.06285475939512253,0.017781006172299385,-0.2854829430580139,0.9561551213264465,0.0,0.0,0.0,0.0,0.0,0.0
962,1724813206514164920,-1.8364826440811157,-0.6629875302314758,0.18101003766059875,-0.06160975247621536,0.018679844215512276,-0.2849554419517517,0.9563764333724976,0.0,0.0,0.0,0.0,0.0,0.0
964,1724813206525312324,-1.8361752033233643,-0.6630564332008362,0.18076789379119873,-0.06071117892861366,0.01938602328300476,-0.2848842740058899,0.9564409852027893,0.0,0.0,0.0,0.0,0.0,0.0
966,1724813206535856339,-1.8356118202209473,-0.6633939146995544,0.18004737794399261,-0.058670032769441605,0.01794917695224285,-0.2836136221885681,0.9569739103317261,0.0,0.0,0.0,0.0,0.0,0.0
968,1724813206544167571,-1.8352046012878418,-0.6635660529136658,0.17943236231803894,-0.058125000447034836,0.017957119271159172,-0.28361183404922485,0.9570075869560242,0.0,0.0,0.0,0.0,0.0,0.0
970,1724813206554954300,-1.8348848819732666,-0.6637362837791443,0.17902357876300812,-0.0574607290327549,0.01832195371389389,-0.2833006680011749,0.9571328163146973,0.0,0.0,0.0,0.0,0.0,0.0
972,1724813206564840112,-1.8345304727554321,-0.6638129949569702,0.1785667985677719,-0.05701471492648125,0.018518246710300446,-0.2826750576496124,0.9573407173156738,0.0,0.0,0.0,0.0,0.0,0.0
974,1724813206575513650,-1.8342292308807373,-0.6636853814125061,0.17832235991954803,-0.05795811116695404,0.020689425989985466,-0.28349193930625916,0.9569979906082153,0.0,0.0,0.0,0.0,0.0,0.0
976,1724813206585746663,-1.8338172435760498,-0.6637363433837891,0.17770661413669586,-0.05735459923744202,0.021383468061685562,-0.2833672761917114,0.9570559859275818,0.0,0.0,0.0,0.0,0.0,0.0
978,1724813206594267355,-1.8334832191467285,-0.6637312769889832,0.1770252138376236,-0.05701136216521263,0.021966952830553055,-0.2830050587654114,0.9571705460548401,0.0,0.0,0.0,0.0,0.0,0.0
980,1724813206607591029,-1.8330841064453125,-0.6635759472846985,0.1766873002052307,-0.05619248375296593,0.02306831255555153,-0.28331834077835083,0.9571002721786499,0.0,0.0,0.0,0.0,0.0,0.0
982,1724813206614512025,-1.8326218128204346,-0.6634814739227295,0.17593829333782196,-0.055142439901828766,0.023080145940184593,-0.28370124101638794,0.9570476412773132,0.0,0.0,0.0,0.0,0.0,0.0
984,1724813206624334513,-1.8322700262069702,-0.6633110642433167,0.17546331882476807,-0.0549156628549099,0.023851344361901283,-0.284233033657074,0.9568840265274048,0.0,0.0,0.0,0.0,0.0,0.0
986,1724813206634733930,-1.8319746255874634,-0.6632086634635925,0.17495445907115936,-0.05494000390172005,0.023765942081809044,-0.28477370738983154,0.9567240476608276,0.0,0.0,0.0,0.0,0.0,0.0
988,1724813206644242915,-1.831669807434082,-0.6628846526145935,0.17444288730621338,-0.05399534851312637,0.023946113884449005,-0.28594809770584106,0.9564229249954224,0.0,0.0,0.0,0.0,0.0,0.0
990,1724813206660347841,-1.8314718008041382,-0.6626696586608887,0.17390871047973633,-0.0523114912211895,0.02376127429306507,-0.2867142856121063,0.9562917351722717,0.0,0.0,0.0,0.0,0.0,0.0
992,1724813206664281852,-1.8313180208206177,-0.6625586748123169,0.1734054833650589,-0.051120880991220474,0.023272544145584106,-0.2872207760810852,0.9562161564826965,0.0,0.0,0.0,0.0,0.0,0.0
994,1724813206674376483,-1.8311915397644043,-0.6624661087989807,0.17289774119853973,-0.049725648015737534,0.022807186469435692,-0.2876274883747101,0.9561787247657776,0.0,0.0,0.0,0.0,0.0,0.0
996,1724813206685783882,-1.8312102556228638,-0.6626038551330566,0.17220166325569153,-0.04898949712514877,0.020650453865528107,-0.2868402898311615,0.9565021395683289,0.0,0.0,0.0,0.0,0.0,0.0
998,1724813206694890333,-1.8312679529190063,-0.6624143719673157,0.17169375717639923,-0.048411209136247635,0.02003016509115696,-0.28785616159439087,0.9562394618988037,0.0,0.0,0.0,0.0,0.0,0.0
1000,1724813206706520951,-1.831375002861023,-0.6622848510742188,0.17108523845672607,-0.04725204408168793,0.01875726692378521,-0.2883891761302948,0.9561627507209778,0.0,0.0,0.0,0.0,0.0,0.0
1002,1724813206714406569,-1.8314820528030396,-0.6618505716323853,0.17055316269397736,-0.045774638652801514,0.019393332302570343,-0.2902810871601105,0.9556492567062378,0.0,0.0,0.0,0.0,0.0,0.0
1004,1724813206726213075,-1.831680417060852,-0.6616226434707642,0.1698586791753769,-0.04490772634744644,0.01867816597223282,-0.29046934843063354,0.9556474089622498,0.0,0.0,0.0,0.0,0.0,0.0
1006,1724813206734510138,-1.8319551944732666,-0.6613507270812988,0.16910414397716522,-0.04424569383263588,0.018176352605223656,-0.2906967103481293,0.9556189179420471,0.0,0.0,0.0,0.0,0.0,0.0
1008,1724813206744386771,-1.832292079925537,-0.6610592603683472,0.1683293730020523,-0.04317197576165199,0.01729767955839634,-0.2908332049846649,0.9556427597999573,0.0,0.0,0.0,0.0,0.0,0.0
1010,1724813206755111636,-1.8328207731246948,-0.6607286930084229,0.16748841106891632,-0.044225163757801056,0.016836000606417656,-0.2911916971206665,0.9554936289787292,0.0,0.0,0.0,0.0,0.0,0.0
1012,1724813206764411454,-1.8333226442337036,-0.6603338718414307,0.16692817211151123,-0.04222004488110542,0.016418345272541046,-0.29153352975845337,0.9554874300956726,0.0,0.0,0.0,0.0,0.0,0.0
1014,1724813206775843049,-1.833700180053711,-0.6598914265632629,0.16630315780639648,-0.038302164524793625,0.01501508243381977,-0.2919868230819702,0.9555370807647705,0.0,0.0,0.0,0.0,0.0,0.0
1016,1724813206788065052,-1.8341821432113647,-0.6593435406684875,0.1658353954553604,-0.03650345653295517,0.0144782280549407,-0.292858749628067,0.9553489685058594,0.0,0.0,0.0,0.0,0.0,0.0
1018,1724813206877401171,-1.8347761631011963,-0.6589176654815674,0.1652355045080185,-0.03578462079167366,0.013865618035197258,-0.29346391558647156,0.9551995396614075,0.0,0.0,0.0,0.0,0.0,0.0
1020,1724813206877679719,-1.8353097438812256,-0.6584100723266602,0.16478680074214935,-0.03457440808415413,0.013574037700891495,-0.2940464913845062,0.9550691246986389,0.0,0.0,0.0,0.0,0.0,0.0
1022,1724813206878025396,-1.8357598781585693,-0.6578709483146667,0.16448135673999786,-0.03288421034812927,0.013267673552036285,-0.29453620314598083,0.9549822807312012,0.0,0.0,0.0,0.0,0.0,0.0
1024,1724813206878412524,-1.836173176765442,-0.6574114561080933,0.16408957540988922,-0.031144315376877785,0.012496312148869038,-0.2943591773509979,0.9551055431365967,0.0,0.0,0.0,0.0,0.0,0.0
1026,1724813206878744010,-1.8365676403045654,-0.656882643699646,0.16368243098258972,-0.02970908209681511,0.012380702421069145,-0.2942873239517212,0.9551748633384705,0.0,0.0,0.0,0.0,0.0,0.0
1028,1724813206879068411,-1.836999773979187,-0.6563041806221008,0.16325612366199493,-0.028655244037508965,0.012392016127705574,-0.29442480206489563,0.9551646113395691,0.0,0.0,0.0,0.0,0.0,0.0
1030,1724813206879428328,-1.8374550342559814,-0.6558277606964111,0.16246397793293,-0.027184661477804184,0.01131282839924097,-0.2940979301929474,0.9553216099739075,0.0,0.0,0.0,0.0,0.0,0.0
1032,1724813206879696983,-1.8378812074661255,-0.655178964138031,0.16218996047973633,-0.025881627574563026,0.01138851698487997,-0.2946138083934784,0.9551979899406433,0.0,0.0,0.0,0.0,0.0,0.0
1034,1724813206880069310,-1.8383586406707764,-0.6548069715499878,0.16121713817119598,-0.024813124909996986,0.008704612962901592,-0.29300135374069214,0.9557504057884216,0.0,0.0,0.0,0.0,0.0,0.0
1036,1724813206884586125,-1.8388043642044067,-0.654086709022522,0.16067667305469513,-0.02382960543036461,0.008617418818175793,-0.29365554451942444,0.9555754661560059,0.0,0.0,0.0,0.0,0.0,0.0
1038,1724813206895054028,-1.839200735092163,-0.6532286405563354,0.1602228730916977,-0.021315667778253555,0.009476935490965843,-0.29551589488983154,0.9550529718399048,0.0,0.0,0.0,0.0,0.0,0.0
1040,1724813206905311877,-1.839621901512146,-0.6526141166687012,0.1594395786523819,-0.01936749741435051,0.008581767790019512,-0.29589930176734924,0.9549842476844788,0.0,0.0,0.0,0.0,0.0,0.0
1042,1724813206914727388,-1.8399227857589722,-0.6519929766654968,0.15849457681179047,-0.019083254039287567,0.007598200812935829,-0.2963440716266632,0.9548603892326355,0.0,0.0,0.0,0.0,0.0,0.0
1044,1724813206926467796,-1.8401975631713867,-0.6512297987937927,0.15799929201602936,-0.018933238461613655,0.007842054590582848,-0.29730337858200073,0.9545630812644958,0.0,0.0,0.0,0.0,0.0,0.0
1046,1724813206934527976,-1.8403174877166748,-0.6504793167114258,0.1574488878250122,-0.017631977796554565,0.007803409826010466,-0.297957181930542,0.9543845653533936,0.0,0.0,0.0,0.0,0.0,0.0
1048,1724813206944674672,-1.8403277397155762,-0.6499253511428833,0.15704403817653656,-0.01615631766617298,0.007295465096831322,-0.2973446846008301,0.9546056985855103,0.0,0.0,0.0,0.0,0.0,0.0
1050,1724813206955566496,-1.8402951955795288,-0.6493021249771118,0.15664805471897125,-0.014139016158878803,0.007727900054305792,-0.2976519763469696,0.9545384645462036,0.0,0.0,0.0,0.0,0.0,0.0
1052,1724813206964842664,-1.840229868888855,-0.6486091017723083,0.15624259412288666,-0.01306840404868126,0.008363775908946991,-0.29804590344429016,0.9544255137443542,0.0,0.0,0.0,0.0,0.0,0.0
1054,1724813206977753311,-1.8402562141418457,-0.6479583978652954,0.15568602085113525,-0.011697255074977875,0.009911461733281612,-0.2994391620159149,0.9539923071861267,0.0,0.0,0.0,0.0,0.0,0.0
1056,1724813206984790892,-1.8402334451675415,-0.6471207737922668,0.1556747704744339,-0.010470346547663212,0.011301523074507713,-0.3007839620113373,0.9535678625106812,0.0,0.0,0.0,0.0,0.0,0.0
1058,1724813206994545154,-1.8403302431106567,-0.6464173197746277,0.15514715015888214,-0.009762447327375412,0.011985049583017826,-0.30194005370140076,0.9532015919685364,0.0,0.0,0.0,0.0,0.0,0.0
1060,1724813207005555523,-1.8405146598815918,-0.6460573673248291,0.15373823046684265,-0.008954293094575405,0.010273122228682041,-0.30162420868873596,0.9533295035362244,0.0,0.0,0.0,0.0,0.0,0.0
1062,1724813207014428718,-1.8407292366027832,-0.6456609964370728,0.15268266201019287,-0.008166398853063583,0.008365144021809101,-0.30084869265556335,0.953600287437439,0.0,0.0,0.0,0.0,0.0,0.0
1064,1724813207025360207,-1.8409844636917114,-0.6451478004455566,0.151852086186409,-0.007921725511550903,0.007838697172701359,-0.30131909251213074,0.953458309173584,0.0,0.0,0.0,0.0,0.0,0.0
1066,1724813207035541081,-1.8412296772003174,-0.6446957588195801,0.1510317623615265,-0.007194946054369211,0.006671075243502855,-0.30177798867225647,0.9533277153968811,0.0,0.0,0.0,0.0,0.0,0.0
1068,1724813207044371892,-1.8414746522903442,-0.6442254185676575,0.15033739805221558,-0.006593762431293726,0.0058233533054590225,-0.30213457345962524,0.9532247185707092,0.0,0.0,0.0,0.0,0.0,0.0
1070,1724813207055001107,-1.8415985107421875,-0.643507719039917,0.1499432921409607,-0.003921155817806721,0.0067978487350046635,-0.30429255962371826,0.9525463581085205,0.0,0.0,0.0,0.0,0.0,0.0
1072,1724813207064259704,-1.8417580127716064,-0.6429449915885925,0.14968174695968628,-0.0020874382462352514,0.006565009709447622,-0.30541136860847473,0.9521956443786621,0.0,0.0,0.0,0.0,0.0,0.0
1074,1724813207074924966,-1.8418476581573486,-0.64247065782547,0.14949949085712433,-0.0005706787342205644,0.006370555609464645,-0.30596429109573364,0.9520214796066284,0.0,0.0,0.0,0.0,0.0,0.0
1076,1724813207085749732,-1.841925024986267,-0.6420605778694153,0.14920714497566223,0.0008524378063157201,0.005914872977882624,-0.30653953552246094,0.9518391489982605,0.0,0.0,0.0,0.0,0.0,0.0
1078,1724813207115155730,-1.8420354127883911,-0.64156574010849,0.14907103776931763,0.0027533541433513165,0.005797740537673235,-0.30748820304870605,0.9515302777290344,0.0,0.0,0.0,0.0,0.0,0.0
1080,1724813207115774334,-1.8422026634216309,-0.6411483287811279,0.14877283573150635,0.0040555838495492935,0.005446806084364653,-0.30841562151908875,0.9512274265289307,0.0,0.0,0.0,0.0,0.0,0.0
1082,1724813207116176295,-1.8424400091171265,-0.6409918069839478,0.1481514275074005,0.004495193250477314,0.002820616587996483,-0.3077126741409302,0.9514645934104919,0.0,0.0,0.0,0.0,0.0,0.0
1084,1724813207126065496,-1.8426353931427002,-0.6404924392700195,0.147960364818573,0.006584830116480589,0.0033325909171253443,-0.3094048500061035,0.9509017467498779,0.0,0.0,0.0,0.0,0.0,0.0
1086,1724813207135279974,-1.8429391384124756,-0.6402115821838379,0.14753682911396027,0.008194074034690857,0.001969841541722417,-0.3096665143966675,0.9508079290390015,0.0,0.0,0.0,0.0,0.0,0.0
1088,1724813207145478392,-1.8432221412658691,-0.6399871706962585,0.14702530205249786,0.00944023858755827,0.0002804650575853884,-0.31008926033973694,0.9506605267524719,0.0,0.0,0.0,0.0,0.0,0.0
1090,1724813207154719991,-1.8434749841690063,-0.639802098274231,0.1465807408094406,0.010539354756474495,-0.0012809453764930367,-0.3103642761707306,0.9505584239959717,0.0,0.0,0.0,0.0,0.0,0.0
1092,1724813207164213160,-1.8438105583190918,-0.639666736125946,0.1460515409708023,0.010605329647660255,-0.0029941238462924957,-0.31064870953559875,0.9504609704017639,0.0,0.0,0.0,0.0,0.0,0.0
1094,1724813207176445870,-1.84401535987854,-0.6396117806434631,0.14545781910419464,0.012037688866257668,-0.006081515923142433,-0.31007713079452515,0.9506157636642456,0.0,0.0,0.0,0.0,0.0,0.0
1096,1724813207184363352,-1.8442341089248657,-0.6394835114479065,0.14474213123321533,0.012891635298728943,-0.008372482843697071,-0.3099137842655182,0.9506404399871826,0.0,0.0,0.0,0.0,0.0,0.0
1098,1724813207198256372,-1.844355583190918,-0.639033317565918,0.14473243057727814,0.014610770158469677,-0.007840832695364952,-0.31171664595603943,0.9500303864479065,0.0,0.0,0.0,0.0,0.0,0.0
1100,1724813207208929409,-1.844470500946045,-0.6388564705848694,0.14438532292842865,0.015813080593943596,-0.009109069593250751,-0.3120972216129303,0.9498748779296875,0.0,0.0,0.0,0.0,0.0,0.0
1102,1724813207214172513,-1.844605565071106,-0.6386572122573853,0.1443314105272293,0.016692601144313812,-0.009647442027926445,-0.3126567006111145,0.9496705532073975,0.0,0.0,0.0,0.0,0.0,0.0
1104,1724813207228009771,-1.8447740077972412,-0.6384307146072388,0.14421091973781586,0.01726425066590309,-0.010661535896360874,-0.3133509159088135,0.9494206309318542,0.0,0.0,0.0,0.0,0.0,0.0
1106,1724813207234295316,-1.8449594974517822,-0.6382656097412109,0.14412130415439606,0.018033573403954506,-0.011714733205735683,-0.3138098120689392,0.9492422938346863,0.0,0.0,0.0,0.0,0.0,0.0
1108,1724813207244652429,-1.8451579809188843,-0.6380512714385986,0.1440781205892563,0.01850716769695282,-0.012521309778094292,-0.3144499957561493,0.9490110874176025,0.0,0.0,0.0,0.0,0.0,0.0
1110,1724813207255629411,-1.8453316688537598,-0.6378113627433777,0.14392825961112976,0.019260400906205177,-0.013479550369083881,-0.31515827775001526,0.9487479329109192,0.0,0.0,0.0,0.0,0.0,0.0
1112,1724813207264124264,-1.8455021381378174,-0.6376043558120728,0.1438780426979065,0.01982310600578785,-0.014163704589009285,-0.3159121572971344,0.9484756588935852,0.0,0.0,0.0,0.0,0.0,0.0
1114,1724813207275445075,-1.8456934690475464,-0.6376301646232605,0.14341522753238678,0.01991172321140766,-0.016453266143798828,-0.3152009844779968,0.9486733675003052,0.0,0.0,0.0,0.0,0.0,0.0
1116,1724813207432163534,-1.8458725214004517,-0.6373912692070007,0.14324912428855896,0.020204585045576096,-0.017357632517814636,-0.3160110414028168,0.9483816027641296,0.0,0.0,0.0,0.0,0.0,0.0
1118,1724813207432452561,-1.8460813760757446,-0.6371635794639587,0.14299695193767548,0.020991245284676552,-0.018559694290161133,-0.3167330026626587,0.9481008052825928,0.0,0.0,0.0,0.0,0.0,0.0
1120,1724813207433197907,-1.8463245630264282,-0.6369225978851318,0.14279279112815857,0.021291054785251617,-0.01955973356962204,-0.3177519142627716,0.9477329850196838,0.0,0.0,0.0,0.0,0.0,0.0
1122,1724813207435165070,-1.846550464630127,-0.6366322636604309,0.14265798032283783,0.02155453711748123,-0.020256882533431053,-0.31876811385154724,0.9473710656166077,0.0,0.0,0.0,0.0,0.0,0.0
1124,1724813207435876021,-1.8467599153518677,-0.6363650560379028,0.1424788236618042,0.022314008325338364,-0.021224787458777428,-0.31956273317337036,0.9470645189285278,0.0,0.0,0.0,0.0,0.0,0.0
1126,1724813207436315090,-1.8469566106796265,-0.6361976861953735,0.1422141194343567,0.023495683446526527,-0.02278006635606289,-0.3201262056827545,0.9468095302581787,0.0,0.0,0.0,0.0,0.0,0.0
1128,1724813207436872124,-1.847176432609558,-0.6359657049179077,0.14183363318443298,0.023580454289913177,-0.024543290957808495,-0.3207813501358032,0.9465415477752686,0.0,0.0,0.0,0.0,0.0,0.0
1130,1724813207437105148,-1.8473150730133057,-0.6355084180831909,0.14198091626167297,0.025300681591033936,-0.023521773517131805,-0.32306328415870667,0.9457467198371887,0.0,0.0,0.0,0.0,0.0,0.0
1132,1724813207437357325,-1.8474599123001099,-0.6352343559265137,0.14182694256305695,0.025774719193577766,-0.024771830067038536,-0.3240295946598053,0.9453713297843933,0.0,0.0,0.0,0.0,0.0,0.0
1134,1724813207437691822,-1.847575306892395,-0.6350628137588501,0.1418278068304062,0.02680862881243229,-0.025612935423851013,-0.324739933013916,0.9450764060020447,0.0,0.0,0.0,0.0,0.0,0.0
1136,1724813207438042988,-1.8476879596710205,-0.6347907781600952,0.1417519450187683,0.027491290122270584,-0.02641109749674797,-0.3254943788051605,0.9447752237319946,0.0,0.0,0.0,0.0,0.0,0.0
1138,1724813207438294020,-1.847812533378601,-0.6345294117927551,0.14172381162643433,0.02786944806575775,-0.026852034032344818,-0.32634514570236206,0.9444581270217896,0.0,0.0,0.0,0.0,0.0,0.0
1140,1724813207438544773,-1.847951889038086,-0.6343024373054504,0.14160452783107758,0.02865772694349289,-0.02744515985250473,-0.327062726020813,0.9441691637039185,0.0,0.0,0.0,0.0,0.0,0.0
1142,1724813207438788003,-1.8480771780014038,-0.6341157555580139,0.14144667983055115,0.028970850631594658,-0.028218327090144157,-0.3276802599430084,0.9439226984977722,0.0,0.0,0.0,0.0,0.0,0.0
1144,1724813207439037593,-1.84822416305542,-0.6339072585105896,0.14129796624183655,0.02949691005051136,-0.02918107621371746,-0.3281622529029846,0.943709671497345,0.0,0.0,0.0,0.0,0.0,0.0
1146,1724813207439287542,-1.8483697175979614,-0.633706271648407,0.14115548133850098,0.02976410649716854,-0.0299686286598444,-0.3286767899990082,0.9434974789619446,0.0,0.0,0.0,0.0,0.0,0.0
1148,1724813207444863583,-1.84854257106781,-0.6334740519523621,0.14105650782585144,0.030235225334763527,-0.030507834628224373,-0.3293467164039612,0.9432316422462463,0.0,0.0,0.0,0.0,0.0,0.0
1150,1724813207455176514,-1.8487071990966797,-0.6333042979240417,0.1408715695142746,0.030665520578622818,-0.03144238889217377,-0.32958507537841797,0.9431037306785583,0.0,0.0,0.0,0.0,0.0,0.0
1152,1724813207464399125,-1.8488726615905762,-0.6333922743797302,0.14038412272930145,0.03078578971326351,-0.03414367884397507,-0.32854771614074707,0.9433678984642029,0.0,0.0,0.0,0.0,0.0,0.0
1154,1724813207477373591,-1.8489861488342285,-0.6332187056541443,0.14015701413154602,0.030955618247389793,-0.03519831970334053,-0.32878577709198,0.9432405829429626,0.0,0.0,0.0,0.0,0.0,0.0
1156,1724813207485428526,-1.849104881286621,-0.6330426931381226,0.139955073595047,0.031449634581804276,-0.036349281668663025,-0.3290358781814575,0.9430933594703674,0.0,0.0,0.0,0.0,0.0,0.0
1158,1724813207494813315,-1.8492168188095093,-0.6328805088996887,0.1397099494934082,0.031710729002952576,-0.03755512461066246,-0.3291884660720825,0.9429841637611389,0.0,0.0,0.0,0.0,0.0,0.0
1160,1724813207508899436,-1.8492404222488403,-0.6324265003204346,0.1398337334394455,0.032730624079704285,-0.036229174584150314,-0.33071327209472656,0.9424675703048706,0.0,0.0,0.0,0.0,0.0,0.0
1162,1724813207514297910,-1.8493198156356812,-0.6322420239448547,0.13974815607070923,0.033199746161699295,-0.03669392317533493,-0.3308117985725403,0.9423985481262207,0.0,0.0,0.0,0.0,0.0,0.0
1164,1724813207528744818,-1.8493983745574951,-0.6320657730102539,0.13964061439037323,0.03314032033085823,-0.037354398518800735,-0.3308919668197632,0.942346453666687,0.0,0.0,0.0,0.0,0.0,0.0
1166,1724813207534754782,-1.849469542503357,-0.6319488286972046,0.13954474031925201,0.03341437876224518,-0.037818074226379395,-0.3307832181453705,0.942356526851654,0.0,0.0,0.0,0.0,0.0,0.0
1168,1724813207544353902,-1.8495944738388062,-0.6318091750144958,0.13952632248401642,0.03405272588133812,-0.03811657056212425,-0.3306983411312103,0.9423514604568481,0.0,0.0,0.0,0.0,0.0,0.0
1170,1724813207554906081,-1.849646806716919,-0.631659746170044,0.13947418332099915,0.03432773798704147,-0.03841540589928627,-0.33080315589904785,0.9422924518585205,0.0,0.0,0.0,0.0,0.0,0.0
1172,1724813207564803575,-1.8496038913726807,-0.6317840814590454,0.13909181952476501,0.036177244037389755,-0.04059232771396637,-0.3294622302055359,0.9426018595695496,0.0,0.0,0.0,0.0,0.0,0.0
1174,1724813207578191949,-1.8496227264404297,-0.6316744685173035,0.1389915943145752,0.036485109478235245,-0.04097101837396622,-0.32923853397369385,0.9426517486572266,0.0,0.0,0.0,0.0,0.0,0.0
1176,1724813207585156109,-1.8496345281600952,-0.6315421462059021,0.13899853825569153,0.03647477552294731,-0.04093076288700104,-0.32927650213241577,0.9426406025886536,0.0,0.0,0.0,0.0,0.0,0.0
1178,1724813207596239878,-1.8496469259262085,-0.6313961148262024,0.1390349268913269,0.036349426954984665,-0.04076147451996803,-0.329385370016098,0.9426147937774658,0.0,0.0,0.0,0.0,0.0,0.0
1180,1724813207605226934,-1.8496334552764893,-0.6312875151634216,0.13908855617046356,0.036327213048934937,-0.040403105318546295,-0.3294295370578766,0.9426156282424927,0.0,0.0,0.0,0.0,0.0,0.0
1182,1724813207615680642,-1.8495995998382568,-0.631216824054718,0.13911473751068115,0.03606439754366875,-0.04024850204586983,-0.3294532895088196,0.9426239728927612,0.0,0.0,0.0,0.0,0.0,0.0
1184,1724813207624312901,-1.849523663520813,-0.6311264038085938,0.13921955227851868,0.03567171096801758,-0.039825718849897385,-0.3294604420661926,0.9426544308662415,0.0,0.0,0.0,0.0,0.0,0.0
1186,1724813207635757880,-1.849414348602295,-0.6310551166534424,0.13928282260894775,0.035440437495708466,-0.039489779621362686,-0.32945433259010315,0.9426794052124023,0.0,0.0,0.0,0.0,0.0,0.0
1188,1724813207644591808,-1.8492920398712158,-0.6309517621994019,0.1394369751214981,0.035078804939985275,-0.03870682045817375,-0.3296263813972473,0.9426652193069458,0.0,0.0,0.0,0.0,0.0,0.0
1190,1724813207660307618,-1.849120855331421,-0.6308525204658508,0.13957937061786652,0.03488239273428917,-0.038207586854696274,-0.32972586154937744,0.9426581263542175,0.0,0.0,0.0,0.0,0.0,0.0
1192,1724813207664492486,-1.8489373922348022,-0.6307258605957031,0.13976310193538666,0.03452411666512489,-0.037304315716028214,-0.3300650417804718,0.942588746547699,0.0,0.0,0.0,0.0,0.0,0.0
1194,1724813207674362921,-1.8486839532852173,-0.6306167244911194,0.1399838626384735,0.03439582884311676,-0.03653600439429283,-0.33032768964767456,0.9425315260887146,0.0,0.0,0.0,0.0,0.0,0.0
1196,1724813207779456526,-1.8483946323394775,-0.6304829120635986,0.14021112024784088,0.03413454070687294,-0.03564421087503433,-0.330705463886261,0.9424427151679993,0.0,0.0,0.0,0.0,0.0,0.0
1198,1724813207779770747,-1.8480093479156494,-0.6303882002830505,0.1403036266565323,0.0333845317363739,-0.03493119403719902,-0.33118391036987305,0.9423282742500305,0.0,0.0,0.0,0.0,0.0,0.0
1200,1724813207780495157,-1.8476550579071045,-0.6305336952209473,0.14009147882461548,0.032693907618522644,-0.036082372069358826,-0.32990407943725586,0.9427579641342163,0.0,0.0,0.0,0.0,0.0,0.0
1202,1724813207780739480,-1.8472678661346436,-0.6302001476287842,0.1405165195465088,0.03257559984922409,-0.03400561958551407,-0.3312701880931854,0.9423601031303406,0.0,0.0,0.0,0.0,0.0,0.0
1204,1724813207781070271,-1.8468348979949951,-0.6300915479660034,0.14064638316631317,0.032502662390470505,-0.033368002623319626,-0.3313447833061218,0.9423591494560242,0.0,0.0,0.0,0.0,0.0,0.0
1206,1724813207781412045,-1.8463174104690552,-0.6301574110984802,0.14050182700157166,0.03188185393810272,-0.03466437757015228,-0.33058375120162964,0.9426009058952332,0.0,0.0,0.0,0.0,0.0,0.0
1208,1724813207781658411,-1.8457450866699219,-0.6300626397132874,0.14045387506484985,0.03170085698366165,-0.03589458391070366,-0.3311181962490082,0.9423733353614807,0.0,0.0,0.0,0.0,0.0,0.0
1210,1724813207781908788,-1.8451735973358154,-0.629863440990448,0.1401016265153885,0.03170699253678322,-0.037099938839673996,-0.33178600668907166,0.9420915246009827,0.0,0.0,0.0,0.0,0.0,0.0
1212,1724813207782161451,-1.8445804119110107,-0.6296423673629761,0.14021934568881989,0.0312469694763422,-0.037158235907554626,-0.33222299814224243,0.9419505000114441,0.0,0.0,0.0,0.0,0.0,0.0
1214,1724813207782407199,-1.8439306020736694,-0.6294453144073486,0.14041733741760254,0.03089095465838909,-0.03659281134605408,-0.3328763246536255,0.9417536854743958,0.0,0.0,0.0,0.0,0.0,0.0
1216,1724813207786150040,-1.8430732488632202,-0.6291314363479614,0.14055033028125763,0.030366167426109314,-0.035267747938632965,-0.3342379331588745,0.9413390755653381,0.0,0.0,0.0,0.0,0.0,0.0
1218,1724813207794431746,-1.842327356338501,-0.6289288401603699,0.1408286839723587,0.029518645256757736,-0.03487768396735191,-0.33480679988861084,0.9411782622337341,0.0,0.0,0.0,0.0,0.0,0.0
1220,1724813207805037874,-1.841558814048767,-0.6286770701408386,0.1411159336566925,0.029410837218165398,-0.03452015295624733,-0.33551332354545593,0.9409432411193848,0.0,0.0,0.0,0.0,0.0,0.0
1222,1724813207815180358,-1.8407206535339355,-0.6284655928611755,0.14131596684455872,0.02983378805220127,-0.03427940607070923,-0.3363635540008545,0.940635085105896,0.0,0.0,0.0,0.0,0.0,0.0
1224,1724813207824650987,-1.839866042137146,-0.6282537579536438,0.14158932864665985,0.029805988073349,-0.033571574836969376,-0.33699601888656616,0.9404351115226746,0.0,0.0,0.0,0.0,0.0,0.0
1226,1724813207834717257,-1.839064121246338,-0.6279860138893127,0.14192673563957214,0.029780423268675804,-0.0329093299806118,-0.3378628194332123,0.9401483535766602,0.0,0.0,0.0,0.0,0.0,0.0
1228,1724813207854680805,-1.8383301496505737,-0.62778240442276,0.14222832024097443,0.028727034106850624,-0.03218594193458557,-0.3384541869163513,0.9399933815002441,0.0,0.0,0.0,0.0,0.0,0.0
1230,1724813207855069865,-1.8374607563018799,-0.6275378465652466,0.1425328403711319,0.028438642621040344,-0.03129604458808899,-0.3396238386631012,0.9396103024482727,0.0,0.0,0.0,0.0,0.0,0.0
1232,1724813207864435564,-1.836561679840088,-0.6271217465400696,0.14275799691677094,0.028622418642044067,-0.03129470720887184,-0.3416561186313629,0.9388677477836609,0.0,0.0,0.0,0.0,0.0,0.0
1234,1724813207874975821,-1.8357667922973633,-0.6269159317016602,0.1427883505821228,0.028392193838953972,-0.03174307942390442,-0.34234246611595154,0.9386095404624939,0.0,0.0,0.0,0.0,0.0,0.0
1236,1724813207885166914,-1.834936499595642,-0.6264858841896057,0.14317332208156586,0.02805202640593052,-0.030622059479355812,-0.3440927267074585,0.9380168318748474,0.0,0.0,0.0,0.0,0.0,0.0
1238,1724813207894597618,-1.8340798616409302,-0.6260676383972168,0.14350104331970215,0.028029831126332283,-0.029368050396442413,-0.34601423144340515,0.9373505711555481,0.0,0.0,0.0,0.0,0.0,0.0
1240,1724813207905150095,-1.833456039428711,-0.6260966062545776,0.14352013170719147,0.027486812323331833,-0.029466699808835983,-0.34517133235931396,0.9376742243766785,0.0,0.0,0.0,0.0,0.0,0.0
1242,1724813207915030425,-1.8326958417892456,-0.6259312033653259,0.1435110718011856,0.027603961527347565,-0.029168978333473206,-0.34579139947891235,0.9374516606330872,0.0,0.0,0.0,0.0,0.0,0.0
1244,1724813207927809376,-1.8320510387420654,-0.6257581114768982,0.14370158314704895,0.02809246815741062,-0.02896399050951004,-0.3464277386665344,0.9372084736824036,0.0,0.0,0.0,0.0,0.0,0.0
1246,1724813207935381316,-1.8313655853271484,-0.6255245208740234,0.14389725029468536,0.02856968343257904,-0.028735965490341187,-0.3472413122653961,0.9368999600410461,0.0,0.0,0.0,0.0,0.0,0.0
1248,1724813207950927959,-1.8307074308395386,-0.6253259181976318,0.14413565397262573,0.028824545443058014,-0.02802707999944687,-0.3482137620449066,0.9365525841712952,0.0,0.0,0.0,0.0,0.0,0.0
1250,1724813207954737118,-1.8302726745605469,-0.6252461671829224,0.1443367898464203,0.02897658571600914,-0.028176452964544296,-0.3486645817756653,0.9363757371902466,0.0,0.0,0.0,0.0,0.0,0.0
1252,1724813207964789435,-1.8297619819641113,-0.6250511407852173,0.14454777538776398,0.0286355409771204,-0.027837194502353668,-0.34945517778396606,0.9361016154289246,0.0,0.0,0.0,0.0,0.0,0.0
1254,1724813207975326733,-1.8292975425720215,-0.6249130964279175,0.1446816772222519,0.028689775615930557,-0.027580110356211662,-0.35007715225219727,0.9358751177787781,0.0,0.0,0.0,0.0,0.0,0.0
1256,1724813207984768609,-1.8288989067077637,-0.6247135400772095,0.14487653970718384,0.028182022273540497,-0.027363566681742668,-0.35063689947128296,0.9356873035430908,0.0,0.0,0.0,0.0,0.0,0.0
1258,1724813207994923470,-1.8285099267959595,-0.6244837641716003,0.14493846893310547,0.027968663722276688,-0.02702563814818859,-0.35128188133239746,0.9354616403579712,0.0,0.0,0.0,0.0,0.0,0.0
1260,1724813208005680423,-1.8282488584518433,-0.6243151426315308,0.1450541615486145,0.02804860845208168,-0.026659350842237473,-0.35171160101890564,0.9353082180023193,0.0,0.0,0.0,0.0,0.0,0.0
1262,1724813208014683538,-1.8280953168869019,-0.624126672744751,0.14508967101573944,0.02776457741856575,-0.026651719585061073,-0.3518046736717224,0.9352819323539734,0.0,0.0,0.0,0.0,0.0,0.0
1264,1724813208025138269,-1.827978491783142,-0.6239581108093262,0.14518681168556213,0.02755080536007881,-0.026126736775040627,-0.35205796360969543,0.9352077841758728,0.0,0.0,0.0,0.0,0.0,0.0
1266,1724813208037358627,-1.8279279470443726,-0.6238201856613159,0.1452886015176773,0.027643170207738876,-0.02593059651553631,-0.3521856665611267,0.9351624250411987,0.0,0.0,0.0,0.0,0.0,0.0
1268,1724813208044319429,-1.8279098272323608,-0.6236897110939026,0.14540329575538635,0.028021449223160744,-0.02587786130607128,-0.352462500333786,0.9350482821464539,0.0,0.0,0.0,0.0,0.0,0.0
1270,1724813208054909018,-1.8279445171356201,-0.6236011385917664,0.14546509087085724,0.028252700343728065,-0.025967296212911606,-0.352537602186203,0.935010552406311,0.0,0.0,0.0,0.0,0.0,0.0
1272,1724813208065450657,-1.8280248641967773,-0.6235364675521851,0.14554576575756073,0.02801264077425003,-0.026047859340906143,-0.35261139273643494,0.9349877238273621,0.0,0.0,0.0,0.0,0.0,0.0
1274,1724813208075303588,-1.8280906677246094,-0.6235315799713135,0.14557431638240814,0.028125016018748283,-0.02616381086409092,-0.3528112471103668,0.9349057078361511,0.0,0.0,0.0,0.0,0.0,0.0
1276,1724813208089672092,-1.828128695487976,-0.6235236525535583,0.14557461440563202,0.028398077934980392,-0.026246637105941772,-0.3530086874961853,0.9348205924034119,0.0,0.0,0.0,0.0,0.0,0.0
1278,1724813208095728351,-1.8282403945922852,-0.6235613822937012,0.14551669359207153,0.028366493061184883,-0.026909202337265015,-0.35288798809051514,0.9348483085632324,0.0,0.0,0.0,0.0,0.0,0.0
1280,1724813208104809793,-1.828275442123413,-0.6236059069633484,0.14550469815731049,0.02814071625471115,-0.027002817019820213,-0.3530135154724121,0.9348049759864807,0.0,0.0,0.0,0.0,0.0,0.0
1282,1724813208114531094,-1.8283296823501587,-0.623627781867981,0.145430326461792,0.028276709839701653,-0.027609504759311676,-0.35316595435142517,0.9347255825996399,0.0,0.0,0.0,0.0,0.0,0.0
1284,1724813208124972349,-1.828331708908081,-0.6236435174942017,0.14532028138637543,0.02854669839143753,-0.02811126969754696,-0.35333433747291565,0.9346388578414917,0.0,0.0,0.0,0.0,0.0,0.0
1286,1724813208134861211,-1.8283541202545166,-0.6236659288406372,0.14527317881584167,0.02865956909954548,-0.02859305404126644,-0.35342857241630554,0.9345850944519043,0.0,0.0,0.0,0.0,0.0,0.0
1288,1724813208145267123,-1.8284411430358887,-0.6235335469245911,0.14550505578517914,0.026597153395414352,-0.027725709602236748,-0.3543529510498047,0.9343221783638,0.0,0.0,0.0,0.0,0.0,0.0
1290,1724813208154432172,-1.82843017578125,-0.6235422492027283,0.145505890250206,0.026824159547686577,-0.028312062844634056,-0.3547050654888153,0.9341644644737244,0.0,0.0,0.0,0.0,0.0,0.0
1292,1724813208165726289,-1.8284109830856323,-0.6235393285751343,0.14552776515483856,0.027267972007393837,-0.028753165155649185,-0.3552781343460083,0.9339203238487244,0.0,0.0,0.0,0.0,0.0,0.0
1294,1724813208175363003,-1.8284035921096802,-0.6235321760177612,0.14553727209568024,0.027119610458612442,-0.029319241642951965,-0.3555842638015747,0.9337906241416931,0.0,0.0,0.0,0.0,0.0,0.0
1296,1724813208184524371,-1.8283754587173462,-0.6235678195953369,0.1455313116312027,0.02736320160329342,-0.029998596757650375,-0.35583239793777466,0.9336673617362976,0.0,0.0,0.0,0.0,0.0,0.0
1298,1724813208194514762,-1.8283336162567139,-0.6235701441764832,0.14555053412914276,0.027732452377676964,-0.0303349532186985,-0.35639622807502747,0.9334304928779602,0.0,0.0,0.0,0.0,0.0,0.0
1300,1724813208204807772,-1.8282784223556519,-0.6235729455947876,0.14556916058063507,0.027725737541913986,-0.03059055656194687,-0.3568798899650574,0.9332375526428223,0.0,0.0,0.0,0.0,0.0,0.0
1302,1724813208214469703,-1.8282068967819214,-0.623597264289856,0.14557181298732758,0.027977928519248962,-0.031080100685358047,-0.3572724759578705,0.9330635666847229,0.0,0.0,0.0,0.0,0.0,0.0
1304,1724813208225309832,-1.8281030654907227,-0.623600959777832,0.14557218551635742,0.02866237796843052,-0.03154553100466728,-0.35774898529052734,0.9328446388244629,0.0,0.0,0.0,0.0,0.0,0.0
1306,1724813208241366840,-1.8279894590377808,-0.6235743165016174,0.14558899402618408,0.028968753293156624,-0.032016441226005554,-0.3582456111907959,0.9326284527778625,0.0,0.0,0.0,0.0,0.0,0.0
1308,1724813208245075232,-1.8278530836105347,-0.6236892342567444,0.14540724456310272,0.03107735887169838,-0.033734746277332306,-0.3578225374221802,0.9326624274253845,0.0,0.0,0.0,0.0,0.0,0.0
1310,1724813208258898329,-1.8276787996292114,-0.6236979365348816,0.14541096985340118,0.03139399737119675,-0.034029893577098846,-0.35835158824920654,0.9324379563331604,0.0,0.0,0.0,0.0,0.0,0.0
1312,1724813208264400621,-1.827555775642395,-0.6237057447433472,0.1454319804906845,0.0313369482755661,-0.03444899991154671,-0.3586384654045105,0.9323142170906067,0.0,0.0,0.0,0.0,0.0,0.0
1314,1724813208275428984,-1.8274317979812622,-0.6237367987632751,0.14546428620815277,0.031369246542453766,-0.03454645350575447,-0.3589058518409729,0.9322065711021423,0.0,0.0,0.0,0.0,0.0,0.0
1316,1724813208286734540,-1.827266812324524,-0.6237732172012329,0.14548499882221222,0.03167887404561043,-0.03501810505986214,-0.3592788577079773,0.9320348501205444,0.0,0.0,0.0,0.0,0.0,0.0
1318,1724813208294331989,-1.8269585371017456,-0.6237016320228577,0.1456633061170578,0.03291529789566994,-0.03392278403043747,-0.36128392815589905,0.9312571287155151,0.0,0.0,0.0,0.0,0.0,0.0
1320,1724813208309703538,-1.8267245292663574,-0.6236942410469055,0.14597773551940918,0.03356380760669708,-0.03245891258120537,-0.36235862970352173,0.9308684468269348,0.0,0.0,0.0,0.0,0.0,0.0
1322,1724813208314288249,-1.8265503644943237,-0.6236534714698792,0.14653168618679047,0.033592063933610916,-0.03016197867691517,-0.3632112741470337,0.9306123852729797,0.0,0.0,0.0,0.0,0.0,0.0
1324,1724813208336168671,-1.8263332843780518,-0.623700737953186,0.14673712849617004,0.03362978622317314,-0.029585519805550575,-0.36375460028648376,0.9304172992706299,0.0,0.0,0.0,0.0,0.0,0.0
1326,1724813208344230039,-1.8257957696914673,-0.623865008354187,0.14694945514202118,0.03361555188894272,-0.029739778488874435,-0.36443811655044556,0.9301453828811646,0.0,0.0,0.0,0.0,0.0,0.0
1328,1724813208354422444,-1.8255585432052612,-0.6239373087882996,0.14709727466106415,0.03336377441883087,-0.029786404222249985,-0.3647315204143524,0.9300379157066345,0.0,0.0,0.0,0.0,0.0,0.0
1330,1724813208379868599,-1.8253079652786255,-0.6239954233169556,0.14722773432731628,0.033287059515714645,-0.029927585273981094,-0.36525052785873413,0.9298324584960938,0.0,0.0,0.0,0.0,0.0,0.0
1332,1724813208380180708,-1.8250303268432617,-0.6240230798721313,0.1473701298236847,0.033169034868478775,-0.030356789007782936,-0.3657432794570923,0.9296290278434753,0.0,0.0,0.0,0.0,0.0,0.0
1334,1724813208385226912,-1.8246891498565674,-0.6240614056587219,0.14746196568012238,0.03344660997390747,-0.030892660841345787,-0.3663901686668396,0.9293467402458191,0.0,0.0,0.0,0.0,0.0,0.0
1336,1724813208395228887,-1.8243368864059448,-0.6241276860237122,0.14756210148334503,0.03314972668886185,-0.031116826459765434,-0.36688032746315,0.9291564226150513,0.0,0.0,0.0,0.0,0.0,0.0
1338,1724813208407584210,-1.8239648342132568,-0.6242225170135498,0.14765092730522156,0.03300553560256958,-0.031523220241069794,-0.36741477251052856,0.9289367198944092,0.0,0.0,0.0,0.0,0.0,0.0
1340,1724813208414714180,-1.8235877752304077,-0.6243051886558533,0.14776141941547394,0.033213041722774506,-0.03202579542994499,-0.36803996562957764,0.92866450548172,0.0,0.0,0.0,0.0,0.0,0.0
1342,1724813208431318375,-1.823269248008728,-0.6243690848350525,0.14787186682224274,0.0334295816719532,-0.032404638826847076,-0.3686346411705017,0.9284077882766724,0.0,0.0,0.0,0.0,0.0,0.0
1344,1724813208434575914,-1.8229340314865112,-0.6244219541549683,0.14804677665233612,0.0336889885365963,-0.03304874897003174,-0.36949872970581055,0.9280320405960083,0.0,0.0,0.0,0.0,0.0,0.0
1346,1724813208444490052,-1.8227025270462036,-0.6247882843017578,0.1478811353445053,0.03346581757068634,-0.03560996800661087,-0.3683544099330902,0.9284002780914307,0.0,0.0,0.0,0.0,0.0,0.0
1348,1724813208456854497,-1.8223915100097656,-0.6244949698448181,0.14870460331439972,0.03232010453939438,-0.032611194998025894,-0.37144899368286133,0.9273174405097961,0.0,0.0,0.0,0.0,0.0,0.0
1350,1724813208464609313,-1.82209312915802,-0.6251341104507446,0.14821182191371918,0.0336628258228302,-0.03677574172616005,-0.3694351613521576,0.9279181361198425,0.0,0.0,0.0,0.0,0.0,0.0
1352,1724813208476501459,-1.8217943906784058,-0.6254856586456299,0.14794684946537018,0.0335196889936924,-0.038966767489910126,-0.36979472637176514,0.9276906251907349,0.0,0.0,0.0,0.0,0.0,0.0
1354,1724813208485430290,-1.8215081691741943,-0.6255623698234558,0.14809617400169373,0.0305633544921875,-0.03987223282456398,-0.37167972326278687,0.9270007610321045,0.0,0.0,0.0,0.0,0.0,0.0
1356,1724813208494967403,-1.8210930824279785,-0.6258764266967773,0.14782612025737762,0.032763898372650146,-0.04350078105926514,-0.37097012996673584,0.9270466566085815,0.0,0.0,0.0,0.0,0.0,0.0
1358,1724813208505697804,-1.8208521604537964,-0.6259602308273315,0.14818978309631348,0.029852978885173798,-0.04262665659189224,-0.37234044075012207,0.9266360402107239,0.0,0.0,0.0,0.0,0.0,0.0
1360,1724813208514899532,-1.8205490112304688,-0.6261762976646423,0.14828874170780182,0.029590237885713577,-0.04353998973965645,-0.3726521134376526,0.926476776599884,0.0,0.0,0.0,0.0,0.0,0.0
1362,1724813208529597713,-1.8201830387115479,-0.626553475856781,0.14818161725997925,0.03159549459815025,-0.045725349336862564,-0.3723261058330536,0.9264363646507263,0.0,0.0,0.0,0.0,0.0,0.0
1364,1724813208536004717,-1.8197258710861206,-0.6265489459037781,0.14843352138996124,0.029635973274707794,-0.044921617954969406,-0.37492963671684265,0.9254899024963379,0.0,0.0,0.0,0.0,0.0,0.0
1366,1724813208545262145,-1.8193845748901367,-0.6269891262054443,0.14840970933437347,0.03126190975308418,-0.04666431248188019,-0.37372174859046936,0.9258386492729187,0.0,0.0,0.0,0.0,0.0,0.0
1368,1724813208554751530,-1.8190094232559204,-0.6272962689399719,0.14871461689472198,0.03144912049174309,-0.04720645770430565,-0.37477684020996094,0.9253782033920288,0.0,0.0,0.0,0.0,0.0,0.0
1370,1724813208567270118,-1.8186495304107666,-0.6275938153266907,0.14886382222175598,0.031663037836551666,-0.04742414876818657,-0.3758768141269684,0.9249135255813599,0.0,0.0,0.0,0.0,0.0,0.0
1372,1724813208575140682,-1.8182804584503174,-0.6279138326644897,0.14891467988491058,0.031537555158138275,-0.04804280772805214,-0.3765304386615753,0.9246199727058411,0.0,0.0,0.0,0.0,0.0,0.0
1374,1724813208585118247,-1.817885160446167,-0.6282920837402344,0.14898793399333954,0.031528767198324203,-0.04836755245923996,-0.37714025378227234,0.9243548512458801,0.0,0.0,0.0,0.0,0.0,0.0
1376,1724813208594628337,-1.8174867630004883,-0.6286212801933289,0.14914639294147491,0.03209511935710907,-0.04825669899582863,-0.3781379759311676,0.9239333271980286,0.0,0.0,0.0,0.0,0.0,0.0
1378,1724813208604662814,-1.8171708583831787,-0.6290423274040222,0.14939457178115845,0.03205471485853195,-0.04831521958112717,-0.37878063321113586,0.9236684441566467,0.0,0.0,0.0,0.0,0.0,0.0
1380,1724813208614622774,-1.8167729377746582,-0.629379153251648,0.1496000736951828,0.03222934156656265,-0.04839533567428589,-0.37960296869277954,0.9233205318450928,0.0,0.0,0.0,0.0,0.0,0.0
1382,1724813208624497949,-1.8163939714431763,-0.6297951340675354,0.1495317816734314,0.03286116570234299,-0.04899713769555092,-0.3796319365501404,0.923254668712616,0.0,0.0,0.0,0.0,0.0,0.0
1384,1724813208636070849,-1.8159654140472412,-0.6301186680793762,0.14967547357082367,0.03342486172914505,-0.04922829195857048,-0.38068339228630066,0.9227890372276306,0.0,0.0,0.0,0.0,0.0,0.0
1386,1724813208645031147,-1.8155274391174316,-0.6303783655166626,0.15015511214733124,0.03335525095462799,-0.04841643199324608,-0.38235223293304443,0.9221442937850952,0.0,0.0,0.0,0.0,0.0,0.0
1388,1724813208656587282,-1.8151092529296875,-0.6308127045631409,0.15024474263191223,0.03345548361539841,-0.048758845776319504,-0.38283637166023254,0.9219217300415039,0.0,0.0,0.0,0.0,0.0,0.0
1390,1724813208664700171,-1.814777135848999,-0.6310926675796509,0.15055374801158905,0.03083435259759426,-0.047246042639017105,-0.3841733932495117,0.9215356111526489,0.0,0.0,0.0,0.0,0.0,0.0
1392,1724813208676321854,-1.8143248558044434,-0.6314915418624878,0.15055152773857117,0.031001057475805283,-0.047466568648815155,-0.38495102524757385,0.9211940765380859,0.0,0.0,0.0,0.0,0.0,0.0
1394,1724813208685587812,-1.813818335533142,-0.6318916082382202,0.15053525567054749,0.03175826743245125,-0.04777230694890022,-0.3858005404472351,0.9207971096038818,0.0,0.0,0.0,0.0,0.0,0.0
1396,1724813208694687472,-1.8133389949798584,-0.6323683857917786,0.15058214962482452,0.031615789979696274,-0.04794501140713692,-0.38655009865760803,0.9204785227775574,0.0,0.0,0.0,0.0,0.0,0.0
1398,1724813208704700923,-1.8129210472106934,-0.6328639388084412,0.15058806538581848,0.031165629625320435,-0.04822070524096489,-0.38711580634117126,0.9202417135238647,0.0,0.0,0.0,0.0,0.0,0.0
1400,1724813208714947446,-1.8124678134918213,-0.6334396004676819,0.1503852754831314,0.03289657086133957,-0.050075557082891464,-0.3867451548576355,0.9202383160591125,0.0,0.0,0.0,0.0,0.0,0.0
1402,1724813208726211304,-1.8120232820510864,-0.6338599324226379,0.15040969848632812,0.03335599601268768,-0.05029546841979027,-0.3877421021461487,0.9197900891304016,0.0,0.0,0.0,0.0,0.0,0.0
1404,1724813208734920031,-1.8114854097366333,-0.6343148946762085,0.15060323476791382,0.03373035416007042,-0.05035517364740372,-0.3890112042427063,0.9192371964454651,0.0,0.0,0.0,0.0,0.0,0.0
1406,1724813208744412107,-1.810940146446228,-0.634759783744812,0.15089456737041473,0.03412557393312454,-0.05009427294135094,-0.390481173992157,0.9186133146286011,0.0,0.0,0.0,0.0,0.0,0.0
1408,1724813208755089311,-1.8104403018951416,-0.6352661848068237,0.15103144943714142,0.03416556864976883,-0.05059799179434776,-0.39154669642448425,0.9181305170059204,0.0,0.0,0.0,0.0,0.0,0.0
1410,1724813208764385713,-1.8099157810211182,-0.6357656717300415,0.15121859312057495,0.03389061614871025,-0.0507863312959671,-0.39248090982437134,0.9177314639091492,0.0,0.0,0.0,0.0,0.0,0.0
1412,1724813208777290257,-1.8093898296356201,-0.6362557411193848,0.15137143433094025,0.033902835100889206,-0.05101199075579643,-0.3931930661201477,0.9174135327339172,0.0,0.0,0.0,0.0,0.0,0.0
1414,1724813208785466619,-1.8088868856430054,-0.636753261089325,0.15144900977611542,0.03428775444626808,-0.051499560475349426,-0.39384156465530396,0.9170937538146973,0.0,0.0,0.0,0.0,0.0,0.0
1416,1724813208794532855,-1.8084458112716675,-0.6371613144874573,0.1515212506055832,0.033695753663778305,-0.052027564495801926,-0.3944961726665497,0.9168044924736023,0.0,0.0,0.0,0.0,0.0,0.0
1418,1724813208805502337,-1.8080165386199951,-0.6375865936279297,0.15158316493034363,0.033428631722927094,-0.052315663546323776,-0.3952454924583435,0.9164751768112183,0.0,0.0,0.0,0.0,0.0,0.0
1420,1724813208815428754,-1.8075695037841797,-0.6380355358123779,0.15147869288921356,0.0334552600979805,-0.05344884470105171,-0.3957309424877167,0.9161992073059082,0.0,0.0,0.0,0.0,0.0,0.0
1422,1724813208824742518,-1.8071341514587402,-0.6384461522102356,0.15149684250354767,0.03340170904994011,-0.0544411726295948,-0.3962900936603546,0.9159010052680969,0.0,0.0,0.0,0.0,0.0,0.0
1424,1724813208836129059,-1.8067420721054077,-0.638874351978302,0.15154214203357697,0.033227577805519104,-0.05549091845750809,-0.39661937952041626,0.9157017469406128,0.0,0.0,0.0,0.0,0.0,0.0
1426,1724813208844366600,-1.8063946962356567,-0.6393259167671204,0.1516067087650299,0.03273303061723709,-0.05638303607702255,-0.3968399167060852,0.9155696034431458,0.0,0.0,0.0,0.0,0.0,0.0
1428,1724813208854472827,-1.806018590927124,-0.6397238373756409,0.15172028541564941,0.03229057788848877,-0.057049915194511414,-0.39727669954299927,0.9153544902801514,0.0,0.0,0.0,0.0,0.0,0.0
1430,1724813208866546775,-1.8056362867355347,-0.6400955319404602,0.1518329232931137,0.03180628642439842,-0.05782255157828331,-0.39767658710479736,0.9151492714881897,0.0,0.0,0.0,0.0,0.0,0.0
1432,1724813208874837700,-1.8052047491073608,-0.6404275298118591,0.15203166007995605,0.03206147998571396,-0.05832569673657417,-0.3984658420085907,0.9147650599479675,0.0,0.0,0.0,0.0,0.0,0.0
1434,1724813208884701412,-1.804742693901062,-0.6407259106636047,0.15240387618541718,0.032178349792957306,-0.058831699192523956,-0.39947769045829773,0.9142872095108032,0.0,0.0,0.0,0.0,0.0,0.0
1436,1724813208895019398,-1.8043255805969238,-0.6410413384437561,0.15258078277111053,0.032018378376960754,-0.05956273898482323,-0.39973360300064087,0.9141335487365723,0.0,0.0,0.0,0.0,0.0,0.0
1438,1724813208904322054,-1.803891658782959,-0.6413335800170898,0.15270274877548218,0.03206143528223038,-0.06073424965143204,-0.40001869201660156,0.9139301776885986,0.0,0.0,0.0,0.0,0.0,0.0
1440,1724813208916028577,-1.8033989667892456,-0.6415174007415771,0.15293081104755402,0.0319039486348629,-0.061687495559453964,-0.40074601769447327,0.9135532975196838,0.0,0.0,0.0,0.0,0.0,0.0
1442,1724813208925566021,-1.8030235767364502,-0.6417325139045715,0.15330266952514648,0.03238546475768089,-0.06287038326263428,-0.40112459659576416,0.9132894277572632,0.0,0.0,0.0,0.0,0.0,0.0
1444,1724813208934437466,-1.8025599718093872,-0.6419411301612854,0.1536039263010025,0.031943365931510925,-0.06399726122617722,-0.4016360640525818,0.9130019545555115,0.0,0.0,0.0,0.0,0.0,0.0
1446,1724813208944464651,-1.8021130561828613,-0.6421319842338562,0.15392255783081055,0.03166795149445534,-0.06514870375394821,-0.4020603597164154,0.9127432703971863,0.0,0.0,0.0,0.0,0.0,0.0
1448,1724813208954397641,-1.8016408681869507,-0.642363965511322,0.15400752425193787,0.03171694278717041,-0.06677830219268799,-0.40238845348358154,0.9124791622161865,0.0,0.0,0.0,0.0,0.0,0.0
1450,1724813208964360606,-1.8012651205062866,-0.6424640417098999,0.1545030027627945,0.029346728697419167,-0.06661133468151093,-0.40343478322029114,0.9121086597442627,0.0,0.0,0.0,0.0,0.0,0.0
1452,1724813208975312363,-1.800757884979248,-0.6425051689147949,0.15524505078792572,0.028755884617567062,-0.06681455671787262,-0.4051031470298767,0.9113728404045105,0.0,0.0,0.0,0.0,0.0,0.0
1454,1724813208984752937,-1.8001927137374878,-0.6425883769989014,0.15576395392417908,0.02881385013461113,-0.06751736253499985,-0.4064215421676636,0.9107319116592407,0.0,0.0,0.0,0.0,0.0,0.0
1456,1724813208994723380,-1.7997139692306519,-0.6427202224731445,0.15616895258426666,0.02870582602918148,-0.06851805746555328,-0.4068891108036041,0.9104518294334412,0.0,0.0,0.0,0.0,0.0,0.0
