seq,stamp,px,py,pz,ox,oy,oz,ow,lx,ly,lz,ax,ay,az
3546,1724822714385267906,-1.8810908794403076,0.30922389030456543,0.15632323920726776,0.05334370583295822,0.01954769343137741,-0.3000510632991791,0.9522298574447632,0.0,0.0,0.0,0.0,0.0,0.0
3548,1724822714398583918,-1.8811091184616089,0.30912771821022034,0.15610645711421967,0.0530083104968071,0.01921193115413189,-0.29971712827682495,0.9523605704307556,0.0,0.0,0.0,0.0,0.0,0.0
3550,1724822714402928160,-1.8811722993850708,0.30904364585876465,0.15588676929473877,0.05295247584581375,0.01916886679828167,-0.29953688383102417,0.952421247959137,0.0,0.0,0.0,0.0,0.0,0.0
3552,1724822714420944486,-1.8812236785888672,0.30894386768341064,0.15568162500858307,0.05243925005197525,0.01859525963664055,-0.29916736483573914,0.9525771737098694,0.0,0.0,0.0,0.0,0.0,0.0
3554,1724822714424924990,-1.8812065124511719,0.30887728929519653,0.1555568277835846,0.05296942964196205,0.018350359052419662,-0.2991594076156616,0.9525551199913025,0.0,0.0,0.0,0.0,0.0,0.0
3556,1724822714432521976,-1.8812270164489746,0.3088228106498718,0.15544623136520386,0.052823711186647415,0.018365154042840004,-0.2988335192203522,0.9526651501655579,0.0,0.0,0.0,0.0,0.0,0.0
3558,1724822714446052434,-1.8812499046325684,0.3087747097015381,0.1553463190793991,0.0532776303589344,0.018192846328020096,-0.2988819181919098,0.9526280164718628,0.0,0.0,0.0,0.0,0.0,0.0
3560,1724822714452405085,-1.881186842918396,0.3087577521800995,0.15528912842273712,0.05306052789092064,0.017807014286518097,-0.29891276359558105,0.9526377320289612,0.0,0.0,0.0,0.0,0.0,0.0
3562,1724822714464003041,-1.881188988685608,0.30872806906700134,0.1551900953054428,0.05305838957428932,0.017488688230514526,-0.29897189140319824,0.9526252150535583,0.0,0.0,0.0,0.0,0.0,0.0
3564,1724822714477473974,-1.8812143802642822,0.30871957540512085,0.15511120855808258,0.052760154008865356,0.01766938529908657,-0.29887744784355164,0.9526680707931519,0.0,0.0,0.0,0.0,0.0,0.0
3566,1724822714482554955,-1.881185531616211,0.30873018503189087,0.15507963299751282,0.0524742566049099,0.017698759213089943,-0.29883864521980286,0.9526955485343933,0.0,0.0,0.0,0.0,0.0,0.0
3568,1724822714494302303,-1.8811582326889038,0.30868905782699585,0.15503807365894318,0.052868183702230453,0.017578667029738426,-0.29888540506362915,0.9526613354682922,0.0,0.0,0.0,0.0,0.0,0.0
3570,1724822714502516277,-1.8811272382736206,0.30868998169898987,0.15500508248806,0.0533197745680809,0.017700854688882828,-0.29878154397010803,0.9526664018630981,0.0,0.0,0.0,0.0,0.0,0.0
3572,1724822714512654953,-1.8812148571014404,0.3086652159690857,0.1548645794391632,0.053257428109645844,0.01741325855255127,-0.2987307012081146,0.9526911973953247,0.0,0.0,0.0,0.0,0.0,0.0
3574,1724822714522596441,-1.881178379058838,0.3086313009262085,0.15483993291854858,0.05363770201802254,0.017375238239765167,-0.2986587882041931,0.9526930451393127,0.0,0.0,0.0,0.0,0.0,0.0
3576,1724822714532220077,-1.881205677986145,0.3086089789867401,0.15476149320602417,0.05361190810799599,0.01721937768161297,-0.2987496852874756,0.9526687860488892,0.0,0.0,0.0,0.0,0.0,0.0
3578,1724822714543503638,-1.8812119960784912,0.3085789680480957,0.15471212565898895,0.05353589355945587,0.017179157584905624,-0.29862505197525024,0.9527129530906677,0.0,0.0,0.0,0.0,0.0,0.0
3580,1724822714552670875,-1.881271481513977,0.30855631828308105,0.1545998454093933,0.05366919934749603,0.017218170687556267,-0.2985103726387024,0.9527406692504883,0.0,0.0,0.0,0.0,0.0,0.0
3582,1724822714562320670,-1.8813222646713257,0.30849772691726685,0.1545041799545288,0.053439442068338394,0.017079949378967285,-0.2984347641468048,0.9527797102928162,0.0,0.0,0.0,0.0,0.0,0.0
3584,1724822714573656656,-1.88134765625,0.3084571063518524,0.15437091886997223,0.05322439968585968,0.016594992950558662,-0.29822230339050293,0.9528668522834778,0.0,0.0,0.0,0.0,0.0,0.0
3586,1724822714596761177,-1.8812816143035889,0.3084195554256439,0.1543424278497696,0.05382899194955826,0.01668052189052105,-0.29820194840431213,0.9528378248214722,0.0,0.0,0.0,0.0,0.0,0.0
3588,1724822714597422711,-1.8812655210494995,0.30843228101730347,0.15427865087985992,0.05422861874103546,0.01677829958498478,-0.2984177768230438,0.9527458548545837,0.0,0.0,0.0,0.0,0.0,0.0
3590,1724822714602924445,-1.8812603950500488,0.30839118361473083,0.15421666204929352,0.054233621805906296,0.016730258241295815,-0.29827409982681274,0.9527913928031921,0.0,0.0,0.0,0.0,0.0,0.0
3592,1724822714614183683,-1.8812953233718872,0.3083757758140564,0.15413221716880798,0.05419633910059929,0.016500143334269524,-0.298386812210083,0.9527621865272522,0.0,0.0,0.0,0.0,0.0,0.0
3594,1724822714626794476,-1.8813515901565552,0.30835816264152527,0.1540670096874237,0.05454684793949127,0.016692262142896652,-0.2982533574104309,0.9527806639671326,0.0,0.0,0.0,0.0,0.0,0.0
3596,1724822714633674738,-1.8813624382019043,0.30831655859947205,0.15400248765945435,0.05473649129271507,0.016868388280272484,-0.2983804941177368,0.9527269005775452,0.0,0.0,0.0,0.0,0.0,0.0
3598,1724822714642430044,-1.8813544511795044,0.3083193302154541,0.15398384630680084,0.054749779403209686,0.017054973170161247,-0.29844874143600464,0.9527013897895813,0.0,0.0,0.0,0.0,0.0,0.0
3600,1724822714653333396,-1.8813552856445312,0.3083159029483795,0.15395432710647583,0.05487031862139702,0.016999883577227592,-0.298596054315567,0.9526493549346924,0.0,0.0,0.0,0.0,0.0,0.0
3602,1724822714663402430,-1.8814047574996948,0.30826976895332336,0.15389862656593323,0.05490495264530182,0.0167694129049778,-0.2984068989753723,0.9527106881141663,0.0,0.0,0.0,0.0,0.0,0.0
3604,1724822714672793251,-1.8815020322799683,0.30822259187698364,0.15372256934642792,0.054708290845155716,0.016809068620204926,-0.29827558994293213,0.9527624249458313,0.0,0.0,0.0,0.0,0.0,0.0
3606,1724822714682510542,-1.881493091583252,0.3082149028778076,0.15367241203784943,0.05543232336640358,0.01689680851995945,-0.29835572838783264,0.9526938796043396,0.0,0.0,0.0,0.0,0.0,0.0
3608,1724822714693820937,-1.881507158279419,0.3082081973552704,0.15365000069141388,0.055311474949121475,0.017039965838193893,-0.29860422015190125,0.9526205658912659,0.0,0.0,0.0,0.0,0.0,0.0
3610,1724822714704015908,-1.8815165758132935,0.30816391110420227,0.15355080366134644,0.05555052310228348,0.01701948419213295,-0.2983945906162262,0.9526727199554443,0.0,0.0,0.0,0.0,0.0,0.0
3612,1724822714712538351,-1.8814971446990967,0.30815112590789795,0.1535317301750183,0.05561458691954613,0.01692894473671913,-0.2983253300189972,0.9526922702789307,0.0,0.0,0.0,0.0,0.0,0.0
3614,1724822714723095654,-1.881555199623108,0.30814385414123535,0.1535051465034485,0.0553472638130188,0.017037786543369293,-0.29827550053596497,0.9527214169502258,0.0,0.0,0.0,0.0,0.0,0.0
3616,1724822714732610724,-1.881523847579956,0.3081260323524475,0.15349780023097992,0.05576418340206146,0.017122972756624222,-0.29846465587615967,0.9526363611221313,0.0,0.0,0.0,0.0,0.0,0.0
3618,1724822714746290008,-1.8811864852905273,0.30804795026779175,0.15364660322666168,0.05846419930458069,0.017260823398828506,-0.30015966296195984,0.9519391655921936,0.0,0.0,0.0,0.0,0.0,0.0
3620,1724822714754373696,-1.8814619779586792,0.3080735206604004,0.15341798961162567,0.05624004080891609,0.017186671495437622,-0.2986435890197754,0.9525511264801025,0.0,0.0,0.0,0.0,0.0,0.0
3622,1724822714764413744,-1.8815420866012573,0.3080313205718994,0.15322335064411163,0.05601216480135918,0.01709292083978653,-0.29832732677459717,0.9526653289794922,0.0,0.0,0.0,0.0,0.0,0.0
3624,1724822714776940413,-1.8815834522247314,0.30803894996643066,0.15341155230998993,0.05598130077123642,0.01730012521147728,-0.29827025532722473,0.9526813626289368,0.0,0.0,0.0,0.0,0.0,0.0
3626,1724822714782532065,-1.8817609548568726,0.3080223500728607,0.1532527059316635,0.055684395134449005,0.01726970076560974,-0.2983766496181488,0.9526659846305847,0.0,0.0,0.0,0.0,0.0,0.0
3628,1724822714793748867,-1.8816845417022705,0.3079809248447418,0.15317408740520477,0.056120604276657104,0.017009058967232704,-0.29833492636680603,0.9526581168174744,0.0,0.0,0.0,0.0,0.0,0.0
3630,1724822714803885210,-1.8817288875579834,0.30789732933044434,0.15301641821861267,0.0563771091401577,0.016819629818201065,-0.298370361328125,0.9526352882385254,0.0,0.0,0.0,0.0,0.0,0.0
3632,1724822714813183081,-1.8817033767700195,0.30785390734672546,0.1529485583305359,0.05657606199383736,0.017041267827153206,-0.29821866750717163,0.9526670575141907,0.0,0.0,0.0,0.0,0.0,0.0
3634,1724822714824158584,-1.881711721420288,0.30779629945755005,0.15286129713058472,0.05661933124065399,0.01717110350728035,-0.29832687973976135,0.9526282548904419,0.0,0.0,0.0,0.0,0.0,0.0
3636,1724822714835187788,-1.8817554712295532,0.30777353048324585,0.15273453295230865,0.05670071393251419,0.01722854934632778,-0.29844292998313904,0.9525860548019409,0.0,0.0,0.0,0.0,0.0,0.0
3638,1724822714843535503,-1.8816887140274048,0.30772364139556885,0.1526658535003662,0.05698614567518234,0.017473269253969193,-0.2982376217842102,0.9526287913322449,0.0,0.0,0.0,0.0,0.0,0.0
3640,1724822714853273308,-1.881683349609375,0.30769941210746765,0.15260329842567444,0.05724872276186943,0.017264217138290405,-0.29845109581947327,0.9525500535964966,0.0,0.0,0.0,0.0,0.0,0.0
3642,1724822714862907072,-1.881705403327942,0.3076590299606323,0.1524905115365982,0.05736369267106056,0.01726089045405388,-0.2983678877353668,0.9525691866874695,0.0,0.0,0.0,0.0,0.0,0.0
3644,1724822714873599992,-1.8817172050476074,0.3076591193675995,0.15247003734111786,0.05735284835100174,0.017401553690433502,-0.2983919084072113,0.952559769153595,0.0,0.0,0.0,0.0,0.0,0.0
3646,1724822714883645476,-1.881680965423584,0.3076752722263336,0.1524229347705841,0.05751631036400795,0.017461704090237617,-0.2986694872379303,0.9524618983268738,0.0,0.0,0.0,0.0,0.0,0.0
3648,1724822714893288553,-1.8817322254180908,0.30767589807510376,0.15236103534698486,0.0575580894947052,0.017707305029034615,-0.2986350953578949,0.9524655342102051,0.0,0.0,0.0,0.0,0.0,0.0
3650,1724822714910758201,-1.8817204236984253,0.30763399600982666,0.15227313339710236,0.05752433463931084,0.017484426498413086,-0.29842495918273926,0.9525375962257385,0.0,0.0,0.0,0.0,0.0,0.0
3652,1724822714912275471,-1.8817052841186523,0.3075944781303406,0.15222366154193878,0.05741026625037193,0.017510971054434776,-0.29836931824684143,0.9525613784790039,0.0,0.0,0.0,0.0,0.0,0.0
3654,1724822714923352200,-1.8817040920257568,0.307600200176239,0.1522027552127838,0.05812573805451393,0.017842985689640045,-0.29855382442474365,0.9524540901184082,0.0,0.0,0.0,0.0,0.0,0.0
3656,1724822714932498231,-1.8817152976989746,0.3075662851333618,0.15211455523967743,0.05788380280137062,0.017703810706734657,-0.2984151542186737,0.9525147676467896,0.0,0.0,0.0,0.0,0.0,0.0
3658,1724822714943535606,-1.88174569606781,0.3075461983680725,0.15196757018566132,0.05771680548787117,0.017669225111603737,-0.2982202172279358,0.9525867104530334,0.0,0.0,0.0,0.0,0.0,0.0
3660,1724822714953388819,-1.881705641746521,0.3075301945209503,0.15196146070957184,0.05809400603175163,0.017609406262636185,-0.29836583137512207,0.9525191783905029,0.0,0.0,0.0,0.0,0.0,0.0
3662,1724822714962795171,-1.8816461563110352,0.3075141906738281,0.1519366204738617,0.05839843675494194,0.01767921820282936,-0.29842349886894226,0.952481210231781,0.0,0.0,0.0,0.0,0.0,0.0
3664,1724822714973530306,-1.8816388845443726,0.3075640797615051,0.15192176401615143,0.05862056463956833,0.018470976501703262,-0.29835110902786255,0.9524753093719482,0.0,0.0,0.0,0.0,0.0,0.0
3666,1724822714982437044,-1.8817013502120972,0.30753618478775024,0.15182767808437347,0.05848065763711929,0.01827353425323963,-0.2982448935508728,0.9525209069252014,0.0,0.0,0.0,0.0,0.0,0.0
3668,1724822714993885373,-1.881629228591919,0.30752551555633545,0.15177693963050842,0.058840785175561905,0.018237147480249405,-0.2983683943748474,0.9524608254432678,0.0,0.0,0.0,0.0,0.0,0.0
3670,1724822715002710460,-1.881585717201233,0.3075154721736908,0.15172827243804932,0.059258218854665756,0.018212052062153816,-0.29845863580703735,0.9524070620536804,0.0,0.0,0.0,0.0,0.0,0.0
3672,1724822715012469103,-1.8816529512405396,0.30752062797546387,0.1516551524400711,0.05880064144730568,0.018071258440613747,-0.2982145845890045,0.9525145292282104,0.0,0.0,0.0,0.0,0.0,0.0
3674,1724822715023238521,-1.8816792964935303,0.3074958026409149,0.1515999436378479,0.05893360823392868,0.01814928650856018,-0.2982499897480011,0.9524937868118286,0.0,0.0,0.0,0.0,0.0,0.0
3676,1724822715032666639,-1.8816765546798706,0.30750492215156555,0.15155434608459473,0.05912664532661438,0.01821223832666874,-0.29830023646354675,0.9524649381637573,0.0,0.0,0.0,0.0,0.0,0.0
3678,1724822715046859482,-1.8816537857055664,0.30748292803764343,0.1515168994665146,0.05902385711669922,0.018074708059430122,-0.29828357696533203,0.9524790644645691,0.0,0.0,0.0,0.0,0.0,0.0
3680,1724822715052618143,-1.8816554546356201,0.3074735701084137,0.15150129795074463,0.05901651084423065,0.01828664354979992,-0.29815182089805603,0.9525167942047119,0.0,0.0,0.0,0.0,0.0,0.0
3682,1724822715062470163,-1.8816189765930176,0.30748656392097473,0.1515568196773529,0.059392914175987244,0.01835673116147518,-0.29837849736213684,0.9524210095405579,0.0,0.0,0.0,0.0,0.0,0.0
3684,1724822715073034726,-1.8816251754760742,0.30739524960517883,0.15151679515838623,0.05897866562008858,0.018094556406140327,-0.2983655035495758,0.9524558186531067,0.0,0.0,0.0,0.0,0.0,0.0
3686,1724822715082294158,-1.8816492557525635,0.307457834482193,0.15153826773166656,0.05932198092341423,0.01836708001792431,-0.2981903851032257,0.952484130859375,0.0,0.0,0.0,0.0,0.0,0.0
3688,1724822715093584571,-1.8816429376602173,0.307383269071579,0.1514754742383957,0.058876678347587585,0.017771797254681587,-0.29818230867385864,0.9525255560874939,0.0,0.0,0.0,0.0,0.0,0.0
3690,1724822715118524765,-1.8816421031951904,0.30744487047195435,0.15150798857212067,0.058966755867004395,0.018154727295041084,-0.2980698347091675,0.952548086643219,0.0,0.0,0.0,0.0,0.0,0.0
3692,1724822715118795998,-1.8816183805465698,0.30746281147003174,0.151582732796669,0.05917522683739662,0.01799359731376171,-0.2984223961830139,0.9524278044700623,0.0,0.0,0.0,0.0,0.0,0.0
3694,1724822715122799191,-1.8816131353378296,0.3074660301208496,0.15156346559524536,0.059528201818466187,0.01816440187394619,-0.29838865995407104,0.9524130821228027,0.0,0.0,0.0,0.0,0.0,0.0
3696,1724822715135781756,-1.8816859722137451,0.30746400356292725,0.1515522301197052,0.0592956617474556,0.018218981102108955,-0.29842323064804077,0.9524157047271729,0.0,0.0,0.0,0.0,0.0,0.0
3698,1724822715142618055,-1.881620168685913,0.3074721693992615,0.1515858918428421,0.05908460170030594,0.01807331293821335,-0.29838863015174866,0.9524425268173218,0.0,0.0,0.0,0.0,0.0,0.0
3700,1724822715152939021,-1.8816955089569092,0.3074513375759125,0.15151450037956238,0.05896454304456711,0.018090691417455673,-0.29831936955451965,0.9524713158607483,0.0,0.0,0.0,0.0,0.0,0.0
3702,1724822715163084160,-1.881632924079895,0.30744585394859314,0.15151973068714142,0.05918054282665253,0.018076948821544647,-0.29827338457107544,0.9524725079536438,0.0,0.0,0.0,0.0,0.0,0.0
3704,1724822715178034713,-1.8816561698913574,0.3074467182159424,0.15153804421424866,0.05940867215394974,0.01823173463344574,-0.29850971698760986,0.9523813128471375,0.0,0.0,0.0,0.0,0.0,0.0
3706,1724822715182217821,-1.8816707134246826,0.3074135184288025,0.15146726369857788,0.0591806024312973,0.01800466887652874,-0.29824739694595337,0.9524819850921631,0.0,0.0,0.0,0.0,0.0,0.0
3708,1724822715193044034,-1.881696343421936,0.3074375092983246,0.15149585902690887,0.05903005227446556,0.018101925030350685,-0.29826024174690247,0.9524854421615601,0.0,0.0,0.0,0.0,0.0,0.0
3710,1724822715202521310,-1.8816758394241333,0.30743154883384705,0.15148237347602844,0.05929161235690117,0.018155455589294434,-0.298194020986557,0.9524890184402466,0.0,0.0,0.0,0.0,0.0,0.0
3712,1724822715213221853,-1.8816624879837036,0.30744096636772156,0.151443749666214,0.05946696177124977,0.017862515524029732,-0.29826033115386963,0.9524628520011902,0.0,0.0,0.0,0.0,0.0,0.0
3714,1724822715223221185,-1.8816999197006226,0.30743086338043213,0.15147119760513306,0.05910909175872803,0.017918681725859642,-0.2982700765132904,0.9524810314178467,0.0,0.0,0.0,0.0,0.0,0.0
3716,1724822715232966897,-1.881664514541626,0.3074229657649994,0.1514766812324524,0.05924031510949135,0.018163802102208138,-0.29830220341682434,0.9524582028388977,0.0,0.0,0.0,0.0,0.0,0.0
3718,1724822715244156828,-1.8816730976104736,0.30743086338043213,0.15147779881954193,0.05892004072666168,0.017776235938072205,-0.29837164282798767,0.9524636268615723,0.0,0.0,0.0,0.0,0.0,0.0
3720,1724822715252743070,-1.8816438913345337,0.3074108064174652,0.1514979749917984,0.05921030417084694,0.018052352592349052,-0.298257976770401,0.9524759650230408,0.0,0.0,0.0,0.0,0.0,0.0
3722,1724822715262524031,-1.881638765335083,0.30743035674095154,0.15148822963237762,0.05923331901431084,0.018061116337776184,-0.2981835603713989,0.952497661113739,0.0,0.0,0.0,0.0,0.0,0.0
3724,1724822715276793033,-1.8816542625427246,0.3074396252632141,0.15145984292030334,0.0590379424393177,0.017950912937521935,-0.2981898784637451,0.952509880065918,0.0,0.0,0.0,0.0,0.0,0.0
3726,1724822715282318128,-1.8816370964050293,0.30737394094467163,0.1514061689376831,0.058809999376535416,0.01774194836616516,-0.2982604205608368,0.952505886554718,0.0,0.0,0.0,0.0,0.0,0.0
3728,1724822715295206347,-1.8816531896591187,0.3074185848236084,0.1513952612876892,0.05881396308541298,0.01795288920402527,-0.2978666424751282,0.9526248574256897,0.0,0.0,0.0,0.0,0.0,0.0
3730,1724822715303982721,-1.8816596269607544,0.30743250250816345,0.1514316350221634,0.059229061007499695,0.01841951161623001,-0.29819419980049133,0.9524877071380615,0.0,0.0,0.0,0.0,0.0,0.0
3732,1724822715313955046,-1.8816925287246704,0.30741649866104126,0.15138284862041473,0.059092048555612564,0.018009431660175323,-0.2980279326438904,0.9525561928749084,0.0,0.0,0.0,0.0,0.0,0.0
3734,1724822715323338627,-1.881628155708313,0.3074144721031189,0.15142862498760223,0.059319086372852325,0.017965644598007202,-0.29817116260528564,0.9524980187416077,0.0,0.0,0.0,0.0,0.0,0.0
3736,1724822715333754965,-1.8816008567810059,0.3074248731136322,0.15139120817184448,0.05950314179062843,0.017901793122291565,-0.2982417941093445,0.9524656534194946,0.0,0.0,0.0,0.0,0.0,0.0
3738,1724822715345262624,-1.8816673755645752,0.3074128329753876,0.15137232840061188,0.05937407910823822,0.018240390345454216,-0.29830482602119446,0.9524475932121277,0.0,0.0,0.0,0.0,0.0,0.0
3740,1724822715354180940,-1.8816722631454468,0.3073998987674713,0.15130336582660675,0.05931205302476883,0.017909012734889984,-0.2981376647949219,0.9525099992752075,0.0,0.0,0.0,0.0,0.0,0.0
3742,1724822715363097145,-1.8815956115722656,0.3074074387550354,0.15132978558540344,0.059602007269859314,0.017975494265556335,-0.2982286810874939,0.9524621963500977,0.0,0.0,0.0,0.0,0.0,0.0
3744,1724822715373770159,-1.8816330432891846,0.3073808550834656,0.15132558345794678,0.059550900012254715,0.018103625625371933,-0.2982954680919647,0.9524419903755188,0.0,0.0,0.0,0.0,0.0,0.0
3746,1724822715383287735,-1.8816057443618774,0.30731436610221863,0.15126554667949677,0.05926217511296272,0.01771330088376999,-0.29832330346107483,0.9524586200714111,0.0,0.0,0.0,0.0,0.0,0.0
3748,1724822715393313483,-1.881606936454773,0.30730128288269043,0.15125541388988495,0.05917848274111748,0.01787276193499565,-0.2982312738895416,0.9524896740913391,0.0,0.0,0.0,0.0,0.0,0.0
3750,1724822715403831173,-1.8815748691558838,0.30730804800987244,0.1512994021177292,0.059520430862903595,0.0178087018430233,-0.29845136404037476,0.9524006843566895,0.0,0.0,0.0,0.0,0.0,0.0
3752,1724822715418015854,-1.8815767765045166,0.3073025941848755,0.15126347541809082,0.05947881564497948,0.01782606914639473,-0.29834452271461487,0.9524363875389099,0.0,0.0,0.0,0.0,0.0,0.0
3754,1724822715423981151,-1.88161039352417,0.30727434158325195,0.15116997063159943,0.05935540422797203,0.01770757883787155,-0.2981252372264862,0.9525150060653687,0.0,0.0,0.0,0.0,0.0,0.0
3756,1724822715432397896,-1.8816323280334473,0.3073459267616272,0.15117371082305908,0.059599921107292175,0.01815737783908844,-0.29803600907325745,0.9525191187858582,0.0,0.0,0.0,0.0,0.0,0.0
3758,1724822715444183455,-1.881601095199585,0.30727100372314453,0.15109369158744812,0.05935870483517647,0.017778508365154266,-0.29806768894195557,0.9525315165519714,0.0,0.0,0.0,0.0,0.0,0.0
3760,1724822715452413627,-1.8815786838531494,0.3072592318058014,0.15112772583961487,0.059687718749046326,0.018014300614595413,-0.298166960477829,0.9524754285812378,0.0,0.0,0.0,0.0,0.0,0.0
3762,1724822715462588708,-1.8815879821777344,0.30727946758270264,0.15113577246665955,0.05986013635993004,0.017966462299227715,-0.2982485294342041,0.9524399042129517,0.0,0.0,0.0,0.0,0.0,0.0
3764,1724822715473469598,-1.8815792798995972,0.307266503572464,0.15106938779354095,0.05941513180732727,0.01757253147661686,-0.2980617880821228,0.9525336027145386,0.0,0.0,0.0,0.0,0.0,0.0
3766,1724822715482496213,-1.8815295696258545,0.3072620928287506,0.15108966827392578,0.05956277623772621,0.017709260806441307,-0.2980501055717468,0.9525254964828491,0.0,0.0,0.0,0.0,0.0,0.0
3768,1724822715494240628,-1.8816022872924805,0.3072411119937897,0.1510491520166397,0.05974310263991356,0.017993157729506493,-0.2980518639087677,0.9525083899497986,0.0,0.0,0.0,0.0,0.0,0.0
3770,1724822715502450552,-1.8815869092941284,0.30725985765457153,0.15107472240924835,0.05949537083506584,0.017832063138484955,-0.2983032464981079,0.9524481296539307,0.0,0.0,0.0,0.0,0.0,0.0
3772,1724822715512769906,-1.8815433979034424,0.3072318136692047,0.15107333660125732,0.05979499965906143,0.01805919222533703,-0.29803478717803955,0.9525091648101807,0.0,0.0,0.0,0.0,0.0,0.0
3774,1724822715523611358,-1.881569266319275,0.30724817514419556,0.15107090771198273,0.059751227498054504,0.017931543290615082,-0.29823172092437744,0.9524526596069336,0.0,0.0,0.0,0.0,0.0,0.0
3776,1724822715558434494,-1.8815922737121582,0.3072262406349182,0.15103298425674438,0.059947576373815536,0.018214736133813858,-0.298225075006485,0.9524371027946472,0.0,0.0,0.0,0.0,0.0,0.0
3778,1724822715558993557,-1.8815243244171143,0.3071994185447693,0.15105637907981873,0.060256268829107285,0.018001241609454155,-0.29836633801460266,0.952377438545227,0.0,0.0,0.0,0.0,0.0,0.0
3780,1724822715559438014,-1.881569743156433,0.30721238255500793,0.15102119743824005,0.059997040778398514,0.018099727109074593,-0.2983572781085968,0.9523947238922119,0.0,0.0,0.0,0.0,0.0,0.0
3782,1724822715562374517,-1.8816100358963013,0.307214617729187,0.15094999969005585,0.059912584722042084,0.018011046573519707,-0.2982904016971588,0.9524227380752563,0.0,0.0,0.0,0.0,0.0,0.0
3784,1724822715573270677,-1.8816279172897339,0.30722343921661377,0.15088395774364471,0.059587664902210236,0.0178834181278944,-0.2982116937637329,0.9524701237678528,0.0,0.0,0.0,0.0,0.0,0.0
3786,1724822715582415589,-1.881596565246582,0.3071998059749603,0.15088346600532532,0.05984939634799957,0.01794782653450966,-0.29818105697631836,0.9524620771408081,0.0,0.0,0.0,0.0,0.0,0.0
3788,1724822715592877484,-1.8816226720809937,0.3072071075439453,0.1508791148662567,0.05979533493518829,0.017711112275719643,-0.29821649193763733,0.9524588584899902,0.0,0.0,0.0,0.0,0.0,0.0
3790,1724822715603182221,-1.8815646171569824,0.30718788504600525,0.15085864067077637,0.05996418371796608,0.017907001078128815,-0.2980955243110657,0.9524824023246765,0.0,0.0,0.0,0.0,0.0,0.0
3792,1724822715612571168,-1.8816288709640503,0.3071897029876709,0.15083226561546326,0.05969950556755066,0.017807208001613617,-0.2980988025665283,0.9524998664855957,0.0,0.0,0.0,0.0,0.0,0.0
3794,1724822715623313698,-1.8815885782241821,0.3071601688861847,0.15082967281341553,0.05998534709215164,0.01801442913711071,-0.2980315089225769,0.9524990916252136,0.0,0.0,0.0,0.0,0.0,0.0
3796,1724822715635266811,-1.8815581798553467,0.30718153715133667,0.15083394944667816,0.06010425463318825,0.017852453514933586,-0.2981613278388977,0.9524539709091187,0.0,0.0,0.0,0.0,0.0,0.0
3798,1724822715642282702,-1.8815646171569824,0.30717188119888306,0.15077000856399536,0.05985810607671738,0.017794031649827957,-0.29791131615638733,0.9525488615036011,0.0,0.0,0.0,0.0,0.0,0.0
3800,1724822715653071731,-1.8815586566925049,0.3071734607219696,0.1507832109928131,0.05984899401664734,0.017744718119502068,-0.2980591356754303,0.95250403881073,0.0,0.0,0.0,0.0,0.0,0.0
3802,1724822715662941101,-1.8815988302230835,0.3071773946285248,0.15073542296886444,0.060099661350250244,0.017954431474208832,-0.29812830686569214,0.9524627327919006,0.0,0.0,0.0,0.0,0.0,0.0
3804,1724822715674942920,-1.8815844058990479,0.3071421682834625,0.15063923597335815,0.06040022894740105,0.017657412216067314,-0.29820841550827026,0.952424168586731,0.0,0.0,0.0,0.0,0.0,0.0
3806,1724822715682596248,-1.8815604448318481,0.30715033411979675,0.15063335001468658,0.06008975952863693,0.01750778965651989,-0.2980862855911255,0.9524847865104675,0.0,0.0,0.0,0.0,0.0,0.0
3808,1724822715692889356,-1.881630539894104,0.3071744740009308,0.15056094527244568,0.060170333832502365,0.01750366762280464,-0.29823005199432373,0.9524348378181458,0.0,0.0,0.0,0.0,0.0,0.0
3810,1724822715703050470,-1.8817100524902344,0.3071988821029663,0.15030933916568756,0.059686120599508286,0.01656622625887394,-0.2982068955898285,0.9524892568588257,0.0,0.0,0.0,0.0,0.0,0.0
3812,1724822715712670116,-1.8817737102508545,0.3071880340576172,0.1500510424375534,0.05901797115802765,0.01583101786673069,-0.2983747720718384,0.9524908661842346,0.0,0.0,0.0,0.0,0.0,0.0
3814,1724822715724543650,-1.8817462921142578,0.3069223165512085,0.14952166378498077,0.058151934295892715,0.014408397488296032,-0.29794758558273315,0.9527003765106201,0.0,0.0,0.0,0.0,0.0,0.0
3816,1724822715732273338,-1.881749153137207,0.3065800070762634,0.1487840712070465,0.056739065796136856,0.013566061854362488,-0.2970726490020752,0.953071117401123,0.0,0.0,0.0,0.0,0.0,0.0
3818,1724822715744053067,-1.8816205263137817,0.306048184633255,0.1481695920228958,0.05596050247550011,0.012426282279193401,-0.2967543601989746,0.9532318711280823,0.0,0.0,0.0,0.0,0.0,0.0
3820,1724822715752680608,-1.8815492391586304,0.30538347363471985,0.1473827064037323,0.055232301354408264,0.011286431923508644,-0.2961883842945099,0.9534645080566406,0.0,0.0,0.0,0.0,0.0,0.0
3822,1724822715762625678,-1.8814098834991455,0.30461904406547546,0.14663493633270264,0.05555541068315506,0.010266286320984364,-0.2956277132034302,0.9536311626434326,0.0,0.0,0.0,0.0,0.0,0.0
3824,1724822715774192250,-1.8810325860977173,0.30384984612464905,0.14598031342029572,0.056293416768312454,0.008852324448525906,-0.2950581908226013,0.9537785053253174,0.0,0.0,0.0,0.0,0.0,0.0
3826,1724822715782463029,-1.8808585405349731,0.3030867874622345,0.1454436480998993,0.05478255823254585,0.0073395646177232265,-0.2950272560119629,0.9538888931274414,0.0,0.0,0.0,0.0,0.0,0.0
3828,1724822715794899186,-1.8809149265289307,0.30226272344589233,0.14456035196781158,0.05286454036831856,0.005720293615013361,-0.29435092210769653,0.9542170763015747,0.0,0.0,0.0,0.0,0.0,0.0
3830,1724822715803516439,-1.8805038928985596,0.3012715280056,0.14320024847984314,0.05116632580757141,0.001344062271527946,-0.2919709086418152,0.9550567269325256,0.0,0.0,0.0,0.0,0.0,0.0
3832,1724822715812989335,-1.8800864219665527,0.3004145324230194,0.1422380954027176,0.051555611193180084,-0.0006031629163771868,-0.2913389205932617,0.9552294611930847,0.0,0.0,0.0,0.0,0.0,0.0
3834,1724822715823565591,-1.8796652555465698,0.2997090518474579,0.14211688935756683,0.050492726266384125,9.380271512782201e-05,-0.2908935248851776,0.9554222226142883,0.0,0.0,0.0,0.0,0.0,0.0
3836,1724822715832495824,-1.8793851137161255,0.29898226261138916,0.14170929789543152,0.049117010086774826,-0.00013023358769714832,-0.29060259461402893,0.955582320690155,0.0,0.0,0.0,0.0,0.0,0.0
3838,1724822715842877856,-1.879226803779602,0.29818370938301086,0.1414007544517517,0.047198738902807236,-0.001743615372106433,-0.2904850244522095,0.9557132720947266,0.0,0.0,0.0,0.0,0.0,0.0
3840,1724822715853683483,-1.879299283027649,0.29758429527282715,0.14103028178215027,0.04489718750119209,-0.0029528606683015823,-0.2898889183998108,0.9560021162033081,0.0,0.0,0.0,0.0,0.0,0.0
3842,1724822715862617952,-1.879270076751709,0.2970696687698364,0.14076915383338928,0.0432145819067955,-0.0037417588755488396,-0.28937670588493347,0.9562320709228516,0.0,0.0,0.0,0.0,0.0,0.0
3844,1724822715872644318,-1.879278540611267,0.296665757894516,0.1405968964099884,0.042271148413419724,-0.004361391067504883,-0.289249986410141,0.9563099145889282,0.0,0.0,0.0,0.0,0.0,0.0
3846,1724822715883571065,-1.8789910078048706,0.29633980989456177,0.1403995156288147,0.04302050545811653,-0.0045175510458648205,-0.2892027795314789,0.956290066242218,0.0,0.0,0.0,0.0,0.0,0.0
3848,1724822715893106991,-1.8789554834365845,0.29613733291625977,0.1403760015964508,0.0428331084549427,-0.00460926815867424,-0.28945228457450867,0.9562224745750427,0.0,0.0,0.0,0.0,0.0,0.0
3850,1724822715903248495,-1.8788453340530396,0.29599636793136597,0.14040842652320862,0.043126460164785385,-0.00461348332464695,-0.28943946957588196,0.9562132358551025,0.0,0.0,0.0,0.0,0.0,0.0
3852,1724822715913042178,-1.87880277633667,0.29598236083984375,0.14046184718608856,0.04361148923635483,-0.004365773871541023,-0.2897828221321106,0.9560883045196533,0.0,0.0,0.0,0.0,0.0,0.0
3854,1724822715924775994,-1.8787662982940674,0.2959653437137604,0.14052151143550873,0.04337438941001892,-0.004182665143162012,-0.2899005115032196,0.9560642242431641,0.0,0.0,0.0,0.0,0.0,0.0
3856,1724822715933042258,-1.8786835670471191,0.29593202471733093,0.14043787121772766,0.04346265643835068,-0.004265263210982084,-0.289773166179657,0.9560985565185547,0.0,0.0,0.0,0.0,0.0,0.0
3858,1724822715944608010,-1.878649115562439,0.29601311683654785,0.14049842953681946,0.0435151569545269,-0.0037305746227502823,-0.28977423906326294,0.9560980200767517,0.0,0.0,0.0,0.0,0.0,0.0
3860,1724822715952626528,-1.8786184787750244,0.29602721333503723,0.14033004641532898,0.04372585937380791,-0.003762482665479183,-0.2894662618637085,0.956181526184082,0.0,0.0,0.0,0.0,0.0,0.0
3862,1724822715963721509,-1.8786523342132568,0.29601749777793884,0.14031483232975006,0.04313167557120323,-0.003163890913128853,-0.28918418288230896,0.9562960863113403,0.0,0.0,0.0,0.0,0.0,0.0
3864,1724822715979647840,-1.8785717487335205,0.2960468530654907,0.1402774453163147,0.043876975774765015,-0.002602074295282364,-0.28928142786026,0.9562344551086426,0.0,0.0,0.0,0.0,0.0,0.0
3866,1724822715982154437,-1.8785300254821777,0.295999675989151,0.14017938077449799,0.04407892003655434,-0.0022427598014473915,-0.2889339327812195,0.956331193447113,0.0,0.0,0.0,0.0,0.0,0.0
3868,1724822715993805038,-1.878499150276184,0.2960050106048584,0.14017914235591888,0.04409879073500633,-0.00187396677210927,-0.28893107175827026,0.9563319087028503,0.0,0.0,0.0,0.0,0.0,0.0
3870,1724822716002832805,-1.8784269094467163,0.2959730625152588,0.14019694924354553,0.044363245368003845,-0.0017178062116727233,-0.288992702960968,0.9563012719154358,0.0,0.0,0.0,0.0,0.0,0.0
3872,1724822716013248489,-1.8783936500549316,0.2959406077861786,0.14020277559757233,0.04442550614476204,-0.0017508964519947767,-0.28906089067459106,0.9562777280807495,0.0,0.0,0.0,0.0,0.0,0.0
3874,1724822716022835858,-1.8783752918243408,0.2958577871322632,0.14017686247825623,0.044586826115846634,-0.0017073258059099317,-0.2892029583454132,0.9562273621559143,0.0,0.0,0.0,0.0,0.0,0.0
3876,1724822716032422730,-1.8782646656036377,0.2957020699977875,0.14019538462162018,0.04533877596259117,-0.0016626750584691763,-0.28927648067474365,0.956169843673706,0.0,0.0,0.0,0.0,0.0,0.0
3878,1724822716043432411,-1.878192663192749,0.295558899641037,0.1402580887079239,0.04585689678788185,-0.0010275720851495862,-0.2895037531852722,0.9560772180557251,0.0,0.0,0.0,0.0,0.0,0.0
3880,1724822716052713652,-1.8780101537704468,0.29539647698402405,0.14037521183490753,0.046766698360443115,-0.0006908483919687569,-0.2899230718612671,0.9559063911437988,0.0,0.0,0.0,0.0,0.0,0.0
3882,1724822716062624620,-1.8778769969940186,0.2952384650707245,0.1404108703136444,0.04778546094894409,0.00023550831247121096,-0.29036903381347656,0.955720841884613,0.0,0.0,0.0,0.0,0.0,0.0
3884,1724822716076569601,-1.8777045011520386,0.2950471043586731,0.14039118587970734,0.04837162047624588,0.000891899224370718,-0.29076072573661804,0.9555718898773193,0.0,0.0,0.0,0.0,0.0,0.0
3886,1724822716082180996,-1.8773813247680664,0.2948778569698334,0.14055533707141876,0.04929739609360695,0.0018826387822628021,-0.2909206449985504,0.9554744362831116,0.0,0.0,0.0,0.0,0.0,0.0
3888,1724822716092973320,-1.8770626783370972,0.2946892976760864,0.14046384394168854,0.04976746067404747,0.0033910423517227173,-0.2909838855266571,0.9554266929626465,0.0,0.0,0.0,0.0,0.0,0.0
3890,1724822716103203725,-1.8766474723815918,0.29444068670272827,0.14035643637180328,0.05058619752526283,0.004809616133570671,-0.29103031754493713,0.9553634524345398,0.0,0.0,0.0,0.0,0.0,0.0
3892,1724822716112714792,-1.876359462738037,0.2942226231098175,0.14024314284324646,0.05083206295967102,0.006795248482376337,-0.2909635007381439,0.9553586840629578,0.0,0.0,0.0,0.0,0.0,0.0
3894,1724822716123353022,-1.876033067703247,0.2939414978027344,0.1400948464870453,0.051087163388729095,0.007776814047247171,-0.2912479341030121,0.9552509784698486,0.0,0.0,0.0,0.0,0.0,0.0
3896,1724822716133784600,-1.8758695125579834,0.2938099801540375,0.13994278013706207,0.05131564289331436,0.00919895526021719,-0.2911454439163208,0.9552572965621948,0.0,0.0,0.0,0.0,0.0,0.0
3898,1724822716142788379,-1.8755927085876465,0.29364898800849915,0.13955692946910858,0.05170417204499245,0.009698324836790562,-0.29122304916381836,0.9552077651023865,0.0,0.0,0.0,0.0,0.0,0.0
3900,1724822716153188678,-1.875448226928711,0.2936307191848755,0.1395958960056305,0.05157554894685745,0.010614718310534954,-0.2914089858531952,0.9551482796669006,0.0,0.0,0.0,0.0,0.0,0.0
3902,1724822716162550354,-1.8754023313522339,0.29361051321029663,0.13963930308818817,0.051495496183633804,0.010884951800107956,-0.29147177934646606,0.9551303386688232,0.0,0.0,0.0,0.0,0.0,0.0
3904,1724822716173504195,-1.8753273487091064,0.2935383915901184,0.1397404819726944,0.051585033535957336,0.010719341225922108,-0.29148444533348083,0.9551234841346741,0.0,0.0,0.0,0.0,0.0,0.0
3906,1724822716183154251,-1.875277042388916,0.2934303879737854,0.13982050120830536,0.05196242779493332,0.010558100417256355,-0.2916713058948517,0.9550477862358093,0.0,0.0,0.0,0.0,0.0,0.0
3908,1724822716194377599,-1.8751468658447266,0.29338374733924866,0.1397436559200287,0.051971759647130966,0.010253050364553928,-0.29205724596977234,0.954932689666748,0.0,0.0,0.0,0.0,0.0,0.0
3910,1724822716203524228,-1.8749797344207764,0.29332125186920166,0.13975189626216888,0.051861751824617386,0.010053819976747036,-0.2925179898738861,0.9547997713088989,0.0,0.0,0.0,0.0,0.0,0.0
3912,1724822716213055388,-1.8749358654022217,0.2931787967681885,0.1396503746509552,0.0518069863319397,0.010160588659346104,-0.2929239571094513,0.954677164554596,0.0,0.0,0.0,0.0,0.0,0.0
3914,1724822716223635684,-1.8747670650482178,0.2930629253387451,0.13958080112934113,0.051857225596904755,0.009727910161018372,-0.29331621527671814,0.9545584321022034,0.0,0.0,0.0,0.0,0.0,0.0
3916,1724822716254154489,-1.8745746612548828,0.29290294647216797,0.1396402269601822,0.05188007652759552,0.009612631052732468,-0.2941264510154724,0.9543089866638184,0.0,0.0,0.0,0.0,0.0,0.0
3918,1724822716254757701,-1.8743362426757812,0.29276999831199646,0.13971081376075745,0.05191551521420479,0.009710046462714672,-0.2948840856552124,0.9540722966194153,0.0,0.0,0.0,0.0,0.0,0.0
3920,1724822716255174029,-1.8740606307983398,0.292663037776947,0.1396084427833557,0.0519392304122448,0.009645042940974236,-0.29540491104125977,0.9539105296134949,0.0,0.0,0.0,0.0,0.0,0.0
3922,1724822716263293776,-1.873859167098999,0.2925547659397125,0.13956254720687866,0.05135880038142204,0.009177378378808498,-0.2964005768299103,0.9536376595497131,0.0,0.0,0.0,0.0,0.0,0.0
3924,1724822716273706091,-1.8735589981079102,0.29245731234550476,0.13951857388019562,0.05091286078095436,0.00903159286826849,-0.29718029499053955,0.9534202218055725,0.0,0.0,0.0,0.0,0.0,0.0
3926,1724822716282707265,-1.8734246492385864,0.2926565706729889,0.1398804783821106,0.054130781441926956,0.014092450961470604,-0.29847651720046997,0.9527764916419983,0.0,0.0,0.0,0.0,0.0,0.0
3928,1724822716293928628,-1.8729815483093262,0.29265275597572327,0.1401769518852234,0.05244309455156326,0.013959048315882683,-0.30016258358955383,0.9523430466651917,0.0,0.0,0.0,0.0,0.0,0.0
3930,1724822716303500333,-1.8723849058151245,0.29239732027053833,0.14003847539424896,0.052190426737070084,0.01245082262903452,-0.299932062625885,0.9524505138397217,0.0,0.0,0.0,0.0,0.0,0.0
3932,1724822716312749477,-1.8716849088668823,0.29238805174827576,0.1403525024652481,0.05273495241999626,0.013651778921484947,-0.30111196637153625,0.9520316123962402,0.0,0.0,0.0,0.0,0.0,0.0
3934,1724822716322937358,-1.8705637454986572,0.2926131784915924,0.14077134430408478,0.053590334951877594,0.01478966511785984,-0.3034023940563202,0.9512394666671753,0.0,0.0,0.0,0.0,0.0,0.0
3936,1724822716333128737,-1.8704137802124023,0.29248249530792236,0.14087797701358795,0.05308867245912552,0.01527403760701418,-0.30387330055236816,0.9511095285415649,0.0,0.0,0.0,0.0,0.0,0.0
3938,1724822716343210756,-1.8698794841766357,0.29258495569229126,0.14095842838287354,0.053611770272254944,0.015313892625272274,-0.3053160607814789,0.9506173729896545,0.0,0.0,0.0,0.0,0.0,0.0
3940,1724822716353515332,-1.8693201541900635,0.2927646338939667,0.14133094251155853,0.05335933342576027,0.014931833371520042,-0.30690211057662964,0.9501268267631531,0.0,0.0,0.0,0.0,0.0,0.0
3942,1724822716362636399,-1.8687905073165894,0.2928617000579834,0.14125412702560425,0.053193774074316025,0.015020417049527168,-0.308059424161911,0.9497600793838501,0.0,0.0,0.0,0.0,0.0,0.0
3944,1724822716376694201,-1.868423581123352,0.29304325580596924,0.14158189296722412,0.05437048152089119,0.016997678205370903,-0.31040817499160767,0.9488950371742249,0.0,0.0,0.0,0.0,0.0,0.0
3946,1724822716384516948,-1.8678725957870483,0.29306623339653015,0.1416223794221878,0.05434145778417587,0.017114032059907913,-0.3117828667163849,0.9484438300132751,0.0,0.0,0.0,0.0,0.0,0.0
3948,1724822716392825831,-1.8673417568206787,0.2932167649269104,0.14171414077281952,0.05454649031162262,0.017388347536325455,-0.31321632862091064,0.9479545950889587,0.0,0.0,0.0,0.0,0.0,0.0
3950,1724822716403378178,-1.866285800933838,0.2935608923435211,0.14204499125480652,0.05561494082212448,0.017839055508375168,-0.31592026352882385,0.9469864368438721,0.0,0.0,0.0,0.0,0.0,0.0
3952,1724822716414767506,-1.865572452545166,0.293781578540802,0.14212742447853088,0.05632255598902702,0.017639746889472008,-0.3176541328430176,0.9463680982589722,0.0,0.0,0.0,0.0,0.0,0.0
3954,1724822716422790688,-1.8656266927719116,0.2936849594116211,0.14222626388072968,0.05453222617506981,0.01863403432071209,-0.31809136271476746,0.9463070034980774,0.0,0.0,0.0,0.0,0.0,0.0
3956,1724822716432821690,-1.8651351928710938,0.2938413918018341,0.14231856167316437,0.05500460043549538,0.01852712221443653,-0.31954365968704224,0.9457923769950867,0.0,0.0,0.0,0.0,0.0,0.0
3958,1724822716445076463,-1.8644535541534424,0.29398438334465027,0.1423177272081375,0.05394239351153374,0.015522315166890621,-0.3209340274333954,0.9454368352890015,0.0,0.0,0.0,0.0,0.0,0.0
3960,1724822716453053011,-1.8638147115707397,0.29422205686569214,0.14244268834590912,0.054546743631362915,0.015349234454333782,-0.3224882483482361,0.9448758959770203,0.0,0.0,0.0,0.0,0.0,0.0
3962,1724822716462797582,-1.8632633686065674,0.29443082213401794,0.14255960285663605,0.05527176707983017,0.015558019280433655,-0.3240842819213867,0.9442840814590454,0.0,0.0,0.0,0.0,0.0,0.0
3964,1724822716472857049,-1.862744688987732,0.2946869730949402,0.14274604618549347,0.055651094764471054,0.0160321407020092,-0.3256939649581909,0.9436998963356018,0.0,0.0,0.0,0.0,0.0,0.0
3966,1724822716482397431,-1.8621271848678589,0.29493626952171326,0.14297449588775635,0.0569755956530571,0.01676301099359989,-0.3277205526828766,0.9429062008857727,0.0,0.0,0.0,0.0,0.0,0.0
3968,1724822716494590139,-1.8616130352020264,0.29523104429244995,0.14337436854839325,0.057598523795604706,0.01709464006125927,-0.3300337791442871,0.9420552253723145,0.0,0.0,0.0,0.0,0.0,0.0
3970,1724822716503061245,-1.8611657619476318,0.295497864484787,0.1439049392938614,0.058382242918014526,0.0182686448097229,-0.33291444182395935,0.9409707188606262,0.0,0.0,0.0,0.0,0.0,0.0
3972,1724822716512897643,-1.8603389263153076,0.2958112061023712,0.144450381398201,0.05824285373091698,0.019488027319312096,-0.3352007567882538,0.940142810344696,0.0,0.0,0.0,0.0,0.0,0.0
3974,1724822716524034721,-1.8595783710479736,0.2961682975292206,0.1446833610534668,0.05746106058359146,0.02068483456969261,-0.3378540873527527,0.9392151236534119,0.0,0.0,0.0,0.0,0.0,0.0
3976,1724822716532595389,-1.8587160110473633,0.296389639377594,0.14469048380851746,0.05790266394615173,0.019495991989970207,-0.33900874853134155,0.9387972950935364,0.0,0.0,0.0,0.0,0.0,0.0
3978,1724822716547255634,-1.8577861785888672,0.29664313793182373,0.1447678506374359,0.05808965116739273,0.019275546073913574,-0.34029173851013184,0.9383260011672974,0.0,0.0,0.0,0.0,0.0,0.0
3980,1724822716553130968,-1.8571809530258179,0.29673245549201965,0.1449151188135147,0.061575647443532944,0.0207423847168684,-0.3428499102592468,0.9371404647827148,0.0,0.0,0.0,0.0,0.0,0.0
3982,1724822716562665653,-1.8570384979248047,0.2969777286052704,0.1450428068637848,0.06166819855570793,0.021615073084831238,-0.3461647927761078,0.9358952045440674,0.0,0.0,0.0,0.0,0.0,0.0
3984,1724822716573256384,-1.8566999435424805,0.29698577523231506,0.14527171850204468,0.06288796663284302,0.021455900743603706,-0.3485031723976135,0.9349493980407715,0.0,0.0,0.0,0.0,0.0,0.0
3986,1724822716582803579,-1.8561666011810303,0.2971794605255127,0.1450238674879074,0.06363946199417114,0.01950429566204548,-0.35055968165397644,0.9341720938682556,0.0,0.0,0.0,0.0,0.0,0.0
3988,1724822716592762837,-1.8555926084518433,0.29734355211257935,0.14506563544273376,0.06393857300281525,0.01906568743288517,-0.35298797488212585,0.9332458972930908,0.0,0.0,0.0,0.0,0.0,0.0
3990,1724822716603230437,-1.855033278465271,0.2974741756916046,0.14513008296489716,0.06442296504974365,0.0187420304864645,-0.3550466299057007,0.9324378371238708,0.0,0.0,0.0,0.0,0.0,0.0
3992,1724822716612753912,-1.854613184928894,0.2976425588130951,0.14528563618659973,0.06453416496515274,0.019171403720974922,-0.35709846019744873,0.9316375851631165,0.0,0.0,0.0,0.0,0.0,0.0
3994,1724822716622923989,-1.8541779518127441,0.2977781295776367,0.14545448124408722,0.06479732692241669,0.019350815564393997,-0.3588310480117798,0.9309496283531189,0.0,0.0,0.0,0.0,0.0,0.0
3996,1724822716633573197,-1.8538434505462646,0.29788216948509216,0.14552266895771027,0.06542371213436127,0.0191622544080019,-0.3606439232826233,0.9302089214324951,0.0,0.0,0.0,0.0,0.0,0.0
3998,1724822716642356086,-1.8537362813949585,0.29814061522483826,0.14561474323272705,0.06604436039924622,0.020929286256432533,-0.36453351378440857,0.9286094903945923,0.0,0.0,0.0,0.0,0.0,0.0
4000,1724822716653516791,-1.8534425497055054,0.2981809079647064,0.1451859027147293,0.06538646668195724,0.019907565787434578,-0.36617234349250793,0.9280335307121277,0.0,0.0,0.0,0.0,0.0,0.0
4002,1724822716662539044,-1.8531579971313477,0.2981458902359009,0.1448509246110916,0.06540617346763611,0.01933768019080162,-0.3673703074455261,0.9275705814361572,0.0,0.0,0.0,0.0,0.0,0.0
4004,1724822716673221010,-1.852888822555542,0.2982464134693146,0.14496870338916779,0.06576483696699142,0.01945575885474682,-0.3685244023799896,0.9270848035812378,0.0,0.0,0.0,0.0,0.0,0.0
4006,1724822716682614801,-1.8528468608856201,0.2981514632701874,0.14399266242980957,0.06479675322771072,0.01791260950267315,-0.3698582947254181,0.9266527891159058,0.0,0.0,0.0,0.0,0.0,0.0
4008,1724822716695027364,-1.8525797128677368,0.2982925474643707,0.1442025750875473,0.06465698033571243,0.01887548342347145,-0.371462881565094,0.9260013699531555,0.0,0.0,0.0,0.0,0.0,0.0
4010,1724822716703283394,-1.8523011207580566,0.2984008193016052,0.14438042044639587,0.06502529233694077,0.01951771043241024,-0.3728731572628021,0.9253952503204346,0.0,0.0,0.0,0.0,0.0,0.0
4012,1724822716712555638,-1.852081298828125,0.29844412207603455,0.1444484144449234,0.0653904527425766,0.019948994740843773,-0.37427642941474915,0.9247936606407166,0.0,0.0,0.0,0.0,0.0,0.0
4014,1724822716725570489,-1.8517968654632568,0.2985225021839142,0.14467570185661316,0.0656561478972435,0.020613567903637886,-0.3756214380264282,0.924214780330658,0.0,0.0,0.0,0.0,0.0,0.0
4016,1724822716732506071,-1.8515771627426147,0.2985428273677826,0.1448361873626709,0.06522470712661743,0.021799234673380852,-0.3771229386329651,0.9236063957214355,0.0,0.0,0.0,0.0,0.0,0.0
4018,1724822716744298256,-1.8513336181640625,0.29856234788894653,0.14501085877418518,0.06494031846523285,0.02295282483100891,-0.37866318225860596,0.9229680895805359,0.0,0.0,0.0,0.0,0.0,0.0
4020,1724822716753017972,-1.8510746955871582,0.2985759675502777,0.14522230625152588,0.06533689796924591,0.023319274187088013,-0.3796301782131195,0.9225335717201233,0.0,0.0,0.0,0.0,0.0,0.0
4022,1724822716762662146,-1.8508310317993164,0.2985657751560211,0.14532193541526794,0.06527778506278992,0.0239214189350605,-0.3810022473335266,0.9219565391540527,0.0,0.0,0.0,0.0,0.0,0.0
4024,1724822716777712159,-1.8505938053131104,0.2985689043998718,0.1455010026693344,0.06577419489622116,0.023960987105965614,-0.3822559416294098,0.9214011430740356,0.0,0.0,0.0,0.0,0.0,0.0
4026,1724822716782150108,-1.8503786325454712,0.2985592186450958,0.1455962061882019,0.06596805155277252,0.0238555409014225,-0.38338491320610046,0.9209208488464355,0.0,0.0,0.0,0.0,0.0,0.0
4028,1724822716794224495,-1.8501465320587158,0.29861149191856384,0.14586110413074493,0.06612725555896759,0.02470855973660946,-0.3851132392883301,0.9201655387878418,0.0,0.0,0.0,0.0,0.0,0.0
4030,1724822716802846537,-1.8499555587768555,0.2985977530479431,0.1459951102733612,0.06585277616977692,0.025039374828338623,-0.3864615857601166,0.9196107983589172,0.0,0.0,0.0,0.0,0.0,0.0
4032,1724822716812820890,-1.8497427701950073,0.29857397079467773,0.1460401564836502,0.06550952792167664,0.025149529799818993,-0.3877352774143219,0.9190959334373474,0.0,0.0,0.0,0.0,0.0,0.0
4034,1724822716823273156,-1.8494664430618286,0.29858964681625366,0.1462370753288269,0.06522465497255325,0.02582489140331745,-0.3892114758491516,0.9184734225273132,0.0,0.0,0.0,0.0,0.0,0.0
4036,1724822716832386122,-1.8495765924453735,0.29840347170829773,0.14574863016605377,0.06335106492042542,0.028294295072555542,-0.3914150297641754,0.917594850063324,0.0,0.0,0.0,0.0,0.0,0.0
4038,1724822716844496552,-1.848267674446106,0.2990354001522064,0.14700506627559662,0.06315948814153671,0.026978876441717148,-0.391530305147171,0.9175985455513,0.0,0.0,0.0,0.0,0.0,0.0
4040,1724822716854081935,-1.847965121269226,0.29904869198799133,0.14716863632202148,0.06299002468585968,0.027297811582684517,-0.3928537666797638,0.917034924030304,0.0,0.0,0.0,0.0,0.0,0.0
4042,1724822716862576425,-1.8476667404174805,0.2990620732307434,0.14736022055149078,0.062442880123853683,0.027871958911418915,-0.39428794384002686,0.9164393544197083,0.0,0.0,0.0,0.0,0.0,0.0
4044,1724822716872593253,-1.847660779953003,0.298911988735199,0.14725705981254578,0.05734803527593613,0.027807943522930145,-0.3964304029941559,0.9158498644828796,0.0,0.0,0.0,0.0,0.0,0.0
4046,1724822716883389794,-1.8475862741470337,0.2988658547401428,0.14728842675685883,0.059260737150907516,0.027033096179366112,-0.3948352634906769,0.9164401888847351,0.0,0.0,0.0,0.0,0.0,0.0
4048,1724822716892926477,-1.847532033920288,0.2989702522754669,0.14764565229415894,0.06077749282121658,0.02919711545109749,-0.39719051122665405,0.9152559638023376,0.0,0.0,0.0,0.0,0.0,0.0
4050,1724822716904843311,-1.8470484018325806,0.29889312386512756,0.1478213220834732,0.05813794583082199,0.025613421574234962,-0.3978640139102936,0.915242075920105,0.0,0.0,0.0,0.0,0.0,0.0
4052,1724822716913878833,-1.8467884063720703,0.2988130450248718,0.14814382791519165,0.06163328140974045,0.025404009968042374,-0.39953652024269104,0.9142902493476868,0.0,0.0,0.0,0.0,0.0,0.0
4054,1724822716925636364,-1.8466999530792236,0.298718124628067,0.1482221931219101,0.06298085302114487,0.02536364644765854,-0.4008204936981201,0.9136373400688171,0.0,0.0,0.0,0.0,0.0,0.0
4056,1724822716932617499,-1.8466796875,0.2987522780895233,0.14901117980480194,0.06339536607265472,0.02803175151348114,-0.4022197425365448,0.9129153490066528,0.0,0.0,0.0,0.0,0.0,0.0
4058,1724822716944960082,-1.8464254140853882,0.29860708117485046,0.1495101898908615,0.06337105482816696,0.02917206659913063,-0.4029214084148407,0.9125718474388123,0.0,0.0,0.0,0.0,0.0,0.0
4060,1724822716953084222,-1.846437931060791,0.29844895005226135,0.1496686488389969,0.0633406788110733,0.030577749013900757,-0.4037480056285858,0.9121625423431396,0.0,0.0,0.0,0.0,0.0,0.0
4062,1724822716962729767,-1.8463246822357178,0.2983050048351288,0.14973463118076324,0.06358251720666885,0.031161800026893616,-0.4041267931461334,0.9119582772254944,0.0,0.0,0.0,0.0,0.0,0.0
4064,1724822716976896658,-1.8462190628051758,0.2982529401779175,0.14993083477020264,0.06339152157306671,0.032049212604761124,-0.4049767851829529,0.9115635752677917,0.0,0.0,0.0,0.0,0.0,0.0
4066,1724822716982494948,-1.8461897373199463,0.2981603145599365,0.1500198394060135,0.06307785212993622,0.032894618809223175,-0.4058670699596405,0.9111591577529907,0.0,0.0,0.0,0.0,0.0,0.0
4068,1724822716996286196,-1.8460581302642822,0.2980356514453888,0.14999766647815704,0.06271707266569138,0.03286655619740486,-0.4063558280467987,0.910967230796814,0.0,0.0,0.0,0.0,0.0,0.0
4070,1724822717002898865,-1.8460001945495605,0.29793256521224976,0.15004056692123413,0.062063783407211304,0.03298037499189377,-0.40721386671066284,0.9106246829032898,0.0,0.0,0.0,0.0,0.0,0.0
4072,1724822717013429477,-1.8459497690200806,0.29785770177841187,0.15006166696548462,0.06146803870797157,0.03346814960241318,-0.40822622179985046,0.9101939797401428,0.0,0.0,0.0,0.0,0.0,0.0
4074,1724822717023673131,-1.8460246324539185,0.2977966070175171,0.14985114336013794,0.06000067666172981,0.033678218722343445,-0.4094293713569641,0.90974360704422,0.0,0.0,0.0,0.0,0.0,0.0
4076,1724822717033105173,-1.845528244972229,0.29768607020378113,0.1501675248146057,0.06184115633368492,0.03334014490246773,-0.41044849157333374,0.9091733694076538,0.0,0.0,0.0,0.0,0.0,0.0
4078,1724822717043688416,-1.8455625772476196,0.29757875204086304,0.1500185877084732,0.05949386581778526,0.03310732543468475,-0.41103070974349976,0.9090754389762878,0.0,0.0,0.0,0.0,0.0,0.0
4080,1724822717054532841,-1.8454947471618652,0.2974787652492523,0.14998239278793335,0.05897649750113487,0.03313277289271355,-0.4117894470691681,0.9087647795677185,0.0,0.0,0.0,0.0,0.0,0.0
4082,1724822717062916034,-1.8454415798187256,0.29734867811203003,0.14995941519737244,0.05847908556461334,0.03325776755809784,-0.412609338760376,0.9084203839302063,0.0,0.0,0.0,0.0,0.0,0.0
4084,1724822717074178640,-1.845442295074463,0.29723429679870605,0.14980678260326385,0.058052320033311844,0.03344538435339928,-0.4132895767688751,0.9081317186355591,0.0,0.0,0.0,0.0,0.0,0.0
4086,1724822717082705520,-1.8455952405929565,0.29735901951789856,0.15063177049160004,0.05453666299581528,0.037709660828113556,-0.4159794747829437,0.9069536328315735,0.0,0.0,0.0,0.0,0.0,0.0
4088,1724822717094234620,-1.8456233739852905,0.29710954427719116,0.1502656489610672,0.05509641766548157,0.03643806651234627,-0.41594070196151733,0.9069895148277283,0.0,0.0,0.0,0.0,0.0,0.0
4090,1724822717103661105,-1.8457021713256836,0.29693904519081116,0.15016546845436096,0.055007196962833405,0.035997260361909866,-0.4165230691432953,0.9067452549934387,0.0,0.0,0.0,0.0,0.0,0.0
4092,1724822717112972764,-1.845714807510376,0.2967836260795593,0.15003468096256256,0.054654475301504135,0.03572087734937668,-0.4170711934566498,0.9065254926681519,0.0,0.0,0.0,0.0,0.0,0.0
4094,1724822717122793057,-1.845794439315796,0.29661843180656433,0.14990690350532532,0.05455153062939644,0.03568407893180847,-0.4176243245601654,0.9062784910202026,0.0,0.0,0.0,0.0,0.0,0.0
4096,1724822717134575513,-1.8457826375961304,0.29644349217414856,0.14984823763370514,0.05469886213541031,0.035701021552085876,-0.4179755449295044,0.9061070084571838,0.0,0.0,0.0,0.0,0.0,0.0
4098,1724822717143300104,-1.845788598060608,0.29644903540611267,0.15030790865421295,0.05340138077735901,0.03779587894678116,-0.4195944368839264,0.9053509831428528,0.0,0.0,0.0,0.0,0.0,0.0
4100,1724822717181544624,-1.8458184003829956,0.29617589712142944,0.15007813274860382,0.053724613040685654,0.03708868473768234,-0.41945481300354004,0.9054257273674011,0.0,0.0,0.0,0.0,0.0,0.0
4102,1724822717182110247,-1.845886468887329,0.2960025370121002,0.15000388026237488,0.05423852801322937,0.03711307793855667,-0.41992777585983276,0.9051749110221863,0.0,0.0,0.0,0.0,0.0,0.0
4104,1724822717182575557,-1.8459553718566895,0.29589879512786865,0.15011514723300934,0.054689615964889526,0.03810613602399826,-0.4208236634731293,0.9046903252601624,0.0,0.0,0.0,0.0,0.0,0.0
4106,1724822717182958952,-1.8460066318511963,0.2958070635795593,0.15018804371356964,0.054299741983413696,0.038121938705444336,-0.4215163290500641,0.9043905138969421,0.0,0.0,0.0,0.0,0.0,0.0
4108,1724822717193826974,-1.8458106517791748,0.29567232728004456,0.15022924542427063,0.053501445800065994,0.037667762488126755,-0.42130139470100403,0.9045572280883789,0.0,0.0,0.0,0.0,0.0,0.0
4110,1724822717203141578,-1.845768928527832,0.29562416672706604,0.1503230333328247,0.053023308515548706,0.03828020393848419,-0.4220747947692871,0.9041991233825684,0.0,0.0,0.0,0.0,0.0,0.0
4112,1724822717212651314,-1.845765471458435,0.2956303358078003,0.15013746917247772,0.05276879668235779,0.03852993622422218,-0.4231826961040497,0.9036853909492493,0.0,0.0,0.0,0.0,0.0,0.0
4114,1724822717222835125,-1.8457428216934204,0.29570701718330383,0.15018726885318756,0.053052082657814026,0.03983630985021591,-0.42423877120018005,0.9031168818473816,0.0,0.0,0.0,0.0,0.0,0.0
4116,1724822717232516720,-1.8457883596420288,0.2957913279533386,0.15029333531856537,0.05390019342303276,0.04170084372162819,-0.4254601001739502,0.9024076461791992,0.0,0.0,0.0,0.0,0.0,0.0
4118,1724822717243578809,-1.8458980321884155,0.2958594858646393,0.1504923552274704,0.054785750806331635,0.04362424835562706,-0.4265955090522766,0.901727020740509,0.0,0.0,0.0,0.0,0.0,0.0
4120,1724822717282773926,-1.846024990081787,0.2958946228027344,0.15067413449287415,0.05503743141889572,0.044916097074747086,-0.427817702293396,0.9010690450668335,0.0,0.0,0.0,0.0,0.0,0.0
4122,1724822717283223917,-1.846169114112854,0.2959623336791992,0.1508047878742218,0.05550041422247887,0.0462360754609108,-0.4290786385536194,0.9003741145133972,0.0,0.0,0.0,0.0,0.0,0.0
4124,1724822717283691499,-1.8463462591171265,0.29603147506713867,0.1508227437734604,0.05615052208304405,0.04679492861032486,-0.43009135127067566,0.8998215794563293,0.0,0.0,0.0,0.0,0.0,0.0
4126,1724822717284095405,-1.846510410308838,0.296115517616272,0.1509472280740738,0.056658703833818436,0.04732437804341316,-0.4311748445034027,0.8992432951927185,0.0,0.0,0.0,0.0,0.0,0.0
4128,1724822717293164265,-1.8467375040054321,0.2962116301059723,0.15115319192409515,0.056248582899570465,0.04798592999577522,-0.432445764541626,0.8986234664916992,0.0,0.0,0.0,0.0,0.0,0.0
4130,1724822717304106322,-1.846923589706421,0.29624566435813904,0.1512056589126587,0.056123699992895126,0.04828807711601257,-0.43311554193496704,0.8982924818992615,0.0,0.0,0.0,0.0,0.0,0.0
4132,1724822717313381622,-1.8471357822418213,0.29609450697898865,0.15085606276988983,0.05552143603563309,0.045507509261369705,-0.4327504336833954,0.8986508846282959,0.0,0.0,0.0,0.0,0.0,0.0
4134,1724822717323440665,-1.84696626663208,0.29615482687950134,0.15090538561344147,0.06006447970867157,0.043958187103271484,-0.43327099084854126,0.8981849551200867,0.0,0.0,0.0,0.0,0.0,0.0
4136,1724822717332408238,-1.846997618675232,0.29622066020965576,0.1515791267156601,0.06003228947520256,0.04667745158076286,-0.4345768690109253,0.8974186778068542,0.0,0.0,0.0,0.0,0.0,0.0
4138,1724822717344537376,-1.8467274904251099,0.29638707637786865,0.15185637772083282,0.06333574652671814,0.046083129942417145,-0.4354236125946045,0.8968117237091064,0.0,0.0,0.0,0.0,0.0,0.0
4140,1724822717353104760,-1.8465451002120972,0.29677391052246094,0.15322758257389069,0.06179659813642502,0.05302261561155319,-0.4372970759868622,0.8956233263015747,0.0,0.0,0.0,0.0,0.0,0.0
4142,1724822717362561279,-1.8471384048461914,0.29676827788352966,0.15337176620960236,0.0577143169939518,0.05156705528497696,-0.43854790925979614,0.8953689336776733,0.0,0.0,0.0,0.0,0.0,0.0
4144,1724822717375669355,-1.8474323749542236,0.2967035472393036,0.15292327105998993,0.05439230799674988,0.047881435602903366,-0.43841779232025146,0.8958452939987183,0.0,0.0,0.0,0.0,0.0,0.0
4146,1724822717383684210,-1.8476881980895996,0.2967589199542999,0.1529693752527237,0.05419164523482323,0.04770059138536453,-0.4391212463378906,0.8955224752426147,0.0,0.0,0.0,0.0,0.0,0.0
4148,1724822717393555976,-1.8479013442993164,0.2968750298023224,0.15310680866241455,0.054021429270505905,0.04795823246240616,-0.44016048312187195,0.8950086236000061,0.0,0.0,0.0,0.0,0.0,0.0
4150,1724822717404271216,-1.8480948209762573,0.29702576994895935,0.15327584743499756,0.053781379014253616,0.04837166145443916,-0.44116514921188354,0.89450603723526,0.0,0.0,0.0,0.0,0.0,0.0
4152,1724822717414084367,-1.848376989364624,0.29710444808006287,0.1531069427728653,0.05439623445272446,0.04847358912229538,-0.44180381298065186,0.894148051738739,0.0,0.0,0.0,0.0,0.0,0.0
4154,1724822717422903344,-1.848611831665039,0.2972508668899536,0.15314264595508575,0.055194273591041565,0.048541102558374405,-0.44277817010879517,0.8936133980751038,0.0,0.0,0.0,0.0,0.0,0.0
4156,1724822717433015872,-1.8485815525054932,0.2977583110332489,0.15390297770500183,0.056274786591529846,0.05370178818702698,-0.4449402689933777,0.8921757340431213,0.0,0.0,0.0,0.0,0.0,0.0
4158,1724822717445199163,-1.8489183187484741,0.2977950870990753,0.153919979929924,0.0569816455245018,0.05332866683602333,-0.4453270733356476,0.8919602632522583,0.0,0.0,0.0,0.0,0.0,0.0
4160,1724822717456885865,-1.8493266105651855,0.2976948618888855,0.15347035229206085,0.05657406896352768,0.0487196184694767,-0.4446975588798523,0.8925637006759644,0.0,0.0,0.0,0.0,0.0,0.0
4162,1724822717463599598,-1.8495466709136963,0.2978338301181793,0.1535091996192932,0.056981176137924194,0.04802743345499039,-0.44524627923965454,0.892301619052887,0.0,0.0,0.0,0.0,0.0,0.0
4164,1724822717472417620,-1.8497381210327148,0.2980632781982422,0.15370403230190277,0.05637817084789276,0.04896780848503113,-0.4460201859474182,0.8919022083282471,0.0,0.0,0.0,0.0,0.0,0.0
4166,1724822717482725407,-1.849924087524414,0.29824021458625793,0.15383821725845337,0.05593453720211983,0.0496935211122036,-0.4465782940387726,0.8916107416152954,0.0,0.0,0.0,0.0,0.0,0.0
4168,1724822717493810950,-1.8500564098358154,0.2984328269958496,0.15397785604000092,0.0556122288107872,0.05078417807817459,-0.44721171259880066,0.8912518620491028,0.0,0.0,0.0,0.0,0.0,0.0
4170,1724822717503082885,-1.850248098373413,0.29851287603378296,0.15393519401550293,0.0550321489572525,0.050582028925418854,-0.44743895530700684,0.8911853432655334,0.0,0.0,0.0,0.0,0.0,0.0
4172,1724822717513085720,-1.8504009246826172,0.29862675070762634,0.1539972573518753,0.054992977529764175,0.050770342350006104,-0.4478628635406494,0.8909640908241272,0.0,0.0,0.0,0.0,0.0,0.0
4174,1724822717524430552,-1.8505443334579468,0.2987193167209625,0.15396784245967865,0.05439672991633415,0.05061100050806999,-0.44798794388771057,0.8909468650817871,0.0,0.0,0.0,0.0,0.0,0.0
4176,1724822717532366719,-1.8506274223327637,0.29884353280067444,0.15410512685775757,0.054560936987400055,0.050637830048799515,-0.4484265148639679,0.8907146453857422,0.0,0.0,0.0,0.0,0.0,0.0
4178,1724822717544789569,-1.8507349491119385,0.29892632365226746,0.15415732562541962,0.05466269329190254,0.05067184939980507,-0.44876807928085327,0.8905344009399414,0.0,0.0,0.0,0.0,0.0,0.0
4180,1724822717552855704,-1.8508349657058716,0.299008846282959,0.15425679087638855,0.05409295856952667,0.050431739538908005,-0.4489770531654358,0.8904774785041809,0.0,0.0,0.0,0.0,0.0,0.0
4182,1724822717562340433,-1.8509718179702759,0.29900676012039185,0.15423345565795898,0.05409619212150574,0.050123199820518494,-0.449134886264801,0.8904151916503906,0.0,0.0,0.0,0.0,0.0,0.0
4184,1724822717576851740,-1.8510059118270874,0.2990272045135498,0.15430830419063568,0.054517727345228195,0.05011110380291939,-0.44930499792099,0.8903042674064636,0.0,0.0,0.0,0.0,0.0,0.0
4186,1724822717582743485,-1.8510818481445312,0.2989821135997772,0.15423034131526947,0.05451265722513199,0.05004117637872696,-0.44933727383613586,0.8902922868728638,0.0,0.0,0.0,0.0,0.0,0.0
4188,1724822717592978229,-1.8511483669281006,0.29885467886924744,0.15407738089561462,0.05466306954622269,0.04848204553127289,-0.4489355981349945,0.8905718922615051,0.0,0.0,0.0,0.0,0.0,0.0
4190,1724822717603768904,-1.8512276411056519,0.2987414598464966,0.15387001633644104,0.055252350866794586,0.0471891425549984,-0.4486479163169861,0.890749990940094,0.0,0.0,0.0,0.0,0.0,0.0
4192,1724822717613041828,-1.851273775100708,0.2986234724521637,0.15361511707305908,0.0558338537812233,0.045481301844120026,-0.44822922348976135,0.8910132050514221,0.0,0.0,0.0,0.0,0.0,0.0
4194,1724822717625832557,-1.851345419883728,0.2984706461429596,0.15323805809020996,0.055465780198574066,0.04402168095111847,-0.44752031564712524,0.8914658427238464,0.0,0.0,0.0,0.0,0.0,0.0
4196,1724822717632711661,-1.8515052795410156,0.2982718050479889,0.15295208990573883,0.05188746750354767,0.0437244214117527,-0.44695720076560974,0.8919782638549805,0.0,0.0,0.0,0.0,0.0,0.0
4198,1724822717642597337,-1.8514972925186157,0.2983003258705139,0.15284588932991028,0.050555117428302765,0.044208113104104996,-0.44708481431007385,0.8919669985771179,0.0,0.0,0.0,0.0,0.0,0.0
4200,1724822717653303282,-1.8508925437927246,0.29922711849212646,0.15411551296710968,0.051920611411333084,0.05288021266460419,-0.4511488378047943,0.8893664479255676,0.0,0.0,0.0,0.0,0.0,0.0
4202,1724822717663299243,-1.8508042097091675,0.2994214594364166,0.15415658056735992,0.0506448857486248,0.05353642255067825,-0.452040433883667,0.8889479637145996,0.0,0.0,0.0,0.0,0.0,0.0
4204,1724822717674021091,-1.8510116338729858,0.29933100938796997,0.1538063883781433,0.04852694645524025,0.05118417739868164,-0.45216915011405945,0.8891391754150391,0.0,0.0,0.0,0.0,0.0,0.0
4206,1724822717682950399,-1.8514028787612915,0.29954779148101807,0.15403972566127777,0.047592781484127045,0.05135055258870125,-0.4540325999259949,0.8882299661636353,0.0,0.0,0.0,0.0,0.0,0.0
4208,1724822717692786409,-1.851308822631836,0.2989863157272339,0.1530391126871109,0.050505757331848145,0.04649297520518303,-0.4512768089771271,0.8897396922111511,0.0,0.0,0.0,0.0,0.0,0.0
4210,1724822717704897376,-1.8511786460876465,0.29890862107276917,0.15279802680015564,0.05152076110243797,0.045186277478933334,-0.4507198929786682,0.890031099319458,0.0,0.0,0.0,0.0,0.0,0.0
4212,1724822717713287100,-1.8510783910751343,0.29895803332328796,0.1527431309223175,0.05198772996664047,0.04497188702225685,-0.4507994055747986,0.8899745345115662,0.0,0.0,0.0,0.0,0.0,0.0
4214,1724822717723187253,-1.8510383367538452,0.2990054488182068,0.15271642804145813,0.051713671535253525,0.04487926885485649,-0.4509466886520386,0.8899205923080444,0.0,0.0,0.0,0.0,0.0,0.0
4216,1724822717732424282,-1.85100257396698,0.2995583713054657,0.15340721607208252,0.05263715982437134,0.050064001232385635,-0.45361635088920593,0.8882315158843994,0.0,0.0,0.0,0.0,0.0,0.0
4218,1724822717743518011,-1.8509899377822876,0.29934075474739075,0.15298615396022797,0.05190933868288994,0.04753433167934418,-0.4526270627975464,0.8889177441596985,0.0,0.0,0.0,0.0,0.0,0.0
4220,1724822717753001089,-1.8509767055511475,0.29956626892089844,0.1533808708190918,0.052864138036966324,0.05000131204724312,-0.45375022292137146,0.8881531357765198,0.0,0.0,0.0,0.0,0.0,0.0
4222,1724822717762931004,-1.8513585329055786,0.2992863655090332,0.15263999998569489,0.05266372859477997,0.04977701976895332,-0.45384594798088074,0.8881286978721619,0.0,0.0,0.0,0.0,0.0,0.0
4224,1724822717773764113,-1.851643443107605,0.2989877462387085,0.1518084704875946,0.05168217793107033,0.048469871282577515,-0.453313946723938,0.8885302543640137,0.0,0.0,0.0,0.0,0.0,0.0
4226,1724822717782485675,-1.8515737056732178,0.2990506887435913,0.15201525390148163,0.051423534750938416,0.04785870388150215,-0.45312023162841797,0.888677179813385,0.0,0.0,0.0,0.0,0.0,0.0
4228,1724822717797092077,-1.8516985177993774,0.2991849482059479,0.1519070863723755,0.052902646362781525,0.04996921867132187,-0.4539037346839905,0.8880742788314819,0.0,0.0,0.0,0.0,0.0,0.0
4230,1724822717805179584,-1.85164475440979,0.2990339696407318,0.1518298089504242,0.051534101366996765,0.04855391010642052,-0.4532405138015747,0.8885717988014221,0.0,0.0,0.0,0.0,0.0,0.0
4232,1724822717831138643,-1.8515833616256714,0.29904139041900635,0.15177446603775024,0.05172528326511383,0.04752153530716896,-0.4522005617618561,0.889146089553833,0.0,0.0,0.0,0.0,0.0,0.0
4234,1724822717831422540,-1.8515846729278564,0.299038827419281,0.15171660482883453,0.05306675285100937,0.047803863883018494,-0.4520969092845917,0.8891046643257141,0.0,0.0,0.0,0.0,0.0,0.0
4236,1724822717832343535,-1.8515702486038208,0.2990283966064453,0.15167146921157837,0.054456427693367004,0.047422222793102264,-0.4517994523048401,0.8891923427581787,0.0,0.0,0.0,0.0,0.0,0.0
4238,1724822717846317235,-1.8515748977661133,0.29927757382392883,0.15199889242649078,0.05574539676308632,0.050664737820625305,-0.45307111740112305,0.8882859945297241,0.0,0.0,0.0,0.0,0.0,0.0
4240,1724822717853592221,-1.8515766859054565,0.2992734909057617,0.15193012356758118,0.05644737929105759,0.050404395908117294,-0.45293182134628296,0.8883275985717773,0.0,0.0,0.0,0.0,0.0,0.0
4242,1724822717862706233,-1.8516093492507935,0.29927441477775574,0.15189532935619354,0.05691982060670853,0.05047278478741646,-0.45290693640708923,0.8883062601089478,0.0,0.0,0.0,0.0,0.0,0.0
4244,1724822717878039899,-1.8516124486923218,0.2993066608905792,0.15196575224399567,0.057115472853183746,0.05089915171265602,-0.4530722200870514,0.8881850242614746,0.0,0.0,0.0,0.0,0.0,0.0
4246,1724822717887066709,-1.851629376411438,0.29930976033210754,0.15194644033908844,0.057415444403886795,0.05089638754725456,-0.45292478799819946,0.8882410526275635,0.0,0.0,0.0,0.0,0.0,0.0
4248,1724822717892848422,-1.8516490459442139,0.29933086037635803,0.1520133763551712,0.05769645795226097,0.051198359578847885,-0.4529953598976135,0.8881694674491882,0.0,0.0,0.0,0.0,0.0,0.0
4250,1724822717903269227,-1.85161292552948,0.29934898018836975,0.15212975442409515,0.05782629922032356,0.05150756612420082,-0.45314115285873413,0.8880687952041626,0.0,0.0,0.0,0.0,0.0,0.0
4252,1724822717913281759,-1.8516989946365356,0.2991756200790405,0.15188519656658173,0.05648764967918396,0.04946473240852356,-0.4523340165615082,0.8886823058128357,0.0,0.0,0.0,0.0,0.0,0.0
4254,1724822717929507487,-1.8517224788665771,0.29908230900764465,0.15184874832630157,0.05861585959792137,0.046811871230602264,-0.45151767134666443,0.889103353023529,0.0,0.0,0.0,0.0,0.0,0.0
4256,1724822717932689057,-1.8526488542556763,0.29892757534980774,0.1510050892829895,0.048018790781497955,0.04352946579456329,-0.4467235207557678,0.8923215270042419,0.0,0.0,0.0,0.0,0.0,0.0
4258,1724822717950218844,-1.8523319959640503,0.299603134393692,0.1521364450454712,0.04881318658590317,0.04812966287136078,-0.4511472284793854,0.8898128867149353,0.0,0.0,0.0,0.0,0.0,0.0
4260,1724822717952792287,-1.8525221347808838,0.2995668947696686,0.15186288952827454,0.046981699764728546,0.046169206500053406,-0.45068031549453735,0.890251874923706,0.0,0.0,0.0,0.0,0.0,0.0
4262,1724822717963625676,-1.8525829315185547,0.2996062636375427,0.15183652937412262,0.04601285234093666,0.045353446155786514,-0.45084843039512634,0.890259325504303,0.0,0.0,0.0,0.0,0.0,0.0
4264,1724822717972777602,-1.8526396751403809,0.2996371388435364,0.15180626511573792,0.045338504016399384,0.04482273384928703,-0.45093101263046265,0.8902789354324341,0.0,0.0,0.0,0.0,0.0,0.0
4266,1724822717982624630,-1.8526287078857422,0.29967010021209717,0.15187782049179077,0.04484833404421806,0.044660065323114395,-0.45119205117225647,0.8901797533035278,0.0,0.0,0.0,0.0,0.0,0.0
4268,1724822717994224798,-1.8526537418365479,0.29968374967575073,0.15187408030033112,0.044570133090019226,0.04461488500237465,-0.4513908326625824,0.8900951147079468,0.0,0.0,0.0,0.0,0.0,0.0
4270,1724822718002708539,-1.8526626825332642,0.29968884587287903,0.1518835425376892,0.04445461183786392,0.04441297799348831,-0.4515381455421448,0.8900362849235535,0.0,0.0,0.0,0.0,0.0,0.0
4272,1724822718013156839,-1.8527135848999023,0.2997210919857025,0.15186654031276703,0.04433713108301163,0.04417445883154869,-0.45160767436027527,0.8900187015533447,0.0,0.0,0.0,0.0,0.0,0.0
4274,1724822718024326321,-1.8527247905731201,0.29973381757736206,0.1518336832523346,0.04418003931641579,0.044000886380672455,-0.451597660779953,0.8900402784347534,0.0,0.0,0.0,0.0,0.0,0.0
4276,1724822718032689713,-1.852752447128296,0.29976847767829895,0.15185824036598206,0.04434097930788994,0.04402777552604675,-0.4517589509487152,0.8899490237236023,0.0,0.0,0.0,0.0,0.0,0.0
4278,1724822718043254862,-1.852766752243042,0.2997990846633911,0.15190429985523224,0.0445324182510376,0.04405522719025612,-0.4519110918045044,0.8898608684539795,0.0,0.0,0.0,0.0,0.0,0.0
4280,1724822718053591403,-1.8527886867523193,0.29982098937034607,0.15190626680850983,0.04454502835869789,0.044050365686416626,-0.4520191252231598,0.8898056149482727,0.0,0.0,0.0,0.0,0.0,0.0
4282,1724822718062688106,-1.852818489074707,0.29985302686691284,0.15186315774917603,0.04429377615451813,0.0437958687543869,-0.4520069360733032,0.8898369073867798,0.0,0.0,0.0,0.0,0.0,0.0
4284,1724822718073180774,-1.852858543395996,0.2999114692211151,0.15185387432575226,0.04447286203503609,0.04381493851542473,-0.4521464407444,0.8897562026977539,0.0,0.0,0.0,0.0,0.0,0.0
4286,1724822718083261980,-1.852884292602539,0.2999381124973297,0.1518131047487259,0.04448826238512993,0.043852757662534714,-0.4521993398666382,0.8897266387939453,0.0,0.0,0.0,0.0,0.0,0.0
4288,1724822718093157088,-1.8528993129730225,0.29997438192367554,0.15181668102741241,0.044487614184617996,0.04368525370955467,-0.45233070850372314,0.8896681666374207,0.0,0.0,0.0,0.0,0.0,0.0
4290,1724822718102766115,-1.8529201745986938,0.29996222257614136,0.15175841748714447,0.04438134282827377,0.043495044112205505,-0.4523307979106903,0.8896826505661011,0.0,0.0,0.0,0.0,0.0,0.0
4292,1724822718112695969,-1.8529596328735352,0.3000250458717346,0.1517987698316574,0.0442802831530571,0.043775029480457306,-0.4524848759174347,0.8895956873893738,0.0,0.0,0.0,0.0,0.0,0.0
4294,1724822718122805775,-1.8529969453811646,0.3000522255897522,0.15173114836215973,0.04402593523263931,0.0434739924967289,-0.45234397053718567,0.8896946907043457,0.0,0.0,0.0,0.0,0.0,0.0
4296,1724822718133294617,-1.8530396223068237,0.30007368326187134,0.1517030894756317,0.04398057237267494,0.04356813430786133,-0.45250633358955383,0.8896097540855408,0.0,0.0,0.0,0.0,0.0,0.0
4298,1724822718143190611,-1.8528913259506226,0.30025455355644226,0.15245196223258972,0.045637346804142,0.04529232159256935,-0.4538676142692566,0.8887462615966797,0.0,0.0,0.0,0.0,0.0,0.0
4300,1724822718152740788,-1.8529161214828491,0.3003480136394501,0.1524580419063568,0.04540616646409035,0.04571238532662392,-0.45415961742401123,0.888587474822998,0.0,0.0,0.0,0.0,0.0,0.0
4302,1724822718163377244,-1.8528674840927124,0.3004317581653595,0.15235702693462372,0.044809285551309586,0.0456608384847641,-0.4541586637496948,0.888620913028717,0.0,0.0,0.0,0.0,0.0,0.0
4304,1724822718172655403,-1.8527474403381348,0.3005448877811432,0.1522287130355835,0.04436134919524193,0.0459032841026783,-0.4541255831718445,0.8886478543281555,0.0,0.0,0.0,0.0,0.0,0.0
4306,1724822718182960551,-1.8525426387786865,0.30070599913597107,0.1521836221218109,0.04388134926557541,0.04653150960803032,-0.45436638593673706,0.8885158896446228,0.0,0.0,0.0,0.0,0.0,0.0
4308,1724822718193872078,-1.8524410724639893,0.30076056718826294,0.15148888528347015,0.041701581329107285,0.04607383534312248,-0.45383307337760925,0.8889172077178955,0.0,0.0,0.0,0.0,0.0,0.0
4310,1724822718203061008,-1.8521491289138794,0.30093902349472046,0.1513967514038086,0.04040370509028435,0.046622660011053085,-0.454170823097229,0.8887760639190674,0.0,0.0,0.0,0.0,0.0,0.0
4312,1724822718212975962,-1.851853609085083,0.3012769818305969,0.1512259840965271,0.03670227527618408,0.048386458307504654,-0.45421716570854187,0.888818621635437,0.0,0.0,0.0,0.0,0.0,0.0
4314,1724822718222697332,-1.8515028953552246,0.30141741037368774,0.15128076076507568,0.037741731852293015,0.04837234690785408,-0.4544413387775421,0.8886612057685852,0.0,0.0,0.0,0.0,0.0,0.0
4316,1724822718232626424,-1.8511885404586792,0.3016543984413147,0.15117895603179932,0.036938559263944626,0.048193927854299545,-0.4542599618434906,0.8887974619865417,0.0,0.0,0.0,0.0,0.0,0.0
4318,1724822718243865571,-1.8508458137512207,0.3019602596759796,0.15114761888980865,0.03618989512324333,0.048571668565273285,-0.45419996976852417,0.8888382911682129,0.0,0.0,0.0,0.0,0.0,0.0
4320,1724822718252737627,-1.850534200668335,0.3022058606147766,0.15109989047050476,0.03587663918733597,0.04880927875638008,-0.45421648025512695,0.8888295292854309,0.0,0.0,0.0,0.0,0.0,0.0
4322,1724822718262985836,-1.8500560522079468,0.3024764358997345,0.1516570746898651,0.03774193301796913,0.05038376897573471,-0.45505067706108093,0.8882375955581665,0.0,0.0,0.0,0.0,0.0,0.0
4324,1724822718279338228,-1.8497166633605957,0.3027195632457733,0.15164940059185028,0.03728140890598297,0.05102430284023285,-0.4552188515663147,0.888134241104126,0.0,0.0,0.0,0.0,0.0,0.0
4326,1724822718283273752,-1.8494395017623901,0.30312639474868774,0.15136197209358215,0.03545787185430527,0.05165470018982887,-0.4552202522754669,0.8881717920303345,0.0,0.0,0.0,0.0,0.0,0.0
4328,1724822718293134812,-1.8491109609603882,0.3034205436706543,0.1512519270181656,0.03406517580151558,0.051955465227365494,-0.45512664318084717,0.8882567286491394,0.0,0.0,0.0,0.0,0.0,0.0
4330,1724822718303637967,-1.848707675933838,0.30361807346343994,0.15131154656410217,0.035189077258110046,0.05443793907761574,-0.45521020889282227,0.8880214095115662,0.0,0.0,0.0,0.0,0.0,0.0
4332,1724822718313401018,-1.8484828472137451,0.3039042055606842,0.15103493630886078,0.03237154334783554,0.05251748114824295,-0.45406684279441833,0.8888291120529175,0.0,0.0,0.0,0.0,0.0,0.0
4334,1724822718324102259,-1.848123550415039,0.30426034331321716,0.15093952417373657,0.03121168538928032,0.051802244037389755,-0.45371848344802856,0.8890904784202576,0.0,0.0,0.0,0.0,0.0,0.0
4336,1724822718342252395,-1.8475421667099,0.30475273728370667,0.15169236063957214,0.03222723305225372,0.053416118025779724,-0.4549688398838043,0.8883196115493774,0.0,0.0,0.0,0.0,0.0,0.0
4338,1724822718343630164,-1.847164511680603,0.30511584877967834,0.15181095898151398,0.030980916693806648,0.0537610799074173,-0.4553248882293701,0.8881605267524719,0.0,0.0,0.0,0.0,0.0,0.0
4340,1724822718353993959,-1.8467252254486084,0.3054814040660858,0.15197651088237762,0.029638970270752907,0.053896430879831314,-0.45545122027397156,0.8881334662437439,0.0,0.0,0.0,0.0,0.0,0.0
4342,1724822718363312208,-1.8463186025619507,0.3057968020439148,0.1521785855293274,0.028444554656744003,0.05451440438628197,-0.4558109641075134,0.8879501223564148,0.0,0.0,0.0,0.0,0.0,0.0
4344,1724822718372910549,-1.8460105657577515,0.30606797337532043,0.15228620171546936,0.02742496319115162,0.05442139133810997,-0.4556695520877838,0.8880605101585388,0.0,0.0,0.0,0.0,0.0,0.0
4346,1724822718383784915,-1.8457001447677612,0.3063255548477173,0.1524219661951065,0.026469066739082336,0.054071880877017975,-0.455696165561676,0.8880971670150757,0.0,0.0,0.0,0.0,0.0,0.0
4348,1724822718393566951,-1.845400094985962,0.30663034319877625,0.1525920331478119,0.02493959851562977,0.05334710329771042,-0.4555295407772064,0.8882707953453064,0.0,0.0,0.0,0.0,0.0,0.0
4350,1724822718403552010,-1.845088005065918,0.3068629503250122,0.1528400182723999,0.023660482838749886,0.052821557968854904,-0.45531517267227173,0.8884470462799072,0.0,0.0,0.0,0.0,0.0,0.0
4352,1724822718412440958,-1.844760537147522,0.3071318566799164,0.15311835706233978,0.02234697714447975,0.05246814712882042,-0.4551446735858917,0.8885893821716309,0.0,0.0,0.0,0.0,0.0,0.0
4354,1724822718424556740,-1.8445158004760742,0.30737560987472534,0.15318754315376282,0.018706101924180984,0.05237802490592003,-0.4544275104999542,0.889045774936676,0.0,0.0,0.0,0.0,0.0,0.0
4356,1724822718432694367,-1.8443973064422607,0.30746030807495117,0.1531836986541748,0.018641412258148193,0.05080176517367363,-0.45371660590171814,0.8895015716552734,0.0,0.0,0.0,0.0,0.0,0.0
4358,1724822718443258073,-1.8442139625549316,0.30766603350639343,0.1533983051776886,0.018298489972949028,0.050606004893779755,-0.45340222120285034,0.8896801471710205,0.0,0.0,0.0,0.0,0.0,0.0
4360,1724822718452756013,-1.8440271615982056,0.30780401825904846,0.15367984771728516,0.01776253618299961,0.050301481038331985,-0.45303523540496826,0.8898951411247253,0.0,0.0,0.0,0.0,0.0,0.0
4362,1724822718463797168,-1.8438971042633057,0.3079516887664795,0.15404491126537323,0.016539227217435837,0.050471097230911255,-0.45287176966667175,0.8899922966957092,0.0,0.0,0.0,0.0,0.0,0.0
4364,1724822718472961741,-1.8437565565109253,0.3079821765422821,0.15436461567878723,0.01617179997265339,0.04970534145832062,-0.45239803194999695,0.8902831077575684,0.0,0.0,0.0,0.0,0.0,0.0
4366,1724822718482747685,-1.8436099290847778,0.30806583166122437,0.15473704040050507,0.014597294852137566,0.04963883385062218,-0.4520212709903717,0.8905054330825806,0.0,0.0,0.0,0.0,0.0,0.0
4368,1724822718494081394,-1.843447208404541,0.3082365393638611,0.15509431064128876,0.01117929257452488,0.04999936744570732,-0.4519403874874115,0.8905757069587708,0.0,0.0,0.0,0.0,0.0,0.0
4370,1724822718503072122,-1.8433349132537842,0.3083239793777466,0.15538465976715088,0.00884173158556223,0.049939725548028946,-0.4516986608505249,0.8907279372215271,0.0,0.0,0.0,0.0,0.0,0.0
4372,1724822718512658214,-1.8431761264801025,0.30838483572006226,0.15566053986549377,0.00655817287042737,0.04967927932739258,-0.451402485370636,0.8909123539924622,0.0,0.0,0.0,0.0,0.0,0.0
4374,1724822718522717524,-1.8430190086364746,0.3084169328212738,0.15581512451171875,0.004424437880516052,0.04933150112628937,-0.45066478848457336,0.8913182020187378,0.0,0.0,0.0,0.0,0.0,0.0
4376,1724822718533047307,-1.842755675315857,0.3084605634212494,0.15605485439300537,0.0029608674813061953,0.04941314831376076,-0.4506491422653198,0.8913276791572571,0.0,0.0,0.0,0.0,0.0,0.0
4378,1724822718543977625,-1.8425464630126953,0.30849263072013855,0.15610849857330322,0.0013667030725628138,0.04954328015446663,-0.45007333159446716,0.8916151523590088,0.0,0.0,0.0,0.0,0.0,0.0
4380,1724822718555332690,-1.8422855138778687,0.30857160687446594,0.1562296748161316,0.00016658134700264782,0.049995239824056625,-0.4498599171638489,0.8916986584663391,0.0,0.0,0.0,0.0,0.0,0.0
4382,1724822718563138862,-1.8420281410217285,0.3086831867694855,0.15632404386997223,-0.0008164328755810857,0.05039480701088905,-0.44941434264183044,0.8919005393981934,0.0,0.0,0.0,0.0,0.0,0.0
4384,1724822718573744590,-1.841776728630066,0.3087921738624573,0.1563863605260849,-0.0019462002674117684,0.05045700818300247,-0.44870439171791077,0.8922525644302368,0.0,0.0,0.0,0.0,0.0,0.0
4386,1724822718582828081,-1.8415319919586182,0.30883726477622986,0.15645326673984528,-0.0029076929204165936,0.05034502595663071,-0.4478873312473297,0.892666757106781,0.0,0.0,0.0,0.0,0.0,0.0
4388,1724822718592713722,-1.8413175344467163,0.30894342064857483,0.15653619170188904,-0.0037331776693463326,0.05033978074789047,-0.4467877745628357,0.8932148218154907,0.0,0.0,0.0,0.0,0.0,0.0
4390,1724822718603487788,-1.8411915302276611,0.30904829502105713,0.1566532850265503,-0.00498806731775403,0.050745055079460144,-0.4459792971611023,0.8935896754264832,0.0,0.0,0.0,0.0,0.0,0.0
4392,1724822718612674651,-1.8410483598709106,0.3091493844985962,0.15681757032871246,-0.005383748095482588,0.05097771808505058,-0.444817453622818,0.8941531777381897,0.0,0.0,0.0,0.0,0.0,0.0
4394,1724822718622851995,-1.840861439704895,0.3092416226863861,0.15700121223926544,-0.005693699233233929,0.051379088312387466,-0.44365230202674866,0.8947069048881531,0.0,0.0,0.0,0.0,0.0,0.0
4396,1724822718633328438,-1.840620994567871,0.3093462586402893,0.1572590321302414,-0.00606690114364028,0.052032701671123505,-0.4427522122859955,0.8951124548912048,0.0,0.0,0.0,0.0,0.0,0.0
4398,1724822718642574302,-1.8403685092926025,0.30943629145622253,0.1574852168560028,-0.006525539327412844,0.05255025625228882,-0.4416324198246002,0.8956320285797119,0.0,0.0,0.0,0.0,0.0,0.0
4400,1724822718652750744,-1.840098261833191,0.3094971179962158,0.15768934786319733,-0.006977725308388472,0.05244993045926094,-0.4404015839099884,0.8962404131889343,0.0,0.0,0.0,0.0,0.0,0.0
4402,1724822718663350946,-1.8398737907409668,0.30957427620887756,0.15777292847633362,-0.00821235403418541,0.05244634672999382,-0.43890300393104553,0.8969650268554688,0.0,0.0,0.0,0.0,0.0,0.0
4404,1724822718672871051,-1.8395795822143555,0.30970636010169983,0.15793749690055847,-0.00927567109465599,0.05255892500281334,-0.4375653862953186,0.897601306438446,0.0,0.0,0.0,0.0,0.0,0.0
4406,1724822718683098817,-1.8393126726150513,0.3098840117454529,0.15809988975524902,-0.010991157032549381,0.05289667099714279,-0.43657082319259644,0.8980462551116943,0.0,0.0,0.0,0.0,0.0,0.0
4408,1724822718693169034,-1.839023470878601,0.3100545406341553,0.15817110240459442,-0.011318550445139408,0.052852269262075424,-0.43555697798728943,0.8985369801521301,0.0,0.0,0.0,0.0,0.0,0.0
4410,1724822718702918677,-1.8387383222579956,0.31024566292762756,0.15827326476573944,-0.011825027875602245,0.052937500178813934,-0.43467509746551514,0.8989523649215698,0.0,0.0,0.0,0.0,0.0,0.0
4412,1724822718712753239,-1.838417887687683,0.3104339838027954,0.1584724336862564,-0.011999213136732578,0.05289594829082489,-0.4340798258781433,0.8992400765419006,0.0,0.0,0.0,0.0,0.0,0.0
4414,1724822718723039607,-1.837913155555725,0.3108401894569397,0.15932191908359528,-0.011588498018682003,0.05444099381566048,-0.434802383184433,0.8988040685653687,0.0,0.0,0.0,0.0,0.0,0.0
4416,1724822718732777282,-1.837547779083252,0.311100572347641,0.1597086489200592,-0.011712062172591686,0.05467322841286659,-0.4344766438007355,0.8989458680152893,0.0,0.0,0.0,0.0,0.0,0.0
4418,1724822718744223856,-1.837229609489441,0.3113217353820801,0.15974587202072144,-0.013933123089373112,0.05457008630037308,-0.43317511677742004,0.8995484113693237,0.0,0.0,0.0,0.0,0.0,0.0
4420,1724822718752729512,-1.8369519710540771,0.3114919662475586,0.1598595678806305,-0.01432512141764164,0.054307714104652405,-0.43170827627182007,0.9002629518508911,0.0,0.0,0.0,0.0,0.0,0.0
4422,1724822718762977324,-1.8365689516067505,0.3116939961910248,0.16037625074386597,-0.01192015316337347,0.0540587417781353,-0.4316129684448242,0.9003587365150452,0.0,0.0,0.0,0.0,0.0,0.0
4424,1724822718775769122,-1.8363362550735474,0.31192153692245483,0.16057784855365753,-0.01213506143540144,0.05378323793411255,-0.43067213892936707,0.9008226990699768,0.0,0.0,0.0,0.0,0.0,0.0
4426,1724822718783173483,-1.8361504077911377,0.31194552779197693,0.16074234247207642,-0.011152165941894054,0.054911717772483826,-0.42861083149909973,0.9017501473426819,0.0,0.0,0.0,0.0,0.0,0.0
4428,1724822718793677072,-1.8357471227645874,0.3123920261859894,0.16133438050746918,-0.009622003883123398,0.05703882500529289,-0.4288623034954071,0.9015159606933594,0.0,0.0,0.0,0.0,0.0,0.0
4430,1724822718803189961,-1.8355064392089844,0.3126620352268219,0.16168802976608276,-0.008883324451744556,0.05730760470032692,-0.4282798171043396,0.9017834663391113,0.0,0.0,0.0,0.0,0.0,0.0
4432,1724822718813331506,-1.8353179693222046,0.3128199279308319,0.16189707815647125,-0.00852295197546482,0.05727515369653702,-0.42766788601875305,0.9020793437957764,0.0,0.0,0.0,0.0,0.0,0.0
4434,1724822718823195002,-1.8351267576217651,0.3129572868347168,0.16204184293746948,-0.008454199880361557,0.05687499791383743,-0.4266688823699951,0.9025782346725464,0.0,0.0,0.0,0.0,0.0,0.0
4436,1724822718832680798,-1.834920048713684,0.31303316354751587,0.16210921108722687,-0.008707728236913681,0.0561119019985199,-0.4253901541233063,0.9032269716262817,0.0,0.0,0.0,0.0,0.0,0.0
4438,1724822718846003560,-1.8349149227142334,0.3125368654727936,0.16167131066322327,-0.00966616254299879,0.054370369762182236,-0.4232528805732727,0.9043270945549011,0.0,0.0,0.0,0.0,0.0,0.0
4440,1724822718853955071,-1.834497332572937,0.31302061676979065,0.1620391458272934,-0.009225749410688877,0.05477292835712433,-0.4217488169670105,0.9050098061561584,0.0,0.0,0.0,0.0,0.0,0.0
4442,1724822718862976486,-1.8342347145080566,0.3131815791130066,0.16203387081623077,-0.009851680137217045,0.054509665817022324,-0.4202667772769928,0.9057083129882812,0.0,0.0,0.0,0.0,0.0,0.0
4444,1724822718873263787,-1.834021806716919,0.31316107511520386,0.16201436519622803,-0.011594587936997414,0.05399011820554733,-0.4188758432865143,0.9063629508018494,0.0,0.0,0.0,0.0,0.0,0.0
4446,1724822718882867178,-1.8337424993515015,0.31318235397338867,0.16194592416286469,-0.012556931003928185,0.05294717475771904,-0.4167034327983856,0.9074124693870544,0.0,0.0,0.0,0.0,0.0,0.0
4448,1724822718893792377,-1.833315372467041,0.31356143951416016,0.16227410733699799,-0.013344589620828629,0.05267372354865074,-0.4153526723384857,0.9080361723899841,0.0,0.0,0.0,0.0,0.0,0.0
4450,1724822718902596001,-1.8330174684524536,0.31368085741996765,0.1622675061225891,-0.013490892015397549,0.0523969940841198,-0.4137885272502899,0.9087638258934021,0.0,0.0,0.0,0.0,0.0,0.0
4452,1724822718913483153,-1.8326812982559204,0.31399837136268616,0.16274100542068481,-0.01346655748784542,0.052997756749391556,-0.41371142864227295,0.9087644219398499,0.0,0.0,0.0,0.0,0.0,0.0
4454,1724822718925621888,-1.8323767185211182,0.31425467133522034,0.16301625967025757,-0.013863958418369293,0.052741870284080505,-0.4128621816635132,0.9091594815254211,0.0,0.0,0.0,0.0,0.0,0.0
4456,1724822718932753928,-1.8321239948272705,0.3144747316837311,0.16308340430259705,-0.014012276194989681,0.053437940776348114,-0.4123183786869049,0.9093632698059082,0.0,0.0,0.0,0.0,0.0,0.0
4458,1724822718944257323,-1.8318159580230713,0.31478792428970337,0.1633090227842331,-0.013775867410004139,0.05467915162444115,-0.4122111201286316,0.9093418121337891,0.0,0.0,0.0,0.0,0.0,0.0
4460,1724822718952805633,-1.8314563035964966,0.3150559961795807,0.16331297159194946,-0.014221706427633762,0.05535993352532387,-0.4114122688770294,0.9096553921699524,0.0,0.0,0.0,0.0,0.0,0.0
4462,1724822718962845448,-1.8310270309448242,0.3154965341091156,0.1637987345457077,-0.01328692864626646,0.056725021451711655,-0.41103440523147583,0.9097563028335571,0.0,0.0,0.0,0.0,0.0,0.0
4464,1724822718972575460,-1.8305894136428833,0.31597256660461426,0.16426514089107513,-0.01346250157803297,0.056821588426828384,-0.41004303097724915,0.9101948738098145,0.0,0.0,0.0,0.0,0.0,0.0
4466,1724822718982604130,-1.830346941947937,0.31602564454078674,0.16384638845920563,-0.01463659480214119,0.05557413026690483,-0.4082937240600586,0.9110398888587952,0.0,0.0,0.0,0.0,0.0,0.0
4468,1724822718995146379,-1.8300772905349731,0.3163611590862274,0.16376562416553497,-0.015477609820663929,0.0552404448390007,-0.4068286716938019,0.9117013216018677,0.0,0.0,0.0,0.0,0.0,0.0
4470,1724822719002687537,-1.8297120332717896,0.31668198108673096,0.16377657651901245,-0.0156417079269886,0.054816097021102905,-0.40552616119384766,0.9123042821884155,0.0,0.0,0.0,0.0,0.0,0.0
4472,1724822719013230714,-1.8293615579605103,0.3171013593673706,0.1640046089887619,-0.018646785989403725,0.056396275758743286,-0.40540164709091187,0.912206768989563,0.0,0.0,0.0,0.0,0.0,0.0
4474,1724822719028717953,-1.828952670097351,0.31736767292022705,0.16399523615837097,-0.017759155482053757,0.05502645671367645,-0.40319618582725525,0.9132850766181946,0.0,0.0,0.0,0.0,0.0,0.0
4476,1724822719051980315,-1.8285555839538574,0.3177350163459778,0.16398636996746063,-0.01758575439453125,0.05412474647164345,-0.4014268219470978,0.9141213893890381,0.0,0.0,0.0,0.0,0.0,0.0
4478,1724822719052330898,-1.8279118537902832,0.3186825215816498,0.1653294414281845,-0.014489749446511269,0.05541839450597763,-0.40115195512771606,0.9142187833786011,0.0,0.0,0.0,0.0,0.0,0.0
4480,1724822719054283763,-1.8277286291122437,0.3187533915042877,0.16441793739795685,-0.015492490492761135,0.05571389198303223,-0.3999456465244293,0.9147127866744995,0.0,0.0,0.0,0.0,0.0,0.0
4482,1724822719062783927,-1.8273255825042725,0.3194197118282318,0.16455253958702087,-0.018235471099615097,0.05059809610247612,-0.3973194658756256,0.916102945804596,0.0,0.0,0.0,0.0,0.0,0.0
4484,1724822719077239729,-1.8265982866287231,0.32035449147224426,0.16612830758094788,-0.013627489097416401,0.05628056451678276,-0.3997485935688019,0.9147939682006836,0.0,0.0,0.0,0.0,0.0,0.0
4486,1724822719083367679,-1.8262990713119507,0.32056358456611633,0.16552793979644775,-0.017176149412989616,0.05254105478525162,-0.39625275135040283,0.9164760112762451,0.0,0.0,0.0,0.0,0.0,0.0
4488,1724822719093087980,-1.8257418870925903,0.32118913531303406,0.1661955863237381,-0.014398893341422081,0.05693366006016731,-0.3967430293560028,0.9160492420196533,0.0,0.0,0.0,0.0,0.0,0.0
4490,1724822719102977668,-1.8252909183502197,0.32172492146492004,0.16623209416866302,-0.015657460317015648,0.055884949862957,-0.3951673209667206,0.9167740345001221,0.0,0.0,0.0,0.0,0.0,0.0
4492,1724822719113059669,-1.8248944282531738,0.32211723923683167,0.1661452203989029,-0.01729966327548027,0.05405673012137413,-0.39353910088539124,0.9175540804862976,0.0,0.0,0.0,0.0,0.0,0.0
4494,1724822719122942230,-1.8244870901107788,0.32241979241371155,0.1652478128671646,-0.018700703978538513,0.05228249728679657,-0.39103689789772034,0.9186986088752747,0.0,0.0,0.0,0.0,0.0,0.0
4496,1724822719133125045,-1.8240890502929688,0.3225944936275482,0.16430151462554932,-0.019967079162597656,0.05093313381075859,-0.38831666111946106,0.9199007749557495,0.0,0.0,0.0,0.0,0.0,0.0
4498,1724822719143282917,-1.8234341144561768,0.32316577434539795,0.16426321864128113,-0.019564639776945114,0.051429033279418945,-0.3882688283920288,0.919901967048645,0.0,0.0,0.0,0.0,0.0,0.0
4500,1724822719153061989,-1.8226062059402466,0.3239154517650604,0.16437767446041107,-0.01922505348920822,0.05240343138575554,-0.38789013028144836,0.920013964176178,0.0,0.0,0.0,0.0,0.0,0.0
4502,1724822719164078809,-1.821678638458252,0.3245476484298706,0.16462960839271545,-0.016275867819786072,0.056257009506225586,-0.388104110956192,0.9197530150413513,0.0,0.0,0.0,0.0,0.0,0.0
4504,1724822719172592985,-1.8208889961242676,0.3249910771846771,0.1640438437461853,-0.018031571060419083,0.05631213262677193,-0.3874112069606781,0.9200090169906616,0.0,0.0,0.0,0.0,0.0,0.0
4506,1724822719183009057,-1.819921851158142,0.32540518045425415,0.1638185828924179,-0.01835910603404045,0.055418290197849274,-0.3859032988548279,0.9206902384757996,0.0,0.0,0.0,0.0,0.0,0.0
4508,1724822719194006876,-1.8191245794296265,0.3262358009815216,0.16300776600837708,-0.022674694657325745,0.0491335391998291,-0.3833983242511749,0.921996533870697,0.0,0.0,0.0,0.0,0.0,0.0
4510,1724822719215794514,-1.817868709564209,0.32745638489723206,0.1642637550830841,-0.017466887831687927,0.05566343665122986,-0.3861085772514343,0.9206067323684692,0.0,0.0,0.0,0.0,0.0,0.0
4512,1724822719216128834,-1.8171967267990112,0.32765716314315796,0.1628669798374176,-0.02146609127521515,0.050967875868082047,-0.382111519575119,0.9224599599838257,0.0,0.0,0.0,0.0,0.0,0.0
4514,1724822719222554569,-1.8160340785980225,0.32826852798461914,0.16208255290985107,-0.02411326952278614,0.05269362032413483,-0.3812711536884308,0.9226452112197876,0.0,0.0,0.0,0.0,0.0,0.0
4516,1724822719252957716,-1.8146950006484985,0.32953593134880066,0.1633661389350891,-0.019490757957100868,0.05706394091248512,-0.3831871747970581,0.9217003583908081,0.0,0.0,0.0,0.0,0.0,0.0
4518,1724822719253204743,-1.8135263919830322,0.3304011821746826,0.1630926877260208,-0.01989506185054779,0.055067338049411774,-0.38195180892944336,0.9223256707191467,0.0,0.0,0.0,0.0,0.0,0.0
4520,1724822719253489935,-1.8122775554656982,0.33118951320648193,0.1633249968290329,-0.019412869587540627,0.05721132457256317,-0.3818916082382202,0.9222303628921509,0.0,0.0,0.0,0.0,0.0,0.0
4522,1724822719262970619,-1.811316967010498,0.331514447927475,0.16178615391254425,-0.02947244420647621,0.05373455584049225,-0.37874093651771545,0.9234713912010193,0.0,0.0,0.0,0.0,0.0,0.0
4524,1724822719275789960,-1.8099204301834106,0.3323492705821991,0.16264985501766205,-0.02268180064857006,0.05435067415237427,-0.37796610593795776,0.9239444136619568,0.0,0.0,0.0,0.0,0.0,0.0
4526,1724822719282620993,-1.8085834980010986,0.33378446102142334,0.16373220086097717,-0.021530305966734886,0.05965259298682213,-0.3792044520378113,0.9231370687484741,0.0,0.0,0.0,0.0,0.0,0.0
4528,1724822719293449947,-1.8076595067977905,0.33435752987861633,0.1635761559009552,-0.02279033325612545,0.05942787975072861,-0.37762224674224854,0.9237697124481201,0.0,0.0,0.0,0.0,0.0,0.0
4530,1724822719303488962,-1.8066800832748413,0.3347533941268921,0.1626187264919281,-0.025919301435351372,0.056364141404628754,-0.3745381534099579,0.9251337647438049,0.0,0.0,0.0,0.0,0.0,0.0
4532,1724822719312582940,-1.8054882287979126,0.3358675241470337,0.1628166139125824,-0.027887452393770218,0.05617407336831093,-0.3740265965461731,0.9252949953079224,0.0,0.0,0.0,0.0,0.0,0.0
4534,1724822719324229533,-1.8041539192199707,0.336854487657547,0.16290810704231262,-0.02800501137971878,0.05785129591822624,-0.3735770285129547,0.9253697991371155,0.0,0.0,0.0,0.0,0.0,0.0
4536,1724822719332846141,-1.8029824495315552,0.3376188576221466,0.16273947060108185,-0.027389293536543846,0.05820939689874649,-0.3729120194911957,0.9256339073181152,0.0,0.0,0.0,0.0,0.0,0.0
4538,1724822719343806570,-1.801800012588501,0.3382120430469513,0.1630617082118988,-0.02765463851392269,0.060957688838243484,-0.3718278706073761,0.9258852005004883,0.0,0.0,0.0,0.0,0.0,0.0
4540,1724822719353779698,-1.8007992506027222,0.33903369307518005,0.16155759990215302,-0.033774469047784805,0.05518979951739311,-0.3687545955181122,0.9272720813751221,0.0,0.0,0.0,0.0,0.0,0.0
4542,1724822719363104486,-1.799581527709961,0.3398127257823944,0.16150322556495667,-0.03244958072900772,0.057092487812042236,-0.3684062957763672,0.9273425936698914,0.0,0.0,0.0,0.0,0.0,0.0
4544,1724822719372728795,-1.798509120941162,0.340451717376709,0.1608826071023941,-0.03520124405622482,0.05744615197181702,-0.36743035912513733,0.927607536315918,0.0,0.0,0.0,0.0,0.0,0.0
4546,1724822719383602432,-1.797399878501892,0.34146246314048767,0.16128429770469666,-0.034712761640548706,0.056458450853824615,-0.3666437566280365,0.9279977679252625,0.0,0.0,0.0,0.0,0.0,0.0
4548,1724822719393337901,-1.7961363792419434,0.34256017208099365,0.16181863844394684,-0.03357836231589317,0.059576474130153656,-0.36686161160469055,0.927758514881134,0.0,0.0,0.0,0.0,0.0,0.0
4550,1724822719402967855,-1.7950599193572998,0.34323474764823914,0.1616949588060379,-0.03280032426118851,0.0618949756026268,-0.36587411165237427,0.9280244708061218,0.0,0.0,0.0,0.0,0.0,0.0
4552,1724822719412734921,-1.7940393686294556,0.34375524520874023,0.16070261597633362,-0.03695455938577652,0.05957183241844177,-0.36412203311920166,0.9287092089653015,0.0,0.0,0.0,0.0,0.0,0.0
4554,1724822719422668609,-1.7931326627731323,0.34420013427734375,0.1596159189939499,-0.03913676738739014,0.05691538751125336,-0.36222541332244873,0.929527759552002,0.0,0.0,0.0,0.0,0.0,0.0
4556,1724822719433063024,-1.7918956279754639,0.3451642394065857,0.1597537100315094,-0.03900236263871193,0.058093395084142685,-0.3616344928741455,0.9296905398368835,0.0,0.0,0.0,0.0,0.0,0.0
4558,1724822719443336920,-1.7906837463378906,0.3462071120738983,0.15976902842521667,-0.03828918933868408,0.059630390256643295,-0.36216193437576294,0.9294175505638123,0.0,0.0,0.0,0.0,0.0,0.0
4560,1724822719453111882,-1.7893842458724976,0.3468610346317291,0.15958794951438904,-0.036999236792325974,0.05977099761366844,-0.3608875572681427,0.929956316947937,0.0,0.0,0.0,0.0,0.0,0.0
4562,1724822719463788904,-1.7884441614151,0.3474717140197754,0.15885058045387268,-0.038998737931251526,0.055712878704071045,-0.3578023314476013,0.9313177466392517,0.0,0.0,0.0,0.0,0.0,0.0
4564,1724822719473038685,-1.787150263786316,0.3488275110721588,0.15902486443519592,-0.04008883982896805,0.05810436233878136,-0.36015963554382324,0.9302159547805786,0.0,0.0,0.0,0.0,0.0,0.0
4566,1724822719483068658,-1.7857037782669067,0.34984976053237915,0.15909670293331146,-0.039401162415742874,0.061539698392152786,-0.36050277948379517,0.9298914670944214,0.0,0.0,0.0,0.0,0.0,0.0
4568,1724822719493974328,-1.7847810983657837,0.3503502607345581,0.15774452686309814,-0.04343879967927933,0.056211456656455994,-0.3575454354286194,0.9311898946762085,0.0,0.0,0.0,0.0,0.0,0.0
4570,1724822719502762566,-1.7834573984146118,0.3513130247592926,0.15782317519187927,-0.040621642023324966,0.059262216091156006,-0.3565320074558258,0.9315164089202881,0.0,0.0,0.0,0.0,0.0,0.0
4572,1724822719513260148,-1.7824956178665161,0.35212814807891846,0.15721148252487183,-0.04356924816966057,0.05650421977043152,-0.35512956976890564,0.932090163230896,0.0,0.0,0.0,0.0,0.0,0.0
4574,1724822719532796418,-1.7811692953109741,0.353089839220047,0.15758861601352692,-0.04306609928607941,0.06137271597981453,-0.35601091384887695,0.9314692616462708,0.0,0.0,0.0,0.0,0.0,0.0
4576,1724822719533102717,-1.780264973640442,0.35380426049232483,0.15674126148223877,-0.04593035578727722,0.05934206023812294,-0.35345789790153503,0.9324357509613037,0.0,0.0,0.0,0.0,0.0,0.0
4578,1724822719543609507,-1.7791208028793335,0.3545418381690979,0.15691673755645752,-0.04525696486234665,0.061230774968862534,-0.3522796332836151,0.9327924251556396,0.0,0.0,0.0,0.0,0.0,0.0
4580,1724822719552942929,-1.7781797647476196,0.3554072678089142,0.15657353401184082,-0.047533147037029266,0.05852019041776657,-0.35091716051101685,0.933366596698761,0.0,0.0,0.0,0.0,0.0,0.0
4582,1724822719600075778,-1.7771790027618408,0.3561268746852875,0.15614323318004608,-0.04703010246157646,0.06091439351439476,-0.3501812815666199,0.933515191078186,0.0,0.0,0.0,0.0,0.0,0.0
4584,1724822719600623383,-1.7761372327804565,0.35701775550842285,0.15651768445968628,-0.04492120072245598,0.06433242559432983,-0.35045236349105835,0.933288037776947,0.0,0.0,0.0,0.0,0.0,0.0
4586,1724822719601358345,-1.775347352027893,0.3575242757797241,0.15588535368442535,-0.04801680147647858,0.06153041124343872,-0.3484019637107849,0.9340901374816895,0.0,0.0,0.0,0.0,0.0,0.0
4588,1724822719601697479,-1.7745335102081299,0.3579816222190857,0.15529479086399078,-0.049844708293676376,0.060407064855098724,-0.34710198640823364,0.9345515966415405,0.0,0.0,0.0,0.0,0.0,0.0
4590,1724822719603644571,-1.7734510898590088,0.3589814305305481,0.15597090125083923,-0.04663170874118805,0.06575232744216919,-0.34871187806129456,0.9337570667266846,0.0,0.0,0.0,0.0,0.0,0.0
4592,1724822719613237794,-1.77281653881073,0.35923469066619873,0.1554943025112152,-0.04838036000728607,0.06519630551338196,-0.34719306230545044,0.934272825717926,0.0,0.0,0.0,0.0,0.0,0.0
4594,1724822719623518744,-1.7721927165985107,0.35940706729888916,0.1546090990304947,-0.04991311952471733,0.06356160342693329,-0.34430092573165894,0.9353745579719543,0.0,0.0,0.0,0.0,0.0,0.0
4596,1724822719633648435,-1.7714166641235352,0.36004871129989624,0.154405415058136,-0.050138406455516815,0.06415735185146332,-0.3437522351741791,0.9355235695838928,0.0,0.0,0.0,0.0,0.0,0.0
4598,1724822719643087889,-1.770781397819519,0.36071720719337463,0.15429195761680603,-0.05159592628479004,0.06239715591073036,-0.3433201313018799,0.9357219934463501,0.0,0.0,0.0,0.0,0.0,0.0
4600,1724822719653749087,-1.7699466943740845,0.36139288544654846,0.15508116781711578,-0.04842736944556236,0.06801401078701019,-0.3448198139667511,0.9349482655525208,0.0,0.0,0.0,0.0,0.0,0.0
4602,1724822719664002853,-1.7695447206497192,0.36141422390937805,0.1540144383907318,-0.05167083069682121,0.06444879621267319,-0.3426515758037567,0.935823917388916,0.0,0.0,0.0,0.0,0.0,0.0
4604,1724822719673072760,-1.7690683603286743,0.36172839999198914,0.1536572277545929,-0.05288819596171379,0.06347882002592087,-0.3419899642467499,0.9360642433166504,0.0,0.0,0.0,0.0,0.0,0.0
4606,1724822719682792866,-1.7686409950256348,0.36200612783432007,0.15330754220485687,-0.05471595749258995,0.06258636713027954,-0.34168559312820435,0.9361303448677063,0.0,0.0,0.0,0.0,0.0,0.0
4608,1724822719693059344,-1.7680774927139282,0.36253243684768677,0.15395425260066986,-0.053099047392606735,0.06582307070493698,-0.3425889313220978,0.9356712698936462,0.0,0.0,0.0,0.0,0.0,0.0
4610,1724822719702968141,-1.7676582336425781,0.3627418279647827,0.153680682182312,-0.05428767576813698,0.0657370537519455,-0.3418940007686615,0.935863196849823,0.0,0.0,0.0,0.0,0.0,0.0
4612,1724822719713946795,-1.7671923637390137,0.3629949986934662,0.1535482406616211,-0.05520946905016899,0.06611345708370209,-0.34164881706237793,0.9358723759651184,0.0,0.0,0.0,0.0,0.0,0.0
4614,1724822719723012334,-1.766887903213501,0.3628447353839874,0.1525014191865921,-0.05802344158291817,0.0653345137834549,-0.3402860462665558,0.9362532496452332,0.0,0.0,0.0,0.0,0.0,0.0
4616,1724822719732537664,-1.7665075063705444,0.3629204034805298,0.15213808417320251,-0.05837780237197876,0.06263606250286102,-0.33711591362953186,0.937561571598053,0.0,0.0,0.0,0.0,0.0,0.0
4618,1724822719743995913,-1.7659317255020142,0.3633022606372833,0.15197540819644928,-0.05815195292234421,0.06580778956413269,-0.33941349387168884,0.9365288019180298,0.0,0.0,0.0,0.0,0.0,0.0
4620,1724822719752652144,-1.7654669284820557,0.36357536911964417,0.15131744742393494,-0.06010276824235916,0.06248818710446358,-0.33790603280067444,0.9371778964996338,0.0,0.0,0.0,0.0,0.0,0.0
4622,1724822719762578994,-1.7648518085479736,0.36411112546920776,0.1516612023115158,-0.05848332867026329,0.06702812761068344,-0.33938154578208923,0.9364332556724548,0.0,0.0,0.0,0.0,0.0,0.0
4624,1724822719773308550,-1.7644498348236084,0.3640427589416504,0.15069469809532166,-0.061148956418037415,0.06543321162462234,-0.3380616307258606,0.9368530511856079,0.0,0.0,0.0,0.0,0.0,0.0
4626,1724822719782530062,-1.7639310359954834,0.364149272441864,0.15003761649131775,-0.0629662349820137,0.06506842374801636,-0.33728060126304626,0.9370396137237549,0.0,0.0,0.0,0.0,0.0,0.0
4628,1724822719793670067,-1.763327956199646,0.3643318712711334,0.1496327519416809,-0.0639309510588646,0.065210722386837,-0.3370581567287445,0.9370443820953369,0.0,0.0,0.0,0.0,0.0,0.0
4630,1724822719804314504,-1.7627378702163696,0.3646591007709503,0.14915704727172852,-0.06512264907360077,0.061940353363752365,-0.3354313373565674,0.9377676844596863,0.0,0.0,0.0,0.0,0.0,0.0
4632,1724822719813270564,-1.7621606588363647,0.3646318018436432,0.14864225685596466,-0.06580939143896103,0.0643867701292038,-0.3358607590198517,0.9374012351036072,0.0,0.0,0.0,0.0,0.0,0.0
4634,1724822719824569777,-1.7616500854492188,0.3646770119667053,0.1483152061700821,-0.06628024578094482,0.06396230310201645,-0.3354458212852478,0.937545657157898,0.0,0.0,0.0,0.0,0.0,0.0
4636,1724822719832621445,-1.7611380815505981,0.36474499106407166,0.14826737344264984,-0.06533302366733551,0.06336702406406403,-0.33515727519989014,0.9377557635307312,0.0,0.0,0.0,0.0,0.0,0.0
4638,1724822719843453939,-1.7605363130569458,0.3649889826774597,0.14841251075267792,-0.0644722655415535,0.0635528638958931,-0.33547621965408325,0.9376887083053589,0.0,0.0,0.0,0.0,0.0,0.0
4640,1724822719854239393,-1.7599177360534668,0.36530494689941406,0.1489058881998062,-0.06274216622114182,0.06468962132930756,-0.3356367349624634,0.9376709461212158,0.0,0.0,0.0,0.0,0.0,0.0
4642,1724822719863642011,-1.7595818042755127,0.36501216888427734,0.1482190638780594,-0.06432503461837769,0.0625491589307785,-0.33410778641700745,0.9382547736167908,0.0,0.0,0.0,0.0,0.0,0.0
4644,1724822719873234053,-1.7591054439544678,0.36525577306747437,0.14832530915737152,-0.06337010115385056,0.06267769634723663,-0.3343062698841095,0.9382404685020447,0.0,0.0,0.0,0.0,0.0,0.0
4646,1724822719883204743,-1.7587101459503174,0.3654068410396576,0.14806152880191803,-0.06467971950769424,0.059025682508945465,-0.33278903365135193,0.9389270544052124,0.0,0.0,0.0,0.0,0.0,0.0
4648,1724822719893116463,-1.7581409215927124,0.36586588621139526,0.14851929247379303,-0.06281007081270218,0.06209525093436241,-0.3340166211128235,0.9384199380874634,0.0,0.0,0.0,0.0,0.0,0.0
4650,1724822719902748448,-1.7577478885650635,0.36582621932029724,0.148127019405365,-0.06372889876365662,0.06035726144909859,-0.3328409790992737,0.9388890862464905,0.0,0.0,0.0,0.0,0.0,0.0
4652,1724822719934428041,-1.757360577583313,0.3659385144710541,0.14783412218093872,-0.06755458563566208,0.06036124378442764,-0.3321893513202667,0.938852071762085,0.0,0.0,0.0,0.0,0.0,0.0
4654,1724822719934729987,-1.7570862770080566,0.36533451080322266,0.14703764021396637,-0.06648456305265427,0.05794655159115791,-0.3292430341243744,0.9401175379753113,0.0,0.0,0.0,0.0,0.0,0.0
4656,1724822719935077355,-1.7564929723739624,0.3658325970172882,0.14788909256458282,-0.06347427517175674,0.05905495584011078,-0.3298572301864624,0.9400414228439331,0.0,0.0,0.0,0.0,0.0,0.0
4658,1724822719943212626,-1.7561564445495605,0.3657824993133545,0.14765451848506927,-0.0635061264038086,0.05824578180909157,-0.32924243807792664,0.9403051733970642,0.0,0.0,0.0,0.0,0.0,0.0
4660,1724822719952700306,-1.7557106018066406,0.36586612462997437,0.1476106494665146,-0.06291206926107407,0.0579754076898098,-0.3290451169013977,0.9404309391975403,0.0,0.0,0.0,0.0,0.0,0.0
4662,1724822719963186913,-1.7553753852844238,0.3657594919204712,0.1471995860338211,-0.06338914483785629,0.05650380998849869,-0.32841506600379944,0.9407086372375488,0.0,0.0,0.0,0.0,0.0,0.0
4664,1724822719973273003,-1.755139946937561,0.36557355523109436,0.1460055559873581,-0.06685829907655716,0.05011604353785515,-0.325491726398468,0.9418457746505737,0.0,0.0,0.0,0.0,0.0,0.0
4666,1724822719982460345,-1.7546594142913818,0.3657394349575043,0.14599817991256714,-0.06653879582881927,0.04981469735503197,-0.32561954855918884,0.9418402910232544,0.0,0.0,0.0,0.0,0.0,0.0
4668,1724822719993542012,-1.7541290521621704,0.36592531204223633,0.14619635045528412,-0.064673513174057,0.05260784924030304,-0.3271906077861786,0.9412736892700195,0.0,0.0,0.0,0.0,0.0,0.0
4670,1724822720003030708,-1.7536766529083252,0.3659692704677582,0.14606226980686188,-0.06429532915353775,0.05201542004942894,-0.32690075039863586,0.9414332509040833,0.0,0.0,0.0,0.0,0.0,0.0
4672,1724822720014234681,-1.753319263458252,0.3659261465072632,0.14575742185115814,-0.06496173143386841,0.05041459947824478,-0.3262777030467987,0.9416906833648682,0.0,0.0,0.0,0.0,0.0,0.0
4674,1724822720026142488,-1.7529151439666748,0.3658919930458069,0.14542816579341888,-0.06564195454120636,0.048913609236478806,-0.32585203647613525,0.9418700337409973,0.0,0.0,0.0,0.0,0.0,0.0
4676,1724822720032971755,-1.752355933189392,0.36619725823402405,0.14607512950897217,-0.06351938843727112,0.04947492480278015,-0.3264079988002777,0.94179368019104,0.0,0.0,0.0,0.0,0.0,0.0
4678,1724822720048269473,-1.7518572807312012,0.3664872348308563,0.14599120616912842,-0.06467843800783157,0.04548243433237076,-0.3253156542778015,0.9422939419746399,0.0,0.0,0.0,0.0,0.0,0.0
4680,1724822720053976575,-1.7513368129730225,0.36662378907203674,0.1457187682390213,-0.06443975865840912,0.04620206356048584,-0.3254290223121643,0.942236065864563,0.0,0.0,0.0,0.0,0.0,0.0
4682,1724822720062813282,-1.7511858940124512,0.36573466658592224,0.14426849782466888,-0.0676107257604599,0.04227979853749275,-0.3225489854812622,0.943187952041626,0.0,0.0,0.0,0.0,0.0,0.0
4684,1724822720072881447,-1.7507195472717285,0.3657890856266022,0.14407537877559662,-0.0678626149892807,0.04160283878445625,-0.3221956193447113,0.9433207511901855,0.0,0.0,0.0,0.0,0.0,0.0
4686,1724822720083359462,-1.7501510381698608,0.36607518792152405,0.1443985402584076,-0.06675159931182861,0.041090670973062515,-0.32205018401145935,0.9434720277786255,0.0,0.0,0.0,0.0,0.0,0.0
4688,1724822720093417497,-1.7497193813323975,0.36594730615615845,0.1440184861421585,-0.06749685853719711,0.03984757885336876,-0.32108235359191895,0.9438021779060364,0.0,0.0,0.0,0.0,0.0,0.0
4690,1724822720115426793,-1.7492187023162842,0.3660984933376312,0.14415377378463745,-0.06702638417482376,0.04015875607728958,-0.32107266783714294,0.9438258409500122,0.0,0.0,0.0,0.0,0.0,0.0
4692,1724822720115671954,-1.7487431764602661,0.3663138747215271,0.1441834568977356,-0.06697902083396912,0.03764113038778305,-0.31997618079185486,0.9443051218986511,0.0,0.0,0.0,0.0,0.0,0.0
4694,1724822720122680006,-1.7482372522354126,0.3667094111442566,0.1447809487581253,-0.06586015224456787,0.03923667222261429,-0.3211018741130829,0.943936824798584,0.0,0.0,0.0,0.0,0.0,0.0
4696,1724822720133441473,-1.747865080833435,0.3668529987335205,0.14512240886688232,-0.06555355340242386,0.03877444192767143,-0.3209938704967499,0.9440139532089233,0.0,0.0,0.0,0.0,0.0,0.0
4698,1724822720143220458,-1.7475619316101074,0.3665418326854706,0.14477069675922394,-0.06519536674022675,0.03975963965058327,-0.31984108686447144,0.9443889260292053,0.0,0.0,0.0,0.0,0.0,0.0
4700,1724822720153236792,-1.7471967935562134,0.36648452281951904,0.1445857733488083,-0.06573258340358734,0.03872278332710266,-0.3187997341156006,0.9447468519210815,0.0,0.0,0.0,0.0,0.0,0.0
4702,1724822720165393665,-1.7468860149383545,0.3663114905357361,0.14422978460788727,-0.06634581834077835,0.037072278559207916,-0.3176214098930359,0.9451670050621033,0.0,0.0,0.0,0.0,0.0,0.0
4704,1724822720172574145,-1.7465312480926514,0.36633241176605225,0.1441665142774582,-0.06606967747211456,0.03629114851355553,-0.3165431618690491,0.9455782771110535,0.0,0.0,0.0,0.0,0.0,0.0
4706,1724822720184808081,-1.7463070154190063,0.3659825921058655,0.14319691061973572,-0.06829767674207687,0.033303309231996536,-0.31474724411964417,0.9461292028427124,0.0,0.0,0.0,0.0,0.0,0.0
4708,1724822720193062469,-1.7459721565246582,0.3659431040287018,0.14288847148418427,-0.06902377307415009,0.03198748454451561,-0.3139595091342926,0.9463836550712585,0.0,0.0,0.0,0.0,0.0,0.0
4710,1724822720218975018,-1.7457350492477417,0.36579665541648865,0.14246922731399536,-0.06960412859916687,0.030057795345783234,-0.3128330409526825,0.94677734375,0.0,0.0,0.0,0.0,0.0,0.0
4712,1724822720219321125,-1.7454369068145752,0.3657603859901428,0.14227572083473206,-0.06983642280101776,0.02849581278860569,-0.3120681643486023,0.9470608830451965,0.0,0.0,0.0,0.0,0.0,0.0
4714,1724822720222604747,-1.7451170682907104,0.36581337451934814,0.14218878746032715,-0.07008393853902817,0.027173200622200966,-0.3115181624889374,0.9472626447677612,0.0,0.0,0.0,0.0,0.0,0.0
4716,1724822720255174791,-1.7447656393051147,0.36594709753990173,0.14220097661018372,-0.07076412439346313,0.025567572563886642,-0.311043918132782,0.9474126100540161,0.0,0.0,0.0,0.0,0.0,0.0
4718,1724822720255454827,-1.7444252967834473,0.36590278148651123,0.1420823484659195,-0.07196012884378433,0.02294960245490074,-0.3105372190475464,0.947555661201477,0.0,0.0,0.0,0.0,0.0,0.0
4720,1724822720255719795,-1.7440788745880127,0.3660215437412262,0.14212803542613983,-0.07292739301919937,0.021245477721095085,-0.31056758761405945,0.9475115537643433,0.0,0.0,0.0,0.0,0.0,0.0
4722,1724822720263267329,-1.7437114715576172,0.36618003249168396,0.1422795057296753,-0.07328864932060242,0.01946047507226467,-0.3102754056453705,0.947617769241333,0.0,0.0,0.0,0.0,0.0,0.0
4724,1724822720273677150,-1.7432972192764282,0.36673715710639954,0.14276240766048431,-0.07392356544733047,0.016776520758867264,-0.31085196137428284,0.9474307298660278,0.0,0.0,0.0,0.0,0.0,0.0
4726,1724822720283474167,-1.7430073022842407,0.36680564284324646,0.14275655150413513,-0.07470817118883133,0.014561688527464867,-0.3105996549129486,0.94748854637146,0.0,0.0,0.0,0.0,0.0,0.0
4728,1724822720294333964,-1.7427600622177124,0.3667737543582916,0.14274755120277405,-0.07576446980237961,0.012914571911096573,-0.3106306195259094,0.9474184513092041,0.0,0.0,0.0,0.0,0.0,0.0
4730,1724822720303926488,-1.7425445318222046,0.3665836751461029,0.14264045655727386,-0.07595516741275787,0.013017061166465282,-0.3100331127643585,0.9475973844528198,0.0,0.0,0.0,0.0,0.0,0.0
4732,1724822720314962206,-1.7423994541168213,0.3664029538631439,0.14226137101650238,-0.07762718200683594,0.01045867707580328,-0.30890706181526184,0.94786137342453,0.0,0.0,0.0,0.0,0.0,0.0
4734,1724822720323933880,-1.742287516593933,0.3663633465766907,0.14207874238491058,-0.07898486405611038,0.007920564152300358,-0.3077046573162079,0.9481648206710815,0.0,0.0,0.0,0.0,0.0,0.0
4736,1724822720332828725,-1.742201805114746,0.3664200007915497,0.14198538661003113,-0.07983401417732239,0.005824771244078875,-0.3069860339164734,0.9483418464660645,0.0,0.0,0.0,0.0,0.0,0.0
4738,1724822720344083583,-1.7420954704284668,0.366505891084671,0.14193741977214813,-0.08081711083650589,0.004099628888070583,-0.3068297505378723,0.9483182430267334,0.0,0.0,0.0,0.0,0.0,0.0
4740,1724822720353443014,-1.7420099973678589,0.3666365146636963,0.14195691049098969,-0.08183493465185165,0.002519260160624981,-0.3067134618759155,0.9482740759849548,0.0,0.0,0.0,0.0,0.0,0.0
4742,1724822720362747708,-1.7419453859329224,0.36671027541160583,0.14187289774417877,-0.0827544629573822,0.0007222989806905389,-0.30644363164901733,0.9482845067977905,0.0,0.0,0.0,0.0,0.0,0.0
4744,1724822720373767643,-1.7418864965438843,0.3667823076248169,0.14171643555164337,-0.08359558880329132,-0.001247427542693913,-0.30614084005355835,0.9483079314231873,0.0,0.0,0.0,0.0,0.0,0.0
4746,1724822720382764711,-1.74183988571167,0.36692503094673157,0.14173227548599243,-0.08467766642570496,-0.002445671008899808,-0.3065578043460846,0.9480749368667603,0.0,0.0,0.0,0.0,0.0,0.0
4748,1724822720393096286,-1.741763949394226,0.3670732080936432,0.14173702895641327,-0.08564481884241104,-0.004538350272923708,-0.3063581883907318,0.9480448961257935,0.0,0.0,0.0,0.0,0.0,0.0
4750,1724822720417117425,-1.7416539192199707,0.3673087954521179,0.14189189672470093,-0.08622248470783234,-0.006363051012158394,-0.3058987557888031,0.9481304287910461,0.0,0.0,0.0,0.0,0.0,0.0
4752,1724822720417425547,-1.7416181564331055,0.3673771917819977,0.14173099398612976,-0.0878300666809082,-0.00842199381440878,-0.3057188391685486,0.9480248093605042,0.0,0.0,0.0,0.0,0.0,0.0
4754,1724822720427049908,-1.7415311336517334,0.36755192279815674,0.1417693942785263,-0.08849061280488968,-0.009975786320865154,-0.30547085404396057,0.9480282068252563,0.0,0.0,0.0,0.0,0.0,0.0
4756,1724822720432735764,-1.7414507865905762,0.36763855814933777,0.14174745976924896,-0.08917863667011261,-0.011728939600288868,-0.30514487624168396,0.9480486512184143,0.0,0.0,0.0,0.0,0.0,0.0
4758,1724822720442989641,-1.7414096593856812,0.36761415004730225,0.14159563183784485,-0.09041071683168411,-0.014192280359566212,-0.3040556311607361,0.9482482671737671,0.0,0.0,0.0,0.0,0.0,0.0
4760,1724822720453510690,-1.741375207901001,0.3677031993865967,0.1416623443365097,-0.09057717025279999,-0.01512959972023964,-0.3036867082118988,0.9483360648155212,0.0,0.0,0.0,0.0,0.0,0.0
4762,1724822720462850855,-1.7414056062698364,0.367651104927063,0.14148065447807312,-0.09175004810094833,-0.01672525703907013,-0.30320242047309875,0.9483515024185181,0.0,0.0,0.0,0.0,0.0,0.0
4764,1724822720472555588,-1.7414381504058838,0.3676769733428955,0.1414441019296646,-0.09239128232002258,-0.0183522067964077,-0.302031934261322,0.9486326575279236,0.0,0.0,0.0,0.0,0.0,0.0
4766,1724822720482655213,-1.741470217704773,0.3677619695663452,0.1414412409067154,-0.09298264235258102,-0.019727585837244987,-0.3013101816177368,0.9487767219543457,0.0,0.0,0.0,0.0,0.0,0.0
4768,1724822720493445214,-1.7415032386779785,0.36787673830986023,0.14147549867630005,-0.09340344369411469,-0.021271822974085808,-0.3003256320953369,0.9490141272544861,0.0,0.0,0.0,0.0,0.0,0.0
4770,1724822720502905148,-1.7415627241134644,0.36806848645210266,0.14159327745437622,-0.09385257959365845,-0.022128751501441002,-0.3000289499759674,0.9490440487861633,0.0,0.0,0.0,0.0,0.0,0.0
4772,1724822720512667050,-1.7416472434997559,0.3681858777999878,0.14157648384571075,-0.09444119781255722,-0.023528961464762688,-0.29920494556427,0.9492121338844299,0.0,0.0,0.0,0.0,0.0,0.0
4774,1724822720523465110,-1.7417452335357666,0.36849695444107056,0.14176341891288757,-0.09476316720247269,-0.024011891335248947,-0.2993812561035156,0.9491123557090759,0.0,0.0,0.0,0.0,0.0,0.0
4776,1724822720557127073,-1.7418737411499023,0.36870628595352173,0.14181393384933472,-0.09541996568441391,-0.024730419740080833,-0.2993954122066498,0.9490236639976501,0.0,0.0,0.0,0.0,0.0,0.0
4778,1724822720558026550,-1.742012619972229,0.3689078390598297,0.14183926582336426,-0.09598849713802338,-0.02598884515464306,-0.29903092980384827,0.9490476250648499,0.0,0.0,0.0,0.0,0.0,0.0
4780,1724822720558337443,-1.7421760559082031,0.3690582513809204,0.14190465211868286,-0.0966716855764389,-0.027405381202697754,-0.29880470037460327,0.9490095973014832,0.0,0.0,0.0,0.0,0.0,0.0
4782,1724822720563332134,-1.7423350811004639,0.3693402111530304,0.1419917494058609,-0.09750804305076599,-0.028787730261683464,-0.298703670501709,0.9489150047302246,0.0,0.0,0.0,0.0,0.0,0.0
4784,1724822720575054325,-1.7424979209899902,0.36955592036247253,0.14202265441417694,-0.0985732227563858,-0.029678072780370712,-0.2986638844013214,0.9487899541854858,0.0,0.0,0.0,0.0,0.0,0.0
4786,1724822720583316078,-1.7425944805145264,0.36979272961616516,0.14244212210178375,-0.09766531735658646,-0.02983972616493702,-0.29887378215789795,0.94881272315979,0.0,0.0,0.0,0.0,0.0,0.0
4788,1724822720592898347,-1.7427855730056763,0.3698219656944275,0.14207430183887482,-0.09943822026252747,-0.031611427664756775,-0.29830050468444824,0.9487515687942505,0.0,0.0,0.0,0.0,0.0,0.0
4790,1724822720605601687,-1.7429438829421997,0.3699626326560974,0.14203722774982452,-0.0999615341424942,-0.032558996230363846,-0.29804953932762146,0.9487434029579163,0.0,0.0,0.0,0.0,0.0,0.0
4792,1724822720612719390,-1.7430925369262695,0.37001171708106995,0.14189858734607697,-0.10045836865901947,-0.03401574119925499,-0.29736462235450745,0.9488547444343567,0.0,0.0,0.0,0.0,0.0,0.0
4794,1724822720622826002,-1.743245244026184,0.37014761567115784,0.14183877408504486,-0.10079336911439896,-0.0349741168320179,-0.29721206426620483,0.9488321542739868,0.0,0.0,0.0,0.0,0.0,0.0
4796,1724822720633508240,-1.743395209312439,0.37026315927505493,0.14178423583507538,-0.10104947537183762,-0.036061715334653854,-0.2968066930770874,0.9488911032676697,0.0,0.0,0.0,0.0,0.0,0.0
4798,1724822720643864927,-1.743539810180664,0.3704809248447418,0.14181013405323029,-0.10137729346752167,-0.03680270537734032,-0.2970520555973053,0.948750913143158,0.0,0.0,0.0,0.0,0.0,0.0
4800,1724822720653096139,-1.7436680793762207,0.3706093728542328,0.14174611866474152,-0.10205923765897751,-0.03802022710442543,-0.2967815399169922,0.9487144947052002,0.0,0.0,0.0,0.0,0.0,0.0
4802,1724822720666287376,-1.7437645196914673,0.3707495331764221,0.14179709553718567,-0.10223610699176788,-0.03847896307706833,-0.2969915568828583,0.9486112594604492,0.0,0.0,0.0,0.0,0.0,0.0
4804,1724822720672383462,-1.7437824010849,0.3708374500274658,0.14195573329925537,-0.10283476114273071,-0.03872324153780937,-0.29706165194511414,0.9485145807266235,0.0,0.0,0.0,0.0,0.0,0.0
4806,1724822720682881456,-1.7438024282455444,0.37082934379577637,0.14205880463123322,-0.10317394882440567,-0.038880497217178345,-0.29680413007736206,0.9485518932342529,0.0,0.0,0.0,0.0,0.0,0.0
4808,1724822720692688537,-1.7438026666641235,0.37078627943992615,0.1421234905719757,-0.10330823063850403,-0.03917055204510689,-0.2967059910297394,0.948556125164032,0.0,0.0,0.0,0.0,0.0,0.0
4810,1724822720795447727,-1.7438089847564697,0.3706299960613251,0.14202821254730225,-0.10370363295078278,-0.0398777611553669,-0.29596537351608276,0.9487148523330688,0.0,0.0,0.0,0.0,0.0,0.0
4812,1724822720795825848,-1.743764877319336,0.3704751431941986,0.1420348733663559,-0.10408423095941544,-0.04035878926515579,-0.2954912781715393,0.9488006234169006,0.0,0.0,0.0,0.0,0.0,0.0
