seq,stamp,px,py,pz,ox,oy,oz,ow,lx,ly,lz,ax,ay,az,timestamp,wx,wy,wz,aa_x,aa_y,aa_z,roll,pitch,yaw,vx,vy,vz,jx,jy,jz,fw
1440,1724915236958095861,-0.4634935557842254,0.0888278931379318,0.1646059453487396,0.0375746339559555,-0.0008038652595132,-0.3277321457862854,0.9440228343009948,0.0,0.0,0.0,0.1590748489021756,-0.1086761344885157,-0.3569980279613534,0.0,0.0,0.0,0.0,-15.307137473433423,23.784264207906105,-61.20997251651992,0.0715496566416471,0.0231131543608558,-0.6674675452356649,-0.0032498592479545,-0.0066078548950079,0.0006574693065948,4.742267747953655,-61.92099583354358,-97.35116721896728,0.0
1442,1724915236968430837,-0.4635271430015564,0.0887596011161804,0.164612740278244,0.0372215807437896,0.0007860043551772,-0.3307689428329468,0.9429771304130554,0.0,0.0,0.0,0.2080860722628507,-0.7486281403242886,-1.363120004741367,0.010334976,-0.158198898416635,0.2458097997663686,-0.6326035969188929,-5.638506016662314,7.689271559029111,-26.499671318338223,0.0697585460555143,0.0261088202567028,-0.6738117996185765,-0.0016058245023469,-0.0077310201367195,-0.003032096744433,5.82800856373586,-34.64471163125703,-55.00351130261865,1.2382825670863506e-05
1444,1724915236981724681,-0.4635203778743744,0.0886376202106475,0.1645093411207199,0.0369543619453907,0.0014882966643199,-0.3332023024559021,0.9421297311782836,0.0,0.0,0.0,0.304128687653754,-0.7427698263543028,-1.3701905681388102,0.02362882,-0.0678244050495584,0.0728082072784426,-0.3913459927151558,30.61925152545995,7.506334238429854,14.090920196464875,0.0687197113483931,0.0274343352906262,-0.6789367173107848,0.0019985226580914,-0.0286262336094758,-0.038357711884668,19.692624457099825,31.969264361368435,116.37633303540665,-9.464921263828268e-05
1446,1724915236989261576,-0.4634989500045776,0.0883387550711631,0.1640895754098892,0.0381650850176811,0.0019686592277139,-0.3342469930648803,0.9417104721069336,0.0,0.0,0.0,0.5058260068605382,-0.3670987385463811,0.0064760534463428,0.031165715,0.2647372827966814,0.2170648987505836,-0.3024804637515166,27.799221203275323,11.312358215298897,10.680179432641015,0.0706537980886199,0.0292251038844451,-0.6810979443956597,0.0044317166119327,-0.0306819702080325,-0.0431848947014259,6.039039408921528,36.24384369029452,143.7953526956843,-0.0003971308402021
1448,1724915237003336142,-0.463394820690155,0.0881427228450775,0.1638105660676956,0.0400674305856227,0.0026138147804886,-0.3354052007198334,0.9412178993225098,0.0,0.0,0.0,0.0461756639763937,-0.2144447366665076,1.008926417809758,0.045240281,0.2269194855038834,0.1705444616023848,-0.1813504723296848,-2.3125111902485216,-26.207134103486727,-59.023288033581025,0.073775170036252,0.0318033487038398,-0.6834715741131296,0.0163605084836291,-0.0383283394211755,-0.0260898646928282,-76.90163482155874,64.84856696576921,27.444219528370866,-0.0002652667627118
1450,1724915237007912845,-0.4633066058158874,0.0879309922456741,0.1636818349361419,0.0405439212918281,0.0025335445534437,-0.3365938663482666,0.9407732486724854,0.0,0.0,0.0,-0.3716247083505,0.1627160742871164,1.0693756503862824,0.049816984,0.2168930752109224,0.0165189409769619,-0.552131010516341,-3.968646402590867,-23.356471470443346,-55.18846838782633,0.0746874991534795,0.0320661473177722,-0.685987200282909,0.0153792216396215,-0.03882041279357,-0.0217784045735687,-61.08418814262983,63.711931891702704,-0.8310433082670396,-0.00011378040507
1452,1724915237021511371,-0.4632548689842224,0.0877037942409515,0.1636422127485275,0.0413851924240589,0.0031319982372224,-0.3382205069065094,0.9401513338088988,0.0,0.0,0.0,0.0181140561698314,0.2736628903218436,0.4908313570973083,0.06341551,0.0910901035062079,0.1149832241472505,-0.2591111583757689,-18.756527329326904,-6.305978612209477,-14.219853766909942,0.0758141742939201,0.0338902332141277,-0.689385196352866,0.0039734383535474,-0.0256890515217254,-0.0020917259364594,33.086720782979796,2.248406326484538,-89.82247006447872,-2.246821553547998e-05
1454,1724915237027988127,-0.4632286131381988,0.0875097066164016,0.1636312007904052,0.0412340946495533,0.003357752226293,-0.3396203517913818,0.9396523237228394,0.0,0.0,0.0,0.2460629667110693,0.2699932356769005,-0.2367682696531191,0.069892266,-0.0597130608939727,0.0323521827400289,-0.4615451284990179,-3.048316415152261,-8.712428587337953,-11.87959524021842,0.0753262458039776,0.0343248546605433,-0.6923517670895437,0.0067339943813493,-0.0260512144730342,-0.001864474719091,7.2014659533842975,1.9630424951358665,-70.99383965389704,3.938833220805403e-06
1456,1724915237038541448,-0.4631114602088928,0.0873021110892295,0.1636087000370025,0.0425171069800853,0.0030035011004656,-0.3408801853656769,0.9391400814056396,0.0,0.0,0.0,-0.1593056908390267,0.3342087169994168,-0.275009127341783,0.080445587,0.2560802361465573,0.0099752658748121,-0.2537321094656262,9.388806508119924,-10.115505057746413,16.67563137934831,0.0779369403902943,0.034634819223584,-0.6950152268076575,0.0062327552913252,-0.0175976171226133,-0.0090379210241922,-17.29820686348944,-4.99121124998679,33.9974033371155,-8.150474481330238e-06
1458,1724915237051351595,-0.4631073176860809,0.0871089249849319,0.1633855402469635,0.0423259288072586,0.0014353593578562,-0.3414706289768219,0.9389379024505616,0.0,0.0,0.0,-0.0525954506924019,0.0980421456677116,0.7454937375219417,0.093255734,0.0570445952582611,-0.243926993853779,-0.0870137422064277,-6.6363095664525975,6.166070488771259,-40.75669668146595,0.0786227760792842,0.0316068118947324,-0.6963715712411812,0.002453428449904,-0.0205753402281505,-0.0062675276250878,18.593987392246643,24.940664042825144,29.711775184289507,-0.0002069235207738
1460,1724915237057774985,-0.4630846977233886,0.0869590640068054,0.1633812040090561,0.0423211045563221,0.0010953230084851,-0.3430608510971069,0.938358724117279,0.0,0.0,0.0,0.0998996165785658,0.3979564365032091,0.7754551413912543,0.099679124,0.0430861445878788,-0.1206206242645834,-0.5220006202410161,-4.166404627279472,15.692920776163753,-39.75495870774121,0.078792790727117,0.0310980522860001,-0.6997767978581138,0.0028964270334466,-0.0188811008179219,0.0002256496036663,16.063176556370387,29.03125055402091,-15.908919213919406,7.084273652864316e-06
1462,1724915237069469225,-0.4630641341209411,0.0868329927325248,0.1634030193090438,0.0420312471687793,0.0012244777753949,-0.3452107608318329,0.9375827312469482,0.0,0.0,0.0,0.1242926047154924,0.3614759754969001,0.1514018929762868,0.111373364,-0.0480753655835881,-0.0116949560810744,-0.3915402437517825,-18.683866529071064,-1.2768903978422514,-1.986646675589995,0.0780877311789699,0.0313204965734281,-0.7043543400045004,0.0047232497964024,-0.0113702540455857,0.004282095103683,3.056580117987071,-92.56572186956804,-35.8790164369752,3.12315881307589e-05
1464,1724915237077970019,-0.4630056619644165,0.086732693016529,0.1634543538093567,0.0408068001270294,0.0013635784853249,-0.3471753597259521,0.9369111061096193,0.0,0.0,0.0,0.1562742069675042,-0.9781308498617864,-0.0455503954397897,0.119874158,-0.2741872379787217,-0.0879979030190331,-0.4896418160737365,-16.6193236535304,-5.48723826202183,-4.1370985552802235,0.0756260075404485,0.0308942489725513,-0.7085640240865236,0.0055825703384035,-0.0100325557870142,0.0043612198473546,2.3545723085487165,-21.411674262112182,-6.035697892826272,5.7420334786395745e-05
1466,1724915237100896433,-0.4629577994346618,0.0866118967533111,0.163450613617897,0.0404026433825492,0.0015952616231516,-0.3485346138477325,0.9364234209060668,0.0,0.0,0.0,0.1232203941411649,6.950902073828736,0.8754387824699971,0.142800572,-0.0381515658687142,0.0019149464507987,-0.1267374754409725,-810.4464639960671,16.514543956359244,-1519.8382155453576,0.0746615012859907,0.0311561604480528,-0.7114595022052486,0.0125777030934273,-0.10266727075809,-7.508287556845517e-05,-91.31760547465076,1137.8264337309763,-27.830458020671017,4.341796421893761e-06
1468,1724915237102401558,-0.4629378318786621,0.0864477455615997,0.1634505093097686,0.0394631437957286,0.0020442532841116,-0.3503396213054657,0.9357887506484984,0.0,0.0,0.0,-0.0231048173805859,8.741730027789748,0.8268310622284581,0.144305697,-1.3390738137962566,0.0280157115182529,-2.5660260896191907,-641.8757424628083,21.1109622424564,-1213.0039201123157,0.0725254359271003,0.031482184380346,-0.7153099210387527,0.0127451921063901,-0.0911192112326753,0.0013481859144945,-92.64194130250306,950.4219576664492,-53.37950440883458,1.17793478508688e-05
1470,1724915237108124794,-0.4628762304782867,0.0863167196512222,0.1634890735149383,0.039231464266777,0.0029063879046589,-0.3520171046257019,0.935166597366333,0.0,0.0,0.0,-0.4537300294039129,8.971294005791663,0.0624697507703768,0.150028933,-0.1715329188598243,0.230877229044727,-0.6367834979669429,144.84539163270156,21.835361195981623,240.68690292593752,0.0714294420717646,0.0330622298165541,-0.7188519025478739,0.0096884137799566,-0.0178188299290171,0.0034952879387351,-42.18690238015248,-194.59362064383137,-95.60520460278428,4.696050603097227e-05
1472,1724915237120412403,-0.462785542011261,0.0862316489219665,0.1634464710950851,0.0398045927286148,0.0036620092578232,-0.3532622158527374,0.934670090675354,0.0,0.0,0.0,-0.1000875041080204,0.3884380080170857,-0.1111570111787282,0.162316542,0.0477027570281538,0.1401376583321235,-0.222523954953597,-4.792801594557538,-22.5002918112382,6.662444555329149,0.0719269798581028,0.0349755887627107,-0.7214573728927324,0.0062333965367713,-0.0087866273320234,-0.0039860996020433,21.515314206334818,-299.35685937397494,21.397247800906932,-3.784581696309144e-05
1474,1724915237129264282,-0.4627376794815063,0.0861419886350631,0.163407877087593,0.0389808155596256,0.0032956816721707,-0.3546769618988037,0.9341702461242676,0.0,0.0,0.0,0.0440352580957208,0.283807550773153,0.3048008638505034,0.171168421,-0.1390604785036183,-0.1554218580234238,-0.3360489152924789,-9.969724698063406,-17.103165478503556,-4.410306307267012,0.0705905639663276,0.0338150939904683,-0.7245242389850922,0.0065022201366353,-0.0075586018041882,-0.0017963139677039,14.659977010435592,0.965695139475656,36.81651260986321,-3.276510993999799e-05
1476,1724915237138336348,-0.4626685082912445,0.086097314953804,0.1634154170751571,0.0381861999630928,0.0028766840696334,-0.355964720249176,0.9337144494056702,0.0,0.0,0.0,0.1619541147344673,0.411447653208291,0.5442038687321875,0.180240487,-0.1260321697973931,-0.1591572744274388,-0.2978223620297655,3.3435109350982364,3.685223897662929,4.02433003428761,0.0693543418676952,0.0325636376624038,-0.7273218863332468,0.0070287751520119,-0.0036349936401989,0.0015027350776168,4.3253460626513895,0.5904669359938932,15.132541472126832,9.28615385950129e-06
1478,1724915237148945096,-0.4626013338565826,0.0860747471451759,0.1634396910667419,0.0377201698720455,0.0027122418396174,-0.3572525978088379,0.9332419633865356,0.0,0.0,0.0,0.1002498870135252,0.2504937071481403,0.5650963369630627,0.190849235,-0.0668987773105645,-0.0692357503944176,-0.2574779677310809,9.745715864480603,14.71060940833351,-1.843429198888014,0.0685549776976939,0.0320190839820373,-0.73009905790507,0.0100360183972441,0.0004688638225331,0.0095159685954042,-28.139567762526244,-23.840974567401577,-13.636988051405288,2.436678569027452e-05
1480,1724915237160395507,-0.4624406397342682,0.0861122012138366,0.1636379808187484,0.0385894328355789,0.0035323430784046,-0.3590763807296753,0.932503342628479,0.0,0.0,0.0,-0.4978489591236998,-0.1296361008754564,0.2160706954300122,0.202299646,0.0962510110027178,0.176257299183881,-0.3483685686224552,0.9246185301030388,-3.6827100852491177,-4.929075692396891,0.0695296786906934,0.0343076809342543,-0.7339412701753083,0.0089195527505268,0.0016520721737403,0.0136353358487975,-13.384703841359563,-8.599155740487534,3.9401086633143194,0.0001915089692789
1482,1724915237171451308,-0.4623966217041015,0.0861131846904754,0.1637494266033172,0.0381345227360725,0.0029986924491822,-0.3610142469406128,0.931775450706482,0.0,0.0,0.0,-0.2311212850564568,0.0378799745322782,0.6270751482228385,0.213355447,-0.035754932118865,-0.132634164025317,-0.3707463872778194,-32.625317791797144,-8.55319983532129,-18.924753808895534,0.0689930310343416,0.0331284874343816,-0.7381342483101893,-0.0008581602883594,-0.0022680578735636,0.0144903476705078,46.500253365995306,19.099640404829337,-23.676977280143728,0.0001100816017861
1484,1724915237178882079,-0.4624271690845489,0.086084559559822,0.1638791263103485,0.0366737619042396,0.0032507868018001,-0.3630853295326233,0.9310281872749328,0.0,0.0,0.0,0.22615800233279,0.1995215034842232,0.1472195999198596,0.220786218,-0.3814957186201172,-0.0993703279557306,-0.5957795041526587,-10.42752390616737,9.931178618795045,-17.77850202140075,0.0660111590327163,0.0326903803167899,-0.7426034716603948,0.0006871052813188,-2.65206511045335e-05,0.0218955799797209,25.993292957951464,-0.2208159612011426,-92.11782986683842,0.00013199903838
1486,1724915237188477354,-0.4623611271381378,0.0861317068338394,0.1641442477703094,0.036621693521738,0.0037016866263002,-0.3658030927181244,0.9299640655517578,0.0,0.0,0.0,0.0351545657639733,-0.0748588728261621,-1.077917040683659,0.230381493,-0.0342526978607567,0.0635070518154238,-0.6114231378628391,16.861438885565008,-4.692701827220715,14.858597830108678,0.0654894660463492,0.0336838978821249,-0.748420703166424,0.0030826944166975,0.0006224675163322,0.0127845920750377,-10.797192141053362,-8.541710099889864,-31.17878312528258,0.0002597492516663
1488,1724915237198769196,-0.4623713493347168,0.0860907435417175,0.1641119420528412,0.0358402766287326,0.0028213774785399,-0.3671663999557495,0.929460346698761,0.0,0.0,0.0,0.0245833590282475,0.0586029975327469,-0.333515796713443,0.240673335,-0.0740734745610601,-0.2239759608917155,-0.2764797213624888,-2.96311639899917,-5.137847192003679,10.626454178411915,0.0646295643402532,0.0315686508500396,-0.7514118103859098,0.0010765415725551,-0.00172096814652,0.0002735631175951,4.474578022111386,15.650731177898413,98.98204365707542,-2.9192768951462137e-05
1490,1724915237207853299,-0.4623449742794037,0.0860932245850563,0.1641417890787124,0.0352934375405311,0.0026646058540791,-0.3686805367469787,0.9288821220397948,0.0,0.0,0.0,0.1093441976673704,0.2222883667938021,0.7793517879658657,0.249757438,-0.0937259941607,-0.0878743094865706,-0.3556892462410785,4.7486494020119565,7.720534691218851,2.54097696634459,0.063675662701906,0.030979171399928,-0.7546889749719435,0.003059909478722,0.0011069779938215,0.0043167099117544,-1.0394651049167685,12.154860832734228,97.40062945041925,2.9048873967319156e-05
1492,1724915237219239533,-0.4623079001903534,0.0861177295446395,0.1642056554555893,0.0353853851556777,0.0020262566395103,-0.3695800900459289,0.9285226464271544,0.0,0.0,0.0,-0.0504917999813906,0.2769964500315478,1.5300633695538268,0.261143672,0.0589904461829273,-0.1036062220880563,-0.1660489494147773,2.2450599623209335,1.6948774858685214,1.9314151565212931,0.0642875665310499,0.029922783160687,-0.7566520589956487,0.0027494505592216,0.0023675489306391,0.0179612544105065,-1.265945538899728,13.447283679335303,70.79343387963341,6.12287510045396e-05
1494,1724915237228248994,-0.4622867405414581,0.0861405953764915,0.1644555330276489,0.0352708511054515,0.0017895830096676,-0.3706512153148651,0.9281004667282104,0.0,0.0,0.0,0.0291498857844677,0.4597602285244432,2.2025338326489385,0.270153133,-0.0003925278223236,-0.066404208973261,-0.2536113022411528,-8.803647093770348,4.799947683774749,-3.387805627719364,0.064215156489939,0.0294724598795418,-0.7589717204082946,0.0021289753269222,0.0060485628399744,0.0341111181334161,9.62414873712774,29.769631791094863,19.108213599530274,0.0002472439449072
1496,1724915237239856663,-0.4622653126716614,0.0862633064389228,0.1649468392133712,0.0345365516841411,0.0021184787619858,-0.3717174828052521,0.9277008771896362,0.0,0.0,0.0,0.1525941288208851,0.9471491073172638,1.5938414716489169,0.281760802,-0.1356701692031661,-0.0006571060779221,-0.1982527631452111,-5.746854554068637,12.24741315029561,-14.140794445524335,0.0625724627418144,0.029610636186025,-0.7612698578033054,0.0039332306237405,0.0121508351372838,0.0658088535425633,6.49724843784187,25.711958899874148,-190.0124253898068,0.0004816073036909
1498,1724915237248733606,-0.4622162282466888,0.0863818898797035,0.1656904369592666,0.034180674701929,0.0030585995409637,-0.3735535442829132,0.9269736409187316,0.0,0.0,0.0,0.1821821271417515,1.0648972026546506,-1.0268237356948706,0.290637745,-0.1465821798701488,0.1527540681025309,-0.4521522166193712,-4.9642660171152455,3.5635116973320313,-8.464053541076224,0.0611519401053999,0.0312121742358817,-0.7651938879116221,0.0052685042993445,0.0234196133128294,0.072239192725366,-1.8008282091368644,7.4916934938055775,-127.94120862848766,0.0007330856875601
1500,1724915237258123497,-0.462169349193573,0.0867017284035682,0.1662542521953582,0.0332612060010433,0.0037331178318709,-0.3749847412109375,0.926426649093628,0.0,0.0,0.0,0.114279620176743,1.077905235353704,-0.5666688281418755,0.300027636,-0.230294034236887,0.0499566259564553,-0.3316077554110193,6.998230381306549,-11.71416069227454,17.091190203616183,0.0588923309656384,0.0318672024855523,-0.7682754928044866,0.0072946469127153,0.0313872294447312,0.0452035685844913,-24.738381446016668,-3.7629335462210634,96.86814677706852,0.0005411003689724
1502,1724915237270559022,-0.4620407223701477,0.0870479941368103,0.1665719598531723,0.033691830933094,0.0028421790339052,-0.3752920627593994,0.9262897968292236,0.0,0.0,0.0,-0.4816771419913375,0.9463244511849958,1.4261906627581658,0.312463161,0.1188096210359593,-0.1083384362375099,-0.0490187765746156,-19.37409450672485,-4.793233722614477,-53.34159930546418,0.0603482861697489,0.030558672228999,-0.7689645960528221,0.0070441765724282,0.048569110871151,0.0762422996705858,-29.3932376758776,-97.54312444314954,-126.6704256308574,0.0002920542351871
1504,1724915237277547196,-0.4620044529438019,0.0874687880277633,0.1673038303852081,0.0328827239573001,0.0028348725754767,-0.377633661031723,0.925366759300232,0.0,0.0,0.0,-0.6143125506176174,-0.0768258639511685,-0.5857680690339631,0.319451335,-0.2029060565690044,-0.1106694306764341,-0.7204917064476501,-28.3010510622944,-1.7979399377553855,-38.636990617690174,0.0587764938569739,0.0300863793390806,-0.7740389594012494,0.0018656725032943,0.0534725511080718,0.0820077109068169,4.085394322741266,-100.5870938670029,-180.58269851068536,0.0007030563177184
1506,1724915237289151238,-0.4620468616485595,0.0879593640565872,0.167817622423172,0.0315139107406139,0.0024043039884418,-0.3779926300048828,0.9252690076828004,0.0,0.0,0.0,-0.1224631525652911,-0.3610574695078923,-0.6132057736502241,0.331055377,-0.1895589636464862,-0.1597496059736718,-0.0618430025678033,-0.5466107294505189,-6.464078676444048,25.398742554531992,0.0565528074143883,0.0282770761444766,-0.7748625408456493,-0.0028209832743328,0.0375802395049751,0.0480261506612595,39.593086406456216,36.35542112972849,73.90966887058086,0.0004840862960235
1508,1724915237299785768,-0.4620687365531921,0.0883132442831993,0.1683648973703384,0.0299670286476612,0.0016152316238731,-0.3785103857517242,0.9251104593276978,0.0,0.0,0.0,0.2713705222061593,0.6186068861454648,0.9161583673993228,0.341689907,-0.2119091675670104,-0.2502695548041921,-0.0973895178350152,0.6697187441610719,8.458631145811818,-17.877390280328353,0.0542673709427161,0.025677019909028,-0.7760444951929419,-0.001380614204514,0.0435693481798971,0.0640691635140022,40.90657835640883,93.74257576291694,51.13568178350576,0.0005266662117482
1510,1724915237307952710,-0.4620757699012756,0.0887336283922195,0.1689672172069549,0.0291350502520799,0.0016660006949678,-0.3797816336154938,0.9246158003807068,0.0,0.0,0.0,0.6297439332616883,1.3943669797256804,0.7525271260419246,0.349856849,-0.1890577202053361,-0.0747506219944181,-0.3345544709476724,3.7941563675029615,17.217102108060182,-15.956385248984532,0.0526530756443136,0.0252134064345977,-0.7788063864319319,0.0016881820241394,0.048969134929456,0.0678357691288171,22.951887747266703,50.18816329499427,-11.006532632647382,0.00057824671803
1512,1724915237320938861,-0.4620012044906616,0.0893178284168243,0.1697259992361068,0.0285656936466693,0.0023750197142362,-0.3813987970352173,0.9239661693572998,0.0,0.0,0.0,0.4956334168200704,1.12104462599759,0.7960410668359099,0.362843,-0.1192173549995779,0.060573014207271,-0.271609137187331,-14.692449033528693,-3.2224098465108684,15.373705200482489,0.0510154118886164,0.0261817092004159,-0.7822892519827387,0.0151107102061445,0.082216337543441,0.0836238168556988,-80.45194299571997,-229.52075828608375,-83.14519166975477,0.0007243408158999
1514,1724915237327677556,-0.4618666172027588,0.0900020450353622,0.1703776121139526,0.0276553928852081,0.002730721142143,-0.3818055391311645,0.9238247871398926,0.0,0.0,0.0,-0.2917201096565834,-1.1546166370059625,-0.0667084393614754,0.369581695,-0.2884079195249767,-0.0088487798115287,-0.1312010067894827,-9.006406215410403,-13.918349568148898,10.694359638914015,0.0490487139321302,0.0261663659599855,-0.783175428344396,0.016569458086618,0.0847382568537256,0.0875204191464824,-87.26399473475134,-211.99487260731863,-90.21800832975576,0.0006120547890017
1516,1724915237338179069,-0.4617483019828796,0.0906170308589935,0.1711465269327163,0.0266436729580163,0.0019580938387662,-0.3827311992645263,0.9234734177589417,0.0,0.0,0.0,-0.7240887606863647,-1.3236529646109618,-0.3953374076963727,0.380083208,-0.1194901314306378,-0.2141962837546888,-0.1848682118398381,-4.210088281994109,-17.601250007647824,-13.137932865432326,0.0477424945815417,0.0240135328603433,-0.7852240558663455,0.0051891409705397,0.0475925354768915,0.0762649613858466,27.877754962465595,103.73663960171368,-9.558764076543149,0.0007346472369372
1518,1724915237349727662,-0.4617655575275421,0.0910273492336273,0.1720659583806991,0.0234998241066932,0.0008728507673367,-0.3851219117641449,0.922566056251526,0.0,0.0,0.0,0.4747975685811674,1.396247554369419,-0.2296950679847409,0.391631801,-0.425861016792798,-0.3926647743919594,-0.438542788786839,-7.069079779698534,11.7758192707659,-5.311503204872309,0.0427092503403208,0.0197123959633359,-0.7904896932180905,0.0013938155636239,0.060418140323855,0.0802904188219066,95.48506396337903,60.96261884225187,-44.52552167561688,0.0009006317153458
1520,1724915237357737734,-0.4617383480072021,0.0916495770215988,0.1727128475904464,0.0218883138149976,0.0009434897801838,-0.3865692019462585,0.9220002293586732,0.0,0.0,0.0,1.1933754925201852,0.9147745598586132,-0.9134077152458846,0.399641873,-0.374370973266725,-0.1470588407042939,-0.3885607376909391,12.947412386634102,32.70676994405772,4.293075326886241,0.0396499043411247,0.0186635750862589,-0.7936486308164729,0.009660685510255,0.0731893003709909,0.0752378578709835,52.90114063472028,-42.1321722377935,-60.00525303467472,0.0006202868128243
1522,1724915237369543446,-0.4615153074264526,0.0924354791641235,0.1735050082206726,0.0219246223568916,0.0027328818105161,-0.3885548114776611,0.9211606979370116,0.0,0.0,0.0,1.1774511275651964,0.7301605271114537,-1.180700039028065,0.411447585,-0.1080829408112633,0.2746443537199358,-0.3717525808880102,11.570918279235604,-23.746689469545046,29.04108496548147,0.0382871313023471,0.0220744743519717,-0.7979085792949707,0.0265562248332749,0.0721636325996026,0.05953665182499,-28.348579850793833,9.06852187005179,58.01248556567624,0.0007552967021721
1524,1724915237378018938,-0.461243599653244,0.0930811390280723,0.1739635914564132,0.0211501140147447,0.0017294475110247,-0.3884148001670837,0.9212403297424316,0.0,0.0,0.0,0.772898402728729,0.957350057060657,-0.198265547133265,0.419923077,-0.0768535800792104,-0.288457852765756,0.042427629222962,20.006400723894053,-31.08302391660247,29.83587230814496,0.037641319483807,0.0196177665218941,-0.7976420432150734,0.034992132180033,0.0833235249828767,0.0504378789084372,-53.5463498703528,2.0691530447130972,116.7658700858681,0.0004285438953052
1526,1724915237388283556,-0.460847944021225,0.0940252318978309,0.1744357049465179,0.0223831068724393,0.0002623590116854,-0.3879052698612213,0.9214274883270264,0.0,0.0,0.0,0.1509857562081749,0.6710816544067164,1.0108721993203122,0.430187695,0.3314067804118298,-0.1679897830292587,0.1120853239118861,-14.574087495119391,3.3552935916060793,-2.829581059371076,0.0410633576610212,0.0178494876389428,-0.7965601183448023,0.0401605049260922,0.0886828172606506,0.059283651354276,-50.250613707163886,-21.010607975667497,7.220602624916891,0.0004258262012547
1528,1724915237398261850,-0.4604315459728241,0.0948781967163086,0.1751561611890792,0.0203969124704599,-6.83665566612035e-05,-0.387971431016922,0.9214457273483276,0.0,0.0,0.0,-0.2501574678707634,0.5281502917331959,0.0103384874767873,0.440165989,-0.3411875449436945,-0.2158045418694341,-0.0094216757495391,-52.86104282545586,-14.262829930901656,-12.281701891175071,0.0376558833148573,0.0157014916539947,-0.7967387532196958,0.0382475822412509,0.0968240551363397,0.0708166854483707,6.162914718026788,45.33039339390135,-76.10847492203214,0.0006811969412878
1530,1724915237407878809,-0.460096001625061,0.0959144756197929,0.1758243590593338,0.0164077021181583,-0.0006752465269528,-0.3885810077190399,0.9212682247161864,0.0,0.0,0.0,0.2388500626113137,1.5170121388134232,-0.4976380086383187,0.449782948,-0.7147394333492655,-0.440753095137314,-0.1285035304089498,-4.718233124941196,-5.388645938411857,-8.426423010209078,0.0307634538521392,0.0115075304843568,-0.798118884290067,0.0353000806592795,0.0992362351002733,0.060299047951041,28.802747985081783,73.37606708583549,15.752114798194244,0.0006323565875459
1532,1724915237420580373,-0.459640771150589,0.0970320180058479,0.1764362156391143,0.0147139998152852,-0.0013709008926525,-0.3895923793315887,0.9208689332008362,0.0,0.0,0.0,0.2348612193489407,1.9549844755811456,0.8527882940850064,0.462484512,-0.2022062020463834,-0.2072010524828529,-0.169167178659621,2.462904941676392,0.6354512554049485,3.375785206394609,0.0281723679219766,0.0089402034037776,-0.8003444304338091,0.0474822264353065,0.1397456302854713,0.0639767806101421,-67.03643017061458,-188.75474182132345,-12.519349473665836,0.0005761298682063
1534,1724915237427763356,-0.4592524170875549,0.0982460677623748,0.1769599616527557,0.0132108591496944,-0.0017997949616983,-0.3899989724159241,0.9207188487052916,0.0,0.0,0.0,-0.517694490321005,-0.3076505335040327,0.280123897707567,0.469667495,-0.3384250626557745,-0.27474817460453,-0.118201396663699,0.0467751087120336,12.25393835976286,-4.773435383977752,0.0257342794335578,0.006990289625097,-0.8012463522297071,0.0462272633679887,0.1487742208845053,0.0723902861946754,-75.97805556396077,-220.36053576444812,-125.83390455961518,0.0004904411160261
1536,1724915237438202371,-0.4588887691497803,0.0994920134544372,0.1777076870203018,0.0133460601791739,-0.0008015927742235,-0.3916589021682739,0.920013427734375,0.0,0.0,0.0,-0.8740394125259077,-1.1722319633980716,-1.7329740305728158,0.48010651,-0.0495226814578572,0.1817399668699526,-0.3480927093076574,14.700797626030358,7.165694550757728,-4.256147789287295,0.0251886898861661,0.0089793749904864,-0.8048307353821283,0.0356196760761271,0.1218262243347156,0.0617943073413904,-19.806592876036277,65.40575410419078,-106.878266324235,0.0007133055342373
1538,1724915237448185470,-0.458525687456131,0.1007318124175071,0.1782307028770446,0.0130373500287532,-0.0011747397948056,-0.3926798105239868,0.9195820689201356,0.0,0.0,0.0,-0.9349675653551228,0.8958657888288837,-1.9792305197751623,0.490089609,-0.0266315185903337,-0.0957979534246706,-0.2209669388131696,-7.563345364114067,-17.621457830025093,14.022038354194551,0.0249038065287575,0.0080785568477823,-0.8070598697673083,0.0282507810597252,0.123577838838818,0.0376396361861974,13.44050941300882,144.15639638474607,21.552367358067727,0.0004897507133594
1540,1724915237458704694,-0.4583185017108917,0.1020249724388122,0.1784631460905075,0.0116480244323611,-0.0015398869290947,-0.3929785490036011,0.9194725751876832,0.0,0.0,0.0,-0.5769593858264096,1.7139395596680205,-1.2402106110517668,0.500608833,-0.2154410687883878,-0.1683329975533904,-0.0591902749090625,-41.18804439993139,-52.848716669552395,-2.7655312927596434,0.0226327477014564,0.0063231220149486,-0.8077244566806167,0.0162339504335733,0.1409867531001678,0.0217003010812337,56.43388553107152,-50.52091840155969,-3.337670938156947,0.000203761084851
1542,1724915237467890793,-0.458197146654129,0.1034649163484573,0.1786593049764633,0.0065089566633105,-0.0044372230768203,-0.394003689289093,0.9190751910209656,0.0,0.0,0.0,0.1211404081057635,0.2207142008586542,-1.8612193625362192,0.509794932,-0.7802203699322734,-1.0224399518930638,-0.2301499267405764,-18.55344367625589,-27.017245717042098,-6.009353007619242,0.0154616925914137,-0.0030271820397568,-0.8100172613786097,0.0154696136745613,0.1572042863910017,0.0125140104097347,84.3749984872388,-150.9058152985549,-48.30037118823779,0.0001823290239197
1544,1724915237477794418,-0.4580198228359222,0.1050266325473785,0.1786888539791107,0.0030684578232467,-0.0061114374548196,-0.3947365880012512,0.9187688827514648,0.0,0.0,0.0,1.0462310891077489,-1.1494441319782398,-2.1334691098428267,0.519698557,-0.5056105769096171,-0.5857305177301905,-0.1551173358115801,27.54538742752464,33.78840584122982,14.946189254728443,0.0104638198717802,-0.0088076458561216,-0.8116284539754602,0.0188511876066286,0.1428967844897766,-0.0151139941587539,61.20122542021348,-12.14722975953871,97.42526423528956,2.5854733637921104e-05
1546,1724915237488787487,-0.4578010439872741,0.1064169779419899,0.1783018708229065,0.0012918540742248,-0.0073855966329574,-0.3942476809024811,0.9189736843109132,0.0,0.0,0.0,1.326005961781942,0.2569816810268994,0.4617930546582386,0.530691626,-0.2050330976407546,-0.3400681800379953,0.0991174719439452,35.49050190684032,46.24555308211946,4.324863596982508,0.0081986065901717,-0.0125560468681475,-0.8105737796720726,0.0389524916802663,0.1338633566123244,-0.0305599739631574,-83.7739349520862,61.35704986581572,192.3064268389282,-0.0003853367694242
1548,1724915237498527082,-0.4572572708129883,0.1077845096588134,0.1780442893505096,0.0028443865012377,-0.0063737342134118,-0.3943314254283905,0.918941855430603,0.0,0.0,0.0,-0.4324177154544613,0.2800486158628414,1.9570410704755792,0.540431221,0.2109399101597356,0.3165663425641563,-0.0210031391692618,-15.741122923798306,14.874866674821652,-17.72495252006782,0.0102550186891289,-0.0094710619145244,-0.8107499243669856,0.0475308332230426,0.1456745812954896,-0.0099530878560756,-143.8029939801002,-54.062617142253714,39.653864424304274,-0.0002654208302341
1550,1724915237508230313,-0.4568763077259063,0.1092489212751388,0.1781071573495865,0.000502272741869,-0.0056104063987731,-0.3954390585422516,0.9184749722480774,0.0,0.0,0.0,-1.4725977268918675,-0.7900519261737085,1.2410422268910917,0.550134452,-0.5068419522798375,-0.0470444339525567,-0.2451142981948952,-55.44811586519474,-63.496455494822,1.1136406895543645,0.0053600863437,-0.0099089613577277,-0.8131318786533333,0.030640396493105,0.1393759964991545,0.0075019585992519,-23.664024354211193,-29.84582272302826,-79.86200990599399,6.393312932170662e-05
1552,1724915237518925979,-0.4566502273082733,0.1106035411357879,0.1781994551420211,-0.0060135507956147,-0.0088201463222503,-0.3952012956142425,0.9185324907302856,0.0,0.0,0.0,-0.7408516988211127,-0.1609513153673134,0.3152751130353994,0.560830118,-0.8814896150593075,-1.0329856576543892,0.0522254408651163,-7.128762292207135,-37.561719889045705,3.409629408049108,-0.0040767236418316,-0.020957842260476,-0.8125802483405568,0.0180508306149675,0.1292643616209199,0.0141989247442388,53.22886923001331,24.41842901415348,-82.56082908008318,0.0001140966796691
1554,1724915237529000181,-0.4564976692199707,0.1119305714964866,0.1783953458070755,-0.0109707647934556,-0.0115858661010861,-0.3958686292171478,0.918168604373932,0.0,0.0,0.0,-0.3487140089485042,-0.2413700173131898,-0.4785559559101937,0.57090432,-0.6885746999572065,-0.8931123989947535,-0.1448619750679597,45.96822026525521,32.76342519774484,0.1314901593830668,-0.0109782107878927,-0.0299660047756196,-0.813972437720925,0.0147265662162539,0.1350863773007971,0.0144253364593982,42.26207487244383,-8.29884068003665,-54.874638409959736,0.0002327774609325
1556,1724915237538536458,-0.4563609957695007,0.1132491305470466,0.1784875988960266,-0.0117825176566839,-0.0133647872135043,-0.3956971764564514,0.9182081818580629,0.0,0.0,0.0,0.0844334276712841,-0.323364451348004,-0.7858940503679902,0.580440597,-0.0081135032614565,-0.4102480321804138,0.034180794300643,23.86177071382741,41.04609563459299,7.479431910300898,-0.0110673660644233,-0.0338744098447484,-0.8136030568745889,0.0112320009079596,0.125388873521727,0.0053388555417317,29.424675674212743,-0.6352130460727796,8.09735014580568,0.0001325911487643
1558,1724915237549031571,-0.456278920173645,0.1144163459539413,0.1784935593605041,-0.0134441750124096,-0.0131646487861871,-0.3957982361316681,0.918144702911377,0.0,0.0,0.0,0.2084852377819013,-0.238056211446894,-0.2351357001954777,0.59093571,-0.3062454254522282,-0.0902138028698245,-0.0177885515045364,-7.279488926432531,26.288370269901076,-0.5359667076440542,-0.0142754460444011,-0.0348235044570557,-0.8137778605229838,0.0173259993841448,0.1300057868914974,-0.000980985167903,-63.2933074875434,-27.421894052808035,21.53479643191724,4.5824783311559435e-05
1560,1724915237557670978,-0.4560616314411163,0.115673154592514,0.1784740686416626,-0.0141298593953251,-0.0123655349016189,-0.3957810401916504,0.918152928352356,0.0,0.0,0.0,-0.8725234313092717,-0.7277922426513941,-0.2691474803798914,0.599575117,-0.218882705084825,0.1069949848763321,0.0089853845913215,-1.644236242038211,-9.203433286144596,-2.0841918524131837,-0.0161686477295234,-0.0338980566065207,-0.8137142724202217,0.0164804119206607,0.1231275432457916,-0.0004021373575646,-82.15587614652827,-24.521984346041982,-6.009182300811777,2.29312164691864e-05
1562,1724915237569088070,-0.4560042917728424,0.1167417541146278,0.1784974485635757,-0.0173860434442758,-0.0139581467956304,-0.3962564170360565,0.91786926984787,0.0,0.0,0.0,-1.162188356779147,-0.5224719237748179,-0.3690223557899533,0.610992209,-0.4150331225342595,-0.4813463472713957,-0.093013917091565,-27.109742760375212,-54.99626773663699,22.07161768966958,-0.0208719422108059,-0.0394123732238865,-0.8146750979037731,-0.0051690302741072,0.1158496078116115,-0.0085467714430489,76.49844980605906,-16.524882571457113,39.71096196169751,6.860402510151335e-05
1564,1724915237577756328,-0.4561161696910858,0.1178924217820167,0.1783536374568939,-0.02193452604115,-0.0166086126118898,-0.3950170576572418,0.918261706829071,0.0,0.0,0.0,0.1713489888422745,-0.8928226436279125,0.2941218179189963,0.619660467,-0.7153746982922788,-0.9808698364369104,0.3023635969650213,-12.110015139022629,-14.4016382400927,11.30319929204699,-0.0271963766905393,-0.0478493867531229,-0.8118476930854371,-0.0104122641333326,0.112077448928388,-0.0094793023494395,110.84846605422732,-7.90015008860016,43.615130364464434,-8.06686145235315e-05
1566,1724915237588890239,-0.4561964273452759,0.1188447177410125,0.1783497929573059,-0.02577730640769,-0.0181290805339813,-0.3953177630901336,0.9180036783218384,0.0,0.0,0.0,0.7906872232091404,-0.482756175904333,0.3094082332454732,0.630794378,-0.5278866207135823,-0.523058057012167,-0.0624361805209554,23.156516282678737,47.38317780082863,-20.078690984968024,-0.0330474580123775,-0.0536913723144246,-0.8123678221845323,0.0025962645050903,0.0955919805178266,-0.0004598752935347,-13.37337969275005,54.806242719084565,-40.719513688811105,5.591818430559568e-05
1568,1724915237598672857,-0.4560867547988891,0.1198663339018821,0.1783443093299865,-0.0268843285739421,-0.0176957473158836,-0.3960112929344177,0.9176814556121826,0.0,0.0,0.0,0.0667857222355756,0.2079005659887638,-0.4507338249946871,0.640576996,-0.247057348242023,-0.0056811598808177,-0.1498175338610393,5.768701517717691,18.027460588551943,3.587406896800027,-0.0353856343544725,-0.0537970592146336,-0.8138328474707432,0.0070849474842873,0.0994466190708545,-0.0017365435357525,-41.73131426096152,23.23745113906231,-50.975770719990464,5.802851914916632e-05
1570,1724915237608560542,-0.4560579359531402,0.1207998096942901,0.1783153861761093,-0.0291315503418445,-0.0176710933446884,-0.3959746956825256,0.917629063129425,0.0,0.0,0.0,-0.023363475820639,-0.0356744830398572,-0.6876540917774606,0.650464681,-0.4192605074009422,-0.1758170334765449,0.0107741455316822,-1.6405290272314978,-24.049219192433732,24.26983208383156,-0.0395405376386166,-0.0555302657746351,-0.8136609260589633,0.0038271329820602,0.0996421256253397,-0.0093935987917603,24.741909575582717,-12.136431984013656,47.407635813231565,3.384514871721604e-05
1572,1724915237617833052,-0.4560145139694214,0.1217692568898201,0.1781720370054245,-0.0312626622617244,-0.0190337821841239,-0.3946352899074554,0.9181087017059326,0.0,0.0,0.0,0.5004827548937876,-0.0395341085809315,0.3725287023399273,0.659737191,-0.2972956742333646,-0.4583122597258804,0.3056269003831557,11.943449419025708,-3.0210213708747835,12.879708017687545,-0.0424705452645097,-0.0596602472725538,-0.8106503681617508,0.0062723821227486,0.0988291863201409,-0.015015541607612,6.941930551729866,2.1396917225459084,89.37113803490035,-7.319630443007659e-05
1574,1724915237628695894,-0.4559261500835418,0.1227700114250183,0.1780145764350891,-0.0325001887977123,-0.0193142760545015,-0.3936083614826202,0.9185004830360411,0.0,0.0,0.0,-0.0547113729899343,0.0162356884705729,1.0256506090690296,0.670600033,-0.1829533453709662,-0.1418676516657595,0.2047767033811208,10.568394138586,18.710306108270615,-23.742341024411633,-0.0445963366704091,-0.0611030510120168,-0.8083565851491034,0.0147222074449899,0.0990123328388037,0.0014877142689275,-87.39788984724589,-27.188820936993043,-35.50457714935932,-8.292095108364208e-05
1576,1724915237638667196,-0.4557190537452698,0.1238203197717666,0.1781757026910781,-0.0329372622072696,-0.0194215066730976,-0.3943597972393036,0.9181602597236632,0.0,0.0,0.0,-1.2583275717875309,-0.5507208377777104,-0.2036619015382466,0.680571335,-0.0771847105306177,-0.0506807409050749,-0.1643019346658142,-18.88149943314748,-34.68194357971542,-5.009406484018187,-0.0452667595726861,-0.0616814801519823,-0.8099735744929139,0.0065561475580935,0.099168510350653,0.0071970025914147,-28.81230611697526,-30.412818657078784,-82.66922252894352,0.0002382641417426
1578,1724915237648112344,-0.4557842910289764,0.1247018277645111,0.1781634986400604,-0.0366304740309715,-0.0217828229069709,-0.3939597904682159,0.918139100074768,0.0,0.0,0.0,-0.7082953322439915,-0.6013683963603698,-0.621104944833281,0.690016483,-0.5193524427116257,-0.770365286537792,0.0747215929522634,-33.81678805414115,-26.86708770626879,11.199070235727026,-0.0502409708555647,-0.0689157287742956,-0.8089190660406234,-0.0092598914345032,0.0888995743786624,-0.0016713906688492,90.00231871392899,40.91398880626845,-41.53677178491622,6.298980458824419e-05
1580,1724915237658937460,-0.4559137225151062,0.1256092190742492,0.1781406998634338,-0.0411891154944896,-0.0224665347486734,-0.3938479423522949,0.9179774522781372,0.0,0.0,0.0,0.6601256853643253,0.4156661943025179,-1.0377461271397148,0.700841599,-0.7241671802307397,-0.4491928226305314,0.0209262953377018,-1.1168866646199724,28.85091608701599,-6.622266684658614,-0.0581151925539837,-0.0737589025967993,-0.8084283677775316,-0.004939675055759,0.0884174843539638,-0.0044516836004557,53.12080512276049,48.70451435569347,-80.54668657036433,6.311707169083225e-05
1582,1724915237669835870,-0.4558905661106109,0.1266232430934906,0.1780664473772049,-0.0441951192915439,-0.022039970383048,-0.3942271173000335,0.9176852107048036,0.0,0.0,0.0,0.4348959264185751,0.4500102860182329,-2.377049099361306,0.711740009,-0.5409965534231529,-0.1437420165567007,-0.0693804870870574,31.822422899277345,6.57747384569581,4.436939526714541,-0.0639619667896858,-0.0753686729182916,-0.8090894024468785,0.0051187600108235,0.0979969980188695,-0.0243297550443042,-41.87466610485745,-87.93873854265283,-0.1467887815131234,2.585308066286632e-05
1584,1724915237678837418,-0.455822229385376,0.1275421977043151,0.1777172088623047,-0.0452247485518455,-0.0227812509983778,-0.393923282623291,0.9177473187446594,0.0,0.0,0.0,-0.0997216016526165,-1.018813735904681,-1.4657968533195112,0.720741557,-0.1429090296666094,-0.2440089600747247,0.0651535216029319,22.942178211145276,-8.745356368420678,9.075918708674212,-0.0653040526332149,-0.0775226523010828,-0.808360020692233,0.0054050678886952,0.0988584487558972,-0.0498391334034842,11.543222516018757,635.2863565117229,-261.15404865679943,-0.0002550943378012
1586,1724915237688016398,-0.4557930827140808,0.1284193843603134,0.177156388759613,-0.0463342145085334,-0.0237955469638109,-0.3934800028800964,0.9178564548492432,0.0,0.0,0.0,0.6701781570502247,12.285989274846914,-7.254833069200775,0.729920537,-0.1315223457843647,-0.3018794751137108,0.0935210210242629,2.538391526423954,-1.748741842834506,1.7697067308831451,-0.0665934394469953,-0.0802310134855971,-0.8073176934959324,0.0032586340380253,0.0790750275480427,-0.0504884447243256,-48.78053370918159,-568.0676413527599,411.78277240878253,-0.0004669508046083
1588,1724915237714226904,-0.4557014405727386,0.1292578279972076,0.1766271442174911,-0.0459950119256973,-0.0240173526108264,-0.3929719626903534,0.9180853366851808,0.0,0.0,0.0,-10.536945747518049,-153.6049260671657,81.56047969502697,0.756131043,0.0321481409830173,-0.0067308571775145,0.0410537432222199,-3668.5785309717144,-1789.938014702337,4352.258724517795,-0.0658381407084567,-0.0803358434066014,-0.8062287965528,0.0884847561954984,1.4819390957906364,-0.7783268844412987,-1070.9446906299454,-16810.642608544353,8474.1901885861,-0.0004404860838605
1590,1724915237714803785,-0.4556493163108825,0.1301311403512954,0.1761685162782669,-0.0466977208852767,-0.0240225028246641,-0.3922820389270782,0.9183447360992432,0.0,0.0,0.0,-11.162922099499829,-163.43574832031297,86.51365091996115,0.756707924,-2.130843902526216,-1.0621816956228376,2.607074637842557,-3390.554680446054,-1655.7110984066326,4013.1729210664607,-0.0671918750360275,-0.0808472770152937,-0.8046823944853161,0.0822311208448267,1.3906974541170665,-0.7298880504421508,-945.2318036254144,-14910.134711182056,7455.886801646836,-0.0003651256959285
1592,1724915237720655495,-0.4556503593921661,0.1309588998556137,0.1757631152868271,-0.0490043424069881,-0.0243749748915433,-0.3915302157402038,0.9185361266136168,0.0,0.0,0.0,-8.39156033965709,-124.18173081811958,63.054763004313095,0.762559634,-0.6674996184452089,-0.4303179108240625,0.2749497521835549,162.03619919626615,75.46465785983105,-226.63930630564084,-0.07124421212189,-0.0832480731203267,-0.8028972149342817,-0.0022338350544117,0.1213813876164247,-0.0724574381113161,723.1999055728874,10826.581272089845,-5934.267824917141,-0.0003126473393876
1594,1724915237728142857,-0.4556867778301239,0.1316754072904586,0.1751901507377624,-0.050307523459196,-0.0245052929967641,-0.3907513320446014,0.9187938570976256,0.0,0.0,0.0,-0.58546897534587,-3.663561531101208,0.1772775082191979,0.770046996,-0.2976696509955089,-0.1767840677009238,0.2248377832471747,37.11160000635868,17.2586852156333,-3.515678203521876,-0.0736221393563365,-0.0844464205264811,-0.8011161529743539,-0.0071744167578522,0.0799792203171323,-0.0725874031196278,644.4104856073507,9772.695672189984,-4992.816371519333,-0.000489209137561
1596,1724915237739298306,-0.4558052122592926,0.1323063969612121,0.1744458377361297,-0.0513571389019489,-0.0255804453045129,-0.3894676268100738,0.9192513823509216,0.0,0.0,0.0,-0.0143921276022458,0.2549473034835259,1.073114638435582,0.781202445,-0.0878115241090809,-0.2602047141283992,0.2384255389436666,6.818303296073355,2.7599867289581645,-13.301658374214329,-0.0748483546975425,-0.0871438593950323,-0.7982378184282819,-0.012469230970737,0.0701252360166027,-0.067374845935225,35.943730452607134,167.93193625449643,39.58773603060172,-0.0006664294819941
1598,1724915237748029699,-0.4559267461299896,0.1330113708972931,0.1738530993461609,-0.0520846098661422,-0.0260545592755079,-0.3893499970436096,0.9192469120025636,0.0,0.0,0.0,0.1952344735600453,0.4683204306540744,1.1405064427693483,0.789933838,-0.1102452286429593,-0.1661388497765713,0.0230547779966421,-5.29513915682754,17.414619691165708,-15.11909468460476,-0.0758382416916649,-0.0885752067414755,-0.7979266265020383,-0.0094495287719666,0.080130383984514,-0.0538646396500412,-2.7362238887285644,-16.46252412188856,-78.66189293453434,-0.0005060159173964
1600,1724915237758371809,-0.4559697210788727,0.1338326185941696,0.1734677851200103,-0.0528335496783256,-0.025206396356225,-0.3894799351692199,0.9191728830337524,0.0,0.0,0.0,-0.1606842571620413,-0.2029601719784799,-0.731178067105934,0.800275948,-0.1983993769735287,0.0953210544443243,-0.016356211261014,-2.391365052541432,8.725495175040129,2.9826003075382563,-0.077868545657222,-0.0876053012714422,-0.7981720711618002,-0.0092753567157686,0.0766736987314962,-0.047052773515662,-0.8416395761253757,-59.45188052597619,-95.72779151927328,-0.0002865609571525
1602,1724915237769113732,-0.4561264812946319,0.1346257328987121,0.1728530526161193,-0.0536053366959095,-0.0248333849012851,-0.3890504240989685,0.9193201661109924,0.0,0.0,0.0,0.2048539748856086,-0.780718193859153,-0.8083363174388003,0.811017871,-0.1556664037293333,0.0043355995053503,0.0914771444211298,16.12416680967773,-9.469316060681845,14.951016548712085,-0.0796263479755968,-0.0874815614019506,-0.7971922975477943,-0.0129820986878215,0.0759581640266446,-0.0704136491489357,35.552472466181236,-16.797576437336758,34.970612050314465,-0.000516326957768
1604,1724915237777984140,-0.4562298357486725,0.1353150755167007,0.1721318662166595,-0.0534727983176708,-0.0252578910440206,-0.3879605829715729,0.9197767972946168,0.0,0.0,0.0,0.5313773735113524,-0.6587856963847212,-0.189359939907425,0.819888279,0.0763306065074456,-0.086980113661018,0.2600823571240516,17.01839265682038,-5.740204923911268,8.742797944068924,-0.0791570336308045,-0.088067717209205,-0.7948222433769813,-0.0071367720231076,0.0638020727434462,-0.0675750816248172,-2.6582870992465057,45.61363328648567,34.65904028269246,-0.000634310292133
1606,1724915237794172535,-0.4562119841575622,0.1359369605779647,0.1714434921741485,-0.0530253387987613,-0.0258102603256702,-0.3871917128562927,0.9201112389564514,0.0,0.0,0.0,-0.6777051153060262,1.021112109576122,-0.665884357314642,0.836076674,0.0819307857112455,-0.0453567062749517,0.0983544643299675,-31.4481239632145,-0.5509823266244078,31.15196098043556,-0.0779764401586768,-0.0886747303447517,-0.7931708088966313,-0.0023041554161622,0.0741613461407268,-0.085688984481056,-40.65755468488372,-136.3839011413857,261.85595858512585,-0.0006105885780011
1608,1724915237801137167,-0.4562382400035858,0.1365605741739273,0.1707173585891723,-0.0538881346583366,-0.0256035383790731,-0.385795921087265,0.9206531047821044,0.0,0.0,0.0,-0.8589022193522899,-0.6483419301914779,2.030659241369923,0.843041306,-0.2323599650349014,-0.0585492108513008,0.4385932058139254,-39.621931275493154,-24.238635162444833,23.802377756019567,-0.0798686063002947,-0.0888404171250601,-0.7900814609667699,-0.009949244903332,0.0824152020300506,-0.0889690995321021,39.862354672304555,-229.85645204442417,294.9877823397526,-0.0006466206146445
1610,1724915237807873737,-0.4563455283641815,0.1370693445205688,0.1702176481485366,-0.0558400452136993,-0.0260615982115268,-0.3844168484210968,0.9211006760597228,0.0,0.0,0.0,-0.1610999944404132,-2.132615982436813,3.417163965209732,0.849777876,-0.463407038556363,-0.3674301855884582,0.4357144754712987,-20.79095064198901,-22.17301656850308,-9.330553723193932,-0.0832724475110771,-0.0910682456191092,-0.7869416096613304,-0.0141792870986101,0.0661008715483122,-0.0589888817065995,83.76563254021005,-88.38291614180525,17.16493196933658,-0.0004328396580572
1612,1724915237818609753,-0.456467866897583,0.1376177817583084,0.16984423995018,-0.0585312023758888,-0.026057181879878,-0.3835130929946899,0.9213104248046876,0.0,0.0,0.0,0.3991154406610887,-0.8238807812714932,0.3736185127923339,0.860513892,-0.4555244149343442,-0.2003457567841515,0.1832082125435954,14.258321741691049,12.032691391341611,-9.064067845311447,-0.0883609042861543,-0.093042657495508,-0.7847884348419001,-0.0079215770617011,0.048152233275772,-0.0399801782541828,18.350466587823163,83.37282728487077,-176.59209086497438,-0.000299850324204
1614,1724915237830328544,-0.4565162658691406,0.1381445676088333,0.1693092137575149,-0.0594290941953659,-0.0262720063328742,-0.382080465555191,0.9218419194221495,0.0,0.0,0.0,0.1814171999667561,-0.3396911933484978,-0.3284487648883556,0.872232683,-0.1154402105879604,-0.1044949827308695,0.2618960157987859,16.6707992463134,3.150061997803795,5.620912605232149,-0.090010658694604,-0.093988986349378,-0.78160854488296,-0.0055949384425844,0.0493437287086688,-0.0534707709016331,6.56744428843983,-26.461227738942704,45.4879644307172,-0.0004620671516215
1616,1724915237838280139,-0.4565686583518982,0.1385606229305267,0.1688418686389923,-0.0598038211464881,-0.0265163518488407,-0.380958080291748,0.9222750663757324,0.0,0.0,0.0,0.3693030304511659,-0.9157945133365608,0.6019174357023036,0.880184278,-0.0495122096965164,-0.106581506582931,0.300689955011692,11.99434673273395,3.041948275289861,0.2928427012758767,-0.0906368086747368,-0.0946173510143563,-0.779139862351167,-0.0042447624619441,0.044261289348273,-0.0516434061428752,4.818786548897888,-34.046266740673346,75.07872067012262,-0.0004088685359961
1618,1724915237848190387,-0.4565817713737488,0.1388996839523315,0.168418139219284,-0.0593774802982807,-0.0268232021480798,-0.3798035085201263,0.9227698445320128,0.0,0.0,0.0,0.1847304151310106,-0.7788471703554503,0.8281353927256085,0.890094526,0.1150940502620477,-0.0356218090741843,0.2469497573707054,19.90468310168129,-1.5066928963711677,-0.8982193750887273,-0.0897306959436172,-0.0947485353215351,-0.7766596338827509,0.0018792635166526,0.0317688781071687,-0.0410822355742208,-45.774217075206195,27.130831052965185,-17.17912264499783,-0.0003760102274204
1620,1724915237858018227,-0.4565320909023285,0.1391880810260772,0.168030709028244,-0.0581117682158947,-0.0279923006892204,-0.3784382939338684,0.923376441001892,0.0,0.0,0.0,-0.5297363778810138,-0.3824687025254585,0.269400581535526,0.899922366,0.3428273691835753,-0.1348982343727566,0.28221821730709,-5.551799213190681,-1.6432259667816334,2.2608467179313294,-0.0866366641076792,-0.0958248820258738,-0.7737669900805338,-0.0005274328149553,0.0288092723214496,-0.0352586082232351,-43.148536615541985,17.919741079926496,-36.62339863733585,-0.0003475290491074
1622,1724915237868443364,-0.4565993249416351,0.1394824981689453,0.1677091717720031,-0.0584269575774669,-0.0281211026012897,-0.3770237565040588,0.923931121826172,0.0,0.0,0.0,-0.6527832972172698,-0.443506464972105,0.1113021405416916,0.910347503,-0.0327027288956539,-0.0584907141756101,0.2911042743981507,-17.999454913830263,-1.8917768120887557,7.258550881611637,-0.0872738197182115,-0.0961687924325259,-0.7706764649356417,-0.0092000966746041,0.0239226474195248,-0.0360238525335621,10.208578126046472,-2.8228827222552795,11.678080754650551,-0.0002802720615525
1624,1724915237877767164,-0.4567080438137054,0.1396695375442505,0.1673300862312317,-0.0589662343263626,-0.0285795591771602,-0.3752123713493347,0.9246198534965516,0.0,0.0,0.0,-0.374050946076287,-0.4445433377530391,0.4440265958303979,0.919671303,-0.0502427995622621,-0.1530209300372341,0.4122014958557722,-9.4127514509731,-1.9654828413103111,3.3875325269897107,-0.0881258054598075,-0.0972534118364426,-0.7667043315698459,-0.0137929033485271,0.0199978564736387,-0.0334458660071286,40.42124535939059,11.097399038070591,23.38844236973752,-0.0003504883610837
1626,1724915237888395716,-0.4568804800510406,0.1398813277482986,0.1670619845390319,-0.0603526644408702,-0.0283618364483118,-0.3735938966274261,0.9251923561096193,0.0,0.0,0.0,0.1831066165684931,-0.1907918370775592,0.5436221098403855,0.930299855,-0.2415379730787326,-0.0748866751967646,0.3318882523718862,1.378685162886915,0.6614904198602902,-1.9885839810184829,-0.0910435981473702,-0.0977305836041632,-0.7631027614718345,-0.0163323225211726,0.0149870688221813,-0.0266967153507113,39.947163481034586,33.56416147688478,-1.4686938684546682,-0.0002363037633427
1628,1724915237898630950,-0.4570487141609192,0.1399860382080078,0.1667742282152176,-0.0608345568180084,-0.0288136601448059,-0.3718221485614776,0.9258603453636168,0.0,0.0,0.0,0.4690288077381236,0.2482509513560301,0.421752864904628,0.940535089,-0.0364387581687429,-0.1340546187341665,0.3664133257175844,13.64440479284752,13.390224077718344,0.771909719949555,-0.0917969950449223,-0.0987545603604374,-0.7592241486336361,-0.0102984481058641,0.0158005287290929,-0.0220332980510669,-12.206104863685445,20.987674861629145,-14.095068924107713,-0.0002697441874248
1630,1724915237907784467,-0.4570927321910858,0.1401762664318084,0.1666223257780075,-0.0604803636670112,-0.0281606782227754,-0.3703649342060089,0.9264874458312988,0.0,0.0,0.0,0.0286992973736751,0.2610240150149689,0.2748202641939812,0.949688606,0.0361123074584154,0.1454494477927032,0.3521848693652826,3.8897815300658207,14.039348963053705,-0.4452636911568071,-0.0917698670414841,-0.0971333096456941,-0.7561210793943162,-0.0069915399459077,0.0194545068037959,-0.0184500485091358,-38.48539416045911,-10.268715580068877,-7.677273242078496,-0.0001249386500988
1632,1724915237919977551,-0.457213431596756,0.1403919160366058,0.16636723279953,-0.0603312738239765,-0.0277915950864553,-0.368318498134613,0.9273236989974976,0.0,0.0,0.0,-0.2843155944130578,-0.0536321382894351,0.317233437309073,0.96188169,0.0179840210552663,0.0487077429601444,0.3647707157492633,-20.91183188657234,-3.476199224329433,-2.9097834379118623,-0.0919746181195876,-0.0961338631381557,-0.7517260827745316,-0.0120432460829178,0.0203931300235478,-0.0169936273764328,16.484339165096326,-24.05188702563531,-10.912126886769949,-0.0002234402078097
1634,1724915237927892243,-0.4573197662830353,0.1405672281980514,0.1662529110908508,-0.0612098909914493,-0.0271924864500761,-0.3671759665012359,0.9277368783950806,0.0,0.0,0.0,0.0627298690612258,-0.2349830044682613,0.1569352171959973,0.969796382,-0.2473235595300399,0.044097535802911,0.3214885520267743,-19.52298473801757,-10.2668094798428,-5.52281427491946,-0.0941725497258267,-0.0955498719233959,-0.7492135146611797,-0.0136256705512316,0.0192976243952118,-0.0134666858352376,38.88449023411373,-15.342351324853844,-29.31250871775216,-8.929901464058802e-05
1636,1724915237938179814,-0.4574624896049499,0.1407276093959808,0.1661274433135986,-0.0628529116511344,-0.0275279618799686,-0.3658919334411621,0.9281244277954102,0.0,0.0,0.0,0.3963820269981395,-0.2915823313465582,-0.2657584215857587,0.980083953,-0.2609895833741887,-0.1910203523508958,0.2639470582654714,13.566827201471954,-5.038303157826112,-4.775788241643021,-0.0971370378782846,-0.0972466977201202,-0.7463094838133342,-0.0094680150335939,0.0155889157371245,-0.0157124488956679,-0.5931117582678596,27.287291362907524,-36.45223818507745,-0.0001016152631437
1638,1724915237947940850,-0.4575141072273254,0.1408797651529312,0.1659415066242218,-0.0629748329520225,-0.0278163291513919,-0.3648485839366913,0.9285181164741516,0.0,0.0,0.0,0.0847271313620187,0.2784436818000477,-0.5786380259727478,0.989844989,0.0093881194555418,-0.0751950585120413,0.2249017821377914,16.253884237007526,7.099785389939781,-3.833654368698363,-0.0972660688975323,-0.0977641494488598,-0.744042450688963,-0.0056707988025834,0.0133810830333205,-0.0187460725351815,-18.95975929441814,37.19311843911923,1.9133695855791828,-0.0001629973007751
1640,1724915237963304910,-0.4576104879379272,0.1410319805145263,0.1656608134508133,-0.0633653253316879,-0.0282649472355842,-0.3635998368263244,0.9289677739143372,0.0,0.0,0.0,0.1070547201178411,0.337073810528258,0.2722015602664998,1.005209049,-0.0176839863015813,-0.0813785459862253,0.1700268823255437,1.239326898254626,-4.190168358263401,41.35248111275551,-0.0978060653408473,-0.0987541304831251,-0.7413076676970709,-0.0117278059723417,0.0298627908327979,-0.0341137803245921,37.12090574732278,-94.72398731334332,134.55561220945344,-0.0002563216000688
1642,1724915237967902394,-0.4576719105243683,0.1411967277526855,0.1654821783304214,-0.0634979605674743,-0.028422949835658,-0.3626836836338043,0.9293119311332704,0.0,0.0,0.0,0.3267867164229655,-0.233983091103207,0.9997453881538326,1.009806533,-0.0078571167781697,-0.1058536509170699,0.4219478924780802,3.698225401919853,-0.7641943327237274,31.51993619969005,-0.0980384679416982,-0.0990487976087002,-0.7393197258663057,-0.0105459861694026,0.0304003954057368,-0.0311118004823987,30.635284133214945,-93.91322988040896,106.28047970060098,-0.0001536503799389
1644,1724915237979370698,-0.4577123522758484,0.1413899213075637,0.1653468906879425,-0.0630621463060379,-0.0284605789929628,-0.3620498776435852,0.9295876026153564,0.0,0.0,0.0,0.1872564284934145,-0.4442759387303283,0.7319400158543488,1.021274837,0.0792051007819165,0.0158146323655434,0.1175777195464789,-3.51881035068537,4.842765362403463,-12.431390760441548,-0.0972615217096666,-0.0987368396225767,-0.7379889728334129,-0.0048035390104956,0.0176781709167803,-0.0097258348251791,-19.31959258439001,17.054514138765434,-55.42242790350063,-0.0001070671485608
1646,1724915237989827422,-0.4577747583389282,0.1415827125310897,0.1652649343013763,-0.0633672997355461,-0.0282442979514598,-0.361469566822052,0.929799258708954,0.0,0.0,0.0,-0.0829624943043811,0.0714930713253394,-0.1533704541356376,1.031731561,-0.0635204486723444,0.0114757972165336,0.1221039779032716,-1.9253704741425215,-3.9903006034876944,7.780731941478761,-0.0980503002996882,-0.0984929224181778,-0.7367238021558746,-0.0058341601023563,0.0193734483800298,-0.0128731425166179,0.7245261048121314,15.455765464540123,13.598571913348778,-5.409388962894144e-05
1648,1724915237997993708,-0.4578215479850769,0.1417468935251236,0.165127694606781,-0.0634758844971656,-0.0283442363142967,-0.3605758547782898,0.9301357865333556,0.0,0.0,0.0,0.0923811264070804,-0.0182878633638161,0.5843547969088009,1.039897847,-0.0044745494762988,-0.0439122091098445,0.232505067509646,4.670538634698515,-5.2324353212398576,11.23410050521969,-0.0982771969336472,-0.0986637159336613,-0.7347897371441552,-0.0064121778771415,0.0193792835875061,-0.0131841968337242,23.26649896806553,-11.217338064729532,70.1302722879702,-0.0001128451334727
1650,1724915238007912425,-0.4578933715820312,0.1419303715229034,0.1650405526161193,-0.0636074244976043,-0.0286201108247041,-0.3590900301933288,0.9306930303573608,0.0,0.0,0.0,0.3447778850680305,-0.132238905131766,1.0365114429524818,1.049816564,0.0110114510576478,-0.0771370494639103,0.3164046941641405,-0.8331173380644905,9.397121730056073,1.8248528993291036,-0.0984853007686814,-0.0991168695079278,-0.7315757768819208,-0.0035302277047399,0.0189689654358593,0.0001105757427044,5.026603548561315,-20.108684336030773,-19.08088632289985,-6.025414617661004e-05
1652,1724915238018084122,-0.4578905701637268,0.1421282291412353,0.1651344746351242,-0.0634757205843925,-0.0277764331549406,-0.3578838407993316,0.9311919808387756,0.0,0.0,0.0,0.1829042593633767,-0.4266967526042521,0.1678756770181402,1.059988261,-0.022439145917418,0.1514114914265467,0.265767843617049,8.380216905819518,6.81280496336106,3.1509150851849324,-0.0989636465002423,-0.0973177923805252,-0.7290250457156514,0.0005423361504917,0.0166759858983081,0.0074840451684501,-24.03126962911363,-14.731937264958969,-62.897452297977345,0.000120326266988
1654,1724915238028139049,-0.4578824639320373,0.1422683149576187,0.1651923358440399,-0.0625803098082542,-0.0276745650917291,-0.3561079502105713,0.9319362044334412,0.0,0.0,0.0,-0.1394087723703957,-0.4335173961802889,-0.2409161354403947,1.070043188,0.1778054551278542,0.0642983710080769,0.3782494899704908,7.7876225006090545,-9.06697323794271,6.7917713581765735,-0.0975372393500439,-0.0963013298860534,-0.725286086833628,0.0002198061863083,0.0103850652929899,0.0036354748489202,-6.6339319952826115,22.636617545826446,-20.235948174566467,7.636352002989661e-05
1656,1724915238039232524,-0.457887202501297,0.1423401087522506,0.1652067303657531,-0.0621245130896568,-0.0279774572700262,-0.3540082275867462,0.9327571988105774,0.0,0.0,0.0,0.0981365996733207,0.1029599089873776,-0.2154777256966547,1.081136663,0.1157658478647517,-0.0412213453048251,0.3998027840461586,-15.1411729974636,-7.083705850355891,3.7994399380027097,-0.0966837411513442,-0.0963264230654275,-0.7208065947168908,-0.002640388795811,0.0079274855277624,0.0026988810298682,23.853813180468357,31.85660091414448,-15.79723956642613,2.404237754922364e-05
1658,1724915238048471655,-0.4579286277294159,0.1424245536327362,0.1652424484491348,-0.0627468675374984,-0.0280679874122142,-0.3520592451095581,0.9334502816200256,0.0,0.0,0.0,0.3373060079286807,0.2702998329599302,-0.5006311462340842,1.090375794,-0.0976005579341931,-0.0879844932550467,0.4491920737706685,3.944886220274108,11.35118861956424,-0.7937208657699166,-0.0979931061953588,-0.0967321561539688,-0.716577476297339,0.0010053581489337,0.0113756443743016,-0.000300345299113,-7.786649268293821,0.9713784375923762,-9.597431661464242,4.72819750998659e-05
1660,1724915238057960495,-0.4578655958175659,0.1425542831420898,0.1651989966630935,-0.0615969598293304,-0.0274981707334518,-0.3503937721252441,0.9341701865196228,0.0,0.0,0.0,-0.0647358130857255,0.1124757968649645,-0.3844538840008397,1.099864634,0.2033316393540779,0.1796709076919186,0.3818304488907449,9.578497204915282,11.132769276192455,-7.682830277268669,-0.0963940166605818,-0.0946837348086362,-0.7131210339670196,0.0036476687877353,0.0129375619864386,-0.0067660145113519,-32.84500164272313,-11.762267467614317,32.02738634449106,-2.614407146424958e-05
1662,1724915238068354068,-0.4578617811203003,0.1426803916692733,0.1651037782430648,-0.0612081736326217,-0.0270059537142515,-0.3489845991134643,0.9347373843193054,0.0,0.0,0.0,-0.2976751239738293,0.0456703982430645,0.1736553461567306,1.110258207,0.0508795264125256,0.1009929607817452,0.2953321547013262,-10.330089153320008,-6.393121911957745,-4.537924627391877,-0.0961437688750018,-0.0933438619415478,-0.7101534289772382,-0.0009323621352663,0.013513110325741,-0.0073812919161717,-9.550109271905816,-4.224017021371959,36.95641678583479,-7.758839510419437e-05
1664,1724915238077573609,-0.4578810036182403,0.1428162604570388,0.1650502830743789,-0.0611986778676509,-0.0266887173056602,-0.3477743268013,0.9351980686187744,0.0,0.0,0.0,-0.2805377401997789,0.0247478159563322,0.3774656088347283,1.119477748,-0.0088838200795122,0.0516748648445138,0.2844435574276313,-2.8992845841074764,-4.657507706348289,-5.347517840470901,-0.0964648088847878,-0.092617487086762,-0.707577816056618,-0.0025074427481932,0.0138548016594954,-0.003875966672953,-11.255240280149042,-2.3168026938761734,-6.337394823684489,-3.480243320026502e-05
1666,1724915238088645257,-0.4579143822193146,0.1429579257965088,0.1650329828262329,-0.0611713752150535,-0.0265957973897457,-0.3468970656394958,0.93552827835083,0.0,0.0,0.0,-0.5795139086347385,-0.0015336177701641,-0.0708826070489511,1.130549396,0.0066547637614771,0.0093065347579269,0.1698408971613051,-16.229355094115625,-18.59393363410565,-3.4098781376974525,-0.0965637906000966,-0.0923337250849592,-0.7057081092769557,-0.0070719591256782,0.0139650783010729,0.000266763291723,6.792835894880632,-5.339008335359246,-29.778856938464628,1.926424678813398e-06
1668,1724915238098683403,-0.4580222964286804,0.1431087553501129,0.1650523096323013,-0.0632277280092239,-0.0274469871073961,-0.3459092080593109,0.9357327222824096,0.0,0.0,0.0,-0.2037395868959112,-0.0821144391681439,-0.2722767335959161,1.140587542,-0.3167361776477598,-0.3117400481394395,0.1987840379840896,-11.83108494007855,-11.376298962847638,14.717705995688783,-0.0999589206278745,-0.0952521660025545,-0.7034051840627514,-0.0144113042774698,0.0138450763615276,-0.0044952852468576,57.55514886344402,-7.305086442343386,4.348481357299809,4.0677333044112786e-05
1670,1724915238108073907,-0.4581897854804992,0.1432283967733383,0.1649536937475204,-0.0647630766034126,-0.0279556438326835,-0.3439322412014007,0.9363412261009216,0.0,0.0,0.0,0.5134838815364551,-0.144367081019536,-0.0169971119354709,1.149978046,-0.2487599764366635,-0.2375496533274301,0.4409516545162082,13.35967013948492,17.556784129542926,12.636042120228725,-0.1027140083774946,-0.0970525516025998,-0.699039875622356,-0.0116914472178528,0.0124576509271872,-0.0052765614722698,36.28047473943437,-9.731204452839808,11.942371698062871,-7.951658817727681e-05
1672,1724915238118445162,-0.458240658044815,0.1433543562889099,0.1649588197469711,-0.0649203211069107,-0.0274748187512159,-0.3419098556041717,0.9370849132537842,0.0,0.0,0.0,0.4304688093440715,-0.2808222390889219,-0.0677339454714804,1.160349301,-0.0400925827394563,0.0551426479495731,0.4213485411193308,16.863848759730626,13.719291218144829,3.654344465263609,-0.1035450658739222,-0.0960338153466493,-0.694731956643053,-0.0038019590614197,0.0109991062823473,-0.0046945428076359,-23.598344212796963,-18.36122542887135,12.869729311687474,2.3128394412510023e-05
1674,1724915238129295386,-0.4582693874835968,0.1434606909751892,0.1648489832878112,-0.06438659876585,-0.0272864494472742,-0.339242935180664,0.938096046447754,0.0,0.0,0.0,-0.0025909099221226,-0.5391198306637326,0.2735251636337127,1.171199525,0.1059248323458918,0.0393809993942304,0.5239361637471786,11.849973306378116,-1.3036133629568345,3.1488633842296423,-0.1029333708097875,-0.0950229530877888,-0.6890958253799178,-0.0028799151511265,0.0063607944762988,-0.0068353584858851,-22.73159227791924,-15.068164190123971,32.70439669701961,-9.373245494595929e-05
1676,1724915238138424496,-0.458297461271286,0.1434923410415649,0.164811834692955,-0.0635409578680992,-0.0273280162364244,-0.3370659947395324,0.9389368295669556,0.0,0.0,0.0,-0.0781433303124177,-0.609565389857403,0.5817083788971714,1.180328635,0.2017567458588419,0.0286249711208173,0.5042458843422926,0.6895256550368325,-1.6746677091269309,-5.083617869366879,-0.1015237390332244,-0.0942932222502118,-0.6845227227072075,-0.0035761948963433,0.0005816449830629,-0.0007218586117989,-14.31419711181943,4.299703606988764,12.780201894032375,-3.219534565756042e-05
1678,1724915238148065152,-0.4583370387554168,0.1434685736894607,0.1648389548063278,-0.0630934908986091,-0.0273404102772474,-0.3351276814937591,0.9396601915359496,0.0,0.0,0.0,-0.2776157627108168,-0.4457771924787658,0.4913427184902434,1.189969291,0.1085515748336665,0.0074257281116581,0.4254396176974893,-9.24176721462176,-0.9474000765743318,-9.933179104320688,-0.1008614583574884,-0.0938076630968661,-0.680431332615714,-0.0043486171714981,-0.0050559090370976,0.0039906564678107,0.9203588632105776,35.361215454470255,-3.881602089569263,2.3969812263239342e-05
1680,1724915238159818520,-0.4583916366100311,0.1433720290660858,0.1649027317762375,-0.0630776062607765,-0.0271686017513275,-0.3335660696029663,0.9402217268943788,0.0,0.0,0.0,0.042868744187984,0.233088397430935,0.5244130955095709,1.201722659,0.0060361769818252,0.0142240208402134,0.2834891714962579,-22.63741103106028,-2.1997470290036354,-1.5497005709364622,-0.1010999790136086,-0.0933054435260263,-0.6771187256239088,-0.0104414493093614,-0.0083036728160355,0.0098017816323352,51.77691023272379,27.89763449162937,-44.1434084157358,5.046571415885228e-05
1682,1724915238168004734,-0.458510160446167,0.1433035433292389,0.1650079190731048,-0.0641363710165023,-0.0268055703490972,-0.3323161005973816,0.9406030774116516,0.0,0.0,0.0,0.6064709726264,0.2912026936350174,-0.1046892870634866,1.209908873,-0.2586186965299749,-0.0196237915893073,0.3308288593554673,-9.536618746863915,3.08099760773947,-1.2200262171233316,-0.1034705710868744,-0.0931887200943573,-0.6743964247561675,-0.0068903895755276,-0.0034910353861281,0.0142657387810913,21.191836786796152,-22.37222286948127,-75.1051193220476,9.561202385799538e-05
1684,1724915238178213018,-0.4584839046001434,0.1433299630880355,0.1651715785264969,-0.0643078312277793,-0.0261210780590772,-0.3312582373619079,0.9409837126731871,0.0,0.0,0.0,0.2161521703587703,-0.312343351427732,-0.8491843455196402,1.220117157,-0.0658239169982349,0.1036828916522236,0.229229041993085,38.23548395497786,-2.2301904322852675,1.7574755762245502,-0.1043483330384759,-0.0918932913354294,-0.6721692776127565,0.0014988958638113,-0.0042952012847772,0.0049227688894859,-44.35937843021293,-24.908202464014263,-4.006982419187337,0.0001655650808536
1686,1724915238188367572,-0.4584795236587524,0.1432168185710907,0.1651093512773513,-0.0619884580373764,-0.0271760746836662,-0.3294214904308319,0.94175386428833,0.0,0.0,0.0,-0.2961555235651312,-0.2196660617100079,-0.1936698484171534,1.230271711,0.5178904574463616,-0.0635031705028919,0.3653609877782855,17.137750151665642,-3.641195854576372,3.4571671467365412,-0.0994360160002196,-0.0921574003797539,-0.6683967567472296,-0.0024240050740083,-0.0098261993373673,-0.0030331435094002,-19.32117463312565,7.598773249603491,54.76489214608082,-7.693853140608293e-05
1688,1724915238198057212,-0.4585294127464294,0.1431337743997573,0.1651085764169693,-0.060578566044569,-0.0274898409843444,-0.3279856145381927,0.9423375129699708,0.0,0.0,0.0,-0.1955437618629321,-0.1601636594489064,0.2464743878815131,1.239961351,0.3109163079695904,0.0197760996514845,0.3068726742933697,-21.643033368112615,4.013364964166601,-5.739228715691409,-0.0966943869783883,-0.0916755724349686,-0.6654438763098122,-0.0044599894870884,-0.0089495875899636,0.0005436772645497,3.762911401709242,5.17861585103933,47.845661877797795,-1.114448643113849e-05
1690,1724915238210446407,-0.4585737586021423,0.1430168896913528,0.1651251912117004,-0.0604021288454532,-0.0274953246116638,-0.3265738487243652,0.9428389072418212,0.0,0.0,0.0,-0.2537990767820186,-0.1112470211042384,0.8776014931267884,1.252350546,0.0382986797814285,-0.0030733335522788,0.2404720522116001,-6.961934214615387,-4.100101895376514,8.226675581377432,-0.0964924855439226,-0.0914261496928029,-0.6624624040266585,-0.0066517237389334,-0.0149041207722468,0.0016541898643502,7.980560219920964,33.84362063184046,33.099630869409346,1.6060198648386554e-06
1692,1724915238220400045,-0.4586645364761352,0.1428247988224029,0.1651441603899002,-0.0601426027715206,-0.0278013925999403,-0.3245198130607605,0.9435555338859558,0.0,0.0,0.0,-0.0729417012906202,0.4646891828108535,1.0643820549182244,1.262304184,0.0892954381258397,-0.0619236149436379,0.4310048949079574,-6.116956520890122,12.215959839389752,7.110435033948889,-0.0960010507663908,-0.0916274051715677,-0.6581148281205178,-0.0097928452974187,-0.0130575771408469,0.0166907865748555,19.200081036452897,16.83217151715084,-46.28522154643959,-5.24591065873687e-06
1694,1724915238227767497,-0.4587403535842895,0.1427626311779022,0.1653477549552917,-0.0600928887724876,-0.0272471942007541,-0.3230971395969391,0.9440629482269288,0.0,0.0,0.0,0.0741313540137645,0.3649554924903831,0.3686446277840769,1.269671636,-0.0170672084037621,0.1269349795266011,0.4177797812737245,-10.097392077235185,14.416840663803685,-3.165888882265026,-0.0963982085775872,-0.0904008944833364,-0.6551285348189695,-0.0090071064955061,-0.0081116014379416,0.0220989011629679,7.060307522231069,-37.800204334437446,-69.96126106738346,0.0001946299238471
1696,1724915238239324723,-0.458821177482605,0.1426748037338256,0.1655028015375137,-0.0602810196578502,-0.026528526097536,-0.3211924135684967,0.9447211027145386,0.0,0.0,0.0,-0.0781842923451583,-0.5117926851454309,0.0037678843499115,1.281228862,-0.0550924871317802,0.0901869966303305,0.3563384472182417,9.781186451621132,2.9936887466493483,-5.982484116730472,-0.0973944473139212,-0.0889650392409383,-0.651114220396033,-0.0087399061145063,-0.0094481580212839,0.0197346419701975,-8.306615853473348,-42.86155669660841,-5.922847133168395,0.0001431229264364
1698,1724915238247982255,-0.4589081704616546,0.1425810158252716,0.1657146364450454,-0.0596306547522544,-0.0259706210345029,-0.3199918866157532,0.9451851844787598,0.0,0.0,0.0,-0.1184982183238598,-0.6688513980532611,0.1188303466992585,1.289886394,0.1143610233475618,0.156141352164252,0.3002242561225469,10.056853046438746,-1.0340013295527468,-6.658040645587491,-0.0966214698377452,-0.087367850005537,-0.6486486138063545,-0.0100737832077584,-0.0164481710897348,0.0211184089179603,-21.031176030912917,-11.422710523607904,55.18976153853408,0.0001988626423731
1700,1724915238258405439,-0.4590134918689728,0.1423391103744506,0.1658927202224731,-0.0591087378561496,-0.0258847139775753,-0.3188633918762207,0.945601522922516,0.0,0.0,0.0,-0.5431945163957538,-0.7036015511336582,1.2198749707180516,1.300309578,0.0997685159788176,0.0367885547129259,0.2286114532351685,-2.194821413795591,-4.254981163324329,-3.9191135516510727,-0.0957853547159346,-0.0867572686922789,-0.6463046278721842,-0.0108625079916429,-0.0216667141824897,0.0218424489847883,-19.90213823527928,-0.4866108697484357,114.8264638203573,0.0001467514381485
1702,1724915238270718797,-0.4591582715511322,0.1420947462320327,0.1662308722734451,-0.0586132258176803,-0.0254050120711326,-0.3175857961177826,0.9460753202438354,0.0,0.0,0.0,-0.4850649855830364,-0.6681754180064043,2.767487886459089,1.312622936,0.0611812510728849,0.0890666117166285,0.2232862071654259,3.376329548592743,1.7217398442241647,20.45309964257119,-0.0952591753555734,-0.0854033461559839,-0.6436627032766076,-0.0243518060568064,-0.0332823609299914,0.0535974263454619,72.48247041056165,52.172194948374226,-71.70005396663842,0.0003059172003762
1704,1724915238277816113,-0.4593826234340668,0.1418035626411438,0.1667181849479675,-0.0581762827932834,-0.0251311548054218,-0.3160703480243683,0.9466169476509094,0.0,0.0,0.0,0.3065674967784787,-0.0962346412250485,1.451137774080852,1.319720252,0.1117758715005617,0.0909614981551201,0.4538877306610906,1.6760747461818857,1.7864173964536514,8.665409323872208,-0.0947336646773566,-0.0844551125570249,-0.6405056934130957,-0.0252972729060481,-0.0368989726811816,0.0740106245926268,48.192939673040726,6.16324528052418,-203.03698181633683,0.0004491251149481
1706,1724915238288245023,-0.4595496952533722,0.1414820104837417,0.1675720065832138,-0.0577551499009132,-0.0244962181895971,-0.3152201771736145,0.9469427466392516,0.0,0.0,0.0,-0.1615842203601003,-1.1724357217952306,-0.9354966619178922,1.330149162,0.0456972867413115,0.1328762653153877,0.1791397627479383,-4.819177906732121,0.262899903479671,-15.22078704491355,-0.0944020994433568,-0.0828991276178695,-0.6387705195779262,-0.0153607063418501,-0.0315684055111153,0.0673063956286119,-46.65534813067559,-73.32287716024476,-121.82841017132044,0.0008086307498406
1708,1724915238301556310,-0.4597429633140564,0.1410492956638336,0.1682204902172088,-0.0575837343931198,-0.0239906385540962,-0.3142033815383911,0.9473040103912354,0.0,0.0,0.0,-0.8126240968286571,-1.6409378645591062,-0.7388953611796119,1.343460449,0.0073207435723875,0.0725569220744317,0.1655325546584914,4.445446178539875,-23.55637667319667,50.914463508167415,-0.0944781176942893,-0.0817298233017437,-0.6366608462092803,-0.0364451669549055,-0.075779391536674,0.0498815818288775,96.1691275535064,185.8008895371299,135.6428528430669,0.0005914954129326
1710,1724915238308084107,-0.4600510597229004,0.1404161006212234,0.1685498356819152,-0.0575964488089084,-0.0243664924055337,-0.312117725610733,0.947982907295227,0.0,0.0,0.0,0.2795725550626956,0.2793880999245548,0.5334937432264066,1.349988246,0.0597995833902291,-0.1421169990296397,0.6641517455640126,8.234424445589228,-14.289089307379523,36.53365391103027,-0.0944496147931449,-0.08224446950608,-0.632242409266789,-0.0392806297572274,-0.0811118701257642,0.0468833252172995,128.65848858350273,218.81871745349267,177.80588829461715,0.0002511488678627
1712,1724915238319463892,-0.4603410065174103,0.139808252453804,0.1690125465393066,-0.0566735528409481,-0.0242047850042581,-0.3105556964874267,0.9485554695129396,0.0,0.0,0.0,0.976809461111595,1.274533489800031,2.2174015862721257,1.361368031,0.1573767127885337,0.0642071964239276,0.2893393436202726,28.034298969956772,7.581250158795119,-25.743407574764788,-0.0929216077657067,-0.0812089831691363,-0.629021794204157,-0.0219358945631498,-0.056184390048946,0.0726496941770271,-3.1306302746956405,-8.584722234639116,-20.32815140442699,0.000387812417627
1714,1724915238327802212,-0.4605022668838501,0.1393228471279144,0.1698137670755386,-0.0545868575572967,-0.024588044732809,-0.3100492060184479,0.9488336443901062,0.0,0.0,0.0,0.5572352118232297,0.6162127234736896,1.0196181831142042,1.369706351,0.5100294466891564,0.0629672509926898,0.1186316658851663,-1.85169328621342,2.7829373538988813,-11.271960531862746,-0.0887448269863581,-0.0805963795484696,-0.6280812379786684,-0.0171351822678751,-0.0511532762065343,0.0908530323491838,-38.33920506801733,-87.77975722357036,-164.73627442606988,0.0007398597729809
1716,1724915238338670528,-0.4606572687625885,0.1388669162988662,0.1707270145416259,-0.0550750717520713,-0.0236275549978017,-0.3094549775123596,0.9490237832069396,0.0,0.0,0.0,0.3102550450457529,-0.4628697157887846,-1.0695226186849922,1.380574667,-0.1354475036977281,0.1347426090895546,0.1264613095598315,-31.63480046367107,3.5292547472758837,-2.8503187581539393,-0.0903159185239164,-0.0790149275392435,-0.6268392786794507,-0.0113411254421436,-0.0442741889934588,0.0854528120851405,-11.342044546845113,-73.44488185180029,-121.11790943876036,0.0008540273355132
1718,1724915238348858287,-0.4607449173927307,0.1383936703205108,0.1716111898422241,-0.0557912774384021,-0.0226228218525648,-0.3092114627361297,0.9490858316421508,0.0,0.0,0.0,0.3034081413324763,-0.964321007056756,-1.6244016230348015,1.390762426,-0.1926714053741726,0.1413336721236424,0.0633231411611943,3.2621496580205145,-4.911344479258275,10.687373569966232,-0.0923189015752467,-0.0775222285682868,-0.6263266107810677,-0.0103085888979066,-0.0594546605416379,0.0690881158250587,21.139232273338585,34.2179362176704,49.48787762136364,0.0008217673311395
1720,1724915238358001159,-0.4608531594276428,0.1377433985471725,0.172097623348236,-0.0561408065259456,-0.0221986789256334,-0.3079336285591125,0.9494906067848206,0.0,0.0,0.0,0.6756464941272456,0.0331580182394555,-0.3189889755358188,1.399905298,-0.089991814902659,0.0508231542487737,0.2995790024248493,28.327253905116734,3.5110341028697993,5.87458241157966,-0.0933492173573854,-0.0768056506408508,-0.6236344561379696,-0.0058766551638775,-0.0639574758332699,0.0540879728619705,30.93750008944403,70.72582839946041,138.8982524956486,0.0004054924084865
1722,1724915238369182920,-0.4608373343944549,0.1371262371540069,0.1727145165205001,-0.0532362908124923,-0.0215107854455709,-0.3074712753295898,0.9498234391212464,0.0,0.0,0.0,0.8878921644824205,0.2992303504907192,1.181063811258093,1.411087059,0.460559648610318,0.2734771411418295,0.0922274766064271,15.827335764407891,3.6643862463010457,5.150408990073924,-0.0882558381161786,-0.073666767849479,-0.6228825210644274,0.0042889446308223,-0.0563982382038439,0.0685950986929775,12.273919631226882,-23.555224351795474,10.14837653797882,0.0005421196426574
1724,1724915238377978749,-0.4607797265052795,0.1366218328475952,0.1734107583761215,-0.0514635071158409,-0.0211311858147382,-0.3062215745449066,0.950333297252655,0.0,0.0,0.0,0.9494422851116028,-0.2355750331007717,0.4123478288283184,1.419882888,0.3686157441605522,0.1932895024243856,0.3014693290833353,-2.937540633502312,-4.431361227115952,6.588387418766648,-0.0851952379392096,-0.0717433406120816,-0.6203815143199264,0.0119517938398523,-0.0563733557404377,0.0781786601299678,-9.14763258659332,-54.77310738446468,-83.53204441831349,0.0006355679630805
1726,1724915238388378954,-0.4605889916419983,0.1360474973917007,0.1742118149995803,-0.0490272119641304,-0.0207620300352573,-0.3054448962211609,0.9507201313972472,0.0,0.0,0.0,0.6557629197889736,-0.7310860044491689,-0.4088926327951938,1.430283093,0.4304855368314289,0.2048172781738317,0.1584731221526025,-1.287250173414435,-10.386628177769335,-7.560911358279967,-0.0808217773627819,-0.06948388116754,-0.6189120107427943,0.0227884586834221,-0.0617550904469474,0.0741393642743375,-55.56849127752667,-45.31169681813128,-63.36497562403436,0.0007338724756374
1728,1724915238398290510,-0.4603210985660553,0.1353737115859985,0.1749194115400314,-0.047405794262886,-0.0212879702448844,-0.3047378063201904,0.9510176181793212,0.0,0.0,0.0,-0.1531689249484165,-1.15816152810366,-0.8895930481583414,1.440194649,0.3493751681386492,-0.0067110352126524,0.141988022402804,2.2222735107718528,2.9651132011262575,-5.0420859778641365,-0.0774568983542099,-0.0694389346103131,-0.6175004569687157,0.0256400626619424,-0.0710191323913793,0.0698929008097959,-70.16358148056953,-19.04666383010155,-60.662906829847074,0.0006311722520749
1730,1724915238407977430,-0.4600858688354492,0.1346569806337356,0.1755822747945785,-0.0448775589466095,-0.0208053309470415,-0.3044645488262176,0.9512383937835692,0.0,0.0,0.0,-0.7244228576552186,-1.1150505760169929,-1.5923901758224706,1.449881569,0.4694167037794645,0.2521324085615631,0.061156748577876,6.927037805593056,12.353963495122096,3.0331615058820587,-0.0729374969808098,-0.0669589344948162,-0.6170921753698283,0.0199824089227469,-0.0843540210592044,0.0569095335712148,-32.23537565677415,54.244579505412574,-45.38532312190371,0.0005864631225039
1732,1724915238418144361,-0.4599286019802093,0.1336887627840042,0.1760379523038864,-0.0422241203486919,-0.0204165931791067,-0.3034316301345825,0.9516983032226562,0.0,0.0,0.0,-0.7668618884095687,-0.0322098586171772,-1.7639405461827766,1.4600485,0.4815269482883356,0.2244283892831214,0.213401265520628,-4.391385750753944,4.709451730322316,4.756095578255003,-0.0681737451924956,-0.0645299171332887,-0.6150845303216584,0.0111193801051996,-0.0928998787734904,0.0380298140771095,20.384489321245567,49.25245661708363,2.688942922866289,0.0003617798727383
1734,1724915238428101736,-0.4598602950572967,0.1327864676713943,0.1763504147529602,-0.0399044975638389,-0.019332680851221,-0.3027004599571228,0.952053725719452,0.0,0.0,0.0,-0.3243859319730546,-0.1001306504033898,-1.54639137007301,1.470005875,0.3833587045230543,0.3438231351438633,0.1611083834238253,-11.74676994974182,1.9409012139817845,-4.824504756828628,-0.0644428284386201,-0.0610075583877134,-0.6137078915330977,0.0045063385203789,-0.0853375175139801,0.0213728649406297,34.517954435248264,-52.38797860371878,40.629455144098046,0.0002312503871884
1736,1724915238439398759,-0.4598395526409149,0.131890058517456,0.1764636039733886,-0.0382937155663967,-0.0184203721582889,-0.3021258413791656,0.9523205161094666,0.0,0.0,0.0,-0.0615673782987544,-1.2759845037507542,-0.8466799314354276,1.481302898,0.2264578544383694,0.2369437062222056,0.112080822977606,6.489403063933096,-11.09160736144191,2.8420922421931287,-0.0619498838291963,-0.0582561845956729,-0.6126114092592424,0.0051962751253533,-0.0974861589199953,0.0055237381302131,-12.818497521602094,-37.9020026311714,99.0588980529652,3.7174851934358935e-05
1738,1724915238448461822,-0.4597680270671844,0.1308746635913849,0.1764809787273407,-0.0362684577703475,-0.0184432156383991,-0.3012903332710266,0.9526639580726624,0.0,0.0,0.0,-0.440096106561085,-1.1382831400301925,0.3210003799005858,1.490365961,0.433438053863689,0.1245627487755855,0.1900579176824453,22.849191740728717,-3.9130519025877857,-3.2011774382468197,-0.0581169081801142,-0.0570259477231714,-0.610956947787796,0.0037465888314685,-0.1105090233906089,0.0018947679042025,-44.10022375785271,27.92681998539606,122.22283320532529,-6.508480557907888e-05
1740,1724915238459027253,-0.4597795009613037,0.1297259032726287,0.1765007227659225,-0.0325734429061412,-0.0185704641044139,-0.3012039363384247,0.9528222680091858,0.0,0.0,0.0,-0.9347831071895568,-0.6863922679633987,1.5308411024360926,1.500931392,0.674990222909373,0.1877506924954058,0.0108356082718285,2.291728589603313,12.021300039074704,-10.195594161338068,-0.0509856689670105,-0.0550389858647267,-0.6109507500489493,-0.0043536649885638,-0.1188572552877476,0.0141718139479376,5.132061101465613,69.7619021768695,25.167969362511226,-6.42892149195147e-05
1742,1724915238468175691,-0.4598452150821686,0.1285583078861236,0.1767278313636779,-0.0297716706991195,-0.0178028680384159,-0.3013345301151275,0.9528872966766356,0.0,0.0,0.0,-0.4762850820002148,0.1656306151798308,1.0533721145439596,1.51007983,0.5330048720201098,0.3455778884792446,-0.0288295622626824,-29.777422223566106,-10.588898090038596,2.272429060930613,-0.0460871894631309,-0.0518940069180699,-0.6113681785758547,-0.0142371348652012,-0.1243147894780163,0.0310983772207844,81.37187800288721,71.5011644946234,-63.713145604796665,0.0001488379879199
1744,1724915238477851963,-0.4600551724433899,0.1273893117904663,0.1770929545164108,-0.0293816775083541,-0.0181311760097742,-0.3010396957397461,0.952986478805542,0.0,0.0,0.0,0.6309648328995413,0.6361014336348472,0.3189454942108778,1.519756102,0.0989537707729131,-0.0418206652313122,0.0607906964608164,-7.553212680550921,-23.124446170977947,6.871269420612183,-0.0451612873133377,-0.0522714339918206,-0.6107613737926294,-0.0126635105487125,-0.114911481695044,0.0331357714013362,70.97503348185424,-6.709932803651032,-57.675383442517344,0.0002895683062252
1746,1724915238489670057,-0.4600744247436523,0.1261164247989654,0.1774181872606277,-0.0264326557517051,-0.0194873269647359,-0.3003616631031036,0.9532599449157716,0.0,0.0,0.0,0.8425340891399418,-0.2418452611440447,-0.0996170426395539,1.531574196,0.5481360281589057,-0.0710071158748454,0.1074902377642483,-3.069907118813413,10.74073705209351,-11.615661787130314,-0.0387521076560918,-0.053056578220482,-0.6094551196980437,0.0015532793326364,-0.1122393102615371,0.0384695979881701,-22.794334408226643,-21.18396244264851,-70.35719524625682,0.0002458934369218
1748,1724915238498665665,-0.4600386619567871,0.1250757277011871,0.1778392195701599,-0.0252409428358078,-0.0193252023309469,-0.3007983863353729,0.9531577825546264,0.0,0.0,0.0,0.3588278655974489,-0.06879103115938,-0.9717649830365056,1.540569804,0.2392512374895763,0.1160665685649657,-0.1035915161361123,-12.504644593333476,11.56359084014368,-5.534405217887603,-0.0365488430913019,-0.0520483005984057,-0.610426915713589,0.0066644187274462,-0.1176190327357513,0.0338010519720812,-26.039049823024243,-87.14510999327628,-60.45637303482556,0.0003572323443293
1750,1724915238509099283,-0.4599365890026092,0.1238251850008964,0.1780345290899276,-0.0231956932693719,-0.0192816313356161,-0.3004998862743377,0.9533048272132874,0.0,0.0,0.0,0.4227492224216035,-2.2654210232359,-1.1608839757280267,1.551003422,0.3729903809641501,0.1249892505808581,0.0556515225355298,4.46598756718473,5.353228946012043,12.421160530120249,-0.0326847284915424,-0.0507249006979741,-0.6098911015070438,0.0078747959851508,-0.1119320783681532,0.0181826553842094,-44.74242282984352,-135.08857339528996,-22.027337701776226,0.0001228275975967
1752,1724915238523517617,-0.4598610699176788,0.1223692148923873,0.178286001086235,-0.0207259692251682,-0.0178333781659603,-0.2992853224277496,0.9537718892097472,0.0,0.0,0.0,-1.2359176401257983,-2.7099363536175325,-1.5562165519706566,1.565421756,0.2709678579476957,0.2917967636007179,0.178130785777207,203.8260770828182,144.62916318058635,-43.825162559632744,-0.0288963290425159,-0.0464405978313259,-0.6074506227883184,0.0200819219862395,-0.2005941226528644,0.0081403132643806,-146.66458312713016,552.4367940306292,-21.52809325917542,0.000176359285372
1754,1724915238529291194,-0.4597108066082001,0.1209807693958282,0.1783114969730377,-0.0141473431140184,-0.0155672393739223,-0.2998034656047821,0.953769028186798,0.0,0.0,0.0,-2.15581368502644,1.8280722113734305,-1.6668918840407223,1.571195333,1.9353641718820929,1.434449981887489,-0.1958570443952398,105.9437820535898,71.13515916866886,-31.483202740687194,-0.0176661683967208,-0.0381872270294702,-0.6087750061034348,0.0081315290138093,-0.2082886768215699,-0.0028322324687861,-56.302385532883626,561.0451515582008,9.358716135124382,-2.814357920903836e-05
1756,1724915238538989744,-0.4599234759807586,0.1194851696491241,0.1781659424304962,-0.0141002964228391,-0.015280557796359,-0.2996175587177276,0.9538328647613524,0.0,0.0,0.0,-1.023384010549658,3.6045455395276775,-1.1113538926194777,1.580893883,-0.0076875983765727,0.0589565329685104,0.0411966846223188,-98.63420538674714,-77.52497564223448,15.678652557377069,-0.0177554928329788,-0.037608454132039,-0.6083854621503325,-0.0141773676851784,-0.1390641024137568,-0.0151931612622124,84.57579391275381,-51.96607207217637,57.03724507364936,-0.0001949505613314
1758,1724915238550650886,-0.4599801301956177,0.1180758625268936,0.1779861748218536,-0.012519116513431,-0.0154267149046063,-0.2990353107452392,0.9540352821350098,0.0,0.0,0.0,-0.4884236481075987,-0.2982389457682242,-0.4496454137899943,1.592555025,0.2681939414546639,0.0564649658599633,0.1011552524434849,38.72013789553905,12.593829728436567,-9.646903221834709,-0.0146716228847145,-0.0369309708383906,-0.6072159054808032,-0.0082086845062363,-0.1465678223105939,-0.0258651810303938,-21.204229894541218,-90.81402064508153,100.93853761805104,-0.0002250495165244
1760,1724915238558684640,-0.4600646197795868,0.1167560592293739,0.1777205467224121,-0.0097016133368015,-0.0153497466817498,-0.2992275357246399,0.954008936882019,0.0,0.0,0.0,-1.0300408409968156,0.3219303498070909,0.6058704382888567,1.600588779,0.6626257170299465,0.228526640064998,-0.0581966581176412,18.882224356627543,8.058598850401486,-3.6148992366796016,-0.0093306005688693,-0.0351007780229474,-0.6077056211727995,-0.0176687642402804,-0.1470529827484528,-0.0269009276619964,5.396325411623956,84.31514416573157,117.17615413960128,-0.0003000235462412
1762,1724915238569677475,-0.460366427898407,0.1153986901044845,0.1775175333023071,-0.0073429974727332,-0.0154164535924792,-0.2984319031238556,0.9542781710624696,0.0,0.0,0.0,0.1245367589274781,1.3558860240035369,1.6802393903433388,1.611581614,0.4157118563674896,0.1161734130195849,0.1460499627774212,33.136579566521654,37.6218552157678,2.964023308370154,-0.0048157724494596,-0.033812382150414,-0.6061083052101477,-0.0267731504512198,-0.1377632511890958,-0.0091880299555953,51.83884414599123,28.385688810197095,-19.81463256424327,-0.0002268503779878
1764,1724915238577684799,-0.4605768322944641,0.1142122521996498,0.1774980872869491,-0.0026746380608528,-0.0139541989192366,-0.2980860471725464,0.954433262348175,0.0,0.0,0.0,0.2293822979077125,1.2001410078369692,0.8359610123563725,1.619588938,1.0053298064587033,0.6964714896500946,0.0787016382405122,30.865999172985006,31.585311996303968,-12.21208092297762,0.0032148638541061,-0.0282349991823549,-0.6054822797746566,-0.020218910928806,-0.1239268357948448,0.0046682141149467,-25.302708069835205,-74.62109816010692,-110.78861613406652,-3.009667497392319e-05
1766,1724915238590450045,-0.460711658000946,0.113123632967472,0.1777020990848541,0.0010707862675189,-0.013332805596292,-0.2989826798439026,0.9541648030281068,0.0,0.0,0.0,-0.874991808663824,-0.8751579609403155,-0.687164145762593,1.632354184,0.5289829994754823,0.2676312266231366,-0.1545449914680806,-26.31502591146768,-45.0781778703125,24.045484199293433,0.0100192189603839,-0.0248056383769671,-0.607433125741876,-0.0292801380657152,-0.1193482222233317,-0.0028635882497543,45.16906302319803,9.077334618646116,30.3156446920469,0.0002010009701317
1768,1724915238598369189,-0.4610354900360107,0.1120111271739006,0.1775868386030197,0.0023007544223219,-0.0143280457705259,-0.2980420291423797,0.9544425010681152,0.0,0.0,0.0,0.1296390086947774,0.0400126729540888,0.2880275364470213,1.640273328,0.3746354540917268,-0.1457668252862339,0.2437711597970015,-12.495232809981164,-14.293162697975578,26.914829889311935,0.0129373225919209,-0.0259820718272235,-0.6055154825931416,-0.0370206998532651,-0.1323402886843068,-0.0087825678794484,120.65211698527432,87.85714410241744,98.86876823660192,-0.0001105264353568
1770,1724915238607992531,-0.4613464772701263,0.1108327955007553,0.1775698214769363,0.0040583559311926,-0.0140778589993715,-0.2969632148742676,0.9547765851020812,0.0,0.0,0.0,1.218106729427703,0.5614762505262991,0.955599076495441,1.64989667,0.3361934059832921,0.1600061321213317,0.2293337716661347,-10.860760777051675,23.845473813825755,-12.99897396743172,0.0161163830461671,-0.0244744987351266,-0.6032856859806507,-0.0228265352793251,-0.1123017926831639,0.0060981144545708,29.74985043708345,-3.4108947323830456,-31.946882752764974,-8.620765892172027e-06
1772,1724915238620618473,-0.4614774882793426,0.1095829084515571,0.1777771264314651,0.0052019469439983,-0.0122470939531922,-0.2977014780044555,0.9545663595199584,0.0,0.0,0.0,0.2128822914153951,-0.4357271879270641,-1.1261145940123456,1.662522612,0.0853265529263616,0.3297370448752327,-0.1252714172579916,26.15580252168218,24.74198229913136,-25.275356266930263,0.0172275594740087,-0.0202854644081037,-0.6047981206565963,-0.01170187157593,-0.1304053389150876,0.0083780749774611,-58.81136954236309,78.00696641920365,-99.64431049555456,0.0002139992988417
1774,1724915238627947587,-0.4615688920021057,0.1084935143589973,0.1778043210506439,0.0074793230742216,-0.0108012640848755,-0.2987127006053924,0.9542526006698608,0.0,0.0,0.0,-0.129642411342534,0.8038836129828217,-1.5788972510158923,1.669851726,0.4728343894866917,0.5591442112619328,-0.2985621235937221,37.95690274084182,16.176159277273765,-3.966870181871504,0.0207314637660862,-0.0161466326976676,-0.6069083591985615,-0.0129844858113052,-0.1293524653557294,-0.0054345487317162,-14.691284115013366,107.3989399515476,-4.482428795278167,3.799843717614143e-05
1776,1724915238638874035,-0.4617191255092621,0.1073943227529525,0.1775959730148315,0.0116398837417364,-0.0093002235516905,-0.2987631857395172,0.9542109966278076,0.0,0.0,0.0,0.2318054743800425,0.9717233759582786,-0.6945503603731735,1.680778174,0.6446032292727799,0.4895199564679768,-0.0213736994671607,-4.093497467861567,-15.089513625051856,10.797399776874808,0.0277761282624803,-0.0107938232623601,-0.6070122029662743,-0.0136621236570917,-0.1098141307232891,-0.0177061665704094,17.089989974776117,-35.605852215092014,9.082124085876217,-0.0001862353010734
1778,1724915238648533293,-0.4618503451347351,0.1062549129128456,0.1774365752935409,0.0140390349552035,-0.0086855925619602,-0.2989188134670257,0.9541357755661012,0.0,0.0,0.0,0.2603421541434271,0.1925908908996003,-1.2203892127081446,1.690437432,0.4358710678757612,0.2693280679593207,-0.0415025354707405,-21.96516189225735,-8.155345005307385,0.148387768161734,0.0319893911258537,-0.008181497122348,-0.6073352054945711,-0.0089140862805585,-0.1073996566950867,-0.0207555125741283,-22.269874884681332,-32.472353909561846,-62.847200266438776,-0.0001314259571806
1780,1724915238658382280,-0.461891233921051,0.1053031906485557,0.177189439535141,0.0155491530895233,-0.0074233645573258,-0.2989685833454132,0.9541074633598328,0.0,0.0,0.0,-0.2123062319542356,0.3567101724307111,-1.9238108936407996,1.700286419,0.2159652023062706,0.3360335408501255,-0.0176235396661889,-0.3654940214348166,-14.575025150347855,-0.7999627240598639,0.0341168538042601,-0.0048679777382027,-0.6073993586192074,-0.0086719015924359,-0.1060790052241387,-0.0418604846288239,-27.35915572450483,32.729592064813545,20.95471166557099,-0.0002220153964166
1782,1724915238667981080,-0.462016761302948,0.1041965782642364,0.1766307651996612,0.0174596477299928,-0.0080352434888482,-0.299207329750061,0.9539945721626282,0.0,0.0,0.0,-0.2819246754756632,0.8211721109362777,-0.8585016286367422,1.709885219,0.4179132461195999,-0.003577679709046,-0.0554670889794015,1.4217213436576106,-4.457009319626229,-7.886660761061561,0.0381309198310441,-0.0048830676029685,-0.6079326333300272,-0.0129259415916891,-0.1005724117227098,-0.058277589994832,9.155736942282422,-4.860382281494331,79.95637971276885,-0.0005234822440245
1784,1724915238677817383,-0.4621423780918121,0.1033556312322616,0.1760567724704742,0.018954012542963,-0.0071249911561608,-0.2999855577945709,0.9537287950515748,0.0,0.0,0.0,-0.0264729492449914,0.2366421654307267,-0.3847708609871216,1.719721522,0.23416295196446,0.2642817161552667,-0.1727982678617598,-7.003528042051187,17.857732162552058,-15.614333507270716,0.0404398850526545,-0.0022187602303988,-0.609528869990333,-0.0140735896343962,-0.0900004237252476,-0.0581359233341576,30.821776111164176,-22.773098195887865,26.00550214589679,-0.0005435776186937
1786,1724915238688105869,-0.4623011946678161,0.1023811697959899,0.1754609942436218,0.0209151692688465,-0.0058295601047575,-0.3017703890800476,0.9531334042549132,0.0,0.0,0.0,0.3428454254241421,0.3967776586603388,-0.3556440461171535,1.730010008,0.2877720146672992,0.3471330419910788,-0.3731123261935577,3.7301317968384886,-19.029257124588497,14.806082267374707,0.0434019446707448,0.0015104611743084,-0.6132146497429228,-0.0133752536365605,-0.096585455872721,-0.066390318843478,30.02503285664243,72.35956101403649,60.5711068504738,-0.0005560236962779
1788,1724915238698030294,-0.4624142050743103,0.1014046967029571,0.174720898270607,0.0222300868481397,-0.0067828916944563,-0.3012892007827759,0.9532495141029358,0.0,0.0,0.0,0.5846197161358716,1.6586174801253004,0.7982495278525237,1.739934433,0.3106186549623899,-0.1009847905418074,0.1019603361175394,9.272329238039529,7.07871367967455,17.9809038518272,0.0464856080798887,0.0004637937923361,-0.6122487560753153,-0.0073403549517792,-0.0827219645442145,-0.0656439868617049,-1.028083904939228,2.808829904337909,16.321644047292896,-0.0006989277117026
1790,1724915238708128352,-0.4624467492103576,0.1007303595542907,0.1741497665643692,0.0252926126122474,-0.0050631361082196,-0.3013275265693664,0.9531717896461488,0.0,0.0,0.0,0.3133665506817661,0.4094620169882521,-0.0638558125782204,1.750032491,0.4758687803554803,0.5071634436371361,-0.0235599109295445,-1.518336537266627,19.788029866885218,-6.021819909630886,0.0512910216033864,0.0055906729101464,-0.6122361561409988,-0.001677935453074,-0.0632841371356303,-0.0501540947823517,-54.697799435494254,-125.32203562362098,-80.98415588962433,-0.0005391050249937
1792,1724915238719813031,-0.462445467710495,0.1000381559133529,0.173650324344635,0.0268349424004554,-0.0043756137602031,-0.3013328909873962,0.9531312584877014,0.0,0.0,0.0,-0.7021173309010491,-1.0767822278059604,-0.9507847726543625,1.76171717,0.2163403571416061,0.1916582273585124,-0.0072786984922611,-16.17524296949436,-22.346321908775227,0.0210155070147664,0.053819104536376,0.0078315131004432,-0.6122033753771802,-0.0013610295402699,-0.0789894249179372,-0.0725034779987652,-58.37433596996163,-6.658926704502768,77.71228450838379,-0.0004651512691109
1794,1724915238727921705,-0.4624647796154022,0.0992865264415741,0.1728949546813964,0.0273403972387313,-0.0043779131956398,-0.3013840913772583,0.9531008005142212,0.0,0.0,0.0,-1.0148986024122768,-0.4525059324718392,0.5437768077473635,1.769825844,0.1191442661219217,0.0366548888385331,-0.014830698867605,-17.782425674308246,-18.018453488796276,-5.575844312546501,0.0547843877465557,0.0081348261372782,-0.6123074434581657,-0.0111577534353806,-0.0862165261432008,-0.0748002632060682,20.543592215410264,63.98044262311197,129.11972272243906,-0.0007165433105834
1796,1724915238738887925,-0.4627172946929931,0.0984371304512023,0.1723469048738479,0.0262591335922479,-0.0048448033630847,-0.3021663725376129,0.9528812170028688,0.0,0.0,0.0,0.087142132358822,0.0561949937918768,1.1411222104141174,1.780792064,-0.1618171506187325,-0.1446657552387225,-0.1448581436777331,16.0255475174871,0.0149771159430329,3.767241582009108,0.0529975159681887,0.0066362587475434,-0.6139791678994878,-0.0194208657498613,-0.0846714388155005,-0.0565716262998261,63.181158693017906,41.74003935732603,16.746490775608088,-0.0005009095948903
1798,1724915238747938224,-0.4628661274909973,0.09761693328619,0.1717856526374817,0.0274992808699607,-0.005338093265891,-0.3021365106105804,0.9528529644012452,0.0,0.0,0.0,0.3802557959668345,0.3992387566397131,1.0109114013582967,1.789842363,0.294278726436561,-0.0209205482759217,0.0059363738106752,27.138576336375795,16.939012601452564,1.886079849794534,0.0556611002053619,0.0064442821511531,-0.6139356887936864,-0.0123533095433181,-0.0847954922478804,-0.0501365159748292,-11.145792784785012,11.034461029448453,-71.71222646523606,-0.0005160469880064
1800,1724915238758056772,-0.4629448354244232,0.0968248918652534,0.1714127212762832,0.0292636379599571,-0.0048821880482137,-0.3027868270874023,0.9525964856147766,0.0,0.0,0.0,-0.2250070641820234,0.2069178741032549,-0.3632208404778927,1.799960911,0.3057768375478168,0.1874251107291216,-0.1421356021950411,-16.791235459974153,2.1310119796816167,-9.564140850470151,0.0587452654910305,0.0084198773067615,-0.6152632549020969,-0.0130383379389584,-0.0760841656434134,-0.0365151311899376,-15.437810007383089,-18.94019089117795,-145.5450422475149,-0.0003283310485469
1802,1724915238768929884,-0.4631480574607849,0.0960232317447662,0.1710196733474731,0.0288134776055812,-0.0047367815859615,-0.3037576079368591,0.9523017406463624,0.0,0.0,0.0,0.1256618744923006,0.0017569269395965,-2.0595703353102124,1.810834023,-0.0862609632825262,-0.0050834609509988,-0.1868949154294102,-9.116561260573947,8.219558522714127,-8.491074226141162,0.0577901564389469,0.0084830371111199,-0.6172951231611141,-0.0173228290186884,-0.0814757262076408,-0.060437016032413,43.33624180586319,65.2163163913412,8.430256139336244,-0.0003453001357494
1804,1724915238777924955,-0.4632937014102936,0.0952327027916908,0.1702952980995178,0.0293152648955583,-0.0036212760023772,-0.3049895465373993,0.9518975019454956,0.0,0.0,0.0,0.5979641545973264,1.2140931732875968,-0.7600477920554445,1.819829094,0.0322002351390669,0.2617674480016704,-0.2958256374900139,29.04532030049057,25.326610977852894,1.7080623084730189,0.0580552662409753,0.0109877526250612,-0.619815462837386,-0.0123251417149319,-0.0777569369553212,-0.0779172917893014,-5.698950861729484,1.986581989131949,118.88083752469724,-0.0006771293397107
1806,1724915238788513659,-0.4633760154247284,0.0945355966687202,0.1695028245449066,0.032794963568449,-0.0020748798269778,-0.3054348230361938,0.9516457915306092,0.0,0.0,0.0,-0.1878960611348895,-0.4200716137587204,0.1797791450381098,1.830417798,0.5376386561254908,0.4758500124875622,-0.1055012199769437,14.205188157065466,4.4365100173531,12.74768278448768,0.0637372447854504,0.0160850400782458,-0.6206239327410368,-0.0054654566157239,-0.054921196552141,-0.0712161428011111,-53.52159398624968,-127.9978854246638,71.67345619521565,-0.0007461593407618
1808,1724915238801299633,-0.4634102582931518,0.0940018743276596,0.1686482280492782,0.0345859266817569,-0.0007059285417199,-0.3055119812488556,0.9515596628189088,0.0,0.0,0.0,-0.5527036089198887,-1.650087710061486,0.8324300424653526,1.843203772,0.201611798984039,0.2889213013422302,-0.0232042919749194,-32.01178691321585,-123.33725808963533,-44.99295841902207,0.0663140539689802,0.0197906555933499,-0.6206800112463905,-0.0207708408157714,-0.1000741787736085,-0.0759126712165958,78.13313615641725,254.74389923226272,103.16019209042878,-0.0008168814771981
1810,1724915238807795624,-0.4636048972606659,0.0931592807173729,0.1681251525878906,0.0336444452404975,-0.0033185745123773,-0.307107925415039,0.9510740637779236,0.0,0.0,0.0,0.3068779206393337,1.1629574918947705,1.6745572737564496,1.849699763,-0.0252502953613483,-0.871079527503899,-0.4852121923037762,-16.35382741886925,-75.79489991995632,-38.907754153111746,0.0660899437255229,0.0143530240685556,-0.6241999266150081,-0.0222346615286497,-0.1045840341433663,-0.0665456493470113,98.07285962439188,322.7474754324544,69.10165261129286,-0.0004644231533017
1812,1724915238818176827,-0.4637075066566467,0.0924904122948646,0.1676662117242813,0.0342837534844875,-0.0032040195073932,-0.308848112821579,0.9504879713058472,0.0,0.0,0.0,0.7567457343615168,2.6836422486211773,1.3876094338917886,1.860080966,0.1130490472443824,0.0471610643162576,-0.3546826862571162,-8.115803334814501,51.8374189487997,7.810574908054345,0.0672099326639058,0.0150867534348385,-0.6278416135794879,-0.0102192957111419,-0.0616997762373827,-0.0453030699886518,6.919854056475224,-29.46550927821812,-78.1270247778227,-0.0004127865384318
1814,1724915238827827139,-0.4638091325759887,0.0919194892048835,0.1672192066907882,0.0338921956717968,-0.0019117764895781,-0.3102906048297882,0.9500354528427124,0.0,0.0,0.0,0.4968499953783939,0.8208650469168943,0.1807560927490743,1.869731278,-0.1575877649320898,0.2189412393155838,-0.3220370819220013,-3.604959791551883,9.34703026195561,-0.1897143634093705,0.0656410465454007,0.0174012270784743,-0.6308025334493526,-0.0065108239578002,-0.048785438405638,-0.0378208281187673,-4.067285370334563,-162.1159585986374,-101.93657271160282,-0.0004073794806066
1816,1724915238838836466,-0.4638303220272064,0.0915127098560333,0.1669095754623413,0.0348379239439964,-0.0009023732854984,-0.3121780157089233,0.9493842124938964,0.0,0.0,0.0,0.7392380743195116,-0.5756799571486999,-0.6510921457258281,1.880740605,0.1096762252989357,0.2156727478178331,-0.3689962016686029,8.896664616005964,-22.157521525094506,15.675160542196105,0.0667755633441265,0.0200392111984829,-0.6346996476099604,0.0003729435950141,-0.0462462301266031,-0.0432985961503415,13.768076159527553,-37.555831436675945,5.927716614247481,-0.000281703005992
1818,1724915238848357878,-0.4638078510761261,0.0909958183765411,0.1663723587989807,0.0348837748169899,-0.0017861993983387,-0.3124577105045318,0.9492892622947692,0.0,0.0,0.0,0.8024062962849323,-0.197954813542744,0.0763536182364257,1.890262017,0.0677413509238565,-0.1753115168445359,-0.0555442608147132,0.5797816039523775,-13.921960316767334,2.921429031344431,0.0674082601033747,0.0184092088005173,-0.635339343057646,0.0083500398391471,-0.0583672426719568,-0.0507622113527208,-32.32499038422742,90.64407095024993,70.14086807512369,-0.0005028152971008
1820,1724915238857859584,-0.4636717140674591,0.0904025435447692,0.1659436970949173,0.0353552997112274,-0.0021398954559117,-0.3138728141784668,0.9488041996955872,0.0,0.0,0.0,0.1258498438235787,1.146646033775122,0.6834523348048716,1.899763723,0.1205092509743242,-0.0502349487760956,-0.3122404030915074,17.97254870309168,18.53466560875447,-12.029553686526944,0.0684986318199674,0.0181344451688738,-0.6383323046472664,0.0156386069831349,-0.0500542747936734,-0.041879980583138,-96.7519016697517,49.56889264473307,35.74251474478561,-0.0003921542174889
1822,1724915238868093402,-0.4634972214698791,0.0900268033146858,0.1655507534742355,0.037819754332304,-0.0018353816121816,-0.3151423931121826,0.9482887387275696,0.0,0.0,0.0,-1.1458926638847968,0.6405022050050917,0.7389433057965746,1.909997541,0.4413238125148014,0.1986472584986853,-0.2701652232317697,-0.7837909561641974,6.094640109856402,4.198300571897796,0.0729647380487199,0.0203576784730509,-0.6409469264840516,0.0098586765338524,-0.0353243442326345,-0.0376561348772295,-57.73149156390625,-50.99565797193398,11.798170925232403,-0.0003700672394026
1824,1724915238878225105,-0.4634694755077362,0.08968286216259,0.165176659822464,0.0384792983531951,-0.0015965361380949,-0.3162155449390411,0.9479053616523744,0.0,0.0,0.0,-1.063403142848704,0.1084053663598447,0.922432587720188,1.920129244,0.1110765716462207,0.0775890830577103,-0.2267574865583529,-40.62355566404095,-18.92382329242247,-9.33160103886825,0.0740436005725762,0.0213103871848169,-0.6431809703691521,-0.0075800070803957,-0.0368477812573946,-0.0268973044942679,64.44068161976138,-0.2248659675317661,-19.789689758278605,-0.0003490000813922
1826,1724915238888982863,-0.4636688828468323,0.0892533287405967,0.1650018244981765,0.0360039584338665,-0.0018348790472373,-0.3187206387519836,0.947162926197052,0.0,0.0,0.0,0.2729088553254419,0.7033045994476996,0.2766260960818005,1.930887002,-0.4176430304446806,-0.2056649834014378,-0.4826727374366849,2.2591967085195748,4.217147899493597,-2.7790398563970946,0.0694418122551988,0.0194757816344351,-0.6485198335505709,-0.0115061615134095,-0.0327257971682719,-0.0185670359592133,73.73196841910979,24.5929762994595,-38.83913307081272,-0.0001403181100742
1828,1724915238898408841,-0.4637192785739898,0.0890043377876281,0.1648076921701431,0.0362625606358051,-0.001434780540876,-0.3202022910118103,0.9466539025306702,0.0,0.0,0.0,0.5509334730231958,0.6815097109591858,0.0855601390691106,1.94031298,0.0282256082153795,0.0863785143144905,-0.3353460132980103,24.89599786724792,12.038514838445208,18.228979674174525,0.0696459520171198,0.0205076662258961,-0.6516172266830788,-0.0036655236565046,-0.023452399166076,-0.0200702992739172,-6.813647597364032,-33.34545479231882,-5.090845585088736,-0.0001754477595333
1830,1724915238908750300,-0.4637381136417389,0.0887954235076904,0.1646060943603515,0.0364107340574264,-0.0014847808051854,-0.3207771182060241,0.9464534521102904,0.0,0.0,0.0,0.0685112898027377,-0.0154295628643228,0.2051355091696343,1.950654439,0.0314700743218247,-0.0040651487597098,-0.1173425431070922,2.502564317084719,-5.943693053540609,6.584171807446749,0.069946476212296,0.020550355278563,-0.6528308875420467,-0.0011548700930141,-0.0198344815067397,-0.0164052828136931,-22.75775204597268,-46.17065849504786,-3.045794151344083,-0.0001863696615485
1832,1724915238919925556,-0.4637429714202881,0.0885782018303871,0.1644600629806518,0.0368009433150291,-0.001787987886928,-0.3219408094882965,0.9460425972938538,0.0,0.0,0.0,0.1027090096133102,-0.2751146899243437,-0.0053184875611962,1.961829695,0.0858697987380219,-0.0366491955472682,-0.2188248462698319,2.081923682642402,3.89476163496608,-21.182454886623596,0.0708556530055307,0.0203138226116159,-0.655299545549515,-0.0024937029537923,-0.0244180800454811,-0.0159154046158001,-5.69531040501879,4.7246281029877615,-14.340049573558554,-0.0001306281800804
1834,1724915238927979858,-0.4637750089168548,0.088352620601654,0.1643153429031372,0.03717802464962,-0.0017014554468914,-0.323685884475708,0.945432424545288,0.0,0.0,0.0,0.0060123912631142,-0.0747423467539937,-0.094741220067799,1.969883997,0.0864659510329006,0.0342549502732696,-0.4596831542804557,2.8101316618089784,3.585590717599353,-10.717502100442266,0.0714764653031113,0.0208522924128935,-0.6589738452216869,-0.0003747810079204,-0.0258500289269321,-0.0162435803999532,-19.69470619127724,26.4636603367901,-13.794632231303847,-0.0001278354462847
1836,1724915238938967715,-0.4637251198291778,0.0881009250879287,0.1641627103090286,0.037995096296072,-0.0019475423032417,-0.3251902759075165,0.944883108139038,0.0,0.0,0.0,-0.3256491892280607,0.2398102284883736,-0.286669688435172,1.980871854,0.1583573054116004,-0.0045593738273234,-0.2898376987334063,-28.14466790138227,-0.719009119903718,0.6719159047320566,0.0731498762069365,0.0210324226718114,-0.6621545983285159,-0.0041621225951757,-0.0251266628360724,-0.0180939740628574,17.331083661530823,22.43152059596699,2.5711483249247387,-0.0001358537867413
1838,1724915238947869351,-0.4638249278068542,0.0878612473607063,0.163971334695816,0.036572229117155,-0.0013467976823449,-0.3268329501152038,0.9443733096122742,0.0,0.0,0.0,0.1712843622782709,0.394806555815859,-0.119274460692213,1.98977349,-0.3423255691195338,0.0093296232732616,-0.3904834774849169,-8.799536437436174,17.47140488874975,-7.779763784675108,0.0700292216125094,0.0213638845978132,-0.6656163790830684,-0.0069236612448548,-0.0217373212797178,-0.0214986819169249,43.8834689999299,-5.472546069232967,11.424298295806782,-0.0001718781806294
1840,1724915238958360552,-0.4638445377349853,0.0876973420381546,0.1637457907199859,0.0379956699907779,0.0004036081081721,-0.3288782835006714,0.9436076879501344,0.0,0.0,0.0,0.4840226140388772,0.0544329362616246,-0.0906793312911453,2.000264691,0.1520159838761847,0.3893606367700615,-0.4284965989102867,24.839959619710715,9.379541491527265,2.819755000294153,0.0715252097160213,0.0257564445675112,-0.6698129615486524,0.000827034873513,-0.0174215830814534,-0.0194955651523951,-1.4603627192473962,-14.583649990819232,13.44649880994024,-0.0002126210170046
1842,1724915238970652342,-0.46379554271698,0.0874572992324829,0.1635349988937378,0.0390249714255332,0.0008826862322166,-0.3305961191654205,0.942964732646942,0.0,0.0,0.0,0.015740893490655,0.1323840322205722,0.2289978541471242,2.012556481,0.1364847928375681,0.1180569916995964,-0.3010471926822609,-7.94534850674921,-23.956569803507353,1.5933122120621626,0.0731073829680525,0.0274711472985649,-0.6733999852769775,0.0031076641650997,-0.0218928650703018,-0.0246657918706141,-24.45594958030326,21.375184122722615,53.45686839547941,-0.00019352525734
1844,1724915238977859652,-0.4637768566608429,0.0872895196080207,0.1633254587650299,0.0391226075589656,0.0006552644190378,-0.3317148387432098,0.9425679445266724,0.0,0.0,0.0,-0.1028729208679383,0.3499732883810301,0.7302801130614208,2.019763791,0.0509827724168316,-0.0625699137694093,-0.3266484745175287,-7.346119923186377,-12.436188294997056,-0.1058284895901255,0.0734097431436716,0.0271937128806363,-0.6757818645528265,0.0025035360633367,-0.0188420120037857,-0.020270018474779,-6.729657229815496,7.483830249913573,31.09570721691749,-0.0001969135048103
1846,1724915238989814937,-0.4637486934661865,0.087152250111103,0.1632577031850814,0.0394962653517723,0.0008318567415699,-0.3331679701805115,0.9420395493507384,0.0,0.0,0.0,0.0095845216369984,-0.0108451272160747,0.3394093701971817,2.031719076,0.0527371696051287,0.0391281419989771,-0.2595698120183706,8.568716343960627,9.006417342235109,-3.086179560919266,0.0739559228463099,0.0278886800757549,-0.6788433907263495,0.000895852023568,-0.0161121270252602,-0.0091521386771855,25.86643146266382,-5.07843973097079,-13.91485819754769,-5.79502755631776e-05
1848,1724915238998225109,-0.4637497961521148,0.0869893506169319,0.1631601154804229,0.0403518788516521,0.0011099395342171,-0.3344834446907043,0.9415367245674132,0.0,0.0,0.0,0.3245074429548349,0.0949564736247178,0.3334882661153117,2.040129248,0.1746284056221684,0.1178311096489644,-0.3369789847559378,4.002311584234298,2.3478818715885024,-2.4079460260608627,0.0753461530201094,0.029088270433719,-0.6815967759941971,0.0018287566886847,-0.0176184337095506,-0.0097914910158669,15.839792935108887,5.19301474756777,3.6447374555051018,-8.474324096224754e-05
1850,1724915239008046853,-0.4637093544006347,0.086836390197277,0.1630847305059433,0.0408824458718299,0.001291858498007,-0.3357786238193512,0.941052496433258,0.0,0.0,0.0,0.2322595191919072,0.0612282402949135,0.4191674557990993,2.049950992,0.0936038524733429,0.0604829086384516,-0.282674214176041,1.1397097238267797,2.1771050603096347,-1.8007732287174711,0.076185174575451,0.0298907669806662,-0.6843214126257354,0.007465818042295,-0.0135422419756743,-0.0018188832129162,-31.15511150064352,-5.368596323178415,-16.413535993734087,-6.424247369338644e-05
1852,1724915239019281158,-0.4635824561119079,0.0867103561758995,0.1631395518779754,0.0424341410398483,0.0019482765346765,-0.3378348648548126,0.9402464032173156,0.0,0.0,0.0,-0.3974001753249912,-0.0239433332625256,-0.0882375951170136,2.061185297,0.2270593332276525,0.187947024004687,-0.3970928392406929,-0.164981930251912,-19.539274904823763,-8.902861412149722,0.0786026805156639,0.0323408220197948,-0.688607959915748,0.0056845310086401,-0.0174005792734046,-0.0021542694315854,-17.33780582417628,22.799563856492668,3.6962015334051537,6.167314606200348e-05
1854,1724915239027732499,-0.463570088148117,0.0865239948034286,0.1630766242742538,0.0427748262882232,0.0011291340924799,-0.3397106826305389,0.9395561814308168,0.0,0.0,0.0,-0.2978176021816452,0.3618987317833447,0.2536530465251317,2.069636638,0.1490903126646726,-0.1735474531923687,-0.4641839787745866,-12.691029143320002,-23.23091758389011,1.3038267003557529,0.0797347443152408,0.0311889569771688,-0.6926366677100939,0.0008074611269712,-0.0155716295479741,-0.0032711866417232,27.868513904554614,17.65734951063134,24.69550757338994,-4.79079108219862e-05
1856,1724915239040684986,-0.4635726511478424,0.0864509269595146,0.1631171256303787,0.0420708879828453,0.0008608361240476,-0.3413387537002563,0.9389979839324952,0.0,0.0,0.0,0.3824602683575562,0.0348352975993179,0.2607004494433951,2.082589125,-0.0840812715865579,-0.0865048626293857,-0.2638270676983576,-19.034801449623775,13.430331396812967,-1.8582371523351815,0.0785381128605143,0.0303421512286402,-0.6961333790949065,0.0024935284391744,-0.0079960436182595,0.0076729680022751,14.513273189134429,-24.207978997648983,-74.24157088825558,4.6243346865615126e-05
1858,1724915239049318231,-0.4635356366634369,0.0863683447241783,0.1632095277309417,0.0411386862397193,0.0015803903806954,-0.3428632915019989,0.9384827613830566,0.0,0.0,0.0,0.2890476734347391,-0.1681561440371609,-0.810586831093262,2.09122237,-0.2543560534240996,0.0680551237052229,-0.3795741009627906,3.294085511258103,4.5619617656044325,-3.319657347034507,0.0762430510070639,0.0311812815386997,-0.6993566029977121,0.0072471450803028,-0.0108604134366681,0.0065617144504965,-20.35250681335243,6.628948221444418,-77.08708948138818,9.762065778034934e-05
1860,1724915239057988203,-0.4634470343589782,0.0862629115581512,0.1632303595542907,0.0410204529762268,0.0016405001515522,-0.3441683053970337,0.938010036945343,0.0,0.0,0.0,0.0295947438794964,0.1517561657869883,-1.0696943952462012,2.099892342,-0.0253886909369106,-0.0085502767848606,-0.3205252778807104,12.727419757052354,-13.707692888308056,9.336422644217244,0.0759361366120175,0.0313186103771291,-0.7021345007557634,0.0074757288304638,-0.010893641205766,-0.0064029843669874,-17.32576020456567,26.18655795113588,40.21384942595972,2.676521069886601e-05
1862,1724915239068675822,-0.4634032845497131,0.0861631780862808,0.1630459129810333,0.0402665734291076,0.0007106792763806,-0.3451550006866455,0.937681257724762,0.0,0.0,0.0,0.0104222659762855,0.2904952732080251,0.2836429373123043,2.110579961,-0.0696181928988059,-0.21924024145059,-0.1874656157343742,9.717651788092564,5.5586117315501395,-2.8441199407308932,0.0751263314006098,0.0291333206124624,-0.704310154875508,0.0078345775204127,-0.0072218784695872,-0.0122274550752177,-6.404744015735368,-9.919937429696382,99.71445638898976,-0.0001774258001186
1864,1724915239078789259,-0.4632882475852966,0.0861103311181068,0.1629703938961029,0.041167426854372,0.000876837701071,-0.3468580842018127,0.9370133280754088,0.0,0.0,0.0,-0.0984779958322406,-0.0289965030769987,1.034546413888856,2.120693398,0.1612643745288219,0.0788327551951848,-0.3625946675975232,-16.371591049533286,18.497486688772767,-14.035617256365711,0.0766505462426517,0.0302063201198589,-0.7079078288963756,0.0077183977763226,-0.0047917399553645,-0.0014289045548014,-1.009703847043042,-20.909148686472474,16.97294404101708,-7.425002066143878e-05
1866,1724915239088542179,-0.4632473587989807,0.0860676765441894,0.1630132496356964,0.039751723408699,0.0023046976421028,-0.3489649295806885,0.9362894892692566,0.0,0.0,0.0,-0.0165474400195668,-0.1324579127960348,0.6613947676062344,2.130446318,-0.3671006874428278,0.1560100762713294,-0.4686256431117854,-16.446459949631922,0.1170173541100147,-3.10289105553176,0.0729318186059301,0.0320651375457626,-0.71235399102228,0.0059397835336056,-0.0076072307025958,0.0083487224856053,0.611323827015223,0.676602708450186,-53.91238880423365,4.500563507553988e-05
1868,1724915239098889736,-0.4631667137145996,0.0859534591436386,0.163143053650856,0.0392797738313674,0.0029593394137918,-0.3509602844715118,0.9355614185333252,0.0,0.0,0.0,-0.0957361021064658,-0.0015665509175026,-0.0683001562394743,2.140793875,-0.1230798133800917,0.0716303464162696,-0.4154433369058965,10.491173516244924,-10.778710889396129,4.800887229708504,0.0715201944152042,0.0331146205515372,-0.7165903109861923,0.0075890034735515,-0.0072627502329956,0.0114473705622941,-12.433783338773049,-8.370604387510653,-49.65952097009084,0.000136256182232
1870,1724915239108698886,-0.4630941748619079,0.0859173238277435,0.163245141506195,0.0385224856436252,0.0030067292973399,-0.3526735007762909,0.9349484443664552,0.0,0.0,0.0,-0.2621573639381713,-0.2791358649363664,-0.3614546057326722,2.150603025,-0.141903040120605,-0.0585010284244418,-0.3715003238855889,-3.580231837726874,-11.191908569751549,4.351046941526054,0.0700070823163278,0.0327998743741811,-0.7202680414527888,0.0042776272692925,-0.0076022486351408,0.0073577197230019,4.11395891424771,-16.312547552644208,8.757755890037968,0.000102899417576
1872,1724915239120404351,-0.463087648153305,0.0857736021280288,0.1632886677980423,0.0370525456964969,0.0026282782200723,-0.35446897149086,0.9343296885490416,0.0,0.0,0.0,0.0804501569160185,-0.3026787524206153,0.280846998637397,2.16230849,-0.2070167898659238,-0.1605312863053676,-0.3223677431111678,8.150767700282021,-1.6426295671361006,1.3137848691824665,0.0674592274762359,0.0311843663067025,-0.7241635160510282,0.0022624900458012,-0.0142852880418398,0.0039015155664703,13.558959414934876,12.624647149903916,18.697773657540605,5.348567053781494e-05
