seq,stamp,px,py,pz,ox,oy,oz,ow,lx,ly,lz,ax,ay,az,timestamp,lyap_z,wx,wy,wz,aa_x,aa_y,aa_z,roll,pitch,yaw,vx,vy,vz,jx,jy,jz,forward_velocity,forward_velocity_1,deviation
10610,1724818892576910046,-0.5731581449508667,-0.6473059058189392,0.1359831243753433,0.0304182730615139,-0.075338177382946,0.5922613739967346,-0.8016391396522522,0.0,0.0,0.0,-1.3602814151059615,0.16645912184841172,0.1713936942801224,0.0,0.1359831243753433,0.0,0.0,0.0,-13.122147897050773,-9.377209059189864,-8.759864280760105,-0.13895386369889734,0.08485873503614207,-1.2785144471000023,0.08242924908454663,-0.01533345939065512,-0.018936167580168656,1718.2866770417904,-341.0330215291768,-328.5920425580255,0.0,0.0,0.12555735039462554
10612,1724818892586923544,-0.5723327398300171,-0.6474594473838806,0.1357935070991516,0.0312571674585342,-0.0753375515341758,0.5925493240356445,-0.8013941049575806,0.0,0.0,0.0,15.84577878887865,-3.2484743571679564,-3.118962066690581,0.010013498,0.1357935070991516,-0.1313986017228221,-0.09389866415977959,-0.08771688345566275,-8.83961919690977,-6.2999283256868255,-6.220987350141432,-0.140332089014427,0.08380537698148591,-1.2792560236272739,0.06880807385494592,-0.013666621306944293,-0.01721991716528204,4374.544419357156,-2570.6225761598166,1330.2959326580626,0.039829286638597715,0.006130870571405086,0.12555735039462554
10614,1724818892619764414,-0.571540117263794,-0.6477287411689758,0.1354128420352935,0.0304613355547189,-0.0753464326262474,0.592858076095581,-0.8011955618858337,0.0,0.0,0.0,445.60688775162726,-327.8121163911251,219.24278083268587,0.042854368,0.1354128420352935,0.03955846732053411,0.030650550684169033,-0.018564978262383243,-18498.11799523174,6703.975159165832,-13575.33050236503,-0.13909579208857364,0.08471725705689921,-1.28000263248046,2.4424084941877027,-0.48816121498293796,-0.4740433357887355,-697383.1043013792,167912.7220265317,99808.79093856574,0.015703388773235714,-0.0026752918507647627,0.12555735039462554
10616,1724818892620067045,-0.5707942247390747,-0.6478778123855591,0.1352680921554565,0.0310025084763765,-0.0760824158787727,0.5933082699775696,-0.800771951675415,0.0,0.0,0.0,232.5758085225939,-276.5006908632796,249.70747605101764,0.043156999,0.1352680921554565,-5.610146931025064,2.078166502834395,-4.164745124350436,-13899.250737895289,8005.346235769762,-14876.637780129344,-0.14090735047004596,0.08516415094515094,-1.2813433797853853,2.5783040854893216,-0.5882412221434379,-0.40704346450169737,-736200.5992262029,196443.80084914627,80567.94626703003,1.2120095753976867,0.15933148965100155,0.12555735039462554
10618,1724818892620395302,-0.5699074268341064,-0.6481049656867981,0.1351598501205444,0.0317332036793231,-0.0775358006358146,0.5944713354110718,-0.7997406125068665,0.0,0.0,0.0,-20.57718703516013,-202.44142060412432,268.9984466601406,0.043485256,0.1351598501205444,-8.474522662820489,5.147350784202015,-9.466891600331335,-8243.024613382415,8859.95064629983,-15302.645461535694,-0.14397430604117145,0.08639553610565984,-1.2846714872819802,2.5775734607386944,-0.659706761855583,-0.3149931806454753,-735507.3611304385,216666.01831294157,54113.59492126635,1.4494709442674238,0.051714885108369954,0.12555735039462554
10620,1724818892626856644,-0.5690187811851501,-0.6482605934143066,0.1350011229515075,0.0324475020170211,-0.0782930701971054,0.5950849056243896,-0.7991816401481628,0.0,0.0,0.0,-232.95600741728512,59.5148915699191,26.69466753554133,0.049946598,0.1350011229515075,-0.3069309017983873,0.07546427785510257,-0.26444759216548824,771.1584540532679,-480.8674518054002,871.4321826132402,-0.14611023881208432,0.08663105062317424,-1.2864392914706717,0.11061612889779937,-0.02556115516973989,-0.029714300211769462,-10780.611368328593,22240.759889600715,-23764.60612985507,0.0635963012028678,0.011628644673394098,0.12555735039462554
10622,1724818892636806198,-0.5683305859565735,-0.6485375165939331,0.1346265971660614,0.0333601422607898,-0.078634962439537,0.5952563881874084,-0.7989827990531921,0.0,0.0,0.0,-1.8018170820570116,0.407534754965554,0.6943284124037432,0.059896152,0.1346265971660614,-0.18610808890278513,-0.049998697359826795,-0.06346674587609587,11.253263306363408,-3.057588999338705,6.4172570832374385,-0.1480096961867971,0.08604643103035482,-1.2869931617590586,0.07327304076507346,-0.025256207253832486,-0.03157101086470693,11575.70141230485,-2919.8804885809436,-1278.5805517518438,0.049151606440085434,-0.013257322824205716,0.12555735039462554
10624,1724818892646496221,-0.567581832408905,-0.6487579345703125,0.134377971291542,0.0337106771767139,-0.0789009183645248,0.5957338213920593,-0.7985858917236328,0.0,0.0,0.0,0.3576195727657723,0.6221294346193659,0.9001627095713491,0.069586175,0.134377971291542,-0.08546548846778303,0.01052094385411115,-0.13135459309151934,0.9787614915643648,7.061280517709684,-8.832968954258469,-0.1489476802821313,0.08595895795786275,-1.2882717356163282,0.07422950356576408,-0.017750420399909927,-0.01652928303912926,97.78133426467693,-0.7400203378274082,-34.71893581215417,0.045429280772800805,-0.004324317160877651,0.12555735039462554
10626,1724818892657703666,-0.5667893290519714,-0.6488921046257019,0.1343110501766204,0.0343674011528492,-0.0799571201205253,0.5968016386032104,-0.7976549863815308,0.0,0.0,0.0,-0.16772289896948323,0.3171766563521832,-0.21433934163661927,0.08079362,0.1343110501766204,-0.19644000951615528,0.10023359738887959,-0.2540322803223731,-7.354677373970043,4.7159860087461105,-2.537156696911273,-0.15140735221376733,0.08664371544772222,-1.291265915521714,0.08159367059663936,-0.012754196704285903,-0.014893954978481005,-65.74068363934568,-30.691055824638756,-48.44743622095588,0.03141700983973293,0.007097937524414535,0.12555735039462554
10628,1724818892666167398,-0.5660291910171509,-0.6490050554275513,0.1341279596090316,0.0349597968161106,-0.0809391289949417,0.5974848866462708,-0.7970185279846191,0.0,0.0,0.0,-0.8447221552800688,0.03516485251958634,-0.2984364510553321,0.089257352,0.1341279596090316,-0.24240718758073357,0.11912768809069958,-0.22175862396059323,4.354363429086444,0.0326605848287449,8.058556587453868,-0.1536342051397831,0.0873551280135426,-1.2932819600789354,0.07490221837667477,-0.0108917903123249,-0.019010704099390097,-34.39461202930182,-25.162997705666857,-9.577588284921182,0.039184425167814375,0.008181989780596267,0.12555735039462554
10630,1724818892677551852,-0.5654047727584839,-0.6490914821624756,0.1339516788721084,0.0348929166793823,-0.0814617127180099,0.5977769494056702,-0.7967491745948792,0.0,0.0,0.0,-0.5381068118600547,-0.12639286174419628,-0.40198102109848555,0.100641806,0.1339516788721084,-0.042989923422481376,0.08581535207644986,-0.06500643233667797,1.9819692828035276,-1.7816098752994973,-3.0952999079306647,-0.15420116473249243,0.08820708004096826,-1.2941664589004307,0.06445678754174367,-0.013322549998456168,-0.019529957876983417,43.98252888902465,9.669128562913626,-5.194074991591162,0.02356036078030654,0.005077402235409563,0.12555735039462554
10632,1724818892686549903,-0.564756453037262,-0.6492521166801453,0.1337471753358841,0.0352475121617317,-0.0820723548531532,0.5985018014907837,-0.7961264252662659,0.0,0.0,0.0,-0.021094146829141902,0.13030150782288946,-0.4209727950307266,0.109639857,0.1337471753358841,-0.1356367726113947,0.07792399526297299,-0.21279482958970375,-4.333235531163311,-3.284302685503552,-2.9278066429544793,-0.15559888859968019,0.08860443154803933,-1.2961741890814675,0.06231319690768089,-0.013840231839342465,-0.025681467625999765,71.57503816766902,34.916610318518394,6.113504520199667,0.038589317069336285,-0.0013757336773987951,0.12555735039462554
10634,1724818892698507751,-0.5641660690307617,-0.6493538618087769,0.1333931386470794,0.0357036553323268,-0.0823988914489746,0.5986149311065674,-0.7959873080253601,0.0,0.0,0.0,1.0591217476474926,0.6493555085094287,-0.21717641166018264,0.121597705,0.1333931386470794,-0.09269211238293046,0.00039591078277917055,-0.03332615324004432,-9.255443530294547,7.326501494563838,-9.447014758736113,-0.15674231377061842,0.08854712620795267,-1.29657014530749,0.06551148624396319,-0.009297189552391671,-0.02654114534774621,28.25638345559523,13.151403113880335,0.22421841065681392,0.024094516977162337,0.0001098493531288441,0.12555735039462554
10636,1724818892707431290,-0.5634739995002747,-0.6494420766830444,0.1331767141819,0.0363117642700672,-0.0836109295487403,0.5995392799377441,-0.7951372861862183,0.0,0.0,0.0,0.8978735010965782,0.5652350549467717,-0.3271743254719468,0.130521244,0.1331767141819,-0.2608325391297062,0.15773727076528657,-0.28048042694005293,-9.592538059870895,11.009957222566666,-8.161480922246087,-0.15931032276301738,0.08954328895459088,-1.2992740841392305,0.08023440011880822,-0.0017084281451253958,-0.02944660133020882,-78.26963350604495,-35.08698150024506,17.531530682223114,0.03237103687873228,0.007070844469788388,0.12555735039462554
10638,1724818892717609664,-0.5626262426376343,-0.6493645310401917,0.1328167021274566,0.0367972962558269,-0.085132285952568,0.6000205278396606,-0.7945902943611145,0.0,0.0,0.0,-0.5976818063769782,-0.0897994261392285,0.1979123660023303,0.140699618,0.1328167021274566,-0.2510817861833935,0.19291905769129875,-0.1367514852992597,-6.76692479571534,-12.087141598844072,-0.6631292316366455,-0.16201894287006627,0.091258927638035,-1.3009690486377994,0.08064255987997626,0.000733837015125971,-0.0327950442289886,-55.97311097811594,-43.70609635921949,-9.08071491453444,0.018020742511701965,0.02297963106559269,0.12555735039462554
10640,1724818892726476214,-0.5619316697120667,-0.6494112014770508,0.1325458139181137,0.0382914207875728,-0.0859555751085281,0.6007785201072693,-0.7938580513000488,0.0,0.0,0.0,-0.3914019930695187,-0.3178297828114133,-0.3511987625623476,0.149566168,0.1325458139181137,-0.37074672692070665,-0.03430832188967726,-0.2568208804911541,0.11064848872717192,-14.363873866258949,-6.659648870160219,-0.16550652525355586,0.0905875688794346,-1.3031753268532684,0.07041708087415444,-0.0026092651031817127,-0.026970663198227385,42.24103437654884,-12.377956634592712,-61.863070271530574,0.02844944115230015,0.010068837896910753,0.12555735039462554
10642,1724818892739351710,-0.5611730813980103,-0.6493951678276062,0.1322655081748962,0.039030484855175,-0.0863029584288597,0.6018051505088806,-0.7930062413215637,0.0,0.0,0.0,0.5072692826190943,-0.22778165936306582,-1.1464530949755707,0.162441664,0.1322655081748962,-0.11491360104716153,-0.00865392956988199,-0.21389045119424688,-9.443168374233139,-12.439273350815977,15.270262505281146,-0.16723033613788452,0.09002161403254116,-1.3058837242831591,0.07962217684142558,-0.005594301821425063,-0.05034088484518584,-61.44458417308971,11.01220026159509,120.30420563511208,0.016123722748588913,0.012541115115747134,0.12555735039462554
10644,1724818892746521166,-0.5605195760726929,-0.6494625806808472,0.1317905336618423,0.0402351580560207,-0.0864994674921035,0.6018516421318054,-0.792889416217804,0.0,0.0,0.0,-0.4571930536476936,-0.13278789747378889,0.4429126411603024,0.16961112,0.1317905336618423,-0.2996380504316358,-0.15545075683920698,-0.05676054458133998,-6.603096628895796,-2.9676560928078746,13.017881245222513,-0.16939783622733795,0.08885470686322777,-1.306099205255391,0.08243000041786175,-0.007211176508153727,-0.05589100962128413,-77.82403322203405,14.809870543830534,161.11815135819506,0.038671011445365576,0.0025480879834067233,0.12555735039462554
10646,1724818892757028636,-0.5597877502441406,-0.6495046019554138,0.1313627809286117,0.0403066352009773,-0.0870668068528175,0.6020729541778564,-0.7926556468009949,0.0,0.0,0.0,-0.401771942352914,0.04685107924018084,1.203139606576008,0.18011859,0.1313627809286117,-0.07392644907484931,0.08297795619104846,-0.05701205571065284,6.413822646852115,6.47977739500922,-2.0601033121831156,-0.1702406304261502,0.08961281282429334,-1.3068399588352582,0.06455439598516222,-0.007178361111272125,-0.03249504680911741,54.99324742835421,23.3663867155472,-17.03996702541904,0.025586804619419364,0.0067145128056165316,0.12555735039462554
10648,1724818892767751309,-0.559151291847229,-0.6496163606643677,0.1311042308807373,0.0411569625139236,-0.0874877050518989,0.6024186611175537,-0.7923027873039246,0.0,0.0,0.0,0.7319398612988968,0.3660101477766014,0.04228325813978673,0.190841263,0.1311042308807373,-0.17002311793792432,-0.02493316916612635,-0.10138218547763472,-8.525652064761557,5.012103205333949,-5.377043688194423,-0.17215563794163424,0.08916415986100414,-1.3078695975874168,0.07446534583962006,-0.00619750785777029,-0.03079319943049974,-37.92286574888269,15.117964935823311,-23.53695939259954,0.027537488352192892,0.0009530502516292073,0.12555735039462554
10650,1724818892776835541,-0.5583585500717163,-0.6496401429176331,0.1307730823755264,0.041725069284439,-0.0886173844337463,0.6029215455055237,-0.7917649149894714,0.0,0.0,0.0,-0.7181364412566542,0.39062043729029683,0.4805232494537599,0.199925495,0.1307730823755264,-0.24411386854573872,0.13662451844883347,-0.15976456951136525,5.382809317224805,4.696860558566336,-6.029611672777334,-0.1745210018561729,0.09013638882731573,-1.3095200181693754,0.07963403744224706,-0.0007597214810353137,-0.03130516314528453,775.508022477256,189.09840777147687,136.98753622913645,0.028250574890709854,0.013020787219572772,0.12555735039462554
10652,1724818892786840358,-0.5576459169387817,-0.6496272683143616,0.1305166035890579,0.0418645180761814,-0.0888522863388061,0.6037655472755432,-0.7910877466201782,0.0,0.0,0.0,17.344630057120973,4.336281717298728,2.8289201505531647,0.209930312,0.1305166035890579,-0.041080161324201496,0.03940808270508296,-0.21571342652148068,14.46040039022996,-7.346592324969598,-2.2343642412140854,-0.17513028755792606,0.09014925852103656,-1.3117227509410356,0.05826693926726101,0.000856743896639145,-0.020581892914531164,-819.0560604888346,-160.8972305737265,-52.42260318866218,0.019242764622316298,0.01449362599542649,0.12555735039462554
10654,1724818892809896803,-0.5569912195205688,-0.6496303677558899,0.1303105801343917,0.0421441905200481,-0.088895246386528,0.6045551896095276,-0.7904647588729858,0.0,0.0,0.0,-140.98908351960745,-28.87753848856096,-13.637252131966989,0.232986757,0.1303105801343917,-0.017617876057928507,-0.0040300694507024405,-0.08881386069069015,1495.9791724486256,1066.562360445044,-10480.345458437314,-0.1757168346466445,0.08970038302001343,-1.3137309382417353,1.4932465219771984,0.32265673362871894,0.13800585229614626,-18268.38977085735,-4004.6880362672964,-1698.6557143090722,0.0081202671772063,0.0053517343776681445,0.12555735039462554
10656,1724818892810338170,-0.5563197731971741,-0.6494852304458618,0.1303727328777313,0.0420606099069118,-0.0888460874557495,0.6054099798202515,-0.7898202538490295,0.0,0.0,0.0,-149.14847683612197,-30.66674019009375,-14.395300685888065,0.233428124,0.1303727328777313,0.6552889536254006,0.4757427059810893,-4.803087856208731,1418.920677283637,1011.8462784325484,-9940.518584710799,-0.17561847036522707,0.08953663778920627,-1.3158634820542268,1.429301522097341,0.3095492299297602,0.13181348302468354,-17111.754367778478,-3762.407237168122,-1585.5819296351597,0.052577369390584286,0.7210550832729231,0.12555735039462554
10658,1724818892816698972,-0.555660605430603,-0.6492842435836792,0.1303856670856475,0.042077574878931,-0.088892251253128,0.6057788729667664,-0.7895312905311584,0.0,0.0,0.0,-131.95806090169137,-27.88935803101886,-12.387884868486537,0.239788926,0.1303856670856475,-0.006516965244124014,0.021185840949084163,-0.14648031772692527,-65.37061253454081,-44.131784494468846,452.9156227600441,-0.17574439402243983,0.08950648024685663,-1.3168082643951433,0.08925717874872063,0.025636100715228594,0.006758946361329343,6402.192860543599,1283.1197085505485,621.542008584582,-0.004708955824804689,0.05631230096396249,0.12555735039462554
10660,1724818892827144712,-0.5549747943878174,-0.6491187214851379,0.1305373311042785,0.042187537997961,-0.0890491008758544,0.6066149473190308,-0.7888655066490173,0.0,0.0,0.0,-1.6186607269588853,0.03432365486891409,-0.6471319209977093,0.250234666,0.1305373311042785,-0.025949248349136138,0.029023766632122576,-0.20421716212476854,4.167117096802053,-5.1140625442347885,2.0340460340577247,-0.17620861777866723,0.0894315103434035,-1.3189702005728163,0.061123991338789097,0.02156319516969063,0.002107666075883863,6110.6717365560835,1307.5107843235473,544.494982488829,-0.00028754379709270577,0.03412365403642979,0.12555735039462554
10662,1724818892836901748,-0.5544196963310242,-0.6488562226295471,0.1304447799921035,0.0421896129846572,-0.0885331928730011,0.6070740818977356,-0.7885702252388,0.0,0.0,0.0,-0.024567450782004396,0.34510492341932,-0.61570663734166,0.259991702,0.1304447799921035,0.06964183513148492,-0.07432102216903817,-0.11545867276225674,4.14636547227992,-4.719589738862359,1.9174102444724141,-0.1756167502182338,0.08852039885875976,-1.3199563613217686,0.05512435976608998,0.025764453414463873,-0.006046048137974935,134.812536123131,15.58900575454113,8.39275560706756,-0.011054636265690414,0.03781355281146336,0.12555735039462554
10664,1724818892847791791,-0.5538408756256104,-0.6485894918441772,0.1304207444190979,0.0422588810324668,-0.0881056040525436,0.607864260673523,-0.7880054712295532,0.0,0.0,0.0,1.096334313556202,0.3171992019019658,-0.4614458062606528,0.270881745,0.1304207444190979,0.04611288815391864,-0.05434282245185101,-0.18184157861478845,4.898393543409371,-2.361280127020396,-0.7137478855050059,-0.1752775951759998,0.0875920324960015,-1.3218100724603299,0.06203212280555093,0.028483652253065372,-0.01007748474361847,30.175112899234193,-13.737862618288407,26.778297621318032,-0.010406272631151809,0.035909580947417696,0.12555735039462554
10666,1724818892857108708,-0.553192138671875,-0.6482923030853271,0.1302641183137893,0.0420861393213272,-0.0872547253966331,0.6084374785423279,-0.787666916847229,0.0,0.0,0.0,0.7975489784074434,0.10012543032937904,-0.11141602827646757,0.280198662,0.1302641183137893,0.14801825878766206,-0.10978769899908868,-0.14559142111543544,13.36340677776307,1.7027377541898379,-3.401558061888773,-0.17399949188038516,0.08634901733390572,-1.322972544207209,0.07592931869553254,0.031977042430760605,-0.015104102725076451,-69.10811369519007,-24.291416091546697,37.34709588796034,-0.012341974117372883,0.04418402177146317,0.12555735039462554
10668,1724818892866312876,-0.5524359941482544,-0.647997260093689,0.1301406174898147,0.041190031915903,-0.0862979665398597,0.6094310879707336,-0.7870513200759888,0.0,0.0,0.0,-0.17532125285897893,-0.13248172062070496,0.2303127280428492,0.28940283,0.1301406174898147,0.29307399211521723,-0.02452172897258923,-0.2432076648909034,-4.101266234310391,6.04368691474847,-2.325069513553861,-0.17148886236379304,0.08574190418779615,-1.325147023204138,0.0769591573398607,0.030399681561384284,-0.012236981858198881,-66.56467695941602,-14.866784006174623,15.248145463327907,-0.009924823966128107,0.04793162825147705,0.12555735039462554
10670,1724818892877047211,-0.5516749024391174,-0.6476916670799255,0.1300240457057953,0.0412643402814865,-0.0862603932619094,0.6101259589195251,-0.7865130305290222,0.0,0.0,0.0,-0.3999321155419642,-0.16180581997422783,0.12008486941050445,0.300137165,0.1300240457057953,0.00041131801895176576,4.045407149738383e-05,-0.1645019998247895,-2.780527310581366,1.161365132902457,10.728366637601393,-0.17163374613112292,0.08544087343040858,-1.326893430597584,0.07148165615770452,0.029464474343676272,-0.010781132891880318,55.37092254830616,12.617029518232492,6.111642595848718,-0.009538710754022755,0.04215959325249903,0.12555735039462554
10672,1724818892886919757,-0.5509639382362366,-0.6473917365074158,0.1299183219671249,0.0405141711235046,-0.0856715440750122,0.610316812992096,-0.7864683270454407,0.0,0.0,0.0,0.8394782842679427,0.1021229386899205,0.3291551045123836,0.310009711,0.1299183219671249,0.19527049664102958,0.0012745903281828838,-0.027748173051983183,12.117918293890677,-0.5326587046902513,4.935058623106347,-0.1697292327774709,0.08540674499932238,-1.327166546779018,0.06853524767464592,0.027188922881144606,-0.009736697060736432,95.23263427334655,26.728905217545318,6.6014961365267695,-0.011153684799082186,0.04428963168335862,0.12555735039462554
10674,1724818892900195640,-0.5501161813735962,-0.6470877528190613,0.1298064142465591,0.0395050756633281,-0.0846554562449455,0.6110702753067017,-0.7860444784164429,0.0,0.0,0.0,1.56269521517215,0.4568888299626468,0.1565886503287448,0.323285594,0.1298064142465591,0.22011876853229878,-0.01753786214215865,-0.12141887368729876,-45.50127913087308,-17.57014927928354,-34.645374163558714,-0.16693927699277178,0.08490713526673384,-1.328722283169162,0.09999476792677342,0.03448269999210396,-0.001379294202312309,-131.63236870956845,-46.88380814097585,-17.759900285388838,-0.006182451329224841,0.03556703775456976,0.12555735039462554
10676,1724818892907438242,-0.5492491722106934,-0.6467922329902649,0.1298242807388305,0.0409584790468215,-0.084648922085762,0.612318217754364,-0.7849989533424377,0.0,0.0,0.0,-0.126011607256292,-0.17350337150554118,0.009147621305598073,0.330528196,0.1298242807388305,-0.2966075683677747,-0.20861515860086563,-0.4813530342187499,-25.15338310959633,-12.729618640686127,-20.912543470055155,-0.16935518150925805,0.0828340796632245,-1.33191772915296,0.10812423462524379,0.03742623441419468,-0.002113808329185396,-165.9907478496013,-81.6043208455147,-5.616512429186192,-0.011484762173270109,0.06762188196804957,0.12555735039462554
10678,1724818892917239799,-0.5483430624008179,-0.6464701890945435,0.1297428011894226,0.0412740856409072,-0.083793044090271,0.6134871244430542,-0.7841611504554749,0.0,0.0,0.0,-0.8619635124632143,-0.9012575379163343,0.1496305294899301,0.340329753,0.1297428011894226,0.06957066148049884,-0.1522858554887093,-0.30451564311441814,18.258584394687546,13.413070716917106,5.347324421634241,-0.16889401480089447,0.08086034683505267,-1.3346176637451728,0.09032871412468779,0.02803316267394962,-0.0005575635152155201,48.935771203544796,-32.24249589946726,-60.99485107804257,-0.0096078945504455,0.051432510858210004,0.12555735039462554
10680,1724818892927702349,-0.5474216341972351,-0.6462307572364807,0.1298235803842544,0.0410147197544574,-0.0838590189814567,0.6151236891746521,-0.7828846573829651,0.0,0.0,0.0,1.0351104171136711,-0.7694645051938958,-1.3297983357764278,0.350792303,0.1298235803842544,0.0472841825262473,0.07366493476727272,-0.39034201732510815,-0.7073000263008722,12.554177813251336,-3.009480789264252,-0.168736213556234,0.08093395531916113,-1.3387868045718831,0.0919604909381988,0.019241040693156464,0.0009058238845698341,62.826443223327445,22.881809576717664,-83.89669570025174,-0.0026389975372188724,0.04347087748314591,0.12555735039462554
10682,1724818892938759309,-0.5463593602180481,-0.646060585975647,0.1297539621591568,0.0405768603086471,-0.0840481221675872,0.6167433261871338,-0.7816118597984314,0.0,0.0,0.0,0.3451611800290486,-0.396277666202291,-1.5854794326680843,0.361849263,0.1297539621591568,0.05608943642136424,0.10681927323648598,-0.36292840629091905,-1.8732055518989044,-22.443482562293802,11.099278953161068,-0.16845399640521203,0.0814249476188786,-1.3429546246202206,0.11367861946808233,0.011561317905055546,-0.030970973216341235,-159.65449575268775,45.08070159916883,141.5522747830035,0.007197727233714462,0.03521927712106106,0.12555735039462554
10684,1724818892946241219,-0.5454196929931641,-0.6459934711456299,0.1293973177671432,0.0410057678818702,-0.0833910331130027,0.6174138784408569,-0.7811303734779358,0.0,0.0,0.0,-1.341740011687401,-0.0016296541846025359,0.30732199408908534,0.369331173,0.1293973177671432,0.028558883416258164,-0.18990807297266307,-0.23624356770709953,4.443043413136821,-20.656474881210187,10.100113629797974,-0.1683618190473444,0.0797279160890113,-1.3444640064937445,0.10806422203678778,0.010106542777865712,-0.03626451562088295,-121.56821473618017,34.82322124209842,173.06355875134528,0.02317658466817409,0.02806123783318461,0.12555735039462554
10686,1724818892957097134,-0.5445226430892944,-0.6458658576011658,0.1291832476854324,0.0406284816563129,-0.0821657627820968,0.6184730529785156,-0.7804417610168457,0.0,0.0,0.0,-1.0249658634514116,0.09408348896166663,0.9272272844776263,0.380187088,0.1291832476854324,0.20473579861727054,-0.11483099298509686,-0.23421206875276765,4.446090761190828,12.164669421722698,2.4711488148615306,-0.1663210369825326,0.07807523995443039,-1.3467706667102661,0.08418388851860925,0.013125877170161004,-0.016943150061128343,75.16331189025993,-5.4552856856863805,-15.757602272473301,0.008412867814587591,0.026050960941368596,0.12555735039462554
10688,1724818892966734333,-0.5436980724334717,-0.6457276344299316,0.1290437132120132,0.0400110408663749,-0.0818688124418258,0.6192576885223389,-0.7798823714256287,0.0,0.0,0.0,0.0928000814920713,-0.08059113762053682,0.1520238775795285,0.389824287,0.1290437132120132,0.14678028111112906,0.04730819964277966,-0.1908566756454302,9.887759272795142,7.593796190627711,2.5732284366883906,-0.16505440810630198,0.07822154126591802,-1.348665622044721,0.08435674588923092,0.012458022189360207,-0.015301297498469424,79.19297397906392,-8.00663376938783,-31.39800988003652,0.005976125766652189,0.02998543513652659,0.12555735039462554
10690,1724818892976783104,-0.5428630113601685,-0.645622193813324,0.1288813352584839,0.0383860655128955,-0.0806525498628616,0.6201569437980652,-0.779376208782196,0.0,0.0,0.0,0.5030932231046741,-0.05502810742693931,0.35035650340959307,0.399873058,0.1288813352584839,0.4127546448734161,0.026899968374084388,-0.1851744009000651,-9.783006947993705,-8.456848574195979,-1.2393464831195438,-0.16105408885496467,0.07818622243301235,-1.3505516044116725,0.08607368753376932,0.011529869504133927,-0.013965833304805386,10.686233336211895,-8.724512406049968,1.4518565930300227,0.009153426324884136,0.025376834842401188,0.12555735039462554
10692,1724818892987383164,-0.5419173836708069,-0.6454883813858032,0.128757819533348,0.0393195748329162,-0.0803685337305069,0.6209902167320251,-0.7786951065063477,0.0,0.0,0.0,0.2793105666827076,-0.2735072260868342,0.1612891943597372,0.410473118,0.128757819533348,-0.09629372433670119,-0.13459527562692225,-0.2184922679302333,-16.151341914013834,-10.816588522859131,-14.222478549934731,-0.16223403389376317,0.07640534312783175,-1.3526138030700607,0.09512139311139833,0.011364051938109299,-0.007820503690960656,-72.46512313114832,-24.81001754359187,-35.70415616088227,0.007854520777221164,0.029355031313683767,0.12555735039462554
10694,1724818892996412775,-0.5410130023956299,-0.6453954577445984,0.1287166774272918,0.0400215722620487,-0.0795861035585403,0.622473955154419,-0.7775542736053467,0.0,0.0,0.0,-0.7700250896691814,-0.5298292383115089,-0.29854092608674476,0.419502729,0.1287166774272918,0.0030185876326998314,-0.19827676969447908,-0.4321358351010368,2.856372335327127,1.176225682281629,-6.1389527234090115,-0.1624751335520608,0.07400779731374406,-1.356185303394947,0.09322648826746871,0.0069109405189067274,-0.009582814955680696,-94.60259018453897,-7.9710568749475,-16.066881047502783,0.011581360224220232,0.030377180901226587,0.12555735039462554
10696,1724818893006549924,-0.5401468276977539,-0.6453638672828674,0.128562331199646,0.0406721718609333,-0.0793522745370864,0.6235923171043396,-0.776647686958313,0.0,0.0,0.0,-1.4831160426070813,-0.3782906664422936,-0.06471285903849333,0.429639878,0.128562331199646,-0.06068786712084567,-0.09270570218402165,-0.294964704888666,4.413848268939963,10.00546612863734,7.931821817409377,-0.16329579054308827,0.07259556086105998,-1.3589908337161851,0.07904558950880514,0.0011227533751956287,-0.013785582457156664,475.7974555296417,45.79967348331559,10.283296037186044,0.01598123392517662,0.018264896957505106,0.12555735039462554
10698,1724818893016869985,-0.5393983125686646,-0.6453732252120972,0.1284351944923401,0.0403735637664794,-0.0790072232484817,0.6247225999832153,-0.7757896780967712,0.0,0.0,0.0,9.16505764266044,0.4184920976297457,-0.09289195475650813,0.439959939,0.1284351944923401,0.09726261344381204,0.006256250343327309,-0.27193987930365193,12.423297104900882,7.912171767302753,2.5721610625264217,-0.16249365625063916,0.07220414341822164,-1.3617779900004414,0.06285498722577265,-0.000756701914780944,-0.010777511056551947,243.87283866517225,-1648.68938335971,-4188.004987052288,0.01678422249891346,0.012005979709800128,0.12555735039462554
10700,1724818893067112689,-0.5386068820953369,-0.6453745365142822,0.1282708495855331,0.040270309895277,-0.0785621851682663,0.625903308391571,-0.7748879790306091,0.0,0.0,0.0,-171.31078455034913,-504.5775072339074,-1234.2449113729297,0.490202643,0.1282708495855331,0.016520142790503928,-0.006442359331521198,-0.05927639375127531,19564.692063411076,-9370.25172206771,-54026.057252985105,-0.16187127221769654,0.07140380535820089,-1.364672237332694,3.1488895567845248,0.16718084741478378,-0.10946313924324613,1756980.4925486094,766038.2904758884,2531232.0909391204,0.003474585382213583,0.0026274339273495997,0.12555735039462554
10702,1724818893067363855,-0.5378120541572571,-0.6453323364257812,0.1282432228326797,0.0401096045970916,-0.0778725072741508,0.6272720098495483,-0.7738585472106934,0.0,0.0,0.0,272.19353946277806,-311.2002819540235,-595.2764340013969,0.490453809,0.1282432228326797,4.9550728869303615,-2.3716959032809255,-13.696625113648834,4083.4647370034536,-1129.857175575415,-20069.11144555278,-0.16086086159652271,0.07026314564461233,-1.3679803467299572,3.1055698940663206,0.03981039267637243,-0.4210107390316864,-5811.80780629901,948653.4828701661,3697216.2712494573,0.4794131548964136,0.7791337375303801,0.12555735039462554
10704,1724818893067617078,-0.5370407104492188,-0.6453549861907959,0.1280572116374969,0.0400545001029968,-0.0776085555553436,0.628272294998169,-0.7730759978294373,0.0,0.0,0.0,-181.56037714447575,-25.348796846895638,635.3540300319282,0.490707032,0.1280572116374969,2.0118202150417015,-0.5420965923914083,-10.040528775443041,916.4225521194858,23721.348840673567,-418.696549526936,-0.16052581403030605,0.06972082933818043,-1.3704741210518354,3.2880178382304166,0.011024148733667971,-0.4070490968650802,-3892904.083914644,308990.4558318872,2171140.7963309716,0.743274746149311,0.39320840034072,0.12555735039462554
10706,1724818893067852658,-0.5362130999565125,-0.6453303694725037,0.1280331015586853,0.0390827693045139,-0.0779656916856765,0.6295772194862366,-0.7720274925231934,0.0,0.0,0.0,-1559.1167808179225,-132.24297777123084,557.5530141561109,0.490942612,0.1280331015586853,4.9759654398378075,8.661567107162442,-13.395306078176151,2053.0570162397025,6971.586940281912,2374.918264366039,-0.15959645572302872,0.07123229642597143,-1.3739232348922905,3.0475439818702625,0.024411571133441612,-0.13020812924398228,-4071449.8954037493,-610971.9010593088,-1429108.5616535377,0.5904966683755668,0.7690135664451787,0.12555735039462554
10708,1724818893068106690,-0.5355664491653442,-0.6453461050987244,0.1279923915863037,0.0387769192457199,-0.0778766199946403,0.6304188966751099,-0.7713647484779358,0.0,0.0,0.0,-2106.8804982270394,-330.5173558655622,-106.49497550224588,0.491196644,0.1279923915863037,2.6132316647833,1.6403981278769018,-8.24055111049359,-9150.002318410096,-27183.795719066256,19965.2357899031,-0.15908488004386437,0.07131157874705718,-1.376061570582416,2.5040104877667826,-0.06097431456864966,-0.15774870148068004,-2118347.468774558,-767241.0592120935,-2570690.1229681876,0.5633643781503007,0.40436918900440044,0.12555735039462554
10710,1724818893083215124,-0.5350595116615295,-0.6453964710235596,0.1278613954782486,0.0393533743917942,-0.077295608818531,0.6303573846817017,-0.7714442610740662,0.0,0.0,0.0,-28.299217591219563,0.21542363434385248,0.7365079272678035,0.506305078,0.1278613954782486,-0.010601210791042157,-0.10856944865734447,0.003991442744677651,20.123038288337778,-43.45185832147919,109.3689757393826,-0.15922248354457147,0.06970155221297619,-1.3757412727818414,0.09645164373793591,-0.017924006862443775,-0.04253639322218916,33060.0351076674,3752.2222326523806,815.2125613263892,0.010353847559610897,0.001801426037972755,0.12555735039462554
10712,1724818893086598746,-0.534685492515564,-0.6454681754112244,0.1276918053627014,0.0392951443791389,-0.0768185034394264,0.6303139925003052,-0.7715303301811218,0.0,0.0,0.0,4.361966067822667,-0.8334137811267512,-1.2656931917654164,0.5096887,0.1276918053627014,0.20433795074607775,-0.20079954613189188,0.04341747642658043,56.05317442209416,-23.617699852048762,10.239187201382018,-0.1585135305109883,0.06905391883730366,-1.3754881102245125,0.10000719852061524,-0.019191091177527042,-0.04526483000532394,6574.1954748481985,19.55398528284576,-211.7341746485991,0.04559833970487971,-0.007506333316742711,0.12555735039462554
10714,1724818893114682100,-0.5343315601348877,-0.6455408334732056,0.1275524944067001,0.0390274450182914,-0.0763202384114265,0.630327582359314,-0.771582305431366,0.0,0.0,0.0,-528.575332572671,76.52425052094907,81.36051307042624,0.537772054,0.1275524944067001,0.03729525490290979,-0.015607151062704449,0.0016565405358693072,-2385.4750690449555,-16397.829921313227,-14894.994110722366,-0.1574582425085988,0.06862839985736761,-1.3753730018142478,0.9942890622505729,-0.1495681604924357,-0.1878725237726826,-49106.69116931455,7500.853639090608,9821.497704019828,0.005313678287423003,-0.0008879842638485891,0.12555735039462554
10716,1724818893114929036,-0.534083902835846,-0.6455780863761902,0.1275057047605514,0.0394345596432685,-0.0759550631046295,0.6306557655334473,-0.7713294625282288,0.0,0.0,0.0,-540.7669631028061,78.38678691337753,83.80073149626938,0.53801899,0.1275057047605514,-0.556931083778722,-4.100440607911742,-3.7087919979264306,-1880.6398527760923,-13438.35610526474,-12175.51285434227,-0.15764660042979708,0.06748470250910452,-1.37612040706156,0.8625479457435006,-0.13049533078829256,-0.16759400013627257,-38703.40924200067,5996.398717882943,8226.0477798836,0.3540233438514251,0.016078902503034814,0.12555735039462554
10718,1724818893116214477,-0.5339144468307495,-0.6456095576286316,0.1274367272853851,0.0394247360527515,-0.0754268392920494,0.6308086514472961,-0.771256685256958,0.0,0.0,0.0,-519.1321661720489,75.74856694657937,83.29420274663306,0.539304431,0.1274367272853851,0.5437000022231496,-0.6063016420574465,-0.28613827859609886,761.6543261921287,2439.080795972069,2386.8500819230158,-0.15696388402050393,0.06665732994297277,-1.3763619889383611,0.11881804702957321,-0.022046343037284366,-0.04863035752215494,19959.57737438831,-2548.038967283438,-1125.5306808265145,0.05295635460794758,-0.007175249866985567,0.12555735039462554
10720,1724818893127216823,-0.5338322520256042,-0.6456226706504822,0.12737537920475,0.0395554453134536,-0.0751140713691711,0.6307848691940308,-0.7713000178337097,0.0,0.0,0.0,-4.874131454572279,1.0378049621081027,2.026309650770325,0.550306777,0.12737537920475,0.01752369462135,-0.05960236703871415,0.0042694543363162515,-22.447689143055598,24.415134980205803,9.95006249357303,-0.15676120634745902,0.06601695887477713,-1.3762128969670586,0.0053839598924732,-0.0002569194918322637,-0.0035416240773518126,21887.48703670157,-3193.3557832143442,-3522.143341146697,0.002976001113300712,-0.0006356051427320059,0.12555735039462554
10722,1724818893136685373,-0.5337982773780823,-0.6456174850463867,0.1273584216833114,0.0396277979016304,-0.0749467834830284,0.6309123039245605,-0.7712083458900452,0.0,0.0,0.0,-0.15013474068097338,0.11245956813336612,0.1650255672110005,0.559775327,0.1273584216833114,0.011757477484242312,-0.03437516346234713,-0.03552128451081447,-0.8765644373044086,5.691538164410257,-1.692477353760129,-0.15666843314612902,0.06564297172779497,-1.3764949267135722,0.0035275096750062573,0.0018885029268460585,-0.0012375627119691757,264.8788295870476,-59.24153062960278,-109.79391427476911,0.0002725877383078774,0.0009244277175258324,0.12555735039462554
10724,1724818893147685427,-0.5337602496147156,-0.6455795764923096,0.1273518800735473,0.0394102148711681,-0.0752303376793861,0.6310198903083801,-0.7711038589477539,0.0,0.0,0.0,-0.2272588646320503,-0.04736739080783821,0.06629101075340889,0.570775381,0.1273518800735473,-0.0013042329271410488,0.06691777067689689,-0.022063498585682073,-4.16889156445359,-1.2897998602698004,0.01984167724726915,-0.15670621270195664,0.06633218089615621,-1.3768502939076215,0.0024629733545147303,0.0016671362913029952,-0.0004230530562434609,-3.83365578734899,-4.971290447098552,-4.984921624531049,-0.002669927707987423,0.003899543073219428,0.12555735039462554
10726,1724818893156823818,-0.533745288848877,-0.6455778479576111,0.127349317073822,0.0397102870047092,-0.0753170475363731,0.6311033964157104,-0.7710116505622864,0.0,0.0,0.0,-0.23816865939148613,-0.02023183311741071,0.05103497864032077,0.579913772,0.127349317073822,-0.06203590636738396,-0.024569164933232683,-0.031019570235179268,2.2343645543206825,-3.3549883185937395,1.9027225904918852,-0.1572893546894166,0.06606609788841139,-1.3770957040478802,-0.0006044099700268646,0.0010274492973252336,0.00012386604302339066,7.382819624021146,1.7299996083894618,-3.4549838931284214,0.00014775417835687603,0.0004507616259798107,0.12555735039462554
10728,1724818893166416980,-0.53377366065979,-0.645559549331665,0.1273545771837234,0.0394927226006984,-0.0752103477716445,0.6310628056526184,-0.771066427230835,0.0,0.0,0.0,-0.08097224979939904,-0.01611714979700696,-9.063634533910264e-05,0.589506934,0.1273545771837234,0.04882671531093315,0.010278443080869611,0.016264694183826166,7.354179534967234,2.5180961218759896,3.040017567853786,-0.1568117590317735,0.06618788744013691,-1.3769566582742478,-0.0019074175730819931,0.0013345551712848902,0.000524695608071335,10.292280596061605,-33.241008491586456,20.994298542254114,-0.0024723601543892144,0.0013674575801613565,0.12555735039462554
10730,1724818893188214128,-0.5337632298469543,-0.6455588340759277,0.127364844083786,0.0394247397780418,-0.075282484292984,0.63116055727005,-0.7709828615188599,0.0,0.0,0.0,-0.15844518173337993,-2.4082296940557244,1.761244698498846,0.611304082,0.127364844083786,0.0010045619080697949,0.009970934211613484,-0.011024040732601726,1.3638478319886622,-4.456788412973783,5.660256100926182,-0.15680787069234056,0.06636503358954404,-1.3772285535071405,-0.0009556328565878403,-0.0014004700973160311,-0.0015511264590042373,14.187007886717437,46.83109670083121,0.03340464555816425,2.848315316472568e-05,0.00020170944508469634,0.12555735039462554
10732,1724818893196393775,-0.5337754487991333,-0.645574688911438,0.1273459494113922,0.0394381321966648,-0.0751055032014846,0.6309830546379089,-0.7711447477340698,0.0,0.0,0.0,0.012056612100943553,-1.544557697117341,1.5135861254488674,0.619483729,0.1273459494113922,0.023081104085931024,-0.04012088695174533,0.056491932485330396,879.9886288012876,-2886.6201552717985,451.340738714607,-0.1565854095166048,0.0661129943928805,-1.3767198562292942,-0.0028720400291604165,-0.028105879708618886,0.018553717545273685,54.298214568573876,391.2813674550207,-255.5689271083629,0.0017629198674868228,-0.0025448263079020906,0.12555735039462554
10734,1724818893196639280,-0.5337761640548706,-0.6455817818641663,0.1273506581783294,0.0394729524850845,-0.0750144124031066,0.6309654116630554,-0.771166205406189,0.0,0.0,0.0,0.025633601927828834,-1.4463909988155053,1.4491825886130054,0.619729234,0.1273506581783294,0.24558712601243576,-0.770025848134994,0.17056327700155646,893.232478334335,-2930.206732869949,457.89262066956815,-0.1565204178362133,0.06593278346818537,-1.3766487693386902,-0.0028672648382906396,-0.028472400086658856,0.01891835213677441,54.54741330162749,395.6594555381585,-260.0313348131099,0.026462353495300416,-0.02533109993985967,0.12555735039462554
10736,1724818893213681701,-0.5337704420089722,-0.6455714702606201,0.1273636221885681,0.0395282320678234,-0.0751433447003364,0.6310104727745056,-0.7711139917373657,0.0,0.0,0.0,0.06219307992840728,0.33164608174149235,-0.26193759220220125,0.636771655,0.1273636221885681,-0.014394945521686887,0.008243453031348099,-0.007833634945015194,-20.271881903212787,24.06466111135159,-14.137293911581533,-0.15677591618334932,0.06605072825452725,-1.3768029557968489,0.004884517923585463,0.0019286974839900495,0.0009547045977633672,-41.023270251183035,-52.18329581213197,23.577059629867097,-0.0005780336651447785,0.0007759096688043524,0.12555735039462554
10738,1724818893218227042,-0.5337427258491516,-0.6455610990524292,0.1273681968450546,0.039607536047697,-0.075458213686943,0.6311335563659668,-0.7709784507751465,0.0,0.0,0.0,-0.1766037955213703,-0.0952822595991297,-0.0044730055628368695,0.641316996,0.1273681968450546,-0.11261941335130583,0.09143803174092074,-0.07654087915580174,-14.183245822189434,12.07844944731304,-10.11370373748997,-0.15731491666517552,0.0664068199699823,-1.377212506963312,0.00469119528906603,0.0016756712638290594,0.00072437405263992,-40.74800116247123,-71.30395779817805,38.4750319434555,-0.0011304803464565448,0.0035447843785427796,0.12555735039462554
10740,1724818893232201928,-0.5337375998497009,-0.6455637216567993,0.1273662000894546,0.0395964048802852,-0.0753820016980171,0.6311517953872681,-0.7709715366363525,0.0,0.0,0.0,-0.23953644616564967,-0.11973176284841866,-0.24742981011481338,0.655291882,0.1273662000894546,0.008269729825382086,-0.007225592626834814,-0.00294875657408177,1.2073333931619983,-7.224141566857009,2.9670939907816405,-0.1572009993486988,0.06630063439951904,-1.3772374322376835,-0.0035374179328897526,-0.0013580100607697432,0.002646959179312347,39.03721368643999,16.970887364861493,-23.745214690646645,0.0002636226857774323,-0.00013486518598557274,0.12555735039462554
10742,1724818893237389438,-0.5337634682655334,-0.6455730199813843,0.1273853033781051,0.0396681316196918,-0.0752924755215644,0.6311311721801758,-0.7709934711456299,0.0,0.0,0.0,0.04681172481151605,0.004353217691229875,-0.3828552080231675,0.660479392,0.1273853033781051,0.00020018913976722503,-0.04501684478919731,0.008016212268197967,1.8584903608305234,-3.7860585903878996,3.491564634113211,-0.15719481292533458,0.06607649760169859,-1.3771596179815875,-0.004107440651427652,-0.001791662682084194,0.0006220446073932351,41.26850643644278,20.372687144527156,-4.031381738275078,0.0005544678127462635,-0.002079242934751547,0.12555735039462554
10744,1724818893246511812,-0.5337868332862854,-0.6455893516540527,0.1273418813943863,0.0394613519310951,-0.0750142633914947,0.6309336423873901,-0.7711928486824036,0.0,0.0,0.0,0.19979769924802246,0.1332955205752192,-0.06551053993211646,0.669601766,0.1273418813943863,0.07192219150889274,-0.02342414260943195,0.061970789255752425,0.8400438872222621,2.9955687400832707,0.3120666949863816,-0.15649959019137602,0.0659537428626065,-1.3765665688551043,-0.0011667087226676642,-0.00034108283503897496,-0.002750365447268699,1.1189833066413037,2.363175204904292,27.469533614772818,0.0015732320710353392,-0.003012639320631034,0.12555735039462554
10746,1724818893256916582,-0.533782422542572,-0.6455757021903992,0.1273371130228042,0.0394226647913455,-0.0750837698578834,0.6309407949447632,-0.7711821794509888,0.0,0.0,0.0,0.025698045296677914,0.0181855662162763,0.1334579947785713,0.680006536,0.1273371130228042,-0.002672466757115288,0.015203507993191133,-0.0012691624536071116,-3.132080676557751,0.019234231262377777,-3.096453973961811,-0.15652988199673928,0.06610793658614157,-1.3766043045554048,-0.0005424170556089791,0.0007406207881786031,0.0001777918223568875,0.6534836863300804,-8.245954461123738,11.512675411201661,-0.0011724772430950676,0.0012746002075093197,0.12555735039462554
10748,1724818893266771237,-0.5337967872619629,-0.6455737352371216,0.1273448020219802,0.0394676961004734,-0.0749976262450218,0.6309536695480347,-0.7711777687072754,0.0,0.0,0.0,0.19441381038103098,-0.03678044283646535,0.1758812087319253,0.689861191,0.1273448020219802,0.004143618815610808,-0.019078452296094985,-0.0039552300877094765,0.10440905875523782,-0.9956002605512111,0.12993533254130252,-0.1564896664817896,0.065916152007627,-1.3766135862791113,-0.0006093381836969058,0.00011922554789123296,0.0001119103248061748,9.026059586180956,-3.9489988459108414,6.301811484169913,-0.0005274787240540102,4.150309520063645e-05,0.12555735039462554
10750,1724818893280871751,-0.53378826379776,-0.6455736756324768,0.1273328959941864,0.0394228659570217,-0.0751193538308143,0.6309224963188171,-0.7711937427520752,0.0,0.0,0.0,0.15837669637937735,-0.05960379616933785,0.30502924806683596,0.703961705,0.1273328959941864,-0.0062323850593167425,0.01698250156555461,0.005997716855079335,-4.005104274878107,0.5467073980104653,-3.3103273996593914,-0.15657449627451214,0.06616587287755192,-1.3765673162493677,0.006191439224664919,0.00013073021122522732,0.006275331977796839,-29.887966021492737,4.502376020487656,-24.53651064252597,0.00016810429690630719,-1.9330989934208777e-05,0.12555735039462554
10752,1724818893286726349,-0.5337384343147278,-0.6455726027488708,0.1273869425058365,0.0394846498966217,-0.0752207040786743,0.6309682130813599,-0.7711432576179504,0.0,0.0,0.0,-0.08304605581664279,-0.01836493875232132,0.07946866406217,0.709816303,0.1273869425058365,-0.03762772235375676,0.015295498009043057,-0.023145684962346695,-3.4014503044479194,-0.715842761610042,-2.6876328551793955,-0.15680458167074202,0.06623317461826156,-1.3767154011336804,0.006331243084325422,-0.0003650976392250982,0.007740095640535127,-34.39186877648048,4.0223068195446325,-38.77687912088132,0.0008475037309243409,0.0033460857164548507,0.12555735039462554
10754,1724818893300265909,-0.5337209701538086,-0.6455947160720825,0.1274450421333313,0.0396280139684677,-0.075278453528881,0.6308912038803101,-0.771193265914917,0.0,0.0,0.0,-0.33437915757679304,-0.058515216871393765,-0.4533748504498936,0.723355863,0.1274450421333313,-0.022277006197823725,-0.007788645085152025,0.012176915991306008,-5.181559909624175,7.9630652948536,-3.6343175512784844,-0.15709431293061915,0.06615478533577394,-1.3765356689091413,0.0018587790858717312,0.0014630357003255767,0.0034704154039086887,2.4321957421668152,-9.817276457195213,-7.195500571206054,0.0015637942794804339,-0.0006182753811661617,0.12555735039462554
10756,1724818893306877515,-0.5337068438529968,-0.6455750465393066,0.1274653375148773,0.0396734289824962,-0.0756286308169364,0.6309635639190674,-0.7710974216461182,0.0,0.0,0.0,-0.25051452513217176,-0.14554488545119632,-0.3971210676119451,0.729967469,0.1274653375148773,-0.07692487726305189,0.07607377890073981,-0.03200820566108906,-0.9919166608499917,2.3789433981779036,-1.0261099304497403,-0.15762203579250614,0.06661837270452725,-1.3768240704384485,-0.0003650911569330617,0.00045131010368137936,2.725270917203204e-05,20.218942869160323,-1.1934268159727393,23.692896548696673,-0.002706145744391071,0.0037996691322655816,0.12555735039462554
10758,1724818893316846933,-0.5337480902671814,-0.6456084847450256,0.1274198740720749,0.0397440791130065,-0.0753543674945831,0.6307966113090515,-0.771257221698761,0.0,0.0,0.0,0.06431909954034294,0.02249304488215865,0.06734594184229975,0.739936887,0.1274198740720749,0.022525978664345924,-0.05512266424371042,0.04279900767945956,3.8998332078119495,-1.9936075565390365,0.7838379165267703,-0.1573637236252335,0.06614255599518509,-1.3763153738675038,-0.0015721205290404328,-0.0008872775445674108,-0.002072971196301232,16.89432897271628,9.698183169407423,29.086609885959803,0.0027872469357641465,-0.004800008248684125,0.12555735039462554
10760,1724818893327174001,-0.5337368845939636,-0.6455912590026855,0.1274250745773315,0.0396185219287872,-0.0755314081907272,0.6308883428573608,-0.7711713910102844,0.0,0.0,0.0,0.08168794353384395,0.046082808615955984,0.18049074602665077,0.750263955,0.1274250745773315,-0.002195913689574396,0.043741062791819545,-0.020991964978538325,-2.204492818818494,2.566587766762716,-2.0799094280103927,-0.15740534713858062,0.06655471842532938,-1.3766010037278233,0.0010753503533962316,0.001021983396704229,0.0015965681486154182,-5.7088232643600305,-4.8340718761340495,-3.8257473109021194,-0.0014576012462538279,0.00190584617501472,0.12555735039462554
10762,1724818893336732235,-0.533726692199707,-0.6455872058868408,0.1274500042200088,0.0396808087825775,-0.0756188035011291,0.6308987736701965,-0.771151065826416,0.0,0.0,0.0,-0.03826116635192546,-0.06309573771292745,0.013153343660979588,0.759822189,0.1274500042200088,-0.021591419919794172,0.006287595860747721,-0.00462616980705836,-0.7916485821885495,-2.16654543376465,1.631307126962905,-0.15761525762748668,0.06660713425050917,-1.3766541825043872,0.000310861967641074,0.00023457142112093265,0.0017749821815846722,-7.916663728988245,-6.5173760403048036,-15.321113433111858,-0.0003834821325916802,0.0010501091010899476,0.12555735039462554
10764,1724818893351256759,-0.5337388515472412,-0.6455879807472229,0.127457395195961,0.0396418720483779,-0.0757257714867591,0.6308026909828186,-0.7712211608886719,0.0,0.0,0.0,-0.05099913026207895,-0.04949637856193294,-0.1611301407627181,0.774346713,0.127457395195961,-0.0057756241750612815,0.013486221028771896,0.017281954442371628,-5.175725030079061,-3.6774160279114687,-11.53208071782065,-0.15768463320622159,0.06683999343575751,-1.3764365374543557,0.0006759700103913246,-0.0002562263601930681,0.0018443571514517032,-6.825700859240542,3.229658745523178,-12.804663958595448,-0.00014308661186503575,-0.00012802734842516278,0.12555735039462554
10766,1724818893356649907,-0.5337321758270264,-0.6455897688865662,0.1274700164794922,0.039777535945177,-0.0757662430405616,0.6309393644332886,-0.7710983753204346,0.0,0.0,0.0,-0.09972370566306485,-0.0274857982727501,-0.23180045569271995,0.779739861,0.1274700164794922,-0.046234288520849855,-0.01470332694203976,-0.07102635013265086,-3.1559096962449322,-2.806521258536233,-8.061824121950755,-0.1579584412761004,0.0667014764395224,-1.3768031644637189,0.0002484572552070574,-0.0005546184740410354,0.0006431227662719863,-5.81029662608921,4.127885343918223,-3.7676487068235485,0.00040672660148449697,0.000308392297840168,0.12555735039462554
10768,1724818893366630909,-0.5337479710578918,-0.6455994248390198,0.1274450868368148,0.039760697633028,-0.0757663175463676,0.6309328675270081,-0.771104633808136,0.0,0.0,0.0,-0.09815928078006803,0.014576767939807925,-0.0969525754580893,0.789720863,0.1274450868368148,0.002543569780788127,0.0019935457878911228,0.002051341025322691,2.153672122693149,0.5233181682030252,4.694671927734696,-0.15793193188761773,0.06672435515151942,-1.3767861599676727,-0.0011247063124386614,-0.0003146625001875236,-0.001837960957571383,6.039035599409682,2.0615446234012884,17.012644098772217,0.0008092797241122752,-0.0016571063907278563,0.12555735039462554
10770,1724818893377958859,-0.533754825592041,-0.645594596862793,0.1274327486753463,0.0398118160665035,-0.0757705047726631,0.6308340430259705,-0.7711823582649231,0.0,0.0,0.0,0.04587734382306944,0.010253053677138932,0.1407922941655348,0.801048813,0.1274327486753463,-0.008202138872707957,-0.006857681609727938,0.021457788330106826,-0.4293747439104735,-1.00602308556044,0.43554946800904193,-0.15800797422335772,0.06668586974940673,-1.3765332148682525,-0.0017298597743220512,-0.0002712195963638919,-0.0009868030442925502,10.319259705962436,1.116447467224161,9.177533223203064,-0.0004612259866060515,0.00011356422089245275,0.12555735039462554
10772,1724818893386888700,-0.533778190612793,-0.6456019282341003,0.1274246573448181,0.0398842170834541,-0.0757370293140411,0.630771815776825,-0.7712328433990479,0.0,0.0,0.0,0.1211610176857354,0.03076872103326276,0.13961133255127392,0.809978654,0.1274246573448181,-0.008381339218149675,-0.017422790228787958,0.016353643388543566,1.2627041811087467,1.3727028713709004,-1.8473880619344971,-0.15807157223818585,0.06655521345049628,-1.376364198319778,-0.0006211789541517021,-0.0001344822937134893,0.000732618101555893,-0.8638628330704738,-1.5894628872715992,-6.807812134493461,0.0003595898839308437,-0.0014496822421056095,0.12555735039462554
10774,1724818893396955631,-0.5337617993354797,-0.6455954909324646,0.127450630068779,0.039736621081829,-0.0757723152637481,0.6308490633964539,-0.771173894405365,0.0,0.0,0.0,0.006983754904466372,-0.029343892580338617,-0.004682164417695454,0.820045585,0.127450630068779,0.018888154137726796,0.02540171652394885,-0.01672275888966377,1.1369010949571619,1.8291186272962374,-1.1627227744755926,-0.1578952329202119,0.06678126927523419,-1.3765712658198266,0.0005645670654317314,0.0003506751953459286,0.0015373097769861843,-6.581087149165364,-3.5688926844852857,-7.410371415215071,-0.0004846383531462181,0.0013627531597568178,0.12555735039462554
10776,1724818893411470862,-0.5337758660316467,-0.645596444606781,0.1274511218070984,0.0397112146019935,-0.0757707506418228,0.630790114402771,-0.7712234854698181,0.0,0.0,0.0,0.011095550294768636,-0.03086704843798535,0.032647734532359265,0.834560816,0.1274511218070984,0.0024916908146244763,0.0012016336260698042,0.010831014209009962,-10.315038328129361,-6.34060684947233,2.760625629527751,-0.15784883989324808,0.06682320189690642,-1.3764182709832475,-0.0016530599327637674,-0.0016980404437134666,-0.0003015974949533984,8.884970397761961,11.932488656544168,5.973555899074022,-0.00012471149919884888,-0.00024464298575283276,0.12555735039462554
10778,1724818893417177197,-0.5337868332862854,-0.6456097960472107,0.1274486482143402,0.0399562492966651,-0.0758124738931655,0.6307055354118347,-0.7712758779525757,0.0,0.0,0.0,0.08109249523718025,0.06422748193988523,0.07436611873631646,0.840267151,0.1274486482143402,-0.07697521098177111,-0.04546387969346553,0.02851861400331204,-6.107021581664757,-2.6853879203977638,0.4717869905687251,-0.15827461620009994,0.06659261694385926,-1.3762162435978917,-0.001222121802637588,-0.0016267954623323533,0.00024214217949225514,9.943675599952869,14.084906366339535,6.09449248479126,0.001948568195707161,-0.002705499853602543,0.12555735039462554
10780,1724818893426840589,-0.533787190914154,-0.6456138491630554,0.1274620443582534,0.0399335511028766,-0.0759038627147674,0.630743145942688,-0.771237313747406,0.0,0.0,0.0,0.13916980616775648,0.158118013163347,0.11335389806400331,0.849930543,0.1274620443582534,-0.00803494258003503,0.01846728221868695,-0.009925788400289539,3.938213777961117,2.447821887457011,-1.0565220539328006,-0.1583604656486898,0.06675372044079635,-1.3763393789579557,-0.00034729000458355586,-0.00015940584375684352,0.0006184116369016834,-0.7915964491978189,1.4934148807859309,3.7093087757200527,0.00031100243685367444,-0.00018051861052318738,0.12555735039462554
10782,1724818893438216711,-0.5337952971458435,-0.6456121802330017,0.1274587959051132,0.0399867072701454,-0.0758877173066139,0.6306629776954651,-0.7713016867637634,0.0,0.0,0.0,0.03907425861246379,0.06498560828068635,0.15119520914849777,0.861306665,0.1274587959051132,-0.006034894951927571,-0.009505417184603467,0.017185483872749298,-4.679275829706194,2.8455135285110815,-4.952450281089226,-0.15841507605491542,0.06667777339589563,-1.3761287689430404,0.001887320318616048,0.00172330288442879,0.002904553095678608,-25.259527503926005,-19.2563565432528,-11.22743425920757,-0.00026212075836334057,-4.352939036569949e-05,0.12555735039462554
10784,1724818893446305583,-0.5337650775909424,-0.6455891728401184,0.1275006383657455,0.0401184000074863,-0.0761976689100265,0.6308509707450867,-0.7711105346679688,0.0,0.0,0.0,-0.2599211638372469,-0.15444405616168408,-0.023328443569730475,0.869395537,0.1275006383657455,-0.07180902629898815,0.04401992760109494,-0.06506514712772052,-2.6015263171367593,2.830808231015985,-3.6032567991301203,-0.1590344704619332,0.06694618251398944,-1.376706033812292,0.0012983549469396394,0.001670873832136266,0.003841331256633218,-21.445426103341553,-18.69133774647915,-15.227490450042952,-0.0024117598246880478,0.004338556318567543,0.12555735039462554
10786,1724818893456891813,-0.5337851047515869,-0.6455877423286438,0.1275228559970855,0.040144246071577,-0.0763588547706604,0.6308963894844055,-0.7710561156272888,0.0,0.0,0.0,-0.27194621122828055,-0.23543708943493913,-0.09657712634260092,0.879981767,0.1275228559970855,-0.022734596118243914,0.02152906780765744,-0.012252910432100262,2.1618975120215502,-2.3372576330293597,4.822231660155708,-0.1592861772683607,0.06715065880057554,-1.3768706451434987,-0.004045559751133965,-0.0020140700229305253,0.0016666503214812778,14.956710699759752,6.702593769453042,8.594106685317358,-0.0006368769683172273,0.00012032865860603484,0.12555735039462554
10788,1724818893466203711,-0.5338404178619385,-0.6456241011619568,0.1275348365306854,0.040221020579338,-0.0764247700572013,0.6307755708694458,-0.771144449710846,0.0,0.0,0.0,-0.0008567131697081731,-0.05545514087759461,0.11051961842637732,0.889293665,0.1275348365306854,-0.02286593687137617,-0.0019776068459464074,0.031287132295790984,-0.10021059522597497,-1.5736170262839118,2.140541397026163,-0.15947956268266758,0.06717871803587652,-1.3765794515065881,-0.0046706087804029295,-0.003283713196374549,0.0016589067343315556,13.69357921856643,13.20360327257334,7.2177824735257605,0.0025923074045670577,-0.004701398885507447,0.12555735039462554
10790,1724818893480675145,-0.5338794589042664,-0.6456576585769653,0.1275672167539596,0.0403799712657928,-0.0765273198485374,0.6307307481765747,-0.7711625695228577,0.0,0.0,0.0,-0.14945133189826748,-0.0021201391988404095,-0.12287518957372887,0.903765099,0.1275672167539596,-0.026252631145485816,-0.0033678935342062685,0.005247744376869736,0.17078140120864638,2.883699156922795,-5.650011342183495,-0.15985389555318483,0.06714266694539026,-1.3764964399757387,-0.003192677701591151,-0.00226700460153495,0.005762546432110938,-3.5405313398170657,-0.5765718576567931,-15.27206185088505,0.0016002748181940464,-0.0023830960150731263,0.12555735039462554
10792,1724818893489446945,-0.5339100956916809,-0.6456772685050964,0.127636507153511,0.0403736755251884,-0.0767061188817024,0.6309489607810974,-0.770966649055481,0.0,0.0,0.0,-0.14473756788457792,-0.029839302592714306,-0.2522878230133805,0.912536899,0.127636507153511,-0.022602212891680965,0.037770748534560715,-0.06478687608042834,0.5543529682607373,-0.5704572573987905,3.8846060926554924,-0.16009351704648944,0.06737923325235083,-1.377111716754783,-0.005841277012486046,-0.002670426569942208,0.00252365381181896,8.424950341970131,1.4051221300586243,22.58985406997345,0.0009862201210386855,-0.0014950855606168743,0.12555735039462554
10794,1724818893497349592,-0.533972978591919,-0.6457014679908752,0.1276181787252426,0.0404213480651378,-0.076744370162487,0.6307894587516785,-0.7710908055305481,0.0,0.0,0.0,-0.022001682539545153,0.013767012295715836,0.19210036493209087,0.920439546,0.1276181787252426,-0.017237432629376756,-0.0041889058914286684,0.050412150090627716,-0.29013148793632326,-1.6853499709110797,5.412355079203963,-0.1602028246275431,0.06741007751328675,-1.3767121686958508,-0.005865832186618292,-0.00279124372523043,0.001362561025660014,1.6443997641506112,-1.056372838963966,26.870748071798715,0.001622903949456004,-0.004883853369081886,0.12555735039462554
10796,1724818893509528278,-0.5340051651000977,-0.6457303762435913,0.1277038753032684,0.0404639430344104,-0.0770836398005485,0.6310433149337769,-0.7708470225334167,0.0,0.0,0.0,-0.26260464447038445,-0.12248780672905696,-0.03172979952490029,0.932618232,0.1277038753032684,-0.03895729064762277,0.043306711833795704,-0.05568369210231686,-10.516151875171065,-7.119235041108732,-5.615128662614502,-0.16072832390346248,0.06782237072604218,-1.3774676660793959,-0.006488403654422825,-0.002078258681869727,0.010065061234525885,1.1035922574036565,-6.902010985628025,-49.01247914699999,0.0013406302818554027,-0.0016055016811658634,0.12555735039462554
10798,1724818893516661176,-0.5340675115585327,-0.6457439661026001,0.1277883201837539,0.0410207360982894,-0.077263168990612,0.6312217116355896,-0.770653486251831,0.0,0.0,0.0,-0.1675885612340905,-0.1538139137231149,-0.5093072867738931,0.93975113,0.1277883201837539,-0.1504501381212727,-0.053508092824623835,-0.0827998718539673,-1.4544612770197887,-5.096613954925923,4.3906725430820295,-0.16183676806651268,0.06735080971952205,-1.3779904369307792,-0.00924504470594556,-0.0037082370879133464,0.006720967786233878,24.499421426056667,5.0114311170451025,-25.103993292183468,-0.0006020930540303016,-0.0014896526994806001,0.12555735039462554
10800,1724818893526253605,-0.534162700176239,-0.6458027958869934,0.1277867704629898,0.0409073308110237,-0.0772457122802734,0.630989670753479,-0.7708513140678406,0.0,0.0,0.0,0.21162478393549944,0.015559694116786232,-0.21024606072165777,0.949343559,0.1277867704629898,0.018473332107300906,0.006948711965862379,0.06499757092778939,7.868265401489386,3.513993294306906,5.182878051876977,-0.16161874328322487,0.06751699608585524,-1.3773845224862211,-0.008029064165423705,-0.004220031244610567,0.0013132732255209945,18.735350008649277,7.267971128763523,27.941781828021988,0.004112777041345045,-0.007857929684867787,0.12555735039462554
10802,1724818893537518107,-0.5342280864715576,-0.6458250284194946,0.127821072936058,0.0409726910293102,-0.0773621797561645,0.6310339570045471,-0.7707998752593994,0.0,0.0,0.0,0.14756281245461142,-0.039996811124683174,0.06171127648278252,0.960608061,0.127821072936058,-0.02175969887801117,0.00964490821512613,-0.011874452094654271,-2.2186701403449707,1.925487659657269,-5.191253813621644,-0.16187396336523077,0.06760267863127792,-1.3775343235971824,-0.004522682873368211,-0.003133166560509437,0.0036210678063248736,-10.057353719964317,-5.297063833812626,5.021986796885409,0.0006145085810818643,-0.0024991457760197974,0.12555735039462554
10804,1724818893547260193,-0.5342613458633423,-0.6458653211593628,0.127861201763153,0.040980115532875,-0.0776107236742973,0.6312131881713867,-0.7706277370452881,0.0,0.0,0.0,0.012761671149029902,-0.09467709516324951,-0.05046564992575947,0.970350147,0.127861201763153,-0.03197461214867844,0.04260957620671456,-0.04868921954896898,-1.0422492054474726,0.09239115836458323,0.3500922882258436,-0.16222178476712582,0.06793581898598638,-1.3780706691751279,-0.0044644758804004425,-0.004672743362490905,0.00301606402168364,-1.6639804241320384,4.304486609156732,-7.341544450453512,0.0031179979473543525,-0.003943959516835575,0.12555735039462554
10806,1724818893556935085,-0.5343146324157715,-0.645915687084198,0.1278797835111618,0.0411025173962116,-0.0777821317315101,0.6312207579612732,-0.7705977559089661,0.0,0.0,0.0,0.1136230764892824,0.042255143908601744,-0.08139821482043146,0.980025039,0.1278797835111618,-0.04199787052587406,0.011879657446729138,-0.005629696723788583,1.1145529024440934,-1.3486181252793048,1.9065478845305943,-0.16263304031162346,0.06804043467739616,-1.3781432038106605,-0.0042757987143531295,-0.004979994623731443,0.0026396189886437327,8.210825260152724,6.953755555692075,4.4750858941697285,0.003915040488278097,-0.005753321787981232,0.12555735039462554
10808,1724818893566574667,-0.5343440175056458,-0.6459615230560303,0.1279121339321136,0.0410962738096714,-0.0778731033205986,0.6312634944915771,-0.7705540060997009,0.0,0.0,0.0,0.17150552661723512,0.04013854404793471,0.035427452115447455,0.989664621,0.1279121339321136,-0.010599204510574878,0.016432894339013862,-0.011685913625455381,2.7745226306625392,0.2692677868774727,0.7933544389819881,-0.16274457378649934,0.06817851550185156,-1.378280512229789,-0.0022765406436384694,-0.0038618247254618154,0.0014468953967310405,-0.45597756387870714,-1.4825231430411419,9.711100064510216,0.003845771351113262,-0.004600424342988152,0.12555735039462554
10810,1724818893580190869,-0.5343601703643799,-0.6459969282150269,0.1278951168060302,0.0409187711775302,-0.0778885409235954,0.6311386227607727,-0.7706640362739563,0.0,0.0,0.0,0.04103739880944511,-0.0043384716761787345,0.12133676594072179,1.003280823,0.1278951168060302,0.017894542112269405,0.016193397352985944,0.026459001341498006,-11.803538083601527,-4.463093597994028,-8.891541592548455,-0.162479000692924,0.06845441132684983,-1.3779597352877293,-0.0006316733521458673,-0.004774313095282423,0.004990441643615284,-17.870009704546714,6.14775470452751,-26.420598990102327,0.002404721142139622,-0.002954303475034695,0.12555735039462554
10812,1724818893586683667,-0.5343625545501709,-0.6460346579551697,0.1279468387365341,0.0412448346614837,-0.0780216678977012,0.6312781572341919,-0.770518958568573,0.0,0.0,0.0,-0.10064957442972279,0.06472457970123506,-0.15154034967416463,1.009773621,0.1279468387365341,-0.10176667766377073,-0.02654806664603582,-0.06747401058099897,-8.825872343511573,-2.945594659679734,-8.042972569554124,-0.1631674428558681,0.06821330989606589,-1.3783651437473,-0.0006121815588002733,-0.004608432645142102,0.005348190593332802,-16.476849457549392,3.000176336390551,-29.09095429857315,0.005077458509774823,-0.004313138825505125,0.12555735039462554
10814,1724818893597742576,-0.534373939037323,-0.646062970161438,0.127956673502922,0.041306022554636,-0.0781180635094642,0.6314231753349304,-0.7703870534896851,0.0,0.0,0.0,-0.1821800777488437,-0.04594283746466049,-0.22957650998682078,1.02083253,0.127956673502922,-0.018469222405698368,0.00938985351970546,-0.03541147711667501,3.3679828362628284,0.13189120420275302,4.677390820786311,-0.16339924629155486,0.06825210772798058,-1.3787693322059358,-0.003677656261455553,-0.003154719662454397,-0.00021998153605284898,9.655833012663864,-8.939717944420426,14.14047325247904,0.002250558538315739,-0.002516757399260335,0.12555735039462554
10816,1724818893606981662,-0.5344283580780029,-0.6460967063903809,0.1279460787773132,0.0414068810641765,-0.0781311392784118,0.6313369274139404,-0.7704509496688843,0.0,0.0,0.0,0.03846715436345616,-0.12029896202421511,0.06468148897039,1.030071616,0.1279460787773132,-0.019494278348183066,-0.013456959183268644,0.02152833010455092,0.05633623349620309,-1.127151012742055,0.5180842898130045,-0.16356455521470967,0.0681618028345502,-1.3785522720893106,-0.004627439035360226,-0.004948450080249245,-0.0002267097636678983,7.02822968576241,-3.641798872965782,12.852201996415747,0.002531220863548268,-0.0048493971534376715,0.12555735039462554
10818,1724818893617106410,-0.5344612002372742,-0.6461611986160278,0.1279539912939071,0.041519396007061,-0.0781394094228744,0.6314679384231567,-0.7703366875648499,0.0,0.0,0.0,-0.07737085100454069,-0.1082831385543557,-0.015971385782140253,1.040196364,0.1279539912939071,-0.017067820381386153,-0.009938205283227178,-0.035857469624723706,0.6195045601464766,3.3857767096919433,-2.497304858460502,-0.1637606710965544,0.06800337386017473,-1.3788948780263168,-0.0026705602553427354,-0.00534709239463993,0.0011539151704162975,-13.420215105379189,0.40498761779186143,-9.686423643063428,0.005568040388566964,-0.0066378943567604685,0.12555735039462554
10820,1724818893627457137,-0.5344827771186829,-0.646205723285675,0.1279698759317398,0.041370116174221,-0.0783833116292953,0.6315897703170776,-0.7702200412750244,0.0,0.0,0.0,-0.23722259478896804,-0.1123639275263052,-0.13443891192669333,1.050547091,0.1279698759317398,-0.006636036826288584,0.05725690667408911,-0.028156217334552626,-0.7090978289738975,-3.3695675744581743,2.171443090235896,-0.16385562591110286,0.06854056316462642,-1.3792799417763002,-0.006335330400759176,-0.007197090801668082,-0.000623347826316234,2.9871159414005923,-0.4108255847504134,4.5136074208524315,0.003712070005853427,-0.004287605936715838,0.12555735039462554
10822,1724818893636261964,-0.5345703959465027,-0.6462907791137695,0.1279482245445251,0.0415854826569557,-0.0782982856035232,0.6315668821334839,-0.7702359557151794,0.0,0.0,0.0,-0.07287953344693276,-0.11610531296039273,0.024832058366378966,1.059351918,0.1279482245445251,-0.025738991242419622,-0.04627151215586922,0.0016540156029884187,-0.37236149385633527,-5.719161296903846,1.6527042602164284,-0.16407674208682055,0.06814100220401242,-1.3791990272033,-0.007548950317689318,-0.007689357086540838,-0.001527949479653401,13.205384940501308,-2.8570610948514776,15.662847098040281,0.007738205332011378,-0.011651898738312384,0.12555735039462554
10824,1724818893650913006,-0.5346224308013916,-0.646355390548706,0.1279485374689102,0.0414442680776119,-0.0783317312598228,0.6316717267036438,-0.7701541185379028,0.0,0.0,0.0,-0.012509608227550761,-0.21725733924672308,0.19516060598156637,1.07400296,0.1279485374689102,0.012620438763845707,0.017161266941401136,-0.01638013123831352,0.1463642072420701,-5.0971507312362165,-1.522106812573157,-0.1639108115718744,0.0683498721038857,-1.379477387758029,-0.007033142726790231,-0.01085795559051661,0.0019459301284374675,13.025927779379241,24.243099142874982,-9.327027390095113,0.003644214604052733,-0.0049322643519624145,0.12555735039462554
10826,1724818893657853506,-0.5346826910972595,-0.6464519500732422,0.1279683709144592,0.041544996201992,-0.0781841203570365,0.6317406892776489,-0.770107090473175,0.0,0.0,0.0,0.10717655339439633,0.05340939451825644,0.06153680374402705,1.08094346,0.1279683709144592,0.005509219246910283,-0.04920923848265894,-0.02790171988781249,-2.8372401269710457,-3.4046596644253655,-2.6482188001206897,-0.16388180561829377,0.06798131186545404,-1.3796129826017296,-0.007276848463984464,-0.012369072423435767,0.0031625251780562635,14.819355961026616,34.903852109369126,-17.0229230704555,0.011787294333752682,-0.014598589107247947,0.12555735039462554
10828,1724818893666993175,-0.5347322821617126,-0.6465464234352112,0.1280009448528289,0.0417344346642494,-0.0782720521092414,0.6319496035575867,-0.7699164748191833,0.0,0.0,0.0,0.21343110454028597,0.3231413142818061,-0.0672094657336421,1.090083129,0.1280009448528289,-0.042238579133282016,-0.0062095593771009285,-0.0639988139927128,-1.7445375846261566,3.3568565284500433,-0.20121302741585334,-0.16430646576983235,0.06782976676674952,-1.3801820779849294,-0.004584733637209126,-0.008617650969902968,0.00235586457181558,-1.7380861218830614,4.269958017438766,-11.569958155105242,0.0088588705369939,-0.010399097916492918,0.12555735039462554
10830,1724818893677528915,-0.5347703695297241,-0.6466163396835327,0.128011092543602,0.0417748130857944,-0.0783805027604103,0.6320284008979797,-0.7698386311531067,0.0,0.0,0.0,0.03281577567398375,0.06155972924533404,-0.1585435599789968,1.100618869,0.128011092543602,-0.01835741767526995,0.01278740012453349,-0.020595614500149635,0.27851179581189744,-0.5855870411259138,1.427787949810065,-0.16451594273750517,0.06792716635568305,-1.380418834881716,-0.0033213064160975136,-0.0062735461042215945,0.0019034143482858923,-8.503902422825215,-15.426885174298864,-3.754777961056795,0.005753305222956057,-0.006929667102044351,0.12555735039462554
10832,1724818893689409799,-0.5348058938980103,-0.6466860175132751,0.128046303987503,0.0420821942389011,-0.0784074589610099,0.6321839690208435,-0.7696913480758667,0.0,0.0,0.0,0.04752797330771008,0.0042289507294178685,-0.13731433242629149,1.112499753,0.128046303987503,-0.04168548162712635,-0.02617292504439944,-0.03969671576994612,1.7190161880975567,-0.9963558181362802,5.3118740001946065,-0.1650392924595099,0.0675430526569156,-1.3808339514965924,-0.0040984044127228,-0.007698278866968167,-0.001528995100546382,9.41274193774053,7.8167140638376855,21.8610556894225,0.004982746562944808,-0.005716558099087461,0.12555735039462554
10834,1724818893697020852,-0.5348424911499023,-0.6467535495758057,0.1280127614736557,0.0421575270593166,-0.0783723220229148,0.6320762038230896,-0.7697793245315552,0.0,0.0,0.0,0.15902528216031972,0.12536237733467454,0.12694802670020205,1.120110806,0.1280127614736557,-0.010646979896041858,-0.022625464565934963,0.03447038163927414,2.825372929686783,2.359591841941185,4.133945744862759,-0.1651009303675545,0.06741630265721618,-1.3805462409073241,-0.0031860226122155666,-0.007060783193669096,-0.0018350000688585055,3.889433191684385,8.065247570507704,17.40960764824488,0.008082660494549834,-0.010249596539282004,0.12555735039462554
10836,1724818893707654746,-0.5348522663116455,-0.6468017101287842,0.1280314624309539,0.0420535318553447,-0.0784938111901283,0.6321035623550415,-0.76975017786026,0.0,0.0,0.0,0.04052114160198325,0.09449436673100292,0.05488136629416834,1.1307447,0.1280314624309539,0.0007858544278265589,0.030598462459298426,-0.004929693887056616,-2.135480085959344,-0.19563046475663826,-2.398181197578676,-0.1650996944690709,0.06772864424236893,-1.3806516809711649,-0.0009133104286469518,-0.005109581981258771,0.0019983995802004273,-14.776931750315166,-5.851267225555876,-16.338879880408182,0.0041447866246156605,-0.004244675499388232,0.12555735039462554
10838,1724818893716843048,-0.5348606109619141,-0.6468532681465149,0.1280517280101776,0.042252529412508,-0.0785751566290855,0.6321437954902649,-0.769697904586792,0.0,0.0,0.0,-0.12409641890428867,0.01732256460097545,-0.17115855907816244,1.139933002,0.1280517280101776,-0.04432535422051678,-0.012488994111382754,-0.01658865784776459,-0.4508033330057628,-2.3954712879286064,0.9704277917990078,-0.1655158684908391,0.0675903704052612,-1.3807833900045812,-0.0019160820630297337,-0.004947886740090723,7.637952297567807e-05,-6.80080374532543,-8.126429468047816,-2.936414317032977,0.005177591583907421,-0.005209708397577765,0.12555735039462554
10840,1724818893727237696,-0.5348923802375793,-0.6468968987464905,0.1280274838209152,0.0422649569809436,-0.0785266086459159,0.6320635676383972,-0.7697680592536926,0.0,0.0,0.0,-0.0640806713551561,-0.06394450479376562,0.05307856826425793,1.15032765,0.1280274838209152,0.0034217857228757828,-0.010414115958109177,0.01983160442851594,1.9141731902275692,-1.7551239934115626,3.3663219529692467,-0.16546533720428805,0.06751755741315522,-1.380561724834614,-0.0033819495634297425,-0.004771063090679206,-0.0012556308581803677,5.302075397494081,-9.525160196388294,14.571099302979786,0.0036930549445031036,-0.005039758375612793,0.12555735039462554
10842,1724818893736655793,-0.5349270105361938,-0.6469467282295227,0.1280248463153839,0.0423812977969646,-0.0783827006816864,0.63187175989151,-0.7699337601661682,0.0,0.0,0.0,-0.018169858941504552,-0.16821967647682035,0.13056677175510917,1.159745747,0.1280248463153839,-0.0014132648698746753,-0.04362435902907548,0.05036322588838601,-1.0481356016462586,-0.34359034212489703,-1.3799514214523527,-0.16544251781831731,0.06719042887437639,-1.3800249564619866,-0.00332891020974202,-0.00606411571992993,0.0007906919249025535,1.9240377531632593,-9.183819073928062,-4.282472417628268,0.004506273544077697,-0.00585725825210585,0.12555735039462554
10844,1724818893747177738,-0.5349579453468323,-0.647019624710083,0.1280457526445388,0.0424974486231803,-0.0784010291099548,0.6319367289543152,-0.7698721885681152,0.0,0.0,0.0,-0.0326112923082815,-0.24265792300722044,-0.061551025198409035,1.170267692,0.1280457526445388,-0.01872784779432919,-0.009827295227285497,-0.01848606159977749,3.7735819133682416,3.3430001738163213,-3.050662472087411,-0.16565132808107438,0.06705638893098746,-1.3802001931965087,-0.003799883147877381,-0.008197644956084105,0.0011452312101614126,-0.25918380283315257,-6.337653086258047,-15.433314949665316,0.006098441411818747,-0.0069041069130025565,0.12555735039462554
10846,1724818893756818026,-0.5350021719932556,-0.647109866142273,0.1280493587255478,0.0421890132129192,-0.0782853886485099,0.6320295333862305,-0.769824743270874,0.0,0.0,0.0,-0.02527647212136211,-0.29724589174243377,-0.1853767551226304,1.17990798,0.1280493587255478,0.06551525393350886,0.023556765279611862,-0.017045704037245014,1.3001882648856724,0.3749250737146485,-0.4874845802817689,-0.16503315891718393,0.06725334024391802,-1.3804001161627006,-0.004006952887088744,-0.010889252238118985,-0.0002894015538412731,-2.421239321830269,5.5286683614574565,11.398201682043409,0.008279542198398228,-0.009848473637438716,0.12555735039462554
10848,1724818893767135252,-0.535037100315094,-0.647239089012146,0.1280390471220016,0.0422352440655231,-0.0782629996538162,0.6321423649787903,-0.7697318196296692,0.0,0.0,0.0,-0.08539262398448044,-0.11663605090186202,0.19990287081989863,1.190225206,0.1280390471220016,-0.0032036595920172176,-0.006672345720790515,-0.029107592917519635,-3.838456508805084,-3.5809619853667622,3.3071839269899908,-0.16508538151316435,0.06713609000533066,-1.380685653182431,-0.004309659639694985,-0.014155218050980523,-0.0026056640642044826,-19.98093440558342,14.043691439100622,14.56517853748746,0.01170034923681242,-0.012918076272575895,0.12555735039462554
10850,1724818893776110356,-0.535082995891571,-0.6473788619041443,0.1280031204223632,0.0424012430012226,-0.0781624242663383,0.6320058703422546,-0.7698450684547424,0.0,0.0,0.0,-0.37523321853530744,-0.017622023524495822,0.15278475160397287,1.19920031,0.1280031204223632,-0.015620117038969915,-0.043894558292713846,0.035523653960738755,1.4999241455638623,-3.147825627139319,3.5056019444739945,-0.16520015795770993,0.06679991307518085,-1.380305667230762,-0.005513702754353034,-0.013641159785969137,0.002502075509847046,-16.9696908065418,2.81043180608937,-29.003082995638444,0.014558728777513866,-0.016713482417424288,0.12555735039462554
10852,1724818893787027378,-0.5351485013961792,-0.6475021243095398,0.1281168162822723,0.0424508191645145,-0.0777603536844253,0.6319035291671753,-0.7699670195579529,0.0,0.0,0.0,-0.3570006519261646,-0.09611657033389531,-0.4792640232460824,1.210117332,0.1281168162822723,0.03904300041765789,-0.06498766198115871,0.024720546775922062,5.596961054641946,-6.5102080301777985,11.907494094374716,-0.16474843773396577,0.06614439126317029,-1.3799220425374883,-0.012811453295068276,-0.014828119006146778,-0.0013582765339661407,27.899792962093244,-3.461409899415567,-17.82764583436964,0.00923731215680538,-0.010242501666484084,0.12555735039462554
10854,1724818893796402263,-0.535323441028595,-0.6476696133613586,0.1280093044042587,0.0424982421100139,-0.0769350826740264,0.6310386657714844,-0.7707561254501343,0.0,0.0,0.0,0.11572116845121605,-0.09854868527563676,-0.3238245679313059,1.219492217,0.1280093044042587,0.09626222998545568,-0.16287634455504488,0.24018087343407404,1.111184282102335,-3.124843840747269,8.785416406698662,-0.16368370134499569,0.06500607847123081,-1.3774456057895288,-0.013650745295661793,-0.015627691074131533,-0.006862922543511285,37.815350535935586,-17.5737364476104,26.74806648804689,0.014662743556534198,-0.022815294587056334,0.12555735039462554
10856,1724818893811796138,-0.5354069471359253,-0.6478536128997803,0.1280200630426406,0.0426909551024436,-0.0768483430147171,0.6309243440628052,-0.770847737789154,0.0,0.0,0.0,0.37912679936140503,-0.8067348107379586,0.3449422517124272,1.234886092,0.1280200630426406,-0.012823363478493137,-0.02603258086506486,0.016553650380148142,5.90293967187533,2.626547394370634,2.695860812738119,-0.163860545213236,0.0646522477583682,-1.3771282239355211,-0.00668127310956379,-0.017479912440705903,-0.0051912010798940145,10.797565453032362,-14.643168765102622,24.92484919480571,0.010617816776896842,-0.012469347442755846,0.12555735039462554
10858,1724818893820680656,-0.5354727506637573,-0.6480372548103333,0.1279437392950058,0.0423807837069034,-0.0764558240771293,0.6305127143859863,-0.7712405920028687,0.0,0.0,0.0,0.442684430931076,-0.7760223189602145,0.47142905113890365,1.24377061,0.1279437392950058,0.10622589425991465,-0.03481127737552863,0.12881829756871158,-2.354486366398535,6.706664712700356,-17.968616225769537,-0.16284048416844485,0.06453320657189746,-1.3759462181800892,-0.0036903945879416256,-0.02816705864786684,-0.0009146533691062331,-5.407481931048821,64.30723175721096,-28.87442905145322,0.019359457516187246,-0.02287190895432526,0.12555735039462554
10860,1724818893826674342,-0.5354798436164856,-0.6482363939285278,0.1279692947864532,0.0422696582973003,-0.0764734596014022,0.6307610273361206,-0.7710418701171875,0.0,0.0,0.0,0.35948272705971174,-0.14453836135322384,0.12404601726484145,1.249764296,0.1279692947864532,0.028412561614539197,0.036499862952383735,-0.10262870297354963,-15.015836827566943,4.755643437990668,-23.709467333094274,-0.16271174170598682,0.06464939718779429,-1.3765900025634514,-0.0006082932008517616,-0.031092244576374384,0.0018708361266064344,-17.914119598584186,78.24950222510655,-45.22004245969487,0.03202876341477427,-0.031600256817076317,0.12555735039462554
10862,1724818893836812662,-0.5354761481285095,-0.6485150456428528,0.1279472261667251,0.0430445186793804,-0.0768145024776458,0.6310327053070068,-0.7707427740097046,0.0,0.0,0.0,0.10870938974262054,0.1838939584515229,-0.11596360506003967,1.259902616,0.1279472261667251,-0.15869155619353958,-0.03776498363932086,-0.08738602590016857,-3.006255134434965,-2.2448648566560534,2.4372139472838574,-0.16437295718064235,0.06412739035120218,-1.377403520455599,0.0003825924954448112,-0.02666684352114146,-0.0027140498665740864,-10.129175835383426,-0.31326886745248217,8.093258577201269,0.02712658193359729,-0.02685975492906043,0.12555735039462554
10864,1724818893846215304,-0.5354723930358887,-0.6487586498260498,0.1279170215129852,0.0432973727583885,-0.0769052803516388,0.63121497631073,-0.7705703377723694,0.0,0.0,0.0,0.14083795582729694,-0.10428031877911748,0.23715168074016024,1.269305258,0.1279170215129852,-0.05223864527737421,-0.014570677411697992,-0.056327218404230286,4.572581419618944,5.143964652274987,-4.860008895802849,-0.1648962041059776,0.06390544389472519,-1.3779046341988688,0.0015004338500830272,-0.02714058797039698,-0.0008720253616045781,5.638670347858678,-16.879146252205828,20.303639265743577,0.02565721069022782,-0.025510508339496765,0.12555735039462554
10866,1724818893856580495,-0.5354442596435547,-0.6490540504455566,0.1279347240924835,0.0434775277972221,-0.0774053707718849,0.6319960355758667,-0.7698695659637451,0.0,0.0,0.0,0.22466958791766478,-0.12190660947367027,0.25048510284865516,1.279670449,0.1279347240924835,-0.08195906633158344,0.06933768071035955,-0.19997721889863854,3.2575695187719966,1.6545732229078567,-0.9934020862516064,-0.1658845225255988,0.06427307115634368,-1.3800718744340565,0.003211076660605272,-0.02883730550833974,0.0020573931639598086,4.316232830779295,3.789368933806432,-6.4616249330598095,0.028328518912576945,-0.02673021337853829,0.12555735039462554
10868,1724818893866449485,-0.5354079008102417,-0.6493418216705322,0.1279583126306533,0.0434036366641521,-0.0774576738476753,0.6323419809341431,-0.7695842981338501,0.0,0.0,0.0,0.23182671667740626,-0.03292331858089481,0.11391106702877138,1.289539439,0.1279583126306533,0.007742734913604263,0.02514696245408529,-0.08889002043993578,2.771037255863999,0.773370696288211,0.5461885164178248,-0.16586646502544164,0.06437298574154493,-1.3809798603348178,0.0059886762342458155,-0.029647745450660068,0.004227463719495006,-7.287587517311865,8.63913387118261,-11.891019454123386,0.029116019872582125,-0.02707413140227453,0.12555735039462554
10870,1724818893878373142,-0.5353032946586609,-0.6497023701667786,0.1280351877212524,0.043328620493412,-0.0780905038118362,0.6334323883056641,-0.768627405166626,0.0,0.0,0.0,0.029498853407988523,0.06465104634812113,0.00018516252503658626,1.301463096,0.1280351877212524,-0.05023725559294164,0.11001628553161297,-0.23666670153414898,0.376436815719159,-3.210963035254077,2.83103504955335,-0.16666015582894836,0.06519968364855748,-1.383986518264457,0.008038061189044043,-0.029331582012201096,0.0040589893669240595,-7.272819163470297,-22.61222093234419,12.041251658999563,0.03085470050493851,-0.026485843995633206,0.12555735039462554
10872,1724818893889755426,-0.5352197885513306,-0.6500263810157776,0.1280554383993148,0.0434376820921897,-0.0778717771172523,0.6335983276367188,-0.7685065865516663,0.0,0.0,0.0,0.052067069113266196,-0.5273356796403199,0.37170951139271124,1.31284538,0.1280554383993148,0.01097217762494593,-0.03875808614029354,-0.039020242757227125,2.2932159220773523,-7.65128462809955,5.635762330823436,-0.16655897562126046,0.0646909734551578,-1.384352004528074,0.006826832922786963,-0.028181345561598903,0.004216631903784851,5.24586643945623,-35.2905455048535,16.358757703515387,0.02915647598921541,-0.025861271864571742,0.12555735039462554
10874,1724818893900684161,-0.5351505279541016,-0.6503313779830933,0.1281270980834961,0.043691836297512,-0.0775600969791412,0.6340062022209167,-0.7681871652603149,0.0,0.0,0.0,0.14363848497475495,-0.7375805477025197,0.3796406709420628,1.323774115,0.1281270980834961,0.003668829316484742,-0.06550966573190144,-0.10050004924429537,0.6558768727247547,2.8326682787357456,-13.71444624001769,-0.1665809056735751,0.06380283097058286,-1.3853183042600257,0.009058837327422964,-0.04053832308240857,0.012034060954853487,-16.335898897490853,82.7244283344362,-48.85974439769414,0.02812160750608375,-0.02468406648735486,0.12555735039462554
10876,1724818893907495392,-0.5350772738456726,-0.6506611108779907,0.1282323151826858,0.043767511844635,-0.0774341449141502,0.6346032619476318,-0.7677024602890015,0.0,0.0,0.0,-0.07254454188706916,0.2587079384498441,-0.16364637367869606,1.330585346,0.1282323151826858,0.013757209646839704,-0.02379984633489785,-0.22825009364537865,3.050206197184134,0.5243102599848504,-4.52961025914753,-0.16658313397739488,0.06338519062266204,-1.3868276972317202,0.009779967890171548,-0.04389340415544751,0.013194954755046062,-29.18476047230606,124.30818597324645,-58.82024089801954,0.0484826797144702,-0.042183241312636933,0.12555735039462554
10878,1724818893916107741,-0.535003662109375,-0.6509899497032166,0.128321424126625,0.0438354797661304,-0.0769915506243705,0.6349784135818481,-0.7674328088760376,0.0,0.0,0.0,-0.2960766882716429,1.0901193557145086,-0.442161032853266,1.339197695,0.128321424126625,0.057113387778107746,-0.08026003351249619,-0.11234119460969738,2.6950993459565113,-2.7901548666991314,10.812752206085761,-0.16614418452278779,0.06254328383714186,-1.387669003941778,0.0072122596356933855,-0.0334839806649434,0.008147480156979192,0.7025638462207726,-12.666606017483655,-11.0933216629466,0.03837715775620884,-0.033602815827351244,0.12555735039462554
10880,1724818893927149389,-0.5349429249763489,-0.651293158531189,0.1283802539110183,0.0438231229782104,-0.076551005244255,0.6351161003112793,-0.7673637866973877,0.0,0.0,0.0,0.08904787788919016,-0.5956488845959558,-0.26389202662217176,1.350239343,0.1283802539110183,0.053759168110117175,-0.05776184796059872,-0.03040362396026413,-1.531455841312735,1.2906242752625439,3.7735369315211535,-0.165564693544469,0.061858839673874275,-1.3878954568863682,0.003972330703938098,-0.023125385290466483,0.005302553272239496,9.365320335235587,-71.65484328264051,10.71378357639097,0.02761998944854434,-0.024661182070735754,0.12555735039462554
10882,1724818893942659338,-0.5349146127700806,-0.6515573859214783,0.128461942076683,0.0441002435982227,-0.0761960297822952,0.6354050040245056,-0.7671439051628113,0.0,0.0,0.0,-0.32155523596444935,0.05810093168134145,-0.21605197164262752,1.365749292,0.128461942076683,0.0032596208920401856,-0.054017749086360575,-0.051336667258219615,2.059388036784393,-13.878877620318788,41.018424395836576,-0.16555388192763568,0.06090124852408019,-1.3885437403031518,0.013686257949402147,-0.06577968043768578,0.0010737009915366968,-83.13184876972058,331.76271612842845,-8.419439432720786,0.0167324598409248,-0.015252668865067414,0.12555735039462554
10884,1724818893946194266,-0.5348566770553589,-0.651829183101654,0.1284623593091964,0.0441914722323417,-0.0760341510176658,0.6352247595787048,-0.7673039436340332,0.0,0.0,0.0,-0.6610675683274556,1.4641867915236602,-0.2550823058864685,1.36928422,0.1284623593091964,0.014821750743297729,-0.11445469801753283,0.12779469387239215,2.142702183949166,-11.960887273999084,36.48903716053263,-0.1654703306142172,0.060576614320435825,-1.3880305225703495,0.011785933699330897,-0.06331182804678548,0.0003555748473109688,-66.8865826474664,308.2789469245467,-7.94535264179844,0.07843592603491244,-0.07144260811747383,0.12555735039462554
10886,1724818893957070597,-0.5348825454711914,-0.6520634293556213,0.1284741759300232,0.0444202721118927,-0.0757416412234306,0.6349989771842957,-0.7675065398216248,0.0,0.0,0.0,-0.4127748709207797,1.8223810712714203,-0.23789301418227649,1.380160551,0.1284741759300232,0.00037443968185283663,-0.07266515752116949,0.04994603293030929,6.178781099594584,9.261169583753867,-2.8453050410302057,-0.1654261019188038,0.05988654498548663,-1.387363368645718,0.0004636621966938037,-0.02175126920598558,-0.004156620803874134,42.62533640272733,-86.21195625684689,42.553387817613554,0.020639879819128033,-0.02109357149988148,0.12555735039462554
10888,1724818893966286070,-0.5348560810089111,-0.6522655487060547,0.1283949315547943,0.0438293367624282,-0.0756086483597755,0.6348475813865662,-0.7676788568496704,0.0,0.0,0.0,0.1346144010351132,0.09758243926069088,0.47418303530571393,1.389376024,0.1283949315547943,0.1159320809253124,0.0549931257658598,0.057396779406157845,1.1967925408233433,1.3006303017531122,-1.1289337915877977,-0.16433130871266552,0.06047327650279908,-1.3869239991695348,0.0015650834739417974,-0.02056435709939919,-0.004967088319754787,38.92531815734681,-101.06727548518471,58.09414766969791,0.022567274700688162,-0.022185412595724888,0.12555735039462554
10890,1724818893976676832,-0.5348551273345947,-0.6524631977081299,0.1283858716487884,0.0440974347293376,-0.0753155052661895,0.6347362995147705,-0.7677844166755676,0.0,0.0,0.0,0.2992104499093574,0.056112723208316395,0.8531668613257102,1.399766786,0.1283858716487884,-0.004523096872600815,-0.07855049460977463,0.02296739123006714,-5.297700493999304,-3.382824210176711,-7.074027071189298,-0.16435613075400798,0.05970712655247135,-1.3865544948269408,0.0031406901107224883,-0.019916092396719876,0.006545909657227789,7.690413894621601,5.3227065312668955,-8.529573993314884,0.018735167100222744,-0.01854651936294244,0.12555735039462554
10892,1724818893986787543,-0.5347933769226074,-0.6526733636856079,0.1285250335931778,0.0441779531538486,-0.0752080455422401,0.6350653767585754,-0.7675181031227112,0.0,0.0,0.0,0.29678264017624145,0.20155942705189012,0.32418064373527977,1.409877497,0.1285250335931778,0.003843185767224723,-0.01959206750410931,-0.08555327962888126,-0.04472845401962822,5.468428216578051,-3.7580278988064384,-0.16436619607696323,0.059370167995110044,-1.387376811741003,0.007617795198996191,-0.0194104958790291,0.012664899935677099,-11.846416908398577,14.309860011554672,-38.66004486144232,0.02069708975378643,-0.016652235039412478,0.12555735039462554
10894,1724818893996597763,-0.5347042679786682,-0.6528506875038147,0.128638818860054,0.0441217347979545,-0.0753263607621193,0.6352810859680176,-0.7673311829566956,0.0,0.0,0.0,0.07009031875815358,0.3412231854644989,0.07493574178406726,1.419687717,0.128638818860054,-0.004897744617852599,0.030600515830821528,-0.05602570625328459,0.2811884251949705,0.051659981458380466,1.4849934180309776,-0.1644494511541669,0.05957636039460493,-1.387969182926509,0.009139331204906398,-0.01599056835703294,0.013170267088651322,-20.878862932529348,-0.5517713964667887,-27.945114417147504,0.018700538517412848,-0.013862808152452742,0.12555735039462554
10896,1724818894006495266,-0.5346132516860962,-0.6529881358146667,0.1287848651409149,0.0441675819456577,-0.0752099528908729,0.635495126247406,-0.7671626806259155,0.0,0.0,0.0,-0.1143013845092321,0.18809224566531602,-0.22699902991763715,1.42958522,0.1287848651409149,0.009590304328205696,-0.019462023811368058,-0.056554818014377936,0.41072937215242894,-1.76758035534276,0.5094425290850606,-0.16438550686017317,0.059294711247082306,-1.3884907344375854,0.00898421049048892,-0.012687058844541355,0.014145819543756488,-14.517791529649362,-14.881144635103235,-28.434905992957468,0.014422863174725065,-0.009253130630957626,0.12555735039462554
10898,1724818894016506275,-0.534525454044342,-0.6531029939651489,0.1289203017950058,0.044185347855091,-0.0751754343509674,0.6356711387634277,-0.7670192718505859,0.0,0.0,0.0,-0.21799840638131338,0.04509656486828917,-0.49068803060902627,1.439596229,0.1289203017950058,0.0030388336225899122,-0.003838108626590135,-0.04575494539051515,3.689404245840178,-0.8838252365469215,3.899569416188795,-0.16438152915835796,0.05918185433627359,-1.3889372110636944,0.0068412424423272,-0.01227919231455843,0.008576723331227498,0.8862898014264093,-7.536147380321383,-0.7108066296065285,0.012047406497102977,-0.007208276479002463,0.12555735039462554
10900,1724818894026299253,-0.5344769358634949,-0.6532309651374817,0.1289568543434143,0.0439865626394748,-0.0747933238744735,0.6356199383735657,-0.7671104073524475,0.0,0.0,0.0,-0.10159925537135106,0.03593610886426435,-0.2521300095825637,1.449389207,0.1289568543434143,0.080781665264189,-0.03591094211389845,0.0194555679802672,-3.057614692821236,-2.427203542034937,1.2346609955044519,-0.1635759180465504,0.05886599305458215,-1.3886912945237269,0.004668671078427167,-0.011795845328766319,0.004399942048344485,9.414395727703115,-7.060447179221734,13.905344589753954,0.01350540186516173,-0.011124638002741475,0.12555735039462554
10902,1724818894037131114,-0.5344297885894775,-0.6533434987068176,0.1290125101804733,0.0445280782878398,-0.0748588889837265,0.6357070207595825,-0.767000675201416,0.0,0.0,0.0,-0.029235778030669485,-0.11392545048778246,-0.22676730630839675,1.460221068,0.1290125101804733,-0.08408349024080684,-0.05204364757561686,-0.03215837411004171,-5.021026105774693,-1.2600496391868066,-4.201908599901821,-0.16450146768273913,0.05825295321641105,-1.3889434373893061,0.0050088796447091966,-0.01156737931045626,0.0037581167371634194,7.301230860759881,-7.362938921832929,29.837454227057698,0.010687187601703419,-0.00839518519431953,0.12555735039462554
10904,1724818894046485132,-0.5343776345252991,-0.653461217880249,0.1290365159511566,0.0449103340506553,-0.0747672915458679,0.6359170079231262,-0.7668131589889526,0.0,0.0,0.0,0.04407329202971727,-0.13051641119976354,0.27443978734428476,1.469575086,0.1290365159511566,-0.04866178890695069,-0.06197772735582283,-0.0669144678974938,7.2867407181045785,0.8762098776339693,2.428720171956031,-0.1649869204650443,0.05757840494254679,-1.389466575932245,0.004245537982569658,-0.013723684862238628,0.00028378726491506967,8.983804360462118,7.909178855812565,51.09986382306509,0.013214167655768043,-0.01074432192457078,0.12555735039462554
10906,1724818894056626235,-0.5343492031097412,-0.6536129117012024,0.1290142983198166,0.0447555035352706,-0.0744440257549285,0.6358356475830078,-0.7669211626052856,0.0,0.0,0.0,0.1477855051712929,0.056148682717688025,0.7653590117438007,1.479716189,0.1290142983198166,0.06371371582882399,-0.031782373611279,0.025269006653754793,-4.8702040734800525,-2.8309263007818384,-5.253059738254252,-0.16432322877529376,0.057302462729921934,-1.389160510895286,0.006074257521984094,-0.01394776376210416,0.010167831580755404,-12.563472924636313,4.820777955224783,-20.659910155568106,0.015319173153857278,-0.014357994658057777,0.12555735039462554
10908,1724818894066308665,-0.5342601537704468,-0.6537386178970337,0.1292269974946975,0.0456460081040859,-0.074393518269062,0.6363509297370911,-0.766446053981781,0.0,0.0,0.0,-0.18454525058153573,-0.0227703385919521,-0.07318552144838986,1.489398619,0.1292269974946975,-0.13090440870044054,-0.11288883019986069,-0.15818859955520378,-7.311193017112089,1.0673676084674015,-6.326764636986103,-0.16566618649726877,0.055972699615926935,-1.390493974372116,0.007204345975633686,-0.012680773925588085,0.015643558939164137,-24.71176008215756,-7.541016029886022,-55.080437591327346,0.013170204097833033,-0.007148125365865474,0.12555735039462554
10910,1724818894076882360,-0.5342069864273071,-0.6538692116737366,0.1293193846940994,0.0458974577486515,-0.0746081992983818,0.6366503834724426,-0.7661614418029785,0.0,0.0,0.0,-0.3348580228231427,-0.09546619718564597,-0.29157788805877694,1.499972314,0.1293193846940994,-0.060536842295056445,0.007447421481238238,-0.07935452084221882,4.4898994706170505,-0.2736240511843535,8.698375407078188,-0.16635335797566317,0.055911709496313126,-1.3913358515537853,0.001774364122585581,-0.01469544701698311,0.007494441890118608,-3.380142553523937,-8.357524572514674,4.8998653886975045,0.012541339820077336,-0.009558637907995413,0.12555735039462554
10912,1724818894086624518,-0.5342189073562622,-0.6540334224700928,0.1293812394142151,0.0463362298905849,-0.0743516758084297,0.6365530490875244,-0.7662407755851746,0.0,0.0,0.0,-0.27052753048789346,-0.19019223674704033,-0.014467976122581078,1.509714472,0.1293812394142151,-0.03622918924352648,-0.09982782270404837,0.01654088551834524,0.21097104447710402,-3.832956014157239,2.3920620904253465,-0.16668852516455004,0.05497932836157643,-1.3910151474555101,0.00011594800415082318,-0.014772142833500368,0.008954425987225179,2.9870195266287283,-4.668846926017196,6.248443729442254,0.01599159396063807,-0.015447171060299053,0.12555735039462554
10914,1724818894098474544,-0.5341982245445251,-0.6541784405708313,0.1295249015092849,0.0468239337205886,-0.0743962153792381,0.6367959380149841,-0.7660049796104431,0.0,0.0,0.0,-0.2872563571179143,-0.17266331910650035,-0.2603555814204863,1.521564498,0.1295249015092849,-0.06665252181919482,-0.04177795756891132,-0.06251561778892933,2.391527810666747,1.5505536799526318,6.756319799939746,-0.16751383893994418,0.05436794146302279,-1.391664312161914,-0.004535482607089136,-0.019653874931471194,0.006414326584765817,28.300406553880492,1.5069278243860804,14.500017280329725,0.011675901797572746,-0.009438387182607276,0.12555735039462554
10916,1724818894106760371,-0.5342721939086914,-0.6543842554092407,0.129544973373413,0.0469869263470172,-0.0743044316768646,0.6365547776222229,-0.766204297542572,0.0,0.0,0.0,0.11937759764755733,-0.16001670609074758,0.06401518074998513,1.529850325,0.129544973373413,-0.018106640535493386,-0.04832840308048851,0.07126173470809857,3.280215555361633,-0.16958136234042076,7.95386427082447,-0.16762863820125465,0.05407158951500201,-1.3910143344384243,-0.006305749596402066,-0.01969813383912644,0.003990547592236826,30.594235279097614,0.9138586289533412,45.521445529922005,0.022678413413496124,-0.025229680745099778,0.12555735039462554
10918,1724818894121882402,-0.5342952013015747,-0.6545402407646179,0.1296485960483551,0.0473986081779003,-0.0742875412106514,0.6367204785346985,-0.7660428881645203,0.0,0.0,0.0,0.07196117097828642,-0.16309957925883012,0.9282982891427451,1.544972356,0.1296485960483551,-0.03967092773542777,-0.033754774796503795,-0.0345310861437604,-15.422243841782187,9.600712622086501,-21.420063345092384,-0.16825166496172167,0.05348104725473529,-1.3914444795114942,0.004690521352273436,-0.026386703830596048,0.014798428160968768,-48.53727774860659,65.96530637907433,-47.97932219226764,0.009497808794484464,-0.009067361265475188,0.12555735039462554
10920,1724818894128330636,-0.534247875213623,-0.6547545790672302,0.1297658681869506,0.0477815382182598,-0.0747478455305099,0.6372100114822388,-0.7655671834945679,0.0,0.0,0.0,-0.3658556019476985,0.4441997202045608,0.329840785552436,1.55142059,0.1297658681869506,-0.1776013591128771,0.05190120666210777,-0.21231341329521422,-1.0590942225629678,3.5321040073165957,-9.411884805870132,-0.16947222172155696,0.053580880090609094,-1.3928524000875093,0.003352976567406074,-0.026670697787857023,0.021371595220050388,-31.384699588643084,61.02533300456032,-104.1334889473383,0.03299128941538903,-0.027706995156252003,0.12555735039462554
10922,1724818894136633914,-0.5342626571655273,-0.6549057960510254,0.1299773752689361,0.0477738678455352,-0.0745735466480255,0.6375210881233215,-0.7653256058692932,0.0,0.0,0.0,-0.236060788427527,0.5964131378993511,-0.6558842340415751,1.559723868,0.1299773752689361,0.030986927508244964,-0.023033972564946683,-0.09630911411590705,10.673951876252312,-6.371500064417372,12.078287116917286,-0.1692553437198382,0.05325756589021411,-1.3936094331136883,-0.0013787290201179303,-0.017762109160749162,0.016737867461379174,32.12456915192611,-15.015973691543396,-46.17316543875293,0.016231851964424795,-0.01349573754787632,0.12555735039462554
10924,1724818894147774037,-0.5342720150947571,-0.6550969481468201,0.1300332844257354,0.0482442528009414,-0.0745789632201194,0.6374366879463196,-0.7653658986091614,0.0,0.0,0.0,0.36831552626868946,-0.06928759142492869,-0.0860327281533334,1.570863991,0.1300332844257354,-0.0660351614484712,-0.05435699097869344,0.009957086496908123,0.9104893185254106,0.18642853775603974,3.532539612011805,-0.16997977477201498,0.05267943891116148,-1.393397627473358,0.0009805492426337992,-0.018239657878389437,0.007969137975480933,31.472442947434203,-27.421776598411572,43.15440638784516,0.01645387178321501,-0.015885629765733558,0.12555735039462554
10926,1724818894157086895,-0.5342487096786499,-0.6552752256393433,0.1301304697990417,0.0482707284390926,-0.0744222775101661,0.6374500393867493,-0.7653683423995972,0.0,0.0,0.0,0.48406632769365987,-0.07292264777589419,0.25358603540750757,1.580176849,0.1301304697990417,0.017336741276334968,-0.029279211039548766,-0.0039074333928271,4.294420527835022,3.086165099487445,-6.030259161630979,-0.16981777683617413,0.05240453743556456,-1.3933873461902166,0.0056292811372742335,-0.019090612364578874,0.01262619094607409,10.537725973961187,-10.621218855464438,-7.492338743506915,0.01871123365779681,-0.01626966176143299,0.12555735039462554
10928,1724818894166598868,-0.5341647863388062,-0.6554563045501709,0.1302718520164489,0.0482491366565227,-0.0743730589747428,0.6378390789031982,-0.7650503516197205,0.0,0.0,0.0,0.5659251675251653,-0.27334804465635365,-0.2447681029831702,1.589688822,0.1302718520164489,0.01293182485970817,0.003897864868539735,-0.10538942234439862,1.0515015041916085,1.3579117497288278,-2.778734051805852,-0.16974686972349576,0.052271700750559764,-1.3943830921376577,0.01008693561185936,-0.019604987905108118,0.01264364680007457,1.4639063678642756,-15.913838871345456,-32.096585842371525,0.019485595671309048,-0.014290016577988307,0.12555735039462554
10930,1724818894177215727,-0.5340427160263062,-0.6556711792945862,0.130379781126976,0.0481181778013706,-0.074191965162754,0.6380219459533691,-0.764923632144928,0.0,0.0,0.0,0.4968343282817984,-0.38119195380871185,-0.3450270833217672,1.600305681,0.130379781126976,0.0420435281407484,-0.006926251300519484,-0.04139208094191431,-2.1617708875694106,0.5258488091125273,-0.015875272128328177,-0.16932246673224258,0.05212506902397248,-1.394804324827314,0.01724816642740734,-0.025105470484128034,0.00712270874032761,-24.755522325712253,12.39645837806699,19.489384470481607,0.021380022699161783,-0.01582192236663526,0.12555735039462554
10932,1724818894186760757,-0.5338287353515625,-0.6559525728225708,0.1304216533899307,0.0481921397149562,-0.074274905025959,0.6383581757545471,-0.7646303772926331,0.0,0.0,0.0,0.10394971899649075,-0.06932011279508155,0.08928348641250516,1.609850711,0.1304216533899307,-0.020672121078218066,0.01135444446387701,-0.09340769319855527,-0.6287360444050334,-1.3388400993958052,1.7123523318984053,-0.16956657391573854,0.05208154641577615,-1.3957026752685688,0.020465714540726765,-0.02756918591293811,0.005331067371795228,-34.23747548919123,24.17882594331406,33.4549331038819,0.03266208149972351,-0.02390029698517584,0.12555735039462554
10934,1724818894197084488,-0.5336392521858215,-0.6562158465385437,0.1304872334003448,0.0481637194752693,-0.0739936977624893,0.638346791267395,-0.7646689414978027,0.0,0.0,0.0,-0.1721990651869808,0.08544169821709136,0.3001547906070645,1.620174442,0.1304872334003448,0.039182509535269694,-0.03880192520998914,0.004239093645796272,4.379805636889648,-3.293554043027901,3.3971059978384046,-0.16915631885629995,0.05169407393317108,-1.3955918787556654,0.018935612140040803,-0.026176751967526002,0.009345638457862293,-19.2544496463738,-18.135526324714274,6.217180957855383,0.027944638362513676,-0.02040983566107327,0.12555735039462554
10936,1724818894207252672,-0.533440887928009,-0.6564887762069702,0.1306122392416,0.0480854623019695,-0.0735425949096679,0.6384442448616028,-0.7646360397338867,0.0,0.0,0.0,-0.29292475099731025,-0.43072398612064555,0.22107237182262374,1.630342626,0.1306122392416,0.06951628117076968,-0.05661991851360397,-0.021923034787671415,-0.627362652127358,-2.120007792340962,0.7044870891364367,-0.16845579663971072,0.051089085368342724,-1.3957150903554967,0.016944431902100376,-0.025803058724875427,0.01150920413871237,-7.693907219718778,-29.712825704307456,-13.301682002062076,0.029162584249561984,-0.02048585592864198,0.12555735039462554
10938,1724818894219300913,-0.5332733392715454,-0.6567848324775696,0.1307397037744522,0.0483588986098766,-0.0731095522642135,0.6382697820663452,-0.7648059129714966,0.0,0.0,0.0,-0.32596406661038846,-0.488203395356543,-0.018053128568711774,1.642390867,0.1307397037744522,0.010413522713769136,-0.08741124840374752,0.03335306130173277,-3.871321545873303,-8.420586139387618,-7.6682525002305475,-0.1683013182598173,0.05011816713603708,-1.395141639988788,0.012029010130824247,-0.03766616064023509,0.014291147328968634,12.137545639400535,41.59274889532713,-29.963221755533148,0.026061219171339516,-0.01955323367680766,0.12555735039462554
10940,1724818894226730018,-0.5331925749778748,-0.6571246385574341,0.1308628767728805,0.0488384664058685,-0.0726251006126403,0.6384607553482056,-0.7646622061729431,0.0,0.0,0.0,-0.1676303294368559,0.033179439569488434,-0.28699274897365074,1.649819972,0.1308628767728805,-0.01360943676083786,-0.1768351700592587,-0.07975920042203286,0.3185932484506724,-2.5425196144516975,-5.710547574014426,-0.16842043566658252,0.048723727092226055,-1.3955061468488472,0.009983086927128682,-0.03901898584703645,0.01301660154850115,19.30073894872232,40.38620772510113,-18.92014517742732,0.04607160650707185,-0.03956745233890251,0.12555735039462554
10942,1724818894237394186,-0.5330997109413147,-0.6574378609657288,0.1309471428394317,0.0488559752702713,-0.0722370818257331,0.6384421586990356,-0.7647133469581604,0.0,0.0,0.0,0.007398095087098322,0.007765423766694202,-0.224228540118745,1.66048414,0.1309471428394317,0.04416536853133103,-0.058608296666456595,0.004997992081997826,-4.184407193798005,-1.1530959964652592,2.970508157143241,-0.1679418274641244,0.04811645693611154,-1.3953487642314828,0.009845075480782839,-0.035369695132864365,0.008189039749995963,9.487850238441919,-40.59647885210248,13.835779485830972,0.030025273364598176,-0.025588318940536328,0.12555735039462554
10944,1724818894246402035,-0.5330023765563965,-0.6578021049499512,0.1310230940580368,0.0495534725487232,-0.0718687996268272,0.6384056806564331,-0.764733612537384,0.0,0.0,0.0,0.04017308337444852,-0.6486786781723002,-0.03910615077746733,1.669491989,0.1310230940580368,-0.06658716613260059,-0.16212262833089383,-0.006115623781674791,-11.396791857758354,-10.601271263808954,-1.148780678487311,-0.16853261085174118,0.04666747409835295,-1.3951583160781245,0.010066476772441657,-0.037844394458453945,0.007907536369499577,113.47803917482365,-260.8289246481546,77.6432700979827,0.041263557646100284,-0.03584845655941394,0.12555735039462554
10946,1724818894366405508,-0.5329758524894714,-0.6581999063491821,0.1311340928077697,0.0499220266938209,-0.0712673366069793,0.6387526988983154,-0.7644761204719543,0.0,0.0,0.0,189.2582368367695,-332.4312024631406,100.55130521774092,1.789495462,0.1311340928077697,0.0019051419332903631,-0.010992089258231497,-0.008100649491603973,-882.4582056589165,-3251.0562109361626,-154.29862051879746,-0.16833787711497616,0.04520408894684726,-1.3958963204781891,0.03981808857804481,-0.7135240290006095,-0.009343515556992088,669235.387706029,-549352.6829869777,406476.11748600344,0.003257632322129591,-0.0030156334717090167,0.12555735039462554
10948,1724818894366943499,-0.5329543352127075,-0.6585854887962341,0.131129041314125,0.0503252074122428,-0.070984162390232,0.6387385725975037,-0.7644878029823303,0.0,0.0,0.0,550.9111666566637,-629.296307727891,320.2101491981626,1.790033453,0.131129041314125,-0.4749791929704047,-1.767875275378697,-0.09148402894072222,1307.2057544766096,-432.28987209832144,-793.9491989435573,-0.1685884374328941,0.044258197731385146,-1.395785213930906,0.14209318740290655,-0.8931572290464374,0.04499504637425389,1162294.715728282,-309822.768039288,340219.5766749988,0.7124414930197587,-0.689493267074593,0.12555735039462554
10950,1724818894367290805,-0.5328820943832397,-0.6589352488517761,0.1311568617820739,0.0504112727940082,-0.0707571804523468,0.6388009190559387,-0.7644510865211487,0.0,0.0,0.0,1064.4594514363823,-682.6458789266521,423.10752895280604,1.790380759,0.1311568617820739,0.4708472182865538,-1.2827553593331462,-0.5104865402671174,2676.1662646925515,2624.523384661272,-5699.427227263501,-0.16842931919533144,0.04378926514454652,-1.39588538731137,0.4143231494297197,-1.177946423941421,0.20535383398043905,205590.05037109228,1083965.0103077786,-253295.31337575498,1.0234051500022088,-0.926393972481619,0.12555735039462554
10952,1724818894367545503,-0.5327380299568176,-0.6592671871185303,0.1312325596809387,0.0503564924001693,-0.0706086754798889,0.6390814185142517,-0.7642339468002319,0.0,0.0,0.0,879.0337875742324,-175.4034765055976,255.94336716162093,1.790635457,0.1312325596809387,1.1436533114808534,-0.3849774438028394,-2.8013363860482787,2201.469753930508,12340.924215700543,-10888.264874105393,-0.1681680594761367,0.04357308305724999,-1.3965730263358587,0.737855235411871,-1.3261603921162077,0.30590594270643123,-2563037.680772358,1675386.004791247,-1178768.6491157631,1.367323117667175,-1.114619286700689,0.12555735039462554
10954,1724818894367799215,-0.5325073003768921,-0.6596094369888306,0.1313123703002929,0.0498530901968479,-0.0709232911467552,0.639712929725647,-0.763709306716919,0.0,0.0,0.0,-235.0028886306295,169.75937753819926,-175.161971376059,1.790889169,0.1313123703002929,1.5909626807068178,4.974142318062471,-6.042461767191687,3548.433604280642,3728.9942179255204,206.7158002526876,-0.167840372867569,0.04456096809097547,-1.398297220802925,0.8620027175279574,-1.2679234051552157,0.3357512759676524,-3519912.1125210244,584529.5581904955,-1595155.2341775566,1.4695591062269449,-1.0984686883236576,0.12555735039462554
10956,1724818894368051578,-0.532301664352417,-0.6599090695381165,0.1314024180173874,0.0494696982204914,-0.0708184838294982,0.6400120854377747,-0.7634932994842529,0.0,0.0,0.0,-904.649546972815,122.50019141680741,-551.6047622845559,1.791141532,0.1314024180173874,2.934622714577247,1.548977158925149,-2.7316537609569296,4903.918484714179,-15875.99476922002,16374.72859445705,-0.1671331009744218,0.04483148232369406,-1.3990428679534173,0.620875188293212,-1.2400885564927648,0.2180487132993676,-257663.38194648403,-556223.641733314,-517559.0679629705,1.29179665965902,-0.9517192229793193,0.12555735039462554
10958,1724818894368305095,-0.532193660736084,-0.6602368950843811,0.1314223557710647,0.0493039861321449,-0.0702059268951416,0.639811635017395,-0.7637285590171814,0.0,0.0,0.0,-359.80739339916875,-112.47653794477083,-434.7313599250075,1.791395049,0.1314223557710647,4.070784470834379,-3.062534827422074,2.2487168062951604,-309.178620827709,-11038.424767363202,15230.805552975335,-0.16607032289831797,0.04416036653916831,-1.3983512349148868,0.4044761871475657,-1.2059247786555716,0.05650836081917987,2095385.1161508642,-1180767.4582441822,719672.6996617288,1.3422480974230657,-1.1683597174088576,0.12555735039462554
10960,1724818894368557668,-0.5320969223976135,-0.660519540309906,0.1314310580492019,0.0493182651698589,-0.0696210265159607,0.6393300890922546,-0.764184296131134,0.0,0.0,0.0,155.90519653011665,-474.59594134314557,-187.87305515833242,1.791647622,0.1314310580492019,2.787178656132589,-4.050936547828334,4.984823320484896,6848.644621195844,-2809.580911992961,7650.794839376897,-0.16530458990362804,0.043358873002657304,-1.3969393285622231,0.43784974297204826,-1.2965458953437974,-0.002346024687199133,1061745.3797544078,-921523.6145741506,584634.2097570503,1.1658561652948631,-1.0137570738866004,0.12555735039462554
10962,1724818894368810921,-0.5319721102714539,-0.6608929634094238,0.1314211189746856,0.0488964729011058,-0.0686141029000282,0.638776421546936,-0.7647652626037598,0.0,0.0,0.0,175.91630780004826,-577.9096146363634,-139.54302138233018,1.791900875,0.1314211189746856,7.551254664635806,-4.4821907811563895,6.1143542224077185,18431.57227320757,-1662.6749929595062,4363.3945894104445,-0.1633186218480152,0.042492323057710134,-1.3952244534856908,0.48336946102960565,-1.4461454509479426,-0.03846123362457221,77216.31873355914,-399721.3821612121,187325.79576984866,1.538201403735108,-1.3513037308334743,0.12555735039462554
10964,1724818894381488912,-0.5318518877029419,-0.6612275838851929,0.1314313411712646,0.048711322247982,-0.0680266618728637,0.6384798884391785,-0.7650771141052246,0.0,0.0,0.0,12.483846310237482,-425.3626717559664,6.946934874906276,1.804578866,0.1314313411712646,0.08072924967072125,-0.057876907127158775,0.06467298452639449,-10872.439902618451,-5158.9975870382705,2347.185151215443,-0.16225595402171958,0.041901145045267506,-1.3942956170004528,0.28680180842729897,-0.6476965712026868,0.13591457529889794,-130362.33152966207,503439.3155367253,-77607.04878621305,0.027590756412700698,-0.023813450185568186,0.12555735039462554
10966,1724818894381916005,-0.5317254066467285,-0.6615131497383118,0.131491333246231,0.049783956259489,-0.0682980418205261,0.6382057070732117,-0.7652126550674438,0.0,0.0,0.0,-44.883146723467405,-203.27699883806486,-27.481333560903863,1.805005959,0.131491333246231,-4.710766209274131,-2.3404962989240166,1.107775737462458,2770.5938798109983,-1887.1588649026576,-850.0406297858283,-0.16424179604140127,0.04099172073536731,-1.393665800415648,0.29253626457455084,-0.836392156210195,0.13878362075914197,-138295.5663835984,666772.1551296224,-80472.34139637674,0.7039943254387151,-0.5727719393293189,0.12555735039462554
10968,1724818894382301932,-0.5316137671470642,-0.6618944406509399,0.1315443068742752,0.0498355962336063,-0.0678670555353164,0.6382584571838379,-0.7652036547660828,0.0,0.0,0.0,-99.64164772360317,105.23425711166685,-58.48953098487448,1.805391886,0.1315443068742752,1.2370059821755353,-1.86311024436711,-0.3684230820057319,11876.119397918985,1197.03101864776,-2920.144278455762,-0.1637653351134264,0.04025913077373763,-1.3936887193653578,0.25488031544941236,-0.8316575719323396,0.11625167297250982,-107335.72992730932,655985.848667396,-59950.4786513029,1.0171441109951553,-0.8844649628816237,0.12555735039462554
10970,1724818894383672571,-0.5314318537712097,-0.6622733473777771,0.1316013634204864,0.0498567894101142,-0.06751649081707,0.638240396976471,-0.7652483582496643,0.0,0.0,0.0,-78.56229260314457,306.2140392206411,-41.370392335659076,1.806762525,0.1316013634204864,0.3042900891522218,-0.4169063667093366,0.03420768401483611,-474.1891771833271,737.9950323672726,184.86964500228484,-0.16334269315610417,0.0397029633504243,-1.3935493186154646,0.10823629406579016,-0.23487002210953278,0.03556974831373694,17544.317497760156,67525.01978399491,12696.611326836904,0.29363052488512076,-0.23784366027067527,0.12555735039462554
10972,1724818894386514153,-0.5312685370445251,-0.6626958250999451,0.131666749715805,0.0498479753732681,-0.0671499744057655,0.6383326053619385,-0.7652042508125305,0.0,0.0,0.0,-15.953827835849498,32.06276649096724,-4.074147293385464,1.809604107,0.131666749715805,0.17222592097041114,-0.18811733338427794,-0.08192035456146152,-40.05911824725701,70.04455232862965,-35.191705709875635,-0.16285893006266094,0.039137706561263814,-1.3936922946679429,0.05246314081222536,-0.12583541567081546,0.021071903494779942,17739.171681077034,-76970.22682142668,10473.51938094873,0.15545689199337348,-0.13030154513165365,0.12555735039462554
10974,1724818894397342062,-0.5309072136878967,-0.663115918636322,0.1318149268627166,0.0494397655129432,-0.067650094628334,0.6393182873725891,-0.7643633484840393,0.0,0.0,0.0,-1.037338802503174,3.5427924587904993,-0.07485527464925312,1.820432016,0.1318149268627166,0.0032124612246598266,0.13832192463587495,-0.2287943455174494,-8.14584902590411,15.043519362525531,-6.883264790892172,-0.16293083346182216,0.04021385106651636,-1.3963819033057392,0.03129221772259427,-0.03894410546759275,0.019367945291239863,719.6602819008888,-1502.9345646778445,171.19685488602312,0.043413612870013205,-0.02959239067719984,0.12555735039462554
10976,1724818894408070710,-0.5305935740470886,-0.6635352969169617,0.1320831328630447,0.0490664057433605,-0.0681757852435112,0.6403024792671204,-0.7635164260864258,0.0,0.0,0.0,-0.31041382618449864,-0.5588268169129083,-0.34457501169624183,1.831160664,0.1320831328630447,-0.00484535797309517,0.13915396686958073,-0.23162011547869385,8.13110694181032,-6.440971361665283,15.92384897873514,-0.1630926720948619,0.041283707240941464,-1.3990784798975064,0.029920303779270796,-0.04857931836452423,0.019441976139695782,17.47608436886803,-131.83902490508873,-25.99140723845794,0.04244117704343441,-0.02879435715000344,0.12555735039462554
10978,1724818894416527681,-0.5303359627723694,-0.6640093922615051,0.1322105079889297,0.0485540851950645,-0.0679777786135673,0.640311062335968,-0.7635596394538879,0.0,0.0,0.0,-0.4977966677205854,-0.004102767318065137,-0.5700583744484808,1.839617635,0.1322105079889297,0.12313031987219386,0.041228434600540785,0.010956332782463399,5.840795718844589,-11.698470321593986,16.515031373290423,-0.16204991189642662,0.041642775070398756,-1.3990434574162869,0.02607827754062697,-0.05104372009608582,0.014184876320182838,-3.5947676965679634,26.316594765335715,-10.105775234938186,0.05976161524196753,-0.04674518101280597,0.12555735039462554
10980,1724818894426967780,-0.5301201939582825,-0.6644776463508606,0.1323473006486892,0.0485637113451957,-0.0674408003687858,0.6402071118354797,-0.7636938095092773,0.0,0.0,0.0,-0.29608882078525334,-0.2355686251213709,-0.4621771986427291,1.850057734,0.1323473006486892,0.06435401634311659,-0.08244106673227178,0.026543067384018165,-0.0160141031350598,-6.295378890124439,5.321363877565276,-0.1613610490542097,0.04083792694155308,-1.3986310556471353,0.020320671604029172,-0.04738372953370984,0.008898068368657697,17.280175521938745,-26.16309802009664,30.153935696244318,0.0471543328534518,-0.03786188144970119,0.12555735039462554
10982,1724818894437570190,-0.5299084782600403,-0.6650072932243347,0.1323963701725006,0.0483182221651077,-0.0666877105832099,0.6397255063056946,-0.7641788721084595,0.0,0.0,0.0,-0.13484589891925736,-0.5559460389178441,0.07094030352302161,1.860660144,0.1323963701725006,0.12462988723721426,-0.08942639458887992,0.12418362225710142,6.241689245326585,-8.41449001985033,12.650896948640877,-0.15998087811046932,0.04011263680192104,-1.3971783936097497,0.01993137905957454,-0.05619242774140076,0.004473973922358709,8.626134844499276,-14.588054541244453,63.03415109130649,0.05242588172740049,-0.04431628361402106,0.12555735039462554
10984,1724818894446636906,-0.5297280550003052,-0.6655651330947876,0.1324357390403747,0.04825010150671,-0.0654252916574478,0.6388111710548401,-0.765056848526001,0.0,0.0,0.0,-0.10766847358019727,-0.5670302056326912,0.7413211070688279,1.86972686,0.1324357390403747,0.18553692193913468,-0.22585126503354602,0.2655701494553732,-6.24570442213281,-6.264172005763625,-0.25001102877146275,-0.15819249013736975,0.03847221703069197,-1.394474725917137,0.017947934129061593,-0.059101806041699234,0.00890250713413998,27.924460879311766,-3.5203030892001763,31.979456131130153,0.0638483424014513,-0.05556014226972019,0.12555735039462554
10986,1724818894457617425,-0.529556930065155,-0.6661818623542786,0.1325941383838653,0.0490879230201244,-0.0648864805698394,0.6385247707366943,-0.7652883529663086,0.0,0.0,0.0,0.530442577906262,-0.636241650992547,0.5344866108550695,1.880707379,0.1325941383838653,-0.055434584909697396,-0.1778414926844467,0.05212645065186402,-6.42474515228332,6.229505801182193,-13.334848474671364,-0.15876834395689313,0.03663421981275261,-1.3936005156458753,0.018243020354326234,-0.06860139420513889,0.020405503217098442,51.74570437925158,56.08544856845165,-17.970626419729278,0.057466092225461,-0.04945146475281485,0.12555735039462554
10988,1724818894466253028,-0.5293813347816467,-0.6668587327003479,0.132810965180397,0.0494193881750106,-0.0645288750529289,0.6385708451271057,-0.7652588486671448,0.0,0.0,0.0,0.9340546785638656,0.27179877180754275,0.3851799211585941,1.889342982,0.132810965180397,-0.005508623191003663,-0.11143261745934145,-0.021576058933923246,9.565903057388391,16.42010063826115,-6.508492714926486,-0.15881707351332378,0.035654578139721234,-1.3936324065842767,0.02624367501156044,-0.07254123360049647,0.021536454770280322,17.029945267228044,42.530226114410674,-10.882449757981233,0.07979175632046648,-0.06845978783445392,0.12555735039462554
10990,1724818894476586810,-0.5290370583534241,-0.6675361394882202,0.1329893469810485,0.0483381189405918,-0.0647073239088058,0.6389117240905762,-0.7650282382965088,0.0,0.0,0.0,0.7426695798712843,-0.06306303852069961,0.3519540854495855,1.899676764,0.1329893469810485,0.14014201680267085,0.1662031640373692,-0.06377718860102957,0.7833215761877497,10.701958049243586,-13.107315991199512,-0.15740245980597853,0.037246889902000924,-1.3945542103183197,0.03598974440937042,-0.06072976325183532,0.028660432388934787,-58.33712273247501,-49.10384244364869,-57.015120078682436,0.06968685346181408,-0.05505980708337178,0.12555735039462554
