seq,stamp,px,py,pz,ox,oy,oz,ow,lx,ly,lz,ax,ay,az,timestamp,wx,wy,wz,aa_x,aa_y,aa_z,roll,pitch,yaw,vx,vy,vz,jx,jy,jz,forward_velocity
20012,1724559713872777851,0.6338928937911987,-0.988559365272522,0.1352208405733108,0.0364890173077583,-0.0368018820881843,-0.1331945210695266,0.9897339940071106,0.0,0.0,0.0,-0.0014781893512882751,0.3661043650905702,1.8969223371814752,0.0,0.0,0.0,0.0,22.4650122980276,-21.618762270837426,-6.104842682325477,0.08228924401080777,-0.06316987727271252,-0.2701461727185625,0.03259958925604521,0.08461976176229588,-0.014535565024040858,15.956363631905438,-69.07942507877766,-55.229943095919815,0.0
20014,1724559713881257907,0.634169340133667,-0.987841784954071,0.1350975781679153,0.0371929891407489,-0.0376707725226879,-0.1334103196859359,0.989646017551422,0.0,0.0,0.0,0.13383266780363323,-0.2196930280252687,1.4285693268512618,0.008480056,0.19050456232796273,-0.18332831470738853,-0.05176940781731025,-5.653861054097003,3.317311340005923,-23.60891919608971,0.0839409991117854,-0.06468269723124609,-0.27071388194424445,0.03258705412756768,0.08772434728010836,0.0015504426229089319,66.20743746069823,-29.505717855540574,-132.82085915332576,0.007825443264357957
20016,1724559713890646965,0.6344751715660095,-0.9869858622550964,0.1352793574333191,0.0366208627820014,-0.0369968488812446,-0.1355344206094741,0.9894042015075684,0.0,0.0,0.0,1.2778431049088919,-0.08533550695987469,-0.6250896812373513,0.017869114,-0.15488957510588408,0.10704103174216188,-0.4553985220531941,-19.588434714107482,15.35199003110895,-16.744608978152158,0.08275446760410139,-0.06332521535456265,-0.2748997472769576,0.03525024063161908,0.0795719807280264,0.010094599834747697,75.75811738331268,22.020553475343664,-143.47842107076104,0.007816208205839332
20018,1724559713903307199,0.6349671483039856,-0.9861763119697572,0.1352489739656448,0.0360182002186775,-0.0366296656429767,-0.1369254887104034,0.9892483949661256,0.0,0.0,0.0,1.4502037206076537,0.32507727952654975,-1.1569505642997753,0.030529348,-0.10928742802684771,0.035529304151767103,-0.2193633583971621,-16.893820845861466,-18.582789461068053,17.79870635371234,0.08154309502959399,-0.06264903038811896,-0.2776360664811562,0.0684000368192983,0.09185739918210345,-0.024025055541967433,-160.0791410772017,-142.90004178673422,145.32137997001348,0.019656655858282152
20020,1724559713910632022,0.6355933547019958,-0.9853851795196532,0.1349813491106033,0.0347936786711216,-0.0370200239121913,-0.1373241692781448,0.9892224073410034,0.0,0.0,0.0,-0.45844632384092465,-1.4646214606509713,0.7013993164983631,0.037854171,-0.3198912757746134,-0.15540066351066917,-0.09257252027946035,-5.5060311274157785,-8.716269615532184,8.717393729343687,0.07924849364689368,-0.0637291779166719,-0.27840489198652185,0.07407172232690584,0.0915037323319936,-0.02598127774116943,-202.7804297926599,-189.80567263443746,176.61807686136194,0.05008293444786615
20022,1724559713920858121,0.6361877918243408,-0.9846850633621216,0.1348663568496704,0.0345955751836299,-0.0369504690170288,-0.1379697620868683,0.9891421794891356,0.0,0.0,0.0,-1.7070234175049355,-2.627126312912,1.4069679717408499,0.04808027,-0.044323532583582854,0.003162159539120544,-0.12609664161210518,20.547081501451444,4.638262173548574,1.1314915044474494,0.07887702829392768,-0.06359510637057418,-0.27969042302460534,0.05178411101461222,0.056305965684309456,-0.004982347259001152,84.93142780044275,105.53234241436748,-22.264115279587628,0.036181230088972394
20024,1724559713933578644,0.6367461085319519,-0.9841611981391908,0.134902074933052,0.0352373905479908,-0.0377335660159587,-0.1382303982973098,0.9890535473823548,0.0,0.0,0.0,2.6492450870487616,2.183988904760395,-0.32030248363281566,0.060800793,0.11576976881564253,-0.1097965888160068,-0.04192571446450767,9.87646896637072,-7.092998835076813,5.369278820682915,0.08039104308507511,-0.06494492253966157,-0.2803344737376649,0.03754580335163582,0.03578090008145818,0.002685246048404699,1542.4646323096586,5196.946595062201,2199.3127899043216,0.030900673374901877
20026,1724559713992498138,0.6372266411781311,-0.9835271835327148,0.1350268125534057,0.0339354500174522,-0.038661453872919,-0.1402426660060882,0.9887799024581908,0.0,0.0,0.0,421.01895748594507,1623.4456274231434,766.5245464185133,0.119720287,-0.041606402646089655,-0.040018374786028064,-0.06606449664184635,-4776.210807000625,-12913.267935334412,-3577.769104352891,0.07820828169909672,-0.06698702803135118,-0.284410367904852,1.2221013213120386,1.2008286100890473,-0.26809975001248176,2092916.0810101337,1063113.344422576,-1758400.7423592284,0.00493967747800407
20028,1724559713992942682,0.6377739906311035,-0.9829893708229064,0.1349067240953445,0.0332889072597026,-0.039860799908638,-0.140671893954277,0.9886932373046876,0.0,0.0,0.0,1358.4081884218153,2099.519737127228,-21.103383799206455,0.120164831,-2.1808529862714776,-5.823849970585469,-1.6685389543674425,1467.247099327877,14700.132560570042,-16216.973922730023,0.07730308349605054,-0.06951054168042578,-0.28535313877574753,1.4106074623857694,1.927900431360058,0.07524052005368276,1885075.013572086,-189900.80668826075,-3221493.963735535,0.8201216656686108
20030,1724559713993276911,0.638290524482727,-0.9821645617485046,0.1350186616182327,0.033480878919363,-0.0388009399175643,-0.1423335820436477,0.9884911179542542,0.0,0.0,0.0,1932.272124502656,1719.2172365790238,-1462.120811834314,0.12049906,-0.11249361808401462,6.052790170376742,-10.258032745008926,29092.394364489897,5782.928125620605,15406.061099527906,0.07748885131887466,-0.06722849242637989,-0.2886226547001283,2.0994223728416728,2.746212509603538,-0.13119710425883113,-2994787.6840671794,-5067772.058006412,-1481902.3778106314,0.7998488886207645
20032,1724559713993533591,0.6389386057853699,-0.9814047813415528,0.1348931044340133,0.0350082777440547,-0.0388132892549037,-0.1420388668775558,0.9884802103042604,0.0,0.0,0.0,234.76694997206687,-356.26119595770706,-1284.7197940779665,0.12075574,11.869863802103625,1.6724094699593997,1.7992812510063432,-13344.499365608444,-31489.472765510982,13167.697782454696,0.08050244245947864,-0.06683701556997942,-0.2881273231567731,2.5700409209443933,3.0437700031600343,-0.6729592643698936,-6574915.530065199,-7255743.058235003,2309987.3595530256,1.5434698952412866
20034,1724559713993810383,0.6396634578704834,-0.9805372953414916,0.1346519738435745,0.0334775410592556,-0.0401517525315284,-0.1427814811468124,0.9883726835250854,0.0,0.0,0.0,-1573.6562051925284,-2116.819767931464,-162.13950726548913,0.121032532,-9.74051336764696,-11.348880603029638,-4.646537985665996,-52449.81711966027,-31945.613063585766,-12885.375103888535,0.0779111117571351,-0.06986667176337838,-0.28966149294958793,2.157837833687438,2.492808780338464,-0.7820352883228168,-4626770.018758811,-4529111.269352719,3088027.040928422,1.5497323546837911
20036,1724559713994464159,0.6403624415397644,-0.9798977971076964,0.1342783272266388,0.031580351293087,-0.0428579188883304,-0.141970008611679,0.9884384274482728,0.0,0.0,0.0,-1654.1344618856704,-2249.679275885211,362.4829467689869,0.121686308,-4.461341499723465,-8.91980932343839,2.9924487628954397,7536.753272073675,3521.262770369965,10824.387186604963,0.07488451125595465,-0.07583055591965315,-0.2881519195528842,0.9986264177531368,0.9138570854163515,-0.5298870760018215,-100850.9813213321,-170224.42078535332,742381.4691659583,0.7016495055816402
20038,1724559714002973972,0.6410490274429321,-0.979243814945221,0.1343807429075241,0.0316090397536754,-0.0448284037411212,-0.1426773071289062,0.9882482290267944,0.0,0.0,0.0,-48.1624356641922,-43.574477247246556,26.40572351504554,0.130196121,0.06669940194322037,-0.4639627903386181,-0.15631939961262412,270.6929791253342,468.6085944875307,-142.238721175333,0.07557856978733334,-0.0796676433327731,-0.2897800663346146,0.09992912213260041,0.09561983859299517,-0.014677375758783029,89525.117669093,121213.81651122154,-20125.357771288578,0.05614065395661195
20040,1724559714010076107,0.6418728232383728,-0.9784534573554992,0.1341181695461273,0.0329974442720413,-0.0459419712424278,-0.1419905871152877,0.9882505536079408,0.0,0.0,0.0,-0.302118345647711,-0.8364618736390901,-1.7297873129678005,0.137298256,0.43977767335887646,-0.24797515837412548,0.18358996087396498,15.401789838861053,22.936574916590544,16.40373058049095,0.0786078774820803,-0.08152397760540539,-0.288611872404129,0.09836591711927056,0.0977926192529246,-0.02948273450697636,4307.224045438128,3816.65575873116,-2484.454989474142,0.07624643340116416
20042,1724559714022529190,0.6427128911018372,-0.9775302410125732,0.1339145302772522,0.0318695083260536,-0.0464946925640106,-0.143907144665718,0.987984538078308,0.0,0.0,0.0,0.23983200492283085,-1.3668760202595687,-0.4155297485684093,0.149751339,-0.17914835986329392,-0.12556669188204422,-0.29900270795076583,1.6874981419750492,-70.29792885480346,40.516799511402795,0.07669261015839365,-0.08279413288814907,-0.2924584794476522,0.09281277085374029,0.06243121933029272,-0.04327561384499745,-75.01376465290451,46.00971085201875,157.19245852162047,0.041719983105257576
20044,1724559714030394736,0.6435688734054565,-0.9770973324775696,0.1334403902292251,0.0315317250788211,-0.0507796816527843,-0.1424175947904586,0.9880002737045288,0.0,0.0,0.0,-0.9390638587502838,-0.5648069916509275,1.0775000364865126,0.157616885,0.08942051728886294,-1.0765710461582,0.4134950931993287,18.068959748743076,-36.56996706718981,31.636801157871272,0.07716951924160502,-0.09148690244664678,-0.28985665801488014,0.0981060177646178,0.05899632430280377,-0.04310584487396074,385.7384753975921,413.8714790151199,105.19094530273551,0.08267869954300396
20046,1724559714040020754,0.6443869471549988,-0.9764828085899352,0.1332277804613113,0.031579416245222,-0.0529026351869106,-0.1423530131578445,0.9878966212272644,0.0,0.0,0.0,9.083937575562198,7.093460038498343,1.0931079083466013,0.167242903,0.07396882029540211,-0.4350529328078336,0.023595089711789086,-1.6111470794006801,48.39739483528686,-25.991338670765593,0.07789073008320499,-0.09567973733793254,-0.28995497991209007,0.07007601923031537,0.05205033165687922,-0.020294568606210817,278.34595996574467,216.70463660529566,-2.6443302915101548,0.06078665021655775
20048,1724559714058744651,0.6451560258865356,-0.9759376049041748,0.1329130679368972,0.031692236661911,-0.0547688864171505,-0.1417823433876037,0.9878734350204468,0.0,0.0,0.0,-13.489342612011342,-9.931909246125883,0.8882348093481198,0.1859668,0.04358532157383505,-0.19342214408479824,0.06552361813626505,1130.8088675420279,-2028.1551783004925,-2017.6775781107447,0.07861485623475487,-0.09938619239213863,-0.28901053563560813,0.6770570338983362,0.46949534728673825,-0.046323338870934094,-4771.396577996962,-3319.7298772234244,206.34755689577003,0.029251357109602024
20050,1724559714059783307,0.6458958983421326,-0.975424587726593,0.1328632533550262,0.0322336256504058,-0.0560682490468025,-0.1428866237401962,0.9876238107681274,0.0,0.0,0.0,-18.650631950669236,-13.518848078753887,1.1150783996727762,0.187005456,1.2833535337323916,-2.417576524693825,-2.146529939943834,1090.9233200965878,-1956.4043276455714,-1945.5107046841451,0.08019212917610989,-0.10171245339383397,-0.2914444427551579,0.6604012563357555,0.4573227200677792,-0.045269496577113655,-4584.085700102128,-3187.783680834598,195.33361439910865,0.5327122702049375
20052,1724559714071759061,0.6466334462165833,-0.9750017523765564,0.1326927095651626,0.0329595766961574,-0.0580169558525085,-0.1429410874843597,0.9874794483184814,0.0,0.0,0.0,-20.37154531227617,-15.012511620743838,0.26916668919006836,0.19898121,0.16650480842396392,-0.30573611670942463,-0.008735328386957402,-57.33169747048876,67.30223134982327,62.31477379263575,0.08222785548407449,-0.1053533313154591,-0.2918479114243168,0.0760001887863595,0.04698155469476717,-0.018044345260660677,1258.1373704384303,848.2294497914125,-85.69712466757355,0.047055453108726275
20054,1724559714080435399,0.647383451461792,-0.974520742893219,0.1325122416019439,0.0323067642748355,-0.0596677735447883,-0.1438756734132766,0.9872668385505676,0.0,0.0,0.0,-0.6436594542973522,-1.5370618525238995,-0.5690478332126199,0.207657548,-0.105086610529913,-0.4072226761096781,-0.19846866896162385,-15.028141880809006,-17.14398350272009,13.593107116402981,0.08153154272141264,-0.10873384769124955,-0.2938646047780075,0.07794101003376142,0.03774364524595342,-0.028307172352021404,1178.6223121716366,847.0444918599604,26.01312022728465,0.06402779689929484
20056,1724559714090130073,0.6480469703674316,-0.9743465185165404,0.132156491279602,0.0314172282814979,-0.0626917704939842,-0.1424762457609176,0.9873111844062804,0.0,0.0,0.0,-1.0803832727755744,-0.9738962992105776,1.0114515843043015,0.217352222,-0.07448661591053221,-0.6324333340399518,0.3174446077906992,6.23862196736838,6.299670805142746,23.880846501541377,0.0805204685679003,-0.11509408847138812,-0.2912772868488767,0.06230533726087373,0.0177257222201348,-0.0271748485007679,3.4051362172786277,93.84977182402379,113.296548792353,0.055784100561508475
20058,1724559714100624000,0.6486310958862305,-0.974163293838501,0.1319794654846191,0.0313019789755344,-0.0639459192752838,-0.1412890404462814,0.9874049425125122,0.0,0.0,0.0,-0.49426951397605423,0.41715191868311585,1.6354787058674694,0.227846149,0.025992531585183783,-0.2308914184484175,0.2348265715804162,7.0549246298220645,14.909690117844615,-11.016628629024138,0.08052879980616348,-0.11770739873623771,-0.28900046615086145,0.05701575436791728,0.01989780165359889,-0.006398320802382784,45.765109748761866,60.482985783817924,-47.78626228975533,0.04606295631293388
20060,1724559714109941970,0.6491735577583313,-0.9739577174186708,0.1320064812898636,0.0314086526632308,-0.0653199702501297,-0.1408209800720214,0.987378478050232,0.0,0.0,0.0,-0.15129390003498244,0.3844014588361748,0.30282862039010006,0.237164119,0.07087968971310236,-0.28519387360674847,0.10616371509262422,-9.548197578693857,1.605541171115025,-17.90882964086634,0.08109695713389654,-0.12043601073791335,-0.2882234838292059,0.052491181382670504,0.02552369276825317,0.00599166479741875,48.74976866881558,-35.115737182127354,-113.51516669791306,0.04953356934275078
20062,1724559714120983558,0.6496782302856445,-0.9736306071281432,0.1321130990982055,0.0301157459616661,-0.0660495311021804,-0.1417222023010254,0.987241268157959,0.0,0.0,0.0,0.5432278225859979,-0.4168003582127169,-0.5645251497260388,0.248205707,-0.2225058584658061,-0.17020917546341138,-0.14523315191317052,-6.081154516213791,9.766377187745189,-0.2336881360659282,0.07885330596563099,-0.12218127154820367,-0.2899850502242506,0.05519440238141016,0.02689789673015497,-0.004100082361944146,-14.615720424904964,-61.58647749646146,13.245811735124587,0.03624068369425259
20064,1724559714130612398,0.6502893567085266,-0.973394513130188,0.1319581121206283,0.0295286606997251,-0.0663690641522407,-0.1415702998638153,0.9872593879699708,0.0,0.0,0.0,-0.2483969379980273,-0.9176452749854749,0.3338404892273349,0.257834547,-0.10901053041849045,-0.08160645924610659,0.04173545657448832,16.507075576568116,18.5972749739929,-6.11565354911356,0.0777618769462085,-0.12299608097903729,-0.2896433341555578,0.06293072716364634,0.018339735050723505,-0.006601517731818163,218.4207997110476,-22.473878318823427,136.87601714256868,0.05144022920793484
20066,1724559714140138811,0.6508837938308716,-0.9732780456542968,0.1319847106933593,0.0301701389253139,-0.0655295476317405,-0.1427242904901504,0.9871298670768738,0.0,0.0,0.0,4.665874837386651,-0.8533126301546777,2.048490237330472,0.26736096,0.09272957102290144,0.1841118693581092,-0.25717728155289976,16.00585894953696,18.76981633181576,-20.984030859885333,0.07892794929405653,-0.12105577603757849,-0.29196577054175643,0.050650625886290435,0.009326045934265892,0.0021737567593622664,-1248.691835214833,49.2992648356943,-260.2400406080758,0.056164712662917164
20068,1724559714168256740,0.6513329744338989,-0.9732564687728882,0.1319945156574249,0.0316420085728168,-0.0663920193910598,-0.142425537109375,0.987069308757782,0.0,0.0,0.0,-176.88857871554046,4.063881755973162,-41.804497133581606,0.295478889,0.11362333166190207,-0.04525617873589478,0.01535213938067761,-237.5149640938811,-7353.808099974955,-3322.6707536743006,0.08208269446856713,-0.12235888075401428,-0.2916353917408924,0.6760583350360321,-0.0069601785580744036,0.15333333443095398,-16826.550852220564,-8.507952366320751,-4180.964040384119,0.01500952588373317
20070,1724559714168711029,0.6516449451446533,-0.973259687423706,0.1320652961730957,0.0315545052289962,-0.0671524703502655,-0.1427906304597854,0.9869679808616638,0.0,0.0,0.0,-184.6088063460327,4.058670683580075,-43.7231031871005,0.295933178,0.003974142314071728,-3.439925527395,-1.5185593381321014,-188.5637241196414,-6156.131934974785,-2759.3488529214783,0.08218544718899401,-0.12385975157284906,-0.29245739785017827,0.5942382290784138,-0.005079922648377533,0.13399571893146422,-13235.149611173389,-97.14331104558585,-3332.67962555004,0.6738017788129419
20072,1724559714171194308,0.6518651843070984,-0.973245084285736,0.1321019977331161,0.0317110568284988,-0.0682496801018714,-0.1427948325872421,0.9868870377540588,0.0,0.0,0.0,-166.45024581991004,2.6544891326739193,-39.90927157619034,0.298416457,0.2524522010719712,-0.8586428808184913,0.006768310433849008,77.05147846979784,834.026852095228,485.91932330397617,0.08283231258084858,-0.12598612057802297,-0.2926175966773496,0.07467836832470454,0.003909853661241414,0.009722595635656361,9456.620693226536,-521.2631980747673,2093.6803221112655,0.08442004686058935
20074,1724559714180502449,0.652071475982666,-0.9732774496078492,0.1320160627365112,0.0322858728468418,-0.0695769265294075,-0.1425384879112243,0.9868128299713136,0.0,0.0,0.0,-3.612554607869593,-0.655666011481849,-0.9567461269377092,0.307724598,0.16687565398244833,-0.2631453982008979,0.052694545036464514,-9.530257401559936,35.78706339251461,-3.494392433009302,0.08434926231673803,-0.1284679297005533,-0.2923310448141373,0.017686354223464207,-0.005072720405308928,-0.008159606071874492,9071.060641494598,-169.55137532697665,2175.112567610955,0.02085836761175874
20076,1724559714190222802,0.6521979570388794,-0.9733429551124572,0.131947636604309,0.0325085818767547,-0.0705815032124519,-0.1428665667772293,0.9866867065429688,0.0,0.0,0.0,-0.9395527957622657,-0.4150226398724984,-0.21365966382382673,0.317444951,0.07082217184400758,-0.20142316728815132,-0.06682713101893599,-6.909515577558965,5.679258792684371,-5.664806747813214,0.08514347963549765,-0.13036381883777695,-0.29315086820458136,0.008052236971547444,-0.008305794158047775,-0.007670171626625866,159.3236025467699,17.62109578287891,33.51691519576729,0.013366917244812287
20078,1724559714201548032,0.6522237062454224,-0.97345769405365,0.1318524479866027,0.0325854830443859,-0.0714146569371223,-0.1431236267089843,0.9865869879722596,0.0,0.0,0.0,-0.6614063437216189,-0.3096138779004247,-0.4005315100503103,0.328770181,0.03178835308108289,-0.14595200968032448,-0.043482952880328746,0.5781974427280678,-1.1148236758154866,0.3481430977694533,0.08558681708759322,-0.13196876002625818,-0.29378795002223607,-0.0019078712203821624,-0.014093479833363176,-0.013573564987735764,17.919274509721845,28.036265952134634,11.914012148469334,0.003959596696257425
20080,1724559714210152234,0.6521799564361572,-0.9736048579216005,0.1317018717527389,0.0327490828931331,-0.07227323949337,-0.1433508843183517,0.9864860773086548,0.0,0.0,0.0,-0.550634586074846,0.05404501396082961,-0.11227718900266448,0.337374383,0.06307328205358947,-0.1948497196629258,-0.05168595535361466,1.5150188962692543,-0.01991541959263632,-0.08275476855135167,0.0862079113328935,-0.13360095991341972,-0.2943800877656573,-0.006173330072858363,-0.015440727552316957,-0.016230622427219288,15.716184750256355,29.121299093469048,30.39359976882657,-0.0022353529537524892
20082,1724559714220628424,0.6521013975143433,-0.9737454056739808,0.1315480321645736,0.032940674573183,-0.0729397386312484,-0.1435664445161819,0.9863992929458618,0.0,0.0,0.0,-0.34973734338407736,0.19146792009330527,0.16648827872229188,0.347850573,0.05189074276003013,-0.12282306241404356,-0.04144779065583381,-10.189688528193642,1.3821400410682312,-1.11227832154302,0.08682495753754728,-0.13484534562281478,-0.29492879802843386,-0.012642070906373704,-0.012187920092728177,-0.014900002287880909,41.227273274842666,-2.5127628890609284,3.624037033945874,-0.005219832801872532
20084,1724559714230235861,0.6519346237182617,-0.9738516807556152,0.1314029842615127,0.0322576127946376,-0.0735897719860076,-0.1439699083566665,0.9863147735595704,0.0,0.0,0.0,0.24063392939761008,0.029611488305962386,-0.001212046144043133,0.35745801,-0.1263798241526818,-0.1579427240528691,-0.07054445633499343,-7.601401727390512,3.2124913613610016,-6.7191436696902045,0.08572071309237463,-0.13629872701724427,-0.2957422408001104,-0.013643224609900528,-0.011397121562964685,-0.01295267732711114,41.545229498070086,-5.743806161298487,-16.408570076595886,-0.015308558734232442
20086,1724559714240778638,0.6518337726593018,-0.9739757180213928,0.1312912404537201,0.0318802893161773,-0.0737298429012298,-0.1449654251337051,0.9861706495285034,0.0,0.0,0.0,0.4483610914237852,0.09751057303229616,-0.16209458254702092,0.368000787,-0.07979007425278052,-0.04461752135184703,-0.18407994894939259,9.250369874797967,5.014556002237979,5.805931158550299,0.0851504919422104,-0.1366017710516698,-0.29773447254761726,-0.007116758944384571,-0.011694625208676257,-0.015324426924579804,-69.83838985433898,-34.90207513010728,-77.5250993512038,-0.007083977530082367
20088,1724559714250377559,0.6517868638038635,-0.9740873575210572,0.1311028450727462,0.0320844836533069,-0.0739885717630386,-0.1448762863874435,0.986157774925232,0.0,0.0,0.0,-1.0045672313717373,-0.5988264246869492,-1.4504219662112958,0.377599708,0.051226556267941314,-0.04660048025530423,0.016508684160095873,10.593608050817219,0.05843900626592027,16.515202419499957,0.0856257289196615,-0.13706097734813488,-0.2976136186805595,-0.004304689531196448,-0.009659809620615967,-0.016330905084811276,-324.8139966527706,8.485997471092126,786.8640880907467,-0.003931368430783356
20090,1724559714288566066,0.6517109274864197,-0.9741568565368652,0.1309799253940582,0.0319403819739818,-0.07403115183115,-0.1452395468950271,0.9861057996749878,0.0,0.0,0.0,-39.76099426932433,12.035998966818624,168.53822646302388,0.415788215,-0.008439590286748216,-0.004104280994163108,-0.018525684608467697,3815.219971763394,-103.41921152977325,-3270.2639796603203,0.08540253264411156,-0.13715670999931778,-0.2983386799835362,-0.2398001716271665,-0.1557143226214066,-0.27615232756670594,189657.9449605086,108497.98334554551,107493.03858480102,-0.0017929620355348528
20092,1724559714288897770,0.651630699634552,-0.9742089509963988,0.1308875381946563,0.0321605019271373,-0.074062131345272,-0.1454061567783355,0.986071765422821,0.0,0.0,0.0,23.69866531920559,48.33686181706412,204.49097798850954,0.416119919,1.2680809304172846,-0.038710021531711374,-1.11270486780914,-491.1699122808746,-2971.0372715699555,-507.93558313210883,0.08587406442498947,-0.13713793379055528,-0.2987110106579962,-0.25308584342997165,-0.15167623664797247,-0.21974233409804356,202338.00483322723,105082.95265466758,56625.18295615475,-0.22127698420796127
20094,1724559714289192338,0.651553213596344,-0.974252223968506,0.1308381855487823,0.0321289673447608,-0.0743009969592094,-0.1454914808273315,0.986042320728302,0.0,0.0,0.0,86.18469944258064,78.15182784043556,207.63031735540306,0.416414487,-0.011781016101958818,-1.66378398969407,-0.5323016693924068,-3631.2244151148184,-4551.465212522421,1755.7295234083567,0.08589801723392833,-0.1376127971941834,-0.2989112068434262,-0.2294282583143996,-0.1279778545500676,-0.15049937528254098,180404.5146008045,83227.21209568853,-6428.405404622569,-0.22914121507190477
20096,1724559714290762384,0.6514743566513062,-0.9742947816848756,0.1307445168495178,0.0322210080921649,-0.0749076083302497,-0.1451632976531982,0.9860417246818542,0.0,0.0,0.0,103.95771298000076,58.286945125810966,54.55734457556397,0.417984533,0.25912151135885575,-0.7315116115132385,0.4282254871566529,149.2691954557801,530.3378375736946,535.3394821370915,0.08622539494398723,-0.13881482638430817,-0.2983345447395196,-0.044976399964028246,-0.024518750092090258,-0.054102338516103465,8932.533956023744,-11736.300179353677,-86473.87124156047,-0.04790997117964897
20098,1724559714302442148,0.6514051556587219,-0.9743563532829284,0.1305954903364181,0.0320476554334163,-0.0751871392130851,-0.1449572741985321,0.9860564470291138,0.0,0.0,0.0,0.8422461424113961,0.8088790008693058,2.2319048755844197,0.429664297,-0.01976015516813111,-0.05018122937956088,0.038918092342215715,-4.969642893948712,25.327746933366743,-13.068887022074813,0.08593824796129391,-0.13943785247877946,-0.29792816040967657,-0.005846341874573113,-0.004834600998343319,-0.011214930343947493,-4061.0781056863857,-2245.398018663966,-2081.2723528439215,-0.00584983946550681
20100,1724559714311914721,0.6513503789901733,-0.9743987917900084,0.1305011212825775,0.0323448665440082,-0.0755498334765434,-0.1446083933115005,0.9860702157020568,0.0,0.0,0.0,-1.0005133143175167,0.09574171989217553,0.9451591875476721,0.43913687,0.07842266418257415,-0.06383441177943298,0.07079157159034428,8.019710582171315,-1.5067853029823577,-2.6140313539798488,0.08659444701100667,-0.14009804814946078,-0.29730609020638127,-0.01713576486258006,-0.003905688578385025,-0.0011361103432863118,-171.15664208927822,-75.73297849900791,-0.13099683100888626,-0.005566362690706653
20102,1724559714321925312,0.6510587334632874,-0.974431812763214,0.1305831223726272,0.0329551212489604,-0.0760366320610046,-0.144662544131279,0.986004650592804,0.0,0.0,0.0,-2.466554976775731,-0.667135397961322,2.379526410445604,0.449147461,0.13389394472364305,-0.07961059779868786,-0.018627667784043424,4.35934821226927,-1.1650124047352068,-7.47007918676347,0.08797090037002046,-0.14087570920531975,-0.29756386746797514,-0.025127828928149132,-0.0029718184909555134,0.007068252305045097,1092.1882168433326,296.1189549362064,-2926.2811579433974,-0.0254697395449232
20104,1724559714376070256,0.6508713364601135,-0.9744970202445984,0.1306369006633758,0.0334922336041927,-0.0767308697104454,-0.144495278596878,0.9859572649002076,0.0,0.0,0.0,419.4139222816473,124.40459449171601,-1055.0087459547085,0.503292405,0.023799281199383654,-0.022344184294620272,0.00517529878097493,26120.345462723464,-3271.000533261058,-10353.103292996933,0.08923499677394016,-0.14210557479167504,-0.297390048990279,-0.6472221856906799,-0.26178945459832903,0.5927527567387187,-106066.88684305479,283460.74404135847,-344174.92568548396,-0.0027857393904192076
20106,1724559714376344144,0.6506931781768799,-0.9745690822601318,0.1308000683784485,0.0344778969883918,-0.076985128223896,-0.1448077410459518,0.9858577251434326,0.0,0.0,0.0,390.20573041752453,202.43060866083206,-1149.7239060571942,0.503566293,7.214039479288083,-0.9227652225859087,-2.844759680910268,9368.535418715654,-2802.539739744192,202.59760406252008,0.09132520673964183,-0.14228706291677584,-0.2981970111127675,-0.5317527540893252,-0.22753755123881092,0.30232188245395264,-321316.60482759564,164734.27497278343,-71536.59978305269,-0.4544877144606808
20108,1724559714376728325,0.6505528688430786,-0.9746373295783995,0.1307580918073654,0.0347106382250785,-0.0773814842104911,-0.1442352682352066,0.9859024286270142,0.0,0.0,0.0,151.07680954736975,200.9716852678909,-1029.4003417261465,0.503950474,1.714690585186809,-1.7380803139438818,2.9496412384226676,-13182.982638108706,-3077.542542020179,4182.7751383373,0.09183062823502411,-0.14305562778262096,-0.297118660588236,-0.3987576895362963,-0.10807239857740569,-0.18751572915101633,-354733.4019077069,-362043.36847737327,905313.2280647971,-0.3097477168743725
20110,1724559714376984104,0.6504451632499695,-0.9746531248092652,0.1306968033313751,0.0344549790024757,-0.0777029693126678,-0.1439888924360275,0.9859220385551452,0.0,0.0,0.0,105.93139848410931,47.36223769936328,-697.0073137587203,0.504206253,-1.4645557815606585,-2.687935389345068,2.163376861925328,-9141.284086644826,-7292.976359001694,-1982.1145638384137,0.09138551640138817,-0.14379085805638814,-0.2966254145157287,-0.3933395828473749,-0.07539827798336773,-0.40898806628905504,65841.34083091124,-450089.26501515275,1058679.2183552545,-0.41501486509281676
20112,1724559714377236914,0.6503526568412781,-0.9746755957603456,0.1305510848760604,0.0339690744876861,-0.0783338397741317,-0.1438003331422805,0.985916554927826,0.0,0.0,0.0,183.13231057612555,-28.827046023981985,-489.54585272955893,0.504459063,-2.9538790037415126,-5.426076753003937,1.9351135948735299,-5489.657767685455,-10092.452832441999,-876.7245663275162,0.09058600118217436,-0.14520141734740882,-0.2962590764254724,-0.3453824621842525,-0.08350995136037831,-0.5430028914217226,284851.30233882606,-282216.644259933,779832.1946368489,-0.4040123591717105
20114,1724559714381117956,0.6502354145050049,-0.974679470062256,0.1304331868886947,0.033130969852209,-0.0793974325060844,-0.143715426325798,0.9858723282814026,0.0,0.0,0.0,66.06673865868481,17.024782274264155,106.74508767838346,0.508340105,-0.3427959967922719,-0.6027832963332175,0.09231152070630014,543.4477887266282,1002.3343506871263,-380.75529194736873,0.08923394772518986,-0.14756355036833654,-0.29611069928874406,-0.02572228659173703,-0.0012168221073132202,-0.026666496441815513,-25014.299609122758,9255.462375993691,121772.65502994628,-0.03275852531038346
20116,1724559714396770042,0.6501160264015198,-0.9747123122215272,0.1302500814199447,0.0329784490168094,-0.0801271498203277,-0.1431953459978103,0.9858940839767456,0.0,0.0,0.0,-0.4237875720403337,0.3668654571337009,1.0150898573415195,0.523992191,-0.0006289488494266094,-0.0923032996935245,0.07055231334035193,17.43792922271722,-1.4687710430992027,-2.992189006329532,0.08907896748506859,-0.14910087673886382,-0.2951286492348576,-0.020425174467987972,0.0014545178325136021,-0.01577111002832865,-1030.9832048398084,-263.68432107876225,-1697.8629199037694,-0.008351126569112641
20118,1724559714402003298,0.649986743927002,-0.9746984839439392,0.1301604211330413,0.0331215448677539,-0.080574482679367,-0.1430573463439941,0.9858728647232056,0.0,0.0,0.0,-0.1902148186314664,0.3877345355621945,0.9783947383875785,0.529225447,0.0828893650230958,-0.15962581733748946,0.052090333487916286,8.656859585279209,-5.668015577325479,-7.994644213719182,0.08948306534893435,-0.14995721877025348,-0.29492939353485625,-0.023976637804150158,0.0037177084914290504,-0.009900734497122698,55.44575020924222,-5.746018354036046,-43.81682497892251,-0.026691113924637692
20120,1724559714410451636,0.6497941017150879,-0.9746524095535278,0.1301754117012024,0.0333164595067501,-0.0810533314943313,-0.1433714777231216,0.9857814908027648,0.0,0.0,0.0,0.42568890243516755,0.20643459436385406,0.10624696248556137,0.537673785,0.056432251250245966,-0.10936281311136643,-0.0763724763183504,-4.0469161712357815,3.976209376619021,-4.674779883036935,0.09006976950915399,-0.150819608981761,-0.2956631815997038,-0.018922276449437447,0.006383383371694862,-0.0035900170869380688,23.670053896838283,-23.367578605117224,-66.92171961776822,-0.022869770312386236
20122,1724559714422885183,0.6496298313140869,-0.974556028842926,0.1300326138734817,0.0331363603472709,-0.0816444084048271,-0.1430399864912033,0.9857869148254396,0.0,0.0,0.0,-0.18089246463075437,-0.11901640121996915,-0.06137927494690942,0.550107332,-0.010633665251210936,-0.09603213167182598,0.058204758105402626,-7.622543960244768,-6.978480730462298,0.2734417533834306,0.08984392124266104,-0.15207380682912075,-0.29504256330160816,-0.01678739682770214,0.006953863374747016,-0.013993485434488306,-17.436104564490336,-16.820946868319304,42.52472363737934,-0.016462938629952125
20124,1724559714430490312,0.6494855284690857,-0.9745068550109864,0.1299145221710205,0.0327353775501251,-0.0823021456599235,-0.143045961856842,0.9857447743415833,0.0,0.0,0.0,-0.167664440748587,-0.20342789266964514,0.5225560048245844,0.557712461,-0.07897100479084128,-0.18655407162653279,0.011206860646992516,-1.860829096342425,-5.039716801885491,-3.1104342946697683,0.08924980633235884,-0.15349451955594687,-0.2950850607867309,-0.019803300829842385,0.005281657541445384,-0.010853550349209762,13.209644066643083,-5.252610292660172,37.32141501836364,-0.0221732507151562
20126,1724559714439989363,0.6492875814437866,-0.9744707345962524,0.1298668831586837,0.0325676426291465,-0.0830130204558372,-0.1429898142814636,0.9856988787651062,0.0,0.0,0.0,0.09390526205043948,-0.1839541331198422,0.40889186847107795,0.567211512,-0.01211333172901004,-0.15299932819252465,0.018077111255182736,4.715971714475905,5.064412952607176,-0.27377454628298215,0.0891282789664837,-0.1549573900511235,-0.29504298646049143,-0.018680173032091574,0.0035444681315439652,-0.004588389922477454,15.341628371693359,3.1848980844516905,-14.760759286236283,-0.021565750244596164
20128,1724559714450888742,0.6491109728813171,-0.974435329437256,0.1298222094774246,0.0325601957738399,-0.0834438949823379,-0.1429850161075592,0.98566335439682,0.0,0.0,0.0,0.10860991585492152,-0.13504845556182302,0.21305512224587014,0.578110891,0.010243806997876722,-0.0786411926800041,0.002624128468773843,0.9606687632155961,-0.5400317171809554,-1.4758996424483208,0.08924741189323263,-0.15581364488550364,-0.29509137855060613,-0.017960944980103477,0.001526052957792956,-0.0032665689449320467,-267.6544024064292,40.19660284149539,11.1998908627926,-0.016884669637662053
20130,1724559714460346720,0.6489266753196716,-0.974435031414032,0.1297981441020965,0.0325157418847084,-0.0841210857033729,-0.1430581361055374,0.9855965971946716,0.0,0.0,0.0,-4.630624430082354,0.5382057425042648,0.5583675809573404,0.587568869,0.01037933622103927,-0.14417238021272488,-0.011811851115692816,0.6683335554873905,-3.3192439246022185,-1.4122217182515158,0.08938231641068783,-0.15716180867734073,-0.29532712717175885,-0.016583908208700926,0.0006602584166639502,-0.0004982398537773935,257.6380232829844,-24.251983902999854,-25.20268099598277,-0.018819878740091927
20132,1724559714483999853,0.6487060785293579,-0.974382221698761,0.1299073994159698,0.0332946665585041,-0.0843229591846466,-0.1434454470872879,0.9854971766471864,0.0,0.0,0.0,46.34419631580545,-5.680768274824629,-3.6882746284453205,0.611222002,0.06487401601255428,-0.009173530839637463,-0.03846553664697483,5204.111030708878,-4194.291436126715,-1266.6005650225363,0.09106356956444775,-0.15729597457532382,-0.29626444630127663,-0.4086418857507397,0.05064212556135317,0.028424151240756146,5465.6949658654485,-688.9029825276721,-405.2724186133246,-0.008730102063909985
20134,1724559714484462012,0.6485136151313782,-0.9743583798408508,0.1299207508563995,0.0338144041597843,-0.0848536342382431,-0.1435562968254089,0.9854177236557008,0.0,0.0,0.0,48.900111566636305,-6.002997636160831,-3.8776133337271506,0.611684161,2.5169737769711418,-1.9855296159100506,-0.6352637833103498,4872.646327320483,-3928.483543300134,-1186.0388076225938,0.09228666545481555,-0.15818285445798033,-0.2966455070436055,-0.3866553268166619,0.047946327542813805,0.026675234520708635,5031.333704201798,-635.757402557282,-371.874375998135,-0.40362356773590613
20136,1724559714490116013,0.6483879685401917,-0.9743391871452332,0.1299184262752533,0.0340773984789848,-0.0852676704525947,-0.1437054872512817,0.9853512048721312,0.0,0.0,0.0,42.827986753957006,-5.345749035982162,-3.3649504745122174,0.617338162,0.1090154431341074,-0.13474821783549762,-0.058323200145420515,-282.6057541871273,216.6250390594265,68.62122162909274,0.09296681005225046,-0.1589109630171227,-0.2970494030938796,-0.018417431342601986,0.002250244361842846,-0.0017080437181986596,-2077.7593611318925,246.6097249970209,168.02821882557203,-0.02202772737801239
20138,1724559714500764425,0.6482681632041931,-0.974338173866272,0.1298742294311523,0.0338984541594982,-0.0855013206601142,-0.1437151134014129,0.9853357076644896,0.0,0.0,0.0,0.5721997879849117,-0.10533318133294652,-0.024381071408455246,0.627986574,-0.026865767171705114,-0.04838134344700186,0.002161483624875391,-5.3861525707849776,4.135596107051127,3.7819058571659747,0.09268471571265777,-0.15942605701451665,-0.29707454653390886,-0.009599638045479253,0.00020248625068575166,-0.004347395907756457,-1860.7856191112949,229.1582381050101,154.13064691353563,-0.011308156431927795
20140,1724559714510030888,0.6481925249099731,-0.9743354320526124,0.1298323571681976,0.0337827131152153,-0.0856854915618896,-0.1436285972595214,0.9853362441062928,0.0,0.0,0.0,0.3237741208767187,-0.10242486860242604,0.11699634521751794,0.637253037,-0.017308995222484445,-0.0421142939185722,0.02189911289815526,0.5965187476531975,0.9839412521902999,0.424102233335629,0.09249759032319124,-0.15983338088501248,-0.2969064010522409,-0.0063607955055928755,-7.22393959620149e-05,-0.00277119085805122,-18.137218145596226,0.7803710359041771,7.233000839141547,-0.008510579070323722
20142,1724559714523746296,0.6481418609619141,-0.9743438959121704,0.1298298239707946,0.0336434207856655,-0.0858173966407775,-0.1436910629272461,0.985320508480072,0.0,0.0,0.0,0.25105728024006646,-0.08225129541977982,0.05331214480397986,0.650968445,-0.0179542961722711,-0.022374221971706264,-0.006914607159446331,-0.20154540627694106,4.016801762919758,2.7876485378382845,0.09227116130059841,-0.16013022202868132,-0.29703078065756167,-0.00244281382375533,-0.002954448088686945,-0.0022445163944659896,-5.275148197658119,12.532657801401857,2.865807868724123,-0.003338140343809039
20144,1724559714531572026,0.64812833070755,-0.974377453327179,0.1298030614852905,0.0335646905004978,-0.0857315585017204,-0.143553540110588,0.9853507280349731,0.0,0.0,0.0,0.2098945600712664,0.0652190067832726,0.10926867725832215,0.658794175,-0.020221392036837364,0.020569414477659316,0.036728808962288084,0.5058982178988303,5.0550694570409895,0.5853141161720712,0.0920643184433813,-0.15999639421346085,-0.2967258677059119,-0.0006326278711732414,-0.00302705857198049,-0.0017607251338001007,51.066761235761334,-9.719421175035533,-35.00753290661598,-0.000939312633568871
20146,1724559714543850090,0.6481416821479797,-0.9743903279304504,0.129813402891159,0.0336656235158443,-0.0852724537253379,-0.1438535153865814,0.985343337059021,0.0,0.0,0.0,1.9219438841046972,-0.6043533170474072,-1.1326634884387219,0.671072239,0.0013160107522634983,0.07430590036606918,-0.052240273677007835,1.5636850150578696,2.536270642430477,-3.7614341503259476,0.09216972036702935,-0.1590289166260885,-0.2972877468525721,0.0015318946642111086,-0.0007912149681779113,0.0004948982994843476,15.176732270697222,3.6996663647335613,-1.2745265390913474,0.001463267425249399
20148,1724559714558503118,0.6481719017028809,-0.9743974208831788,0.1298145800828933,0.0339290462434291,-0.0847106277942657,-0.1441559642553329,0.985338568687439,0.0,0.0,0.0,-0.028705026912959397,0.4682130724629854,0.5952302077938008,0.685725267,0.020898228990361617,0.07928695456959632,-0.04641755236735616,185.08171681548887,281.28169285477645,141.2682755203105,0.09256702188331042,-0.15780934201668112,-0.297865078783277,0.060221081147744826,-0.02339984442153309,-0.0391220101297165,-541.001364411728,240.86874505237347,391.3485132229198,0.002099951172203164
20150,1724559714560001184,0.6482710242271423,-0.9744359850883484,0.1297499686479568,0.0342167243361473,-0.0843493193387985,-0.1439835578203201,0.98538476228714,0.0,0.0,0.0,-0.9016299317275565,0.8547302223184238,1.2233732849434187,0.687223333,0.3263045872418121,0.5436934607055006,0.1867868968187582,173.91692945104796,265.4393895019844,133.15187944196728,0.09299963353510174,-0.15702426274094375,-0.29750653193546217,0.05956025246850416,-0.022390411009341804,-0.03772506950891219,-519.6731208956355,226.86696736594416,368.70117717475443,0.06319065965752238
20152,1724559714570215710,0.6484192609786987,-0.9744312167167664,0.1297410577535629,0.034421868622303,-0.0835969150066375,-0.1440579742193222,0.9854309558868408,0.0,0.0,0.0,-1.8200945567387758,1.0029815523863645,1.4652137594726544,0.697437859,0.016829882211590225,0.1512150992536137,-0.021484356559250024,-20.74396266251746,-21.4420951475385,-8.810159962488537,0.09318336321528681,-0.15546599040192202,-0.29758243431763093,0.018277251726328103,-0.0010601093871542844,-0.00497002074948405,48.05656425951795,-38.17907676995877,-48.34627741120973,0.0134368641205949
20154,1724559714580979332,0.6486586928367615,-0.974459946155548,0.1296410858631134,0.0339825078845024,-0.0829241871833801,-0.1440014392137527,0.985511302947998,0.0,0.0,0.0,0.2621024353318485,-0.005618325558947292,0.12793757192412605,0.708201481,-0.09809170615194042,0.11302816302207937,0.015024428198733607,-2.581415346507854,1.675603029631847,2.8320940508447174,0.0920848328557725,-0.1542695725474826,-0.29730555887099475,0.023883249049760025,-0.002573562883718239,-0.008951503000515615,112.69089844700565,-42.60112902918219,-43.744146813604,0.020361524057266267
20156,1724559714591281246,0.6489208936691284,-0.9744855165481568,0.1295521855354309,0.0338730663061142,-0.0819747969508171,-0.1437923461198806,0.9856249690055848,0.0,0.0,0.0,0.6267722721344311,0.05938836550769788,0.4709826089536988,0.718503395,-0.044864139852407475,0.1817926714294778,0.038681040461014796,3.828433629554718,0.9864878013574074,-1.9280059453608498,0.0915347621847183,-0.15244116490522733,-0.29673026523872886,0.024032367396532806,-0.0013004407510450733,-0.0027248002450130926,35.91907684651969,-2.2156780368302593,-6.713732625070327,0.023464045051015257
20158,1724559714602709646,0.6491775512695312,-0.9744853973388672,0.1295959055423736,0.0338879041373729,-0.0812715888023376,-0.143985241651535,0.9856545329093932,0.0,0.0,0.0,1.0438727913180115,-0.07402436837661203,-0.11303057643544229,0.729931795,-0.01807871698926644,0.12094827062326528,-0.03690940704984532,18.468106604145902,30.111205652872375,-4.514009964617719,0.09137307849923229,-0.15102617286808204,-0.2970274970803213,0.038958118013411536,-0.0014355666909011688,0.0009660251148826404,-56.69769376649076,-1.8318746150016572,-2.3122854039624237,0.021802570266955257
20160,1724559714609882999,0.6495313048362732,-0.9745022058486938,0.1295899599790573,0.0348227731883525,-0.0796055123209953,-0.144081637263298,0.985743761062622,0.0,0.0,0.0,0.21754674405859542,-0.04285129479437608,0.09006057155789016,0.737105148,0.1870002810050508,0.49649536297871505,-0.05983348865238318,8.65154332783661,18.64351776757217,1.1198954572014563,0.09272952449739294,-0.14744024089653116,-0.29712859231012967,0.045265841482933666,-0.0022466315250753155,-0.0018078186836936183,-88.01536322182683,7.92880378369491,42.68185564330899,0.04719924581949811
20162,1724559714620599683,0.6499515771865845,-0.974524736404419,0.1295549124479293,0.0347260162234306,-0.0787518545985221,-0.1439569145441055,0.9858340620994568,0.0,0.0,0.0,-0.29055141638516435,0.09948601940402718,0.7775356299121086,0.747821832,-0.039487941119192946,0.15659293926191173,0.021262364748945398,-6.11378948427064,-13.748260457103225,-5.671681767496475,0.09224996904722743,-0.1457903304330157,-0.29674263015798796,0.037001939728234845,-0.0015816933569325897,0.006790192416614715,14.223726625814116,28.657186794180852,-15.996645807458968,0.03723791719884073
20164,1724559714630915520,0.650311291217804,-0.974535882472992,0.1297248601913452,0.0351748950779438,-0.0777737721800804,-0.1447611004114151,0.9857779741287231,0.0,0.0,0.0,0.46821879551837364,0.5477857943150217,-0.1833378100726477,0.758137669,0.04659533117781558,0.1931986663514475,-0.16870817553171513,12.487540260739085,14.313103077743909,-5.852774071853807,0.09295631793638594,-0.1436449122470755,-0.2983075686435024,0.03877674522299657,-0.00018364303043938435,0.014565199068118595,21.908429796808587,30.348533737705683,-89.68432236592761,0.035659403688619404
20166,1724559714639940698,0.6506921052932739,-0.9745304584503174,0.1298412382602691,0.0363380052149295,-0.0760674476623535,-0.1451729387044906,0.9858084321022034,0.0,0.0,0.0,0.2581535673875781,0.7181788743464177,-0.9654256002879608,0.767162847,0.1920089257140577,0.4073742794575828,-0.12233581147176117,-5.411967494110029,9.35512859130991,0.47249465068223984,0.09479694517449508,-0.13988099461513498,-0.29906985249859597,0.045341077912805616,0.008015434726544868,0.00551172353462448,219.5982746015599,8.647823013846342,-122.03731039394415,0.041550339483343454
20168,1724559714650498201,0.6512096524238586,-0.9743542671203612,0.129808247089386,0.0359785631299018,-0.0742233842611312,-0.1460726708173751,0.98582923412323,0.0,0.0,0.0,5.576051594798582,0.6831141159793956,-2.6907910561982664,0.77772035,-0.1309486477514747,0.32860040350718567,-0.1749677658611188,-24.01711157433993,-7.23293193662597,-3.190978645134351,0.09362463274078464,-0.13625339375616052,-0.3005970395873155,0.042272141738159075,0.013247551773252653,-0.004215044452247185,-1197.728010101853,2112.2918706405458,7919.95607766437,0.0410695880729768
20170,1724559714692022325,0.651862621307373,-0.9743661880493164,0.1294551789760589,0.0350800603628158,-0.0727044343948364,-0.1464030444622039,0.9859258532524108,0.0,0.0,0.0,-322.03731241439164,433.9164259980846,1646.3574665436943,0.819244474,-0.05469808470709894,0.06557458089428499,-0.014427194202537547,16980.270980151872,15942.676670085739,3100.2451781726627,0.09140016081605899,-0.13348678200324396,-0.3009452043637219,1.2319694844763944,0.0722409056129436,-0.4049391408954648,1018244.0032629269,-620177.5664482939,-3541782.11916643,0.013837416952592477
20172,1724559714692440538,0.6523829698562622,-0.9743356704711914,0.1292841583490371,0.0367359817028045,-0.0715297386050224,-0.1459776014089584,0.986014485359192,0.0,0.0,0.0,108.12770398484099,171.8939344518176,150.0526677325454,0.819662687,7.118186173069645,6.800187414691628,1.295177777402534,6409.378004047077,9009.936249619566,-6912.799388380032,0.09427038154143065,-0.1307052968592466,-0.30013514513825296,1.095812174676439,0.25553209394456644,0.29056415918705625,1239302.0793208918,-1152349.714487603,-5433055.59072913,1.1037721767563886
20174,1724559714692708177,0.6526508331298828,-0.974236011505127,0.1294817328453064,0.0378367453813552,-0.0705999583005905,-0.1461714208126068,0.9860112071037292,0.0,0.0,0.0,475.90551268339004,-226.58127910160522,-1621.7999902546455,0.819930326,6.993737175695625,7.996660061215975,-2.2753113100415505,-5953.144094736068,-3784.4172953003945,16529.562200813947,0.09619467674535973,-0.12851688326667438,-0.30054127259933683,1.199034065296246,0.2559128879106538,0.07158352326877093,803947.194632845,-1139959.2331411536,-4637448.367534932,0.9333804149808669
20176,1724559714692972827,0.6530200242996216,-0.9741987586021424,0.1293262243270874,0.0383571274578571,-0.0700957179069519,-0.1448160409927368,0.9862270355224608,0.0,0.0,0.0,539.4496278091556,-436.9678681291047,-2330.19743195272,0.820194976,3.9820180500754647,4.83485588658061,9.916114646555124,-11004.285435408963,-11555.986428383767,44426.06491727421,0.09689643894793709,-0.12749626377617831,-0.29778327737567456,1.3485950629893395,0.13628076873718964,-0.567925004843608,228757.52722227067,-765442.5207150393,-2572938.3985946337,1.2071174548301442
20178,1724559714700353969,0.6534177660942078,-0.974115550518036,0.129184752702713,0.0387204401195049,-0.0699706003069877,-0.144104927778244,0.9863258004188538,0.0,0.0,0.0,-108.32109445152686,-9.963376539077693,45.937059628604615,0.827576118,0.10465789368177578,0.05695788470908197,0.18570459832986413,-327.712777865783,-395.2529958866411,-809.9206317438844,0.09748900793070438,-0.12721082695222738,-0.29636671914653395,0.04425924239268397,0.013523645850725075,-0.015218050092778768,-49893.605051014594,35657.70998638316,194881.3316562316,0.04542324850638475
20180,1724559714711906882,0.6537550091743469,-0.973918616771698,0.1290803402662277,0.0381347052752971,-0.0696088224649429,-0.1440171599388122,0.9863871335983276,0.0,0.0,0.0,-0.012788939219110507,0.680767897279334,0.20898560550304718,0.839129031,-0.10838704284132787,0.048492267009111564,0.021186365599319183,-7.152569672172012,7.358356069418299,-11.773078382185112,0.09619883374478928,-0.12667691638085693,-0.2960665727288717,0.029515044202881313,0.018988502415972164,-0.007890337936535374,4793.272235288333,455.57657293056343,-2034.6508251791256,0.02162200315329036
20182,1724559714723924868,0.65411376953125,-0.9736661314964294,0.1289998590946197,0.0380626395344734,-0.068131037056446,-0.1445149034261703,0.986420214176178,0.0,0.0,0.0,0.3132075698641943,0.333026215820154,-0.1963500547468967,0.851147017,-0.05322356560969954,0.23807836166823754,-0.08945627005150529,-7.5655386333447066,15.092787635530215,-10.014982460891035,0.09565937248895619,-0.12372585313405209,-0.2968688923930168,0.04515663628315281,0.02976707449751359,-0.01069561399890695,-50.93993777180549,-69.94258750239983,-15.098916646925762,0.02140276542158189
20184,1724559714730455651,0.654462993144989,-0.973440647125244,0.1289158165454864,0.03778588026762,-0.0669660344719886,-0.1450137346982956,0.986437439918518,0.0,0.0,0.0,-0.2965205408441084,-0.2692867945503802,-0.22884633873967342,0.8576778,-0.145772021632427,0.3342242524196303,-0.1577314852936149,-8.99694513906991,5.282970914375291,-5.9944318244157,0.094808139474754,-0.12145504770300113,-0.29769297097417824,0.04369468102658658,0.029940947677637553,-0.011846363385967784,-41.29983854692523,-54.80463900019878,6.503121432866551,0.03913323693037041
20186,1724559714744759174,0.6547816395759583,-0.9731560349464417,0.1287783980369568,0.0371611304581165,-0.0660164952278137,-0.1457685530185699,0.9864138960838318,0.0,0.0,0.0,0.7437105315929369,0.11914217038939201,0.2237750022712499,0.871981323,-0.1123681766867798,0.1140929610249182,-0.10375589143487851,10.49373025002609,13.42216553139532,-14.401179872006708,0.0933613130345557,-0.11969090369691286,-0.29902683641597655,0.03717702164517789,0.016819169613341955,-0.016768809668141316,14.819212068577862,17.439789688706572,30.188139981720518,0.0141695750488868
20188,1724559714751935395,0.6551020741462708,-0.9730464220046996,0.1286322772502899,0.0373627431690692,-0.0648641809821128,-0.1466929465532302,0.9863457679748536,0.0,0.0,0.0,0.6415716582688771,0.20931125807155682,0.43516994811431087,0.879157544,-0.007689591591884462,0.31414820977310415,-0.27253804711095647,9.213181809192786,22.638456536292274,-10.739918852520187,0.0935129003974021,-0.11726388002640002,-0.30077606997782164,0.04683227416668245,0.021406039057126236,-0.013118231778538991,-60.14908118095139,-39.55604950177568,-5.64453928083056,0.035478411749498964
20190,1724559714760216387,0.6555107235908508,-0.9728105664253236,0.1285928636789322,0.037771675735712,-0.0629933625459671,-0.1475956439971923,0.9863168001174928,0.0,0.0,0.0,-0.2952895565179865,-0.6163123731404156,0.052996164094927356,0.887438536,0.017254605696609335,0.4515534228709354,-0.23935421474219504,2.9296353073652406,-2.7195214317317475,13.405709109762903,0.09384384308430732,-0.11335555806459359,-0.3024105545452581,0.04541896629870834,0.019031623075598247,-0.010217280050720312,-61.95167891788641,-38.88949319780551,-11.276319224920957,0.037839841847858116
20192,1724559714770537851,0.6559289693832397,-0.9727357029914856,0.1284171938896179,0.0381348431110382,-0.0621416307985782,-0.1474449634552002,0.9863793849945068,0.0,0.0,0.0,-0.27627633052238076,-0.23538535211197154,0.385257403516606,0.89776,0.046430259525177146,0.1750358559023379,0.019921115014303867,-0.8619663900677046,-10.855356858330989,8.973405586964349,0.0942807858659263,-0.11157622879749395,-0.30203377998636394,0.04076793639740117,0.00843040422368091,-0.013495198562831767,45.38720662101105,52.79719637129448,23.771769733991704,0.03440788472189862
20194,1724559714780372062,0.6563321948051453,-0.9726417660713196,0.128317505121231,0.0383221991360187,-0.0610806047916412,-0.1476121991872787,0.9864133596420288,0.0,0.0,0.0,0.5780868963728218,0.4327305057947603,0.5401434351524641,0.907594211,0.0033908690601164157,0.2175939918392039,-0.04312560654594514,-5.4786811090592895,7.264228981869444,-10.815512244018633,0.0943386141265213,-0.10940592897114608,-0.3022558303101281,0.03968454429166357,0.013533948873771351,-0.003120912134074949,55.48778163962153,21.69666572424032,-18.7188300078769,0.03497630775115645
20196,1724559714792632470,0.6567986011505127,-0.9724149703979492,0.1283864825963974,0.0382436364889144,-0.0588245764374733,-0.1490290015935897,0.9863405227661132,0.0,0.0,0.0,0.7786056184534349,-0.00806506205674773,-0.2162147063341167,0.919854619,-0.08062707701808083,0.3515438962204698,-0.24305255532112394,-3.351857592098531,2.679472403847466,5.252087118906267,0.09362562683460057,-0.10483523015667623,-0.3048329223323749,0.05729218367128652,0.017521395983749244,-0.004366951241507877,119.46013192528852,12.812560803078586,-48.67278504359264,0.031155876524365814
20198,1724559714800584296,0.6573534607887268,-0.9722806811332704,0.1283002197742462,0.0381104908883571,-0.0574625506997108,-0.1493528336286544,0.986376941204071,0.0,0.0,0.0,2.2602838630627913,0.3453193240838638,-0.5361118399104616,0.927806445,-0.089224863044923,0.3303232255944328,-0.0901020316470435,0.3024513390810257,-4.0911306282871625,12.955458291288611,0.09296479524410518,-0.10215322396781101,-0.305304077525388,0.06009237754550867,0.015738338249200012,-0.006677203582329927,110.5101015958386,8.997581100852177,-41.866450570680335,0.06004788459599519
20200,1724559714816301866,0.6579970717430115,-0.9720690250396729,0.1283248513936996,0.0380860455334186,-0.0556697808206081,-0.149937018752098,0.9863920211791992,0.0,0.0,0.0,1.641655601463043,-0.6143823753641646,-1.245009714675179,0.943524015,-0.041483647720046514,0.22182803558237385,-0.08155117436572339,-22.913004660066214,114.87699980392306,20.921736763412678,0.09240878608069546,-0.09856294565708719,-0.30626245720979267,0.15489933554405866,0.038860373326201625,-0.022733118591311552,-651.7225919000233,-163.7762627086779,98.80985653709547,0.0349674511859666
20202,1724559714820312711,0.6587349772453308,-0.9718871712684632,0.1282088011503219,0.0380097329616546,-0.0540265925228595,-0.1498470902442932,0.9865000247955322,0.0,0.0,0.0,-1.5990546525761204,-1.3763941680396619,-0.701405154029441,0.94753486,-0.15994434930637033,0.8072230692448974,0.023219178322035284,-17.437872972858194,85.72802847443069,23.38087221350501,0.0917293084607993,-0.09534757832654503,-0.30587023348982423,0.15699035239821768,0.03426170232108561,-0.027955393816483376,-641.9375842534731,-104.63105185336703,155.33653068910274,0.15829574916525735
20204,1724559714830214676,0.659629762172699,-0.971818745136261,0.1279559135437011,0.0379157215356826,-0.0531366020441055,-0.1489053219556808,0.9866945743560792,0.0,0.0,0.0,-3.8962648799979736,-0.3258194338614544,1.3208313416718542,0.957436825,-0.03688540666488668,0.18384138940544942,0.1877320192894444,7.646275979076492,-25.429627705968915,2.2323943091553877,0.09117280530501905,-0.09370455773827593,-0.30384379887959223,0.0893214926195185,0.0150141602210212,-0.02021762741270905,66.22907448864834,125.67477723271051,110.83374434787703,0.08139875699215104
20206,1724559714839914107,0.6604862213134766,-0.9715961217880248,0.1278103739023208,0.038070049136877,-0.0517385229468345,-0.1485051661729812,0.9868232607841492,0.0,0.0,0.0,-0.420438095097615,1.0791579208780804,1.5085341958044405,0.967136256,-0.008149659813634682,0.29372185145396934,0.07274323857222015,-0.012765456367448413,9.445740893267175,-21.78117230177108,0.09100471957926234,-0.09093161834627923,-0.3028779128193797,0.07944035631168589,0.027226492939320224,-0.002281512338232261,284.66697708322016,51.08278341576569,-100.69248812552726,0.07575232465257375
20208,1724559714851812999,0.6613021492958069,-0.9712097644805908,0.1279689520597458,0.0382026620209217,-0.0493945702910423,-0.1503798514604568,0.9866543412208556,0.0,0.0,0.0,1.891170856067336,0.318234128336659,-1.4418962627108818,0.979035148,-0.05173360203360494,0.37863217711064945,-0.33131892678280017,-0.5240829565493035,4.057791184088611,-16.8044186150631,0.0907012780922323,-0.08608720589397688,-0.3064090543030824,0.08317099231789626,0.03744097510525535,0.010695747442888148,98.5696443015561,-73.65832414613573,-203.2949740169813,0.05652376944571186
20210,1724559714861268278,0.6621982455253601,-0.9708184003829956,0.1280503123998642,0.0384125113487243,-0.0474683828651905,-0.1520013809204101,0.9864922165870668,0.0,0.0,0.0,2.104122841298527,-0.45117588696707656,-3.0285282512921725,0.988490427,-0.033105778688209055,0.393871715034656,-0.3613262525662385,-11.937197941622454,2.011068866203182,10.846295928624546,0.09064657051255609,-0.08206896662910429,-0.30948508233405175,0.11290615668253423,0.03639113354609691,-0.021965896774951865,-102.3204676613376,-44.12099809915631,35.35048678493319,0.07810707587408726
20212,1724559714870499418,0.6634039282798767,-0.9705275297164916,0.1275720298290252,0.0375106632709503,-0.0453615710139274,-0.1526000499725341,0.9865335822105408,0.0,0.0,0.0,0.03446854612603811,-0.5227309146541201,-0.8713124533547948,0.997721567,-0.2686366427670775,0.41603496802692747,-0.13485081856530357,-7.7472712485402475,-1.0691629691409616,17.981918498309287,0.0882387246678992,-0.0781326400308132,-0.3103847501832364,0.122950506160592,0.029160785047920967,-0.046085215123929935,-190.2925573608345,4.629035000319952,220.30327197584697,0.11035131179705522
20214,1724559714880364764,0.6645361185073853,-0.9702646136283876,0.1271777600049972,0.0370266027748584,-0.0434426702558994,-0.152695894241333,0.9866234064102172,0.0,0.0,0.0,-1.4853056527669501,-0.34653454560647035,1.1609282506442036,1.007586913,-0.15774070137967958,0.3689017633136368,-0.026530829854207894,13.104207407575238,-7.761503488119315,9.257141315072241,0.08667818674572342,-0.07448434324151637,-0.3103274364654489,0.11218204507640905,0.026750615024923263,-0.03632007159638384,76.530441482468,55.08761162304644,120.4254127998139,0.09788976342865068
20216,1724559714889937812,0.6655860543251038,-0.970007598400116,0.1268639266490936,0.0371412821114063,-0.0421794988214969,-0.1524339467287063,0.9867144227027892,0.0,0.0,0.0,1.3892969119870275,0.5266431540870165,1.5188484160839153,1.017159961,-0.014985007655275431,0.2668823105492563,0.04608530905773696,7.488541762086134,-6.391551679200935,-0.2642798274136986,0.08648628454386321,-0.07197718801474627,-0.30966521514028866,0.09430533090631599,0.022483586674514555,-0.02361716847277151,202.63004962537204,46.33705560075226,-37.40187742981972,0.09367108096157979
20218,1724559714905168841,0.6666499376296997,-0.9697709083557128,0.1267263293266296,0.0368982069194316,-0.0399930067360401,-0.1534956246614456,0.986650049686432,0.0,0.0,0.0,2.1091844694960535,0.1449448414266694,-0.8632159465759557,1.03239099,-0.08082599836844165,0.27289594994564004,-0.14816357989367063,-29.79013261105586,115.85572729459778,-142.62672869445743,0.08538749399541852,-0.06764234851150648,-0.311561464837105,0.19438549436812025,0.05406856581220154,0.004166875547419124,-360.5772232891944,-122.77175125293292,-199.56754183105315,0.06097141213928385
20220,1724559714909779797,0.6677200794219971,-0.96946781873703,0.1267639696598053,0.0367545038461685,-0.0376165024936199,-0.1556811928749084,0.98640638589859,0.0,0.0,0.0,-0.12272546451150967,-0.5575448341653348,-1.8436767357252979,1.037001946,-0.2537366806347839,0.9682728875236325,-0.9870985275214407,-23.433481888818797,99.31842810865678,-117.24102482903602,0.08448899502865168,-0.06280763231192106,-0.3157266010041676,0.1978828941009887,0.052044524531744685,-0.003564688756936718,-366.6022425444121,-92.72160244830802,-126.49563474634282,0.20032214671283535
20222,1724559714923437975,0.6690390110015869,-0.9693107604980468,0.1262408047914505,0.0369720794260501,-0.0359913557767868,-0.1554242521524429,0.9864994287490844,0.0,0.0,0.0,-0.37845515455971146,0.5885303837423876,-0.08634009788760899,1.050660124,-0.004706538535597723,0.24159462568322765,0.029288986831657114,-17.68554899370505,21.264696334085244,-7.352754052744146,0.08438325152778742,-0.05955338405534354,-0.3150484511731407,0.16055496792751,0.039632022241150366,-0.03549806047623072,-128.72959114130208,-22.50893676204391,135.23247358215238,0.08581484758063809
20224,1724559714930355317,0.670373797416687,-0.9689380526542664,0.126005083322525,0.0364966690540313,-0.0335995405912399,-0.1564231514930725,0.9864436388015748,0.0,0.0,0.0,-1.6543133504095087,0.05999920963458627,0.8721156085743613,1.057577466,-0.2528795650415218,0.6495832275081701,-0.30803868218497654,-15.112972640803008,31.946016268978262,-28.871858883250958,0.08273415627192394,-0.05489782894581775,-0.3167996854305543,0.16618593291429207,0.048948774368831494,-0.028206770298211836,-137.08028678011596,-98.16453823560096,44.80921332821386,0.16445409551385323
20226,1724559714940247006,0.6716389060020447,-0.9685236215591432,0.1258091032505035,0.0364693626761436,-0.0306137017905712,-0.1578584015369415,0.9863131046295166,0.0,0.0,0.0,-2.340319431301322,-1.2187777852447794,-0.010723613561667067,1.067469155,-0.10866702288085132,0.5831810134038813,-0.3122353586408934,3.2093213045507927,-12.598984772606913,4.624924591898533,0.08179450069550069,-0.04889487983202333,-0.31940721755789186,0.11490728300428188,0.03133955171204761,-0.022153662870059154,106.35052163391823,-40.30678629094516,-69.66328248338522,0.10717381678040903
20228,1724559714953961105,0.672967791557312,-0.9682945609092712,0.1254607737064361,0.0349250212311744,-0.0282526705414056,-0.1588754653930664,0.9862762093544006,0.0,0.0,0.0,2.458913235544637,-0.07988842350965308,-0.5936674726034017,1.081183254,-0.28083556442049773,0.2984822580000397,-0.15280550842625998,1.4464982908426656,9.789531994113233,13.530362607566673,0.07802556851494674,-0.04464724725948137,-0.32117132939536297,0.13688074267999184,0.025299836727626257,-0.03413977325566009,-40.52964845453438,18.92162845986477,60.018874710759036,0.0854517668595897
20230,1724559714962178226,0.6742894053459167,-0.9680443406105042,0.1251372098922729,0.0344636850059032,-0.0259724613279104,-0.1589529663324356,0.9863426685333252,0.0,0.0,0.0,0.20336373070374592,-0.2401179036162615,0.4042983838933336,1.089400375,-0.20001772889252326,0.5293318717010602,-0.03224510738801018,3.6536420922834623,21.654235059685462,3.095542208633896,0.0763789708079868,-0.04029018332104832,-0.3210999970730193,0.16130367766401577,0.026418364294521268,-0.037637803777093026,-103.42899072618043,-17.138850836588812,18.7934067020788,0.14130324206060238
20232,1724559714970985701,0.6757144927978516,-0.9678497314453124,0.1248221322894096,0.0339555591344833,-0.0229330975562334,-0.1593743115663528,0.9863675236701964,0.0,0.0,0.0,0.9073096299672567,-0.3687831141920733,-0.3992782953745937,1.09820785,-0.2261947011237724,0.6592605708963533,-0.11426439036424364,0.22864700952911354,4.849357220110104,-7.799204679593766,0.07440789937389898,-0.034424436234630415,-0.32166648395217695,0.13695630335078945,0.020751739768673616,-0.026241567324415627,62.49202165493345,-30.592312261071402,-76.53443981795854,0.1452017138126266
20234,1724559714986708407,0.6771703958511353,-0.9675611853599548,0.1246770918369293,0.033534150570631,-0.0191666670143604,-0.1607823520898819,0.98623389005661,0.0,0.0,0.0,1.400526868886672,-1.29839825204898,-1.1899142742621898,1.113930556,-0.1327620223738396,0.45756088436091996,-0.19441567639473958,-31.623794340283187,106.06915073504317,12.933394456805459,0.07239799814922679,-0.02702552362183931,-0.32418864815770965,0.2542772117802343,0.02266093647418188,-0.0800433020739888,-695.7476508212151,-3.860446864844647,401.04799943601915,0.08165014308989464
20236,1724559714991532365,0.6786363124847412,-0.9674454927444458,0.1241861507296562,0.0331720374524593,-0.0163016617298126,-0.1609553843736648,0.9862694144248962,0.0,0.0,0.0,-3.031908989010068,-1.235224996774411,1.4127268524610175,1.118754514,-0.34091434844812996,1.1452099297008576,-0.10533824212032873,-21.510631090009994,76.75245532566267,15.557425624478528,0.07075614402125953,-0.021478876139874745,-0.32430043189458146,0.2520621230522231,0.014296085881586151,-0.08247990306884212,-639.0718366161375,51.33891351068636,388.5390776848762,0.27814982219236695
20238,1724559715001940033,0.6800960898399353,-0.9675142168998718,0.1237609088420867,0.0331585742533206,-0.0138392457738518,-0.1609258204698562,0.9863123297691344,0.0,0.0,0.0,-3.401148149062296,0.15782482423726985,2.0662219565528677,1.129162182,-0.0788955022119052,0.46660190446368416,-0.008724039231787937,9.57837534841919,-14.90696338367885,-22.09365352501774,0.0699302469146153,-0.01662826222093342,-0.3240496452619119,0.16273779433988977,0.012640516328744411,-0.024712780404795964,215.72067743485772,29.23473248584748,-237.8292167664356,0.13436426973419408
20240,1724559715010708984,0.6816892027854919,-0.9672611951828004,0.123663492500782,0.0332075916230678,-0.0106388293206691,-0.1627065986394882,0.986058235168457,0.0,0.0,0.0,0.3464128010902954,-0.3587297351444696,-2.2403404397811766,1.137931133,-0.11013915335903904,0.7074811629849307,-0.4342807839647519,-3.5433731098022374,10.55740937248283,-13.377358662954558,0.06900958452293726,-0.01017499753404617,-0.3274183349499018,0.17119480764799633,0.016365789620579108,-0.03233646150549596,199.14373606067082,-13.83365139743633,-219.80276608135964,0.16262415929133575
20242,1724559715020798363,0.6832947731018066,-0.9672410488128662,0.1230908185243606,0.0329984724521636,-0.0074196904897689,-0.163411796092987,0.985978066921234,0.0,0.0,0.0,-0.2937124698063176,0.024940051528844598,-1.308449917382298,1.148020512,-0.14566190669534418,0.6176718071554236,-0.16117636650867084,-10.118138857419998,-10.822969376891933,25.483691019256906,0.06754832566812731,-0.0038466343552217065,-0.3286155355271591,0.16751559495509838,0.00365042203608823,-0.07085491457763737,-95.35251283732558,46.30090431494206,206.1838316996027,0.14975553949061898
20244,1724559715030210212,0.6849449872970581,-0.9671921730041504,0.1223001927137374,0.0319932848215103,-0.0048848944716155,-0.163043662905693,0.9860879778862,0.0,0.0,0.0,-1.4712940265462713,0.5333596921889181,1.6314427160996952,1.157432361,-0.2988156708976878,0.49893641516436743,0.06475789849577779,-10.374006094831135,4.8661972888925895,-5.41871705596515,0.06473451266515762,0.0007987333528913328,-0.3276970250041264,0.1653741410576295,0.015169085685670325,-0.0611388901095129,511.31680647001826,-8.00127983728791,-75.41694785436987,0.1643991022600457
20246,1724559715041063758,0.6866152286529541,-0.9669026732444764,0.1219227910041809,0.0308777689933776,-0.000399781827582,-0.1648557186126709,0.9858341813087464,0.0,0.0,0.0,12.043962274348637,-0.3297346777893765,-4.0405560815582895,1.168285907,-0.3375851276637799,0.7705545242549937,-0.36232777392884835,3.620363311414784,5.153781164259726,-15.811794929097637,0.06105314635380505,0.009392654517513373,-0.3310961442093409,0.13383830078876713,0.012315734187641425,-0.03593326273290609,311.4161234423071,29.632125483302318,-106.5135841930109,0.13718037653581444
20248,1724559715057669928,0.6883283257484436,-0.9670629501342772,0.12129657715559,0.0305831544101238,0.0026117877569049,-0.1649850010871887,0.985818326473236,0.0,0.0,0.0,-6.511001170673296,2.9357061154429402,4.762357025947537,1.184892077,-0.09472114489035012,0.3512358411461188,-0.026849973366061486,-95.28372140443525,1076.9428476341795,231.25879397633244,0.059479025231008856,0.015241610112888234,-0.33118989633287865,0.7136775670213638,0.005141873897855476,-0.26469871430303726,-4697.719225387447,94.56126232449651,1904.1696689016417,0.10125559510601807
20250,1724559715059822850,0.6900352239608765,-0.9670477509498596,0.1206633448600769,0.0307625140994787,0.0058126873336732,-0.1643228083848953,0.9859097599983216,0.0,0.0,0.0,-17.6241670539373,3.1107971131774175,9.24541302462447,1.187044999,-0.3305369946194076,2.9774513514412995,0.5299418234812773,-91.63829110997195,985.9308218687438,202.53158160579346,0.05879535394522143,0.021573209102815377,-0.3296719088143638,0.688096580667727,0.012402205902413144,-0.24927136995142862,-4362.350146302758,12.731534513007997,1718.652626806319,0.7540189753479659
20252,1724559715070698331,0.6917648911476135,-0.9666193723678588,0.1204166486859321,0.0296657085418701,0.0107335736975073,-0.1660377532243728,0.9856145977973938,0.0,0.0,0.0,-21.141633229990305,-0.5192105433752907,7.9580438152828314,1.19792048,-0.34406143537022726,0.8496689746873233,-0.34886493035236876,1.8708604301097047,-96.86198869655499,-29.252822583261775,0.05496765130315223,0.031014560961160818,-0.3329355694335421,0.1809643203573401,0.031866468144514215,-0.03447274280336199,1000.6923633905025,-250.79998332572785,-578.9067621986363,0.13807342984440485
20254,1724559715080117053,0.6936481595039368,-0.9663805961608888,0.1199957951903343,0.0288389977067708,0.0144468806684017,-0.1668637096881866,0.9854522347450256,0.0,0.0,0.0,-0.9153920465155263,-2.2045578367866665,-1.2511309470426943,1.207339202,-0.3010356042244506,0.7431718441323156,-0.2038630269163804,37.15655808718891,-16.856350822461884,28.384094472112217,0.05207891898928236,0.03810700810295657,-0.33447942428656474,0.1897546020659462,0.008141856895555577,-0.055712147464062944,1089.1318786879267,-17.715594967811736,-404.9736115076305,0.1821175225463355
20256,1724559715090517122,0.6955045461654663,-0.966493546962738,0.1192897260189056,0.0316496193408966,0.0165952872484922,-0.1655890643596649,0.985547125339508,0.0,0.0,0.0,-1.7417227460669498,-0.5374017440159216,1.1147104906329406,1.217739271,0.4596298505148842,0.5041373164932604,0.24049507883546645,1.5348037938564953,-38.88732890936874,22.1081344115849,0.05697234185189067,0.04320597824441979,-0.3316939243413747,0.1590049619260654,-0.011176150166662069,-0.057195673666130986,56.42522986107767,154.35694822068916,136.85072576763872,0.1750762756139902
20258,1724559715101042731,0.696970522403717,-0.966614544391632,0.1188016384840011,0.0301180724054574,0.016416260972619,-0.1642609536647796,0.9858204126358032,0.0,0.0,0.0,0.2996667012597847,1.0239641632098915,1.589669916915011,1.22826488,-0.2870060446677906,-0.07458900266142184,0.25355658134878356,-21.990242434961583,-0.2580211965284107,-20.21602242462666,0.054063530159079595,0.042274007052947406,-0.3290704193851833,0.1536147644619419,-0.0027701911473059226,-0.032068472254452196,67.22035046577274,93.20966345989237,-13.404020356378368,0.13735750802946897
20260,1724559715110846143,0.6986073851585388,-0.966562032699585,0.1186178550124168,0.0301778558641672,0.0185236949473619,-0.1648728400468826,0.985679030418396,0.0,0.0,0.0,-0.19843798090553655,1.4343571637328267,0.9238574452657652,1.238068292,-0.05568067814508408,0.4225597470641001,-0.14054781982733744,15.21384083989743,20.374453718083323,-9.39079482693954,0.05346644882553004,0.04648459193304199,-0.33022476388798133,0.1639646021863328,0.009325719006362476,-0.02376675038666054,-58.72188134379583,-39.16892015182802,-74.73015327090108,0.1569127968144448
20262,1724559715120487793,0.7001597881317139,-0.9664344787597656,0.1183411031961441,0.0305013470351696,0.020080029964447,-0.1645352840423584,0.9856950640678406,0.0,0.0,0.0,-0.8396451381804768,0.2883213287581531,0.13872367827630105,1.247709942,0.011517622779078921,0.33132739992829024,0.061066474414532085,-8.609841887975488,-1.7975679163114222,-9.732830830369993,0.05361400795614083,0.04964305625970814,-0.32946503399972543,0.1501585341478524,0.02505663816566539,-0.014128724902690237,13.24418523522085,-150.2553873687254,-82.58241710548015,0.1493119755222583
20264,1724559715131098968,0.7016264200210571,-0.966030478477478,0.1183613911271095,0.0294402372092008,0.0224742852151393,-0.1665337234735489,0.9853399395942688,0.0,0.0,0.0,0.23220443250046863,-1.6726707183840852,-0.7510137407324811,1.258321117,-0.2617824486288032,0.40176349773911385,-0.40007209695169343,-11.834544071902423,-17.655912745564134,11.398247748362792,0.05062755327757255,0.054121624175758304,-0.333487800398359,0.14816560773977017,0.012429481540223719,-0.022710463379513435,17.6893573744506,-26.5049320817382,14.33226397653422,0.11786170074156072
20266,1724559715140100227,0.7030360698699951,-0.9661144018173218,0.1179689615964889,0.0283335410058498,0.0229088440537452,-0.1659611761569976,0.9854589700698853,0.0,0.0,0.0,-0.24478262691797337,-0.7025372644340394,0.12766803847711017,1.267322376,-0.2620105806863354,0.057340144137275506,0.12138537624707914,13.27017072700587,-7.574694306671271,17.82346436329766,0.048329888359062406,0.05458308662933138,-0.33236933734192114,0.15346283117589365,-0.006312242162444193,-0.02902971720157943,-55.072127344570575,91.79858721020037,23.959867635682766,0.15323071505240898
20268,1724559715150060365,0.7045299410820007,-0.96614408493042,0.1178403720259666,0.0286636799573898,0.0244862735271453,-0.1666200757026672,0.9853002429008484,0.0,0.0,0.0,-0.8162434150862481,0.035682797831546376,-0.44548288590710783,1.277282514,0.016694200451006874,0.3201260005783406,-0.1431289558895776,4.476496087405106,8.093944454259344,-10.81371159854134,0.04842471394810584,0.05783679108523946,-0.3336410400165749,0.1418410395981553,0.001895024226030273,-0.018613765614425404,-0.6730689335177384,12.932727624130823,-76.23466040779623,0.1431979128801465
20270,1724559715160515236,0.7059234976768494,-0.9660707712173462,0.1175831779837608,0.0278291031718254,0.0257189981639385,-0.166994035243988,0.9852294325828552,0.0,0.0,0.0,-0.20102552412180863,-0.5005592746394779,-1.4476158348059462,1.287737385,-0.1944584150162211,0.20403149136460108,-0.08341201863865876,0.23848736539599208,-15.789651268032687,13.592729807372718,0.04634624735508543,0.06000882581166862,-0.334412409364982,0.13715472372451387,-0.0063831741953706,-0.03963643814457818,41.81596769686675,4.643851167308601,38.59582497996281,0.12485989829387947
20272,1724559715170371880,0.7073112726211548,-0.96625816822052,0.1170527711510658,0.0278380494564771,0.025727430358529,-0.1663919389247894,0.9853308200836182,0.0,0.0,0.0,0.05289389336047101,0.06499750967797235,0.18219696477682557,1.297594029,-0.0022118726407405367,0.004859633381633746,0.12380066721802786,13.86396300435976,-3.2675032307033094,7.448932216931839,0.04639780892301828,0.06000010787218936,-0.333189037027733,0.13747058545491697,-0.008610583310883158,-0.04867158421699891,55.64075926346335,20.195978120549636,116.89937256486877,0.14224699651634537
20274,1724559715181272338,0.708769679069519,-0.9662266373634338,0.1165841966867446,0.0284356828778982,0.0265791937708854,-0.1661547124385833,0.9853311777114868,0.0,0.0,0.0,1.0195955666883485,-0.16308211084008534,0.8723700472773579,1.308494487,0.08091896321892166,0.17344314288081997,0.04136894336452044,11.90993379717571,6.155648370790082,-5.987039800569979,0.04731274705878011,0.06186752172615381,-0.33264903662321305,0.13829847577925847,-0.004394395927675987,-0.03343909567227232,31.15298194597827,-15.692237212540949,5.405784676596834,0.12793175148188293
20276,1724559715192153022,0.7103233933448792,-0.9663535952568054,0.1163240522146225,0.0299384295940399,0.0270945988595485,-0.1662058532238006,0.985264003276825,0.0,0.0,0.0,0.7337146096293328,-0.27700404976745685,0.30222928318722975,1.319375171,0.25703083355480383,0.13930454568191028,-0.006666135786998719,-46.935605206407125,-9.539093508866966,-1.616647204495529,0.05010950561460932,0.06338498500447806,-0.3326476792602382,0.15964125583218447,-0.012140971309790416,-0.02964962260611337,-173.29747700612998,-0.46649620890007704,-39.25445116256327,0.14001370677566102
20278,1724559715200096411,0.7116891741752625,-0.9664527773857116,0.116055242717266,0.0280699357390403,0.0275163538753986,-0.1661633998155594,0.9853144884109496,0.0,0.0,0.0,-1.4954474369126283,-0.22269834990351167,0.06664358679814986,1.32731856,-0.48183957543458744,0.026409013538452052,-0.0032817314050523575,-31.752213996278936,-3.100866079464434,-0.18963032720061695,0.04628105213016244,0.06359577555808323,-0.33266364905112644,0.15834930059916985,-0.011819018392401404,-0.02751591991974145,-157.7110458953806,-5.264910458747433,-50.355447527512354,0.16840428019383477
20280,1724559715210020019,0.7130920886993408,-0.966561794281006,0.1158605962991714,0.0279952827841043,0.028201125562191,-0.1662022471427917,0.9852907657623292,0.0,0.0,0.0,-1.5366112002312082,-0.42497336078721404,-0.6896592609349335,1.337242168,-0.037406918864674704,0.13339365969856218,-0.012796624912119048,26.24682098249467,-0.020135787543405392,7.633513567254507,0.04590560857359143,0.06492397582561375,-0.33272968795859686,0.12698568091994034,-0.017292368862641183,-0.02935849459922224,111.12353237345748,40.96800316803396,-0.16589589548850192,0.13818945405758704
20282,1724559715221707119,0.7143781781196594,-0.9668506979942322,0.1153833642601966,0.0280939191579818,0.0280662141740322,-0.1650861203670501,0.985479474067688,0.0,0.0,0.0,1.3486961712346908,0.8982604745432092,0.3551053859664468,1.348929268,0.01417787312655614,-0.015505790121559249,0.19468160436556906,-8.58881536012329,2.963933169563224,7.753143058566,0.04621821346128978,0.06463818955931401,-0.3304604485823249,0.13137839779072635,-0.020516898680497775,-0.044355426670287024,62.09385589558658,113.4205943680672,113.40189610386207,0.11451393636058985
20284,1724559715231027070,0.7157611846923828,-0.9670106768608092,0.1149438023567199,0.0274719092994928,0.0287576466798782,-0.1641632616519928,0.9856311082839966,0.0,0.0,0.0,0.5540329157282615,1.9568127684390362,1.5904331579038167,1.358249219,-0.16250836680539874,0.12883721547258095,0.19262086566969805,-8.271816088344472,24.291007134641486,-24.355982255722047,0.04482428686508178,0.06575599508235844,-0.3286084389889317,0.15117854258623709,-0.0034184596269142276,-0.02886953254775726,-191.09175083649205,3.4039205126535563,8.973585191156111,0.14877513822404878
20286,1724559715240093116,0.7171563506126404,-0.9669204354286194,0.1148434057831764,0.0271178763359785,0.0308006405830383,-0.1651679575443267,0.9854114055633544,0.0,0.0,0.0,-2.111708199189426,1.0160309383618693,0.5819905301931764,1.367315265,-0.14326027072193598,0.42669899485472784,-0.2410384282516746,3.144705980599671,7.728423408444169,-17.206906378581394,0.043388953791318505,0.06971707613061046,-0.3306256955438403,0.14235147611245225,0.015399842571646616,-0.01507808777378905,631.5505999035738,-261.80953533652325,-398.9383358298636,0.14274873448791753
20288,1724559715250183194,0.718463122844696,-0.9667038917541504,0.1146463006734848,0.0267948508262634,0.03199989721179,-0.1654734462499618,0.9853307008743286,0.0,0.0,0.0,14.654814191806924,-3.4003986034836498,-6.6741962069627485,1.377405343,-0.10005750241027178,0.2225174567874766,-0.07072939753918926,4.219800231365612,-17.375564505053394,14.240601054279058,0.042335582638334444,0.07199080296344648,-0.33124400475332666,0.1082639254743718,0.013751937668388337,-0.019753088255353712,-3983.9601971516945,1817.1109471244777,2439.2503407004074,0.11659661779028539
20290,1724559715280504165,0.719809889793396,-0.9669893383979796,0.1140274554491043,0.0270760674029588,0.0312420763075351,-0.1636990457773208,0.9856436848640442,0.0,0.0,0.0,-620.5477498598757,257.1441457169128,355.0642485976007,1.407726314,0.022250182636141626,-0.04370842781833479,0.1206733386189663,-131.16335762904455,2151.0088507681035,6055.829364019462,0.043267088960799456,0.07051017442753683,-0.32763598048958714,2.195708326433987,-0.38429915391566283,-0.788026946335691,-85448.40160219022,5363.110087574169,21358.78812474641,0.04640969656893638
20292,1724559715281022548,0.720967173576355,-0.9671918749809264,0.1136121526360511,0.0271371640264987,0.0314993858337402,-0.1628444343805313,0.985775351524353,0.0,0.0,0.0,-665.4143749049083,259.8956668129041,366.219841603322,1.408244697,-0.04694086261163399,1.090479218907338,3.3135264397618114,-344.5713706220856,1824.6666049557741,3829.212421590845,0.043366112543941016,0.07100054671661095,-0.3258910578093361,1.8679171495836897,-0.24860470225152653,-0.6005963440307589,-62224.323247200286,-4238.439429024103,8085.94038585994,2.291259785798091
20294,1724559715282627439,0.7221535444259644,-0.9668847918510436,0.1136447489261627,0.0260685589164495,0.0335121229290962,-0.1644295006990432,0.985474705696106,0.0,0.0,0.0,-644.405796438646,205.6608422689862,312.4475458122009,1.409849588,-1.64881019478031,2.2139150599555344,-2.118222593976193,-783.044600243064,533.1781323118619,-2741.0811875527734,0.04048294915993103,0.07469301247016022,-0.32914733802287577,0.6356338911239874,0.15921212325878287,0.010261039078168999,24912.357941210048,-32999.148995340394,-35069.12423815674,0.6343970108167317
20296,1724559715290121636,0.7232920527458191,-0.9668160080909728,0.1133699640631675,0.0263138078153133,0.0348921604454517,-0.1649265140295028,0.985337257385254,0.0,0.0,0.0,-43.99763609770257,-13.844349428861406,-5.094520049778668,1.417343785,0.009342363934918317,0.37147888764320025,-0.14415190866803318,151.5168663207575,-169.67694105396973,181.40370013301708,0.040479247280387806,0.07751839319934699,-0.3301169147802486,0.12554237166494886,0.00504609223913377,-0.03396545449749944,54379.03150772775,-19209.681504312448,-28134.580872750008,0.14315737387725982
20298,1724559715305098211,0.7243828177452087,-0.9668641090393066,0.1129421144723892,0.0278914924710989,0.0354448407888412,-0.1640827357769012,0.9854149222373962,0.0,0.0,0.0,0.10634607071768798,0.1602613217715023,-0.34309335107198,1.43232036,0.19122061288101908,0.11007479194388262,0.11814728593005698,23.262530483817585,47.83290303832743,19.504622336053075,0.04348721996838225,0.0790912071590868,-0.32827414274264893,0.1869293890708832,-0.0009577511226837032,-0.08611342182954118,198.78945578573405,250.56383182270258,450.478911165982,0.07201608025189939
20300,1724559715309892383,0.7254540920257568,-0.9668652415275574,0.1124409586191177,0.0288380347192287,0.0363430269062519,-0.1635731905698776,0.9854397177696228,0.0,0.0,0.0,-3.154939096701912,0.3109694165283732,2.021031213817992,1.437114532,0.3198081701347284,0.43958804450815386,0.21471080189523192,-4.648386857580574,35.50431222813608,8.85514566495934,0.045110503456798304,0.08115102358570728,-0.3271488831563565,0.18131202947357394,0.0006717388835397742,-0.0829411355187335,-475.75004007903243,13.976410054939572,356.71314192159224,0.21945506742763476
20302,1724559715320537133,0.7263880968093872,-0.9668366312980652,0.1120684295892715,0.0263908337801694,0.0369174256920814,-0.1632547676563263,0.9855397939682008,0.0,0.0,0.0,-3.385558857502504,0.04709314634567935,2.594053844874942,1.447759282,-0.47346977583760547,0.03218197343973327,0.042209191847855404,-18.939212473278225,-7.158595598025741,-19.413044354479027,0.04010830584212747,0.08147415125878653,-0.32668388920461666,0.1008545897630384,0.003298395387410835,-0.029299758131919873,153.2943410955897,-25.738023565764237,-120.83835650474458,0.08481549051397977
20304,1724559715330448198,0.7275086641311646,-0.9667983055114746,0.1118306070566177,0.0258347708731889,0.0382737554609775,-0.1640730202198028,0.9853668212890624,0.0,0.0,0.0,-0.25173172789832776,-0.2167525309118982,-0.21542727923794303,1.457670347,-0.14825384610680284,0.24835441578585732,-0.17979544315305462,16.596833334574804,7.476122358899131,-7.9244322163265295,0.038499304852941924,0.08400371754568803,-0.32837349507077257,0.10580700068545923,0.00192265950737891,-0.026153911900047788,120.612178595486,-21.36805073287755,-172.62258818316468,0.10741438372506248
20306,1724559715340248900,0.7284753322601318,-0.9667983055114746,0.1115533635020256,0.0252703391015529,0.0392855107784271,-0.1645887643098831,0.9852555990219116,0.0,0.0,0.0,-0.9651498849628326,-0.3752619691463531,-0.8329728869745585,1.467471049,-0.14275737112237705,0.18269606790526108,-0.11717264300785923,7.885963422832902,-1.7753455290323377,13.018296004741782,0.037008247366318525,0.08583633310301914,-0.3294573578683342,0.09605744637636704,-0.0009570714193642971,-0.03342925479507386,-24.679216152743475,-8.061789074028507,-25.456870945062846,0.09540945455340605
20308,1724559715351155200,0.7294917106628418,-0.9668203592300416,0.1111263781785965,0.0256658438593149,0.0404407456517219,-0.1639992445707321,0.9852970242500304,0.0,0.0,0.0,-0.6503755672749549,-0.36474026331209924,-0.6548409844987517,1.478377349,0.032151725720566814,0.22309439845363502,0.10525846167328089,4.735209819669516,-7.298580227474672,14.374571405362877,0.03746690705927177,0.08822505849565393,-0.3282149426558126,0.08589085641105498,-0.006038111332586027,-0.04361402025053174,58.128882310507194,56.23520757966339,60.20232895911773,0.09197296923528034
20310,1724559715362924525,0.7304098606109619,-0.9669424295425416,0.1105563789606094,0.0253877360373735,0.0404497683048248,-0.1628383547067642,0.9854963421821594,0.0,0.0,0.0,0.4054741907842807,0.9990806328164143,0.6108692389299633,1.490146674,-0.05566358857711782,-0.0025464208465762576,0.1979775147770208,-10.633945133883662,-8.616508657416817,-0.4990785847379149,0.03701750735276937,0.08810834620416794,-0.32587851232029597,0.08181542004463438,-0.009046303466178074,-0.047777559444512896,26.139256295764856,72.30578989088896,80.11495031232074,0.08118888409733473
20312,1724559715373032167,0.7312698364257812,-0.9670223593711852,0.1100791320204734,0.0244642067700624,0.0406011454761028,-0.1622002720832824,0.9856186509132384,0.0,0.0,0.0,0.11783285212039063,1.3516790327039807,1.182550165690663,1.500254316,-0.19068743439928168,0.001988154220946414,0.12021497703114759,4.552869694631603,25.28327801082799,-25.945499941692347,0.035197420246644136,0.08808455665171604,-0.3246587306339585,0.09243942787539083,0.01194335162532667,-0.03322956529472787,229.05092597626452,-75.43030302921791,-169.99621783025947,0.08699079500475594
20314,1724559715383391690,0.7323055863380432,-0.9666878581047058,0.1098833978176117,0.0250735338777303,0.0432986393570899,-0.1638902127742767,0.9852088689804076,0.0,0.0,0.0,5.2248367419340145,-0.601028576680176,-2.9840235024099915,1.510613839,0.04665628681201973,0.5275972377978017,-0.34236257296898015,9.922142830585877,18.546502116095972,-17.75003521431167,0.03537532061512992,0.09367194691723323,-0.32802429220101065,0.08375112877494928,0.018248990131294107,-0.02370506575077913,119.08709269607823,-63.86555835786563,-132.9162927550123,0.08564476526969256
20316,1724559715398312642,0.7332064509391785,-0.9667173027992249,0.1094263046979904,0.0245811529457569,0.0442344099283218,-0.1640553623437881,0.9851522445678712,0.0,0.0,0.0,-1.033471539133103,1.1244052161790563,0.8198158929294976,1.525534791,-0.08443042687193787,0.11253222007450911,-0.029055720724668836,42.6126755796862,91.64054914819283,217.22727811856225,0.03407999115123327,0.09536508024367084,-0.3284009686222231,0.29202065695540114,-0.016716585289941577,-0.15211727583262302,-1950.61773687703,258.30254729990213,1059.1801676309526,0.06044021029704867
20318,1724559715400884643,0.7340602278709412,-0.9667668342590332,0.1089811995625495,0.0247616190463304,0.0447130538523197,-0.1632640957832336,0.9852575659751892,0.0,0.0,0.0,-6.729312462847121,1.8520096694738213,3.90059062932601,1.528106792,0.04795670813454459,0.4011934533742098,0.616651207981989,38.1504726381248,88.06637709915677,190.72359130696236,0.03435913506646116,0.09634208469745673,-0.32677309619453593,0.28271602763328474,-0.01228717142796043,-0.14582970828969222,-1841.4026842032877,209.31086074531595,971.8620852430984,0.3357266634149756
20320,1724559715411512393,0.7349027395248413,-0.9665912985801696,0.1086270809173584,0.0243104845285415,0.0462724417448043,-0.16322623193264,0.9852030873298644,0.0,0.0,0.0,-9.912291752688484,0.845106032510043,4.306720137440123,1.538734542,-0.13162142129704862,0.2759037664761371,-0.005715853764318483,-12.972841755056388,-8.52049413082458,-26.339994815727604,0.03296402096806853,0.09927470861522553,-0.32673495179220696,0.07455085874361345,0.013097570937020464,-0.040436498326227976,340.82572194629074,-91.2237734475924,-202.29411295027455,0.0727384571210181
20322,1724559715421732542,0.7356182336807251,-0.9664910435676576,0.1081438735127449,0.0233686510473489,0.0475677363574504,-0.1629349887371063,0.9852123260498048,0.0,0.0,0.0,-0.13579474088422483,-0.052628115488411065,-0.124513609945897,1.548954691,-0.22563750173182995,0.22094571932492105,0.041755070755809684,6.934956833914502,-7.574419539836756,8.547370351287707,0.030708172226338135,0.10151806512359644,-0.32623397951369437,0.06833001183812826,0.006565591681678029,-0.0515579978437648,491.66691636355125,-19.19886075779749,-105.28427643532575,0.06763821524275902
20324,1724559715432900307,0.7363608479499817,-0.9664573073387146,0.1075158789753913,0.0237852986901998,0.0481019243597984,-0.1619166880846023,0.9853443503379822,0.0,0.0,0.0,-0.31854972195137954,0.5706036450514889,2.7059472148463692,1.560122456,0.048698193545282445,0.10954587590503158,0.18483366413731625,-2.094801343614332,-20.743745839181685,-6.657150577545213,0.03146730274829757,0.10267670896535644,-0.324121809890312,0.07258427808628909,0.013135049694881218,-0.04118851567820947,-76.67739755362118,-12.442239342401985,147.8094600737602,0.06750849983907424
20326,1724559715440541374,0.7369472980499268,-0.9663040637969972,0.1072798073291778,0.0233244653791189,0.0477687418460845,-0.1617854684591293,0.9853931069374084,0.0,0.0,0.0,-1.2197671196840312,0.11872317321352355,3.283076927040518,1.567763523,-0.1066875338620509,-0.10525762940710603,0.03218108158182121,-10.210277280741732,-15.357444197017571,-20.049900277190627,0.03067475455247206,0.10186517318013986,-0.32389984347261586,0.0664932257416666,0.01740280444207798,-0.0112196650687304,-37.576057759079674,-9.831935404749249,-26.35554583312812,0.06917360063372378
20328,1724559715450608093,0.737480640411377,-0.9661640524864196,0.1074278056621551,0.0228366609662771,0.0474000908434391,-0.1626241505146026,0.9852842688560486,0.0,0.0,0.0,-0.5321645776105339,0.6736695314320562,1.666517066698531,1.577830242,-0.07518544108116719,-0.09070454329277325,-0.17061033527899616,2.913980326134085,1.3933482951845917,-18.15960013530663,0.029740343020253936,0.10100436439430649,-0.32565313361316867,0.04860921665866391,0.01276508446221769,0.013355482275014416,584.7174476653857,69.86555341879341,-176.18818007467112,0.04403095973367374
20330,1724559715551089563,0.7379804849624634,-0.9660280346870422,0.1074195355176925,0.0228811018168926,0.0472348630428314,-0.1628444045782089,0.9852547645568848,0.0,0.0,0.0,576.1630791679827,22.476221628491658,-31.686929680478443,1.678311712,0.0016275785778588163,-0.003168754558494085,-0.004297931230304265,-23438.01282282556,3400.835661224102,-11712.219967588,0.029859239832309124,0.10069896625188313,-0.32609652555375,1.2432044455049436,1.2181829654159628,-0.5961943369658798,-252000.4764995363,-513814.63451758656,1183101.0092147742,0.0042652957816444745
20332,1724559715551450539,0.7384308576583862,-0.9655867218971252,0.1072035506367683,0.0213713478296995,0.0477203726768493,-0.1635220050811767,0.985153079032898,0.0,0.0,0.0,484.86271998551365,-163.66512251062204,396.9188078481673,1.678672688,-8.48932778176949,1.2288603494398607,-4.247318718171655,8479.550265048678,1314.9546071565806,-5538.656768605175,0.026640836648502225,0.10118569277820928,-0.32762436580834037,1.4519172362522568,1.22630993212897,-0.6076657827607903,-595993.9043084688,-557822.6408508471,586880.9433507267,0.8442878128273344
20334,1724559715551796707,0.7390012741088867,-0.9651609659194946,0.106990098953247,0.0222298428416252,0.0477604195475578,-0.1642594337463379,0.9850094318389891,0.0,0.0,0.0,164.66145473708775,-370.7616720353701,400.7412124965974,1.679018856,5.069566017700709,0.9875561970546999,-4.101232643781475,12854.907350212427,-8819.718389749767,-3558.1964805373336,0.028252346323568954,0.10156638209053238,-0.3290414282237304,1.5887795035323506,1.107848937606832,-0.3279514820917484,158713.46438038768,1536285.687395125,-1118111.04018162,1.2185046224011866
20336,1724559715552106416,0.7394769787788391,-0.9648516774177552,0.1069685146212577,0.0223499778658151,0.0471280179917812,-0.1652479916810989,0.9848719239234924,0.0,0.0,0.0,514.0992144937613,696.4993980290483,-258.42478339296974,1.679328565,1.7596051418300014,-3.994693327588828,-6.306113000514233,-1969.1744008781088,-11522.172822805333,9535.296836072128,0.028595950714066985,0.10038521666208021,-0.3310391049497044,1.5758513657121966,0.9851084043727951,-0.3166940783133043,1267177.5741775685,3631358.3397129867,-641800.4764655798,1.1292985587490076
20338,1724559715552411500,0.7399697303771973,-0.9645552039146424,0.1067976653575897,0.0227745175361633,0.0461050942540168,-0.1650543808937072,0.9849430322647096,0.0,0.0,0.0,942.4381266854239,1860.0703674941183,-7.481046127896093,1.679633649,3.778890618338427,-6.138103211554697,1.608097280543884,8390.672054582676,5803.180658309754,1395.096378860334,0.02979230132739162,0.09849904719454569,-0.33060117776137815,1.8997409530279583,1.5260188891204507,-0.48412293773387205,50806.2882838021,-1275267.183665143,410569.22986405704,1.261415607449954
20340,1724559715552688536,0.7405676245689392,-0.9639930129051208,0.1066826358437538,0.0236115306615829,0.0457907356321811,-0.165670558810234,0.9848345518112184,0.0,0.0,0.0,616.0941483063634,226.5017966757132,2.6233704014526893,1.679910685,6.549156386970219,-1.303110817551966,-4.180362007993075,-10045.68171589409,4992.399365688362,-10406.361719084802,0.03149136480460375,0.09817369307242067,-0.33177549161258124,2.1308428588390598,2.0632321825014515,-0.35001870914172173,-1482703.4564763529,-5516136.106725174,187970.26731501345,1.4135519265288197
20342,1724559715552954787,0.7411279678344727,-0.9634349942207336,0.106606125831604,0.0233512483537197,0.0454172156751155,-0.1662322729825973,0.9847633242607116,0.0,0.0,0.0,143.34947298716907,-1144.8213887079414,91.43657431590702,1.680176936,-1.2548358754313413,-3.1622630102435534,-4.267364056553797,1852.8517611676689,-7931.555305309413,6966.873082451656,0.031043290183039054,0.09736765420410123,-0.3329429754334341,2.2390697475088928,1.6852970392978932,-0.47251507577377083,-534882.9455001869,-1400450.120237376,-287606.25833982485,1.3257799146363742
20344,1724559715553219026,0.7417548894882202,-0.963097333908081,0.1064327135682106,0.0241909194737672,0.044539600610733,-0.1663604229688644,0.9847614765167236,0.0,0.0,0.0,327.3704728823709,-531.4561326712626,-147.45870697446128,1.680441175,7.407147568028924,-5.506917844438976,-0.5137442200483064,558.1485423625918,-3201.258906742045,996.0110953212588,0.03298287795743254,0.0959175978882152,-0.3331260724187702,2.2079431751047878,1.4548148762830806,-0.3037234322140421,1278923.906658982,1239993.6616502507,-2656101.785522724,1.8787309980756277
20346,1724559715553551880,0.7424207925796509,-0.9625388979911804,0.1064794361591339,0.0230625178664922,0.0440390184521675,-0.1672708392143249,0.9846569299697876,0.0,0.0,0.0,997.3018174366453,-572.0759793082334,-1766.148183927461,1.680774029,-5.917613849878227,-4.1942878192095385,-5.720732021373996,-1486.318953589594,-11458.078594854976,19164.026901648536,0.03082709532203635,0.09458298207471548,-0.3350827369416598,2.5035623740855044,1.4208072834223913,-0.6824664235431044,943953.3240369784,-773919.3053367077,-2992930.6317711887,1.3183705200252436
20348,1724559715553816734,0.7431898713111877,-0.9622167348861694,0.1061252728104591,0.0231057554483413,0.0426125153899192,-0.1664407551288604,0.9848592877388,0.0,0.0,0.0,1022.0800391580763,-914.4335920650027,-2164.715274357226,1.681038883,1.8120442277402107,-10.474839328352195,6.690474707414662,27979.248567477585,-22670.964576996932,44893.917570762074,0.03146444269984345,0.09175483425027477,-0.33339062780571793,2.790708273113699,1.1702598139327334,-1.2826459406217396,81198.77592189785,-1234319.8638854357,-1428015.2082120334,2.4584920745989587
20350,1724559715560013653,0.7440885901451111,-0.9616518020629884,0.1060870587825775,0.0244680773466825,0.0428961515426635,-0.1672599613666534,0.9846752285957336,0.0,0.0,0.0,-266.1894070048772,-109.22560121016825,127.29525928544332,1.687235802,0.4304229321021881,0.15975759209748977,-0.25365491443308685,-152.33075179614076,1051.6932551313246,-686.1182086541835,0.03398935500767539,0.09279573576540215,-0.3349358197621431,0.1223578447403888,0.07806003572070352,-0.0005581535402825466,-117054.6309333056,84042.83995998463,221944.34789257104,0.10711261410814017
20352,1724559715569855599,0.7449384927749634,-0.9610883593559264,0.1061692312359809,0.0246954746544361,0.043498758226633,-0.1682957708835601,0.9844666719436646,0.0,0.0,0.0,1.5905487482178007,0.5516184329614986,-0.4522595912771386,1.697077748,0.035085692934071926,0.12497698109236069,-0.21536580428073576,-26.31538137661458,-2.90456490310282,3.6875895420139466,0.03414006314854045,0.09409724264527615,-0.3370214613846514,0.0723261522470029,0.05070628212144257,0.008113118806863051,17838.322188145077,7317.159530411852,-8527.887327624938,0.06150486425039385
20354,1724559715588951556,0.7457998394966125,-0.9603624939918518,0.1063154116272926,0.0252122208476066,0.0443335361778736,-0.1697257459163665,0.9841707348823548,0.0,0.0,0.0,-4.928192484239645,-1.8802100712205885,1.6519962969252369,1.716173705,0.0458463800089759,0.09282972860711958,-0.15246212979964702,-31.654738099058754,-537.3278000429499,-48.31193428917999,0.03474400705224378,0.09596910961867776,-0.3398829755020448,0.34998109230292584,0.18465449990134175,-0.049923982942587486,-1972.3787099592441,-1007.5819229358665,314.51423388828084,0.028982840505193713
20356,1724559715591058439,0.7466080784797668,-0.9599393606185912,0.1061968430876731,0.0249623116105794,0.0431390814483165,-0.1700312346220016,0.9841774702072144,0.0,0.0,0.0,-9.46290079461489,-4.207682357946727,2.362136354806644,1.718280588,-0.028335750429587987,-1.1637704325480092,-0.26624581398612357,-29.142749312481946,-484.6590293694098,-47.13341254730314,0.034622947764100215,0.09353810980618374,-0.3405315299586076,0.3350724866030532,0.1786254995072607,-0.04535291854685353,-1805.6986203483264,-944.238213099211,253.50641989062603,0.29848270386476866
20358,1724559715602180634,0.7474845051765442,-0.9592565894126892,0.1063337996602058,0.0248974375426769,0.0432331636548042,-0.172148585319519,0.9838069081306458,0.0,0.0,0.0,-9.194145684821024,-5.288391897870146,0.27609660306019257,1.729402783,0.0037305838399386637,0.008037030426927327,-0.3869745310996059,13.614677980574175,33.26268201819019,19.719696940216537,0.03426069058320101,0.09377566894570334,-0.3448488790162032,0.08968851772348074,0.05279159174942549,-0.007775418820233249,629.7728632173549,279.2491632860674,-171.30787844602685,0.05202033177173991
20360,1724559715610589827,0.7483079433441162,-0.9588673114776612,0.1061406880617141,0.0255403071641922,0.0423951782286167,-0.1723109036684036,0.9837983846664428,0.0,0.0,0.0,-0.04782323479440542,-0.5468914311294366,-1.0611563642953672,1.737811976,0.18645007397732355,-0.17062744782713682,-0.026756488497232583,8.28342283815989,-2.6340005507074187,28.01080016273339,0.035802901864327885,0.0923495729235811,-0.3451251275721417,0.09419002862707515,0.04662959926151444,-0.025179306867954665,545.3078887895011,336.6685188099041,21.036691103103394,0.0782776606013861
20362,1724559715619786915,0.7491366863250732,-0.95843505859375,0.1058868318796157,0.0261265132576227,0.0422500893473625,-0.1719668358564376,0.9838495254516602,0.0,0.0,0.0,-0.4879679937273984,0.26433199646742,0.9435026018090478,1.747009064,0.12739163449683136,-0.007634814501532598,0.08173530555454424,-4.912379870767727,7.535395952269733,1.7139144036759415,0.037043840483553976,0.09225204358111112,-0.34437331645096714,0.08788458795827125,0.04346949261772437,-0.024794852230169084,3.3218458305006573,52.41783039715207,113.70918969977458,0.07120108347008208
20364,1724559715630183009,0.7500241994857788,-0.9580246210098268,0.1056620478630065,0.0265595540404319,0.0419179573655128,-0.1720909178256988,0.9838303923606871,0.0,0.0,0.0,0.1479895720969875,0.38873022149388436,0.9004610093783654,1.757405158,0.09405551929717254,-0.04900546184470436,-0.01892918269067096,2.779633062631919,10.799914746672334,-26.515203266003986,0.03800174030173475,0.09175031028788545,-0.34458996333310965,0.08513397608224338,0.053361555923785886,-0.004389852603567057,37.60050896646954,-58.805929587249494,-76.31397316641056,0.06871372493721833
20366,1724559715642176727,0.7510420083999634,-0.9571925401687622,0.1058478355407714,0.0279505420476198,0.0434730499982833,-0.1754590421915054,0.9831292629241944,0.0,0.0,0.0,0.2727938569727373,-1.2958307099881292,-1.0134859008857742,1.769398876,0.2102243086136813,0.28502551596017434,-0.5698510362522288,-16.107073018518662,-27.38835824335525,15.303010745905482,0.03989457463598457,0.09543239584219622,-0.3513157876535468,0.09261760539975228,0.05023667194112136,-0.008288806611846944,-33.35457574486794,-88.07460489317413,-32.94344612443507,0.05407382972839357
20368,1724559715650431457,0.7518506050109863,-0.95688658952713,0.1056443154811859,0.0274676829576492,0.04249994084239,-0.1758638769388198,0.9831129908561708,0.0,0.0,0.0,-0.2511574066455027,-1.7252791088834978,-0.565962985265614,1.777653606,-0.06927371009001451,-0.254889508153077,-0.09561848714250112,-3.5464581667836743,-28.96814632542597,32.15099348148164,0.039240179501873376,0.0933612028363483,-0.3521915388051859,0.09287433182780802,0.03365810473305686,-0.02056592012514269,-41.54680633813271,11.306200070690544,88.2340341148627,0.08111135707042079
20370,1724559715660774163,0.7527453303337097,-0.9565826058387756,0.1054845973849296,0.0288312342017889,0.0418335124850273,-0.1764006912708282,0.9830063581466676,0.0,0.0,0.0,-0.3967280991109732,-0.7876508969206458,0.7874736730667291,1.787996312,0.2868628668843292,-0.08229724975882195,-0.09093285550830264,-0.982294693635863,-1.5669632717886977,1.9902254807544684,0.042116289399628165,0.09254897873154348,-0.35317009630607255,0.0866189546493672,0.01948259802309593,-0.01448029740658896,54.33402903276966,144.33794215898152,86.97259086470086,0.07212634397464408
20372,1724559715670719063,0.7536078095436096,-0.9564836025238036,0.1053497940301895,0.0282795652747154,0.04056391492486,-0.1767026484012603,0.9830213785171508,0.0,0.0,0.0,0.797769839963844,1.1611035502783829,1.2327477735845283,1.797941212,-0.061566693297922394,-0.27243540017956375,-0.05644106219574858,-12.74171370829636,3.5229408967554554,-3.5333786224857615,0.041442373414912255,0.08986544633492304,-0.35384689395602953,0.0846632993951495,0.017223687392252884,-0.0047453058902533485,61.88388641651133,77.902272878173,-29.76864665559495,0.07880540461242073
20374,1724559715682022496,0.7545382976531982,-0.9561955332756042,0.1054093390703201,0.0287441313266754,0.0408367365598678,-0.1777469664812088,0.9828082919120787,0.0,0.0,0.0,0.749186642322524,0.5249763613047076,-0.061431974331321054,1.809244645,0.08083520850166141,0.05828146494673365,-0.18633465168384009,16.15518154134453,33.37722882290245,-17.910428412546366,0.04216816561409173,0.09061167416870734,-0.35593221543674913,0.10645668365040706,0.048183705313547875,0.012450389720370048,-112.14473209577623,-188.14322395036368,-136.41021154520723,0.0675220426300432
20376,1724559715690057121,0.7555314898490906,-0.9556787610054016,0.105550393462181,0.0298456288874149,0.0420958958566188,-0.1791926026344299,0.9824597835540771,0.0,0.0,0.0,-0.7677787228632047,-1.73978501345327,-1.2826005928507067,1.81727927,0.23095087167427283,0.349979852515529,-0.3668973664307789,-5.600646422500406,0.1871911060076279,6.323746121660713,0.04376296950373261,0.0935476634549703,-0.3587686334553568,0.10574359480749251,0.03975719422213331,0.0029177531320874195,-91.71190255417272,-107.29645652955368,-35.15068483788535,0.09111275730535008
20378,1724559715700253817,0.7563784718513489,-0.9555912017822266,0.1053907200694084,0.0290518701076507,0.0416349396109581,-0.178828164935112,0.9825695753097534,0.0,0.0,0.0,-0.4465166453125944,-0.5747065496386881,-0.1290769694605765,1.827475966,-0.1404090629027826,-0.11549850754323243,0.07023114070505736,-18.116578129170925,-15.01583458796785,22.780253383522933,0.042393219534507344,0.09234020558054128,-0.3581009803433382,0.08912779693635287,0.013075069008166906,-0.011404849723237298,70.07602335021133,136.03889047661636,97.46641658252847,0.07591069881987016
20380,1724559715710327057,0.7573366165161133,-0.9554148316383362,0.1053181737661361,0.0284104812890291,0.0419356152415275,-0.1782991737127304,0.9826716780662536,0.0,0.0,0.0,0.6431921557358455,1.0123697701021255,0.6968808589541156,1.837549206,-0.14076289336796044,0.03809171296827807,0.09978718966360008,-3.4763356253727,11.149335615266212,-6.391674269863566,0.041069941606668325,0.09268164397743013,-0.357076289349847,0.09640239966660147,0.027606778431149337,-1.1671938155544126e-05,32.25046811224705,26.45846868992221,15.804460281622447,0.08330840823777254
20382,1724559715720699983,0.7583503127098083,-0.9550206065177916,0.1053948551416397,0.0274092406034469,0.042703304439783,-0.1785733997821808,0.9826173186302184,0.0,0.0,0.0,0.1666956297210449,-0.11347595096179397,0.15380059472780586,1.847922132,-0.21358004437482286,0.10996988651715528,-0.06612685719004095,4.0289065670549515,2.5949617658604542,-5.033056862798875,0.03879464667909783,0.09384883882472304,-0.35771896730283637,0.10223056859354074,0.03351244232631245,0.0025796018601029758,55.667556853756025,-72.37464317102067,-43.37600949717565,0.07719488250967149
20384,1724559715731520533,0.7595073580741882,-0.954708695411682,0.1053684428334236,0.027255393564701,0.0432203710079193,-0.1785329729318618,0.9826062917709352,0.0,0.0,0.0,1.9159046896892278,-0.48842773830306474,-0.21419518790306818,1.858742682,-0.04527149210253098,0.089123848339755,0.003144542671719439,6.026881943011958,-4.005402669252969,0.2295800678876776,0.03831151424656394,0.09481117146049327,-0.35764744771940754,0.09957385300429067,0.02457735454547816,0.0031600893342513814,89.06194065778303,6.398284534412318,-31.259186829612602,0.08989958008246703
20386,1724559715743553928,0.760607123374939,-0.9544697999954224,0.1054814234375953,0.026656849309802,0.043418101966381,-0.1789581179618835,0.9825367331504822,0.0,0.0,0.0,2.01615235696233,0.1379054597120244,-0.5535511974270431,1.870776077,-0.10024836268001883,0.013105304508231755,-0.07669111311831385,4.111738991481851,-35.46872000073866,14.457284481175218,0.037017969766890556,0.09500352656553117,-0.3585679060582415,0.15155334161855194,0.023214042370057086,-0.0030017163324433938,-367.4807113140693,-14.031012193328833,25.129931189679755,0.07736810064426536
20388,1724559715750123732,0.7618185877799988,-0.9543052315711976,0.1054172590374946,0.0263436045497655,0.0423873253166675,-0.1786772012710571,0.9826412796974182,0.0,0.0,0.0,-1.7461140407069298,-0.19129860169161617,-0.19716024302997365,1.877345881,-0.042099394443084054,-0.32447983942107034,0.09394410727103525,5.369673477516659,-20.713870895229416,18.485871728954027,0.0367920756258443,0.0928504304776918,-0.3580273829079462,0.15653687023941742,0.025021076342206072,-0.006787267428395971,-403.6016172104803,-25.784265772938706,74.3878047092894,0.16412759113262174
20390,1724559715760048067,0.7629544138908386,-0.9540573358535768,0.1053945645689964,0.0261161345988512,0.0420595295727252,-0.1778723299503326,0.9828073978424072,0.0,0.0,0.0,-3.2171162866510876,-0.08252669318758343,0.8430365751231729,1.887270216,-0.0409990655842837,-0.070249022342658,0.16516467621412997,-0.47240544760384306,18.787869350195844,2.926928618959772,0.036534720562118504,0.09209363184281544,-0.35640793779893154,0.1016587091842851,0.016131192677399042,-0.0030614389589986857,75.06698055656483,63.08075883244561,55.019859563955436,0.09833363978167158
20392,1724559715772012601,0.7639862298965454,-0.953991949558258,0.1053467616438865,0.0258869491517543,0.0424258634448051,-0.1770330518484115,0.9829492568969728,0.0,0.0,0.0,0.9017747027437162,1.4240009745071702,0.7831035861349036,1.89923475,-0.05506445375337206,0.0560359584200303,0.1388896335075255,-7.636943808327336,11.673874380989048,-13.905655394304105,0.03603203471180216,0.0927033568258026,-0.354715752166461,0.09652382997102649,0.0268740857405092,0.013770021030075519,143.327807254724,20.742092991686185,-62.827382643496236,0.07900335526082744
20394,1724559715781770458,0.7650099396705627,-0.9535593390464784,0.1056225076317787,0.0251547284424304,0.0434512645006179,-0.1774044036865234,0.9828565716743468,0.0,0.0,0.0,0.7013077370745906,0.7894067821506994,-0.2900836849946177,1.908992607,-0.18100519824684236,0.17885259508972245,-0.08998655380159237,-7.242565889098952,6.366779479542201,-2.6277328363070565,0.034189195060442795,0.09447833291855977,-0.35553564843560914,0.11591514030270389,0.04495612487826861,0.016448116832970427,-71.64929685144998,-95.0457131487586,-45.22917073062073,0.07988198318878374
20396,1724559715790319343,0.766083300113678,-0.953170359134674,0.1056746616959571,0.0244620405137538,0.0443829372525215,-0.1771640181541443,0.9828757047653198,0.0,0.0,0.0,-0.2939760820119508,-0.24790553741458532,-0.1917643533539548,1.917541492,-0.2004991469317804,0.18669809541772187,0.043543609102790655,-5.338818086490729,1.3523285958699862,4.89533508103494,0.03251578271098731,0.09606107771863877,-0.35510839069546485,0.11227920907980504,0.04373811671234762,0.009739996193158795,-65.29752240608184,-86.029982279488,18.620732124796753,0.10084688991478699
20398,1724559715801115362,0.7671144604682922,-0.952722191810608,0.105829432606697,0.0230574272572994,0.0457756109535694,-0.1773287951946258,0.9828161001205444,0.0,0.0,0.0,-0.3018982303526183,-0.6952911277148268,0.10633685081007005,1.928337511,-0.29983655511016094,0.2072232113575496,-0.04981903990428399,21.789144393559894,3.019332759336786,0.9145698116842322,0.029233060774682344,0.09831380700981326,-0.35557916428297864,0.1108960296232624,0.039624311235719745,0.01575338502486634,-30.215371596116935,-30.83681467172103,-24.77644019083354,0.07331665923967924
20400,1724559715809975871,0.768208920955658,-0.9523848295211792,0.105979323387146,0.0237696059048175,0.0467337369918823,-0.1772068440914154,0.9827760457992554,0.0,0.0,0.0,-0.784011687933607,-0.8914156357997807,-0.4941646388178433,1.93719802,0.11858877819948783,0.2421072802128904,0.02782260350790235,15.123481172506413,-5.0164928813719385,9.460306532983182,0.030314756644978628,0.10045071338613486,-0.3552673575791997,0.10695733845805933,0.031178505515612187,0.013418358288786791,-26.129625344977406,5.189941657465816,-41.33888442103249,0.10035027089976424
20402,1724559715821186330,0.7691730260848999,-0.9521331191062928,0.1060801297426223,0.0229448564350605,0.0472049191594123,-0.1763630658388137,0.9829248785972596,0.0,0.0,0.0,-0.6757966710150871,-0.44567107464467215,-0.5826630276021282,1.948408479,-0.16716734532525274,0.05887645821678565,0.14377213382958987,-17.272337884182647,-13.983318363586962,11.769676316789614,0.02860557352163469,0.10106297974580929,-0.3536285380990981,0.09335300339056829,0.022061604744330054,0.004607330916770458,45.297775874661056,66.68070301987333,35.01355865210698,0.07162414529474391
20404,1724559715830512648,0.7701007127761841,-0.9519304037094116,0.1060890778899192,0.0217469856142997,0.0471501424908638,-0.1750974208116531,0.9831809997558594,0.0,0.0,0.0,0.02322674671857472,0.3850763469920768,0.07679972133818358,1.957734797,-0.2644940445469546,-0.05321535376597542,0.26460940854992926,0.0452493321042815,-2.919126346930936,4.140717247117139,0.026386898346399325,0.10049901947144321,-0.35116278366905596,0.09122257186847449,0.020757118810792008,0.0007506178949094888,60.09883497728542,65.81185077297422,64.78951837147221,0.08539274494461163
20406,1724559715842334956,0.7710555791854858,-0.951699674129486,0.1060948222875595,0.0212266817688941,0.0475201271474361,-0.1740067303180694,0.9833682179450988,0.0,0.0,0.0,0.5111441992930352,0.81448679380884,0.7540371929951213,1.969557105,-0.10688841086908357,0.04864530501967601,0.18144496667102147,15.083058135276813,10.511718153072634,-10.890086904282187,0.025341534808819184,0.10101845984123314,-0.3489925486346923,0.09526860149964733,0.033176633802135314,0.00900679561098805,-59.53016621798453,-59.323950144940476,-12.958946682888381,0.06882370362240563
20408,1724559715851467408,0.7720279097557068,-0.951300323009491,0.1062371879816055,0.021558167412877,0.0481900051236152,-0.1737547069787979,0.9833729863166808,0.0,0.0,0.0,-0.7436237018131937,-0.4020308031567503,0.1401491905520107,1.978689557,0.043215507252249055,0.15801681089151928,0.054792387431806054,-14.395298655274743,0.9311129907480358,-4.289388345910862,0.0257910311391749,0.10244828081938544,-0.34845265219290006,0.10112817540731811,0.0389498084069686,0.016285813945657424,-93.45658319586187,-67.0327768584507,-47.00265998139514,0.08309960786232902
20410,1724559715860022650,0.7728502750396729,-0.9510053992271424,0.1063821017742157,0.0202595777809619,0.0487501174211502,-0.1732808798551559,0.9834564924240112,0.0,0.0,0.0,-1.1910094606650135,-0.4451484750126222,-0.09993376432854861,1.987244799,-0.3270402129191675,0.07746219836603253,0.09486682833474995,-20.981012572919298,-5.507019463631563,2.555031804574433,0.023078465272720228,0.1030909408750103,-0.34762063646442637,0.08366423062259543,0.02722179749044784,0.012220085583620754,29.917597705219006,37.92479712334191,-5.139282424623096,0.07647038618322645
20412,1724559715871854298,0.7736362814903259,-0.950801968574524,0.1064494773745536,0.0191394668072462,0.0493986718356609,-0.1726857721805572,0.9835513234138488,0.0,0.0,0.0,0.5081747387652937,0.706588234070403,0.21435138699223022,1.999076447,-0.2104348090386082,0.07626407460934638,0.09025791225917122,-11.281104605878038,8.185395741255178,-11.511194374101631,0.02070165943789045,0.10396969761889915,-0.3465274461007455,0.08348602518699266,0.03710215570417574,0.017178649231367693,21.444620390778326,-13.383002893552932,-10.997957276728487,0.055747190537435806
20414,1724559715880441533,0.7744594812393188,-0.9503592848777772,0.1066685691475868,0.0174157861620187,0.0505674853920936,-0.1729049682617187,0.9834853410720824,0.0,0.0,0.0,-0.0690912553473888,-0.09843777728635894,-0.11418944638810047,2.007663682,-0.43904120224099175,0.19820050131802164,-0.07790698872500369,-6.973163312540598,2.587027767257209,-1.099411813654604,0.016864489728173372,0.10568393561252414,-0.34716781228095484,0.09111090631970598,0.04236897910521975,0.01774328383365642,-101.94589712241768,-88.06387650876069,-19.723049212964558,0.06950792125533788
20416,1724559715890143982,0.775291383266449,-0.9500488638877868,0.1067555397748947,0.0161344353109598,0.0512601435184478,-0.1722810268402099,0.9835808873176576,0.0,0.0,0.0,-1.438857655108507,-0.8905737631052375,-0.10234875661060472,2.017366131,-0.29130149961918345,0.09599681119819564,0.1140536345092309,15.485718273315909,-1.3008709067952093,6.576160344726605,0.014157575520533589,0.10659807603932661,-0.34604059376387347,0.07994918925854222,0.03361112265062616,0.014662750847293182,-82.59368359528776,-41.82052678426609,-0.9094214686250472,0.06845738153102392
20418,1724559715900354126,0.7760454416275024,-0.9496883153915404,0.1069664806127548,0.0156498737633228,0.0522850193083286,-0.1720345616340637,0.983577847480774,0.0,0.0,0.0,-1.6527040259468233,-0.8896997591905185,-0.13451754676552846,2.027576275,-0.13041087887437755,0.1819170968023719,0.039278637661822505,11.302520978955176,1.9469309283297802,-2.1873186653912726,0.012872053283086875,0.10844987346408737,-0.34561197141966343,0.062158961414233715,0.024647922779617915,0.015929433387961822,677.8377876329827,494.9419266849563,289.1860795349578,0.05494961731774972
20420,1724559715915112071,0.7767133116722107,-0.949552059173584,0.1071006581187248,0.0153614282608032,0.0528734251856803,-0.1711574643850326,0.9837040305137634,0.0,0.0,0.0,23.2568120880691,16.970617511181754,10.369234710920548,2.04233422,-0.05864889031570096,0.0726726342480077,0.11656249032348388,4.223847763258587,-2.6673930253723777,2.3757990599288594,0.012196181145613267,0.1095007445177794,-0.3438681493720171,0.03968194180032114,0.011265480391113414,0.00842837755845105,-1707.3958621380061,-1279.8468864538893,-823.2491153180717,0.0382628610327138
20422,1724559715933998926,0.7773280739784241,-0.9492901563644408,0.1072438061237335,0.0156813375651836,0.0541210696101188,-0.1702830046415329,0.9837828874588012,0.0,0.0,0.0,-91.0573062805463,-67.38883327221879,-42.28135960630948,2.061221075,0.00568706424091825,0.13674391296719268,0.09228170908442183,668.4553418923911,6406.483861733161,-4687.128104496676,0.012501000515930396,0.11206168939461511,-0.3420825322355441,1.0778822400598074,0.7639008219734933,0.46719009919453924,-16172.36208193854,-11660.825281389989,-7114.592761339329,0.025001369365124607
20424,1724559715934669080,0.7780752778053284,-0.9487603902816772,0.1075678244233131,0.0160402152687311,0.055621325969696,-0.1713088899850845,0.9835152626037598,0.0,0.0,0.0,-102.13591560218723,-75.37445260821471,-47.15212100473658,2.061891229,0.4694691386824739,4.582332407316325,-3.160239560304052,610.8935317738238,5890.161935857364,-4309.8907016879975,0.01257837969463691,0.11515887141560296,-0.34417518453962154,1.0133874834726964,0.7161899244389751,0.4372720911487633,-14773.661291073062,-10628.4665192804,-6467.680402959199,0.7221078904076421
20426,1724559715940637985,0.778723418712616,-0.9484368562698364,0.1077203080058097,0.0155662419274449,0.056344598531723,-0.1712391525506973,0.9834939241409302,0.0,0.0,0.0,-96.86868423850981,-70.35969264562317,-43.20267175601192,2.067860134,-0.19889733544522487,0.21191800970342625,0.009036126191928708,-74.59923540208527,-460.2476601507568,327.1434173974657,0.011399218463347032,0.11642306872784193,-0.34410566986004004,0.09023099258708456,0.04403521799748944,0.022457176779990817,4297.154601460427,3261.160833873111,2113.535797479398,0.08039924410759691
20428,1724559715950320903,0.7793087959289551,-0.9481701850891112,0.1078892350196838,0.013990880921483,0.0567525885999202,-0.1712640821933746,0.983489751815796,0.0,0.0,0.0,-1.6218096443507664,-0.7531277349257364,0.06825957204875754,2.077543052,-0.3341456063324447,0.027128040678442756,-0.02485750123119247,-0.3605222815558662,-8.926278604575561,-0.8155057797354176,0.00813583150769121,0.11668807530948686,-0.344345382231853,0.06005392807836074,0.026401549542562464,0.017141664107226617,5025.704928480522,3654.5806175870275,2249.659381048692,0.04525378051957915
20430,1724559715960139827,0.7798944711685181,-0.9479222893714904,0.108054518699646,0.0130470125004649,0.0571191310882568,-0.1712344735860824,0.9834866523742676,0.0,0.0,0.0,-0.17598910483263364,-0.05668403071547945,0.06196048401047749,2.087361976,-0.20220086909217497,0.04062159435717318,-0.006132299153906248,-0.016680046414624172,12.112788570170798,-6.9804273827789896,0.006143700269677751,0.11708735318396221,-0.3444031332466477,0.05901215331169851,0.029640384375738904,0.023957433774254078,59.877489544126085,3.9864388715703,-48.455232114868444,0.045328237925555945
20432,1724559715970714352,0.7805112600326538,-0.94755882024765,0.1083889901638031,0.0114066125825047,0.0589665733277797,-0.1720484346151352,0.9832558631896972,0.0,0.0,0.0,-0.5378164445189766,-0.7768862427114793,-0.9949460864092711,2.097936501,-0.3556005337620053,0.2910020989400304,-0.18116004115544007,0.024849654853483116,-3.8638589278294804,5.69112344667648,0.0021565790956506567,0.12017247239590859,-0.34631944995544556,0.05635522081637134,0.02463895014790296,0.01741313243704745,195.73160308433887,26.391006913707866,-50.55716894298275,0.03909413055652772
20434,1724559715981353623,0.781089723110199,-0.9474008679389954,0.1084220707416534,0.0103573482483625,0.0589072816073894,-0.1713738441467285,0.983388900756836,0.0,0.0,0.0,4.006088841951468,0.5154436411277199,-1.004133638382648,2.108575772,-0.1997862555077607,-0.044922851430723706,0.11748713494908729,12.850215624506806,-26.513572264334016,23.38492256200934,0.00018156707609240266,0.1196930821686718,-0.3450610409650594,0.04756580432764457,0.013120202918433854,0.0028020030876195756,-787.8556316862541,-308.0371750349502,635.8146635856732,0.04544248161574342
20436,1724559716038792771,0.7817116975784302,-0.9471824765205384,0.1084877252578735,0.0098603963851928,0.0590353235602378,-0.1711231470108032,0.983430027961731,0.0,0.0,0.0,-418.0037277598467,-150.3681903820825,232.95149758046708,2.16601492,-0.018309249423090142,0.0014249636786482884,0.007764065361039586,-3204.299086853058,-1398.68336535899,-250.6664390685002,-0.0008164504380833591,0.11977508219089678,-0.3446119175589352,1.7761511451521983,0.5383024507768823,0.05961089646274331,549484.2865607719,2404501.543434847,1200317.5776017462,0.00870689250490246
20438,1724559716039169557,0.7823852896690369,-0.9469783306121826,0.1085103303194046,0.0096138240769505,0.0589772351086139,-0.1711265742778778,0.983435332775116,0.0,0.0,0.0,-209.58946638425914,761.5638324299067,688.1710169497301,2.166391706,-1.233571900677199,-0.5290383535655685,-0.08729837007699447,-7714.852285577012,-1158.9297126606446,2526.9244568573217,-0.001285173184081459,0.11957570746223196,-0.3446448192737737,1.6175456652244975,0.4812515702124074,0.14795708227970295,808078.9794940515,1611648.7148039758,195374.44887844595,1.4816832700460958
