seq,stamp,px,py,pz,ox,oy,oz,ow,lx,ly,lz,ax,ay,az,timestamp,wx,wy,wz,aa_x,aa_y,aa_z,roll,pitch,yaw,vx,vy,vz,jx,jy,jz,fw
18,1724915389047237687,-0.4864453077316284,0.1330164968967437,0.1683151721954345,-0.0437163896858692,-0.0235419645905494,-0.3856579959392547,0.9213048815727234,0.0,0.0,0.0,-0.0109291957894279,1.282207109740771,-0.7205924630648051,0.0,0.0,0.0,0.0,-16.971593664035524,-16.48422806026079,2.7506711241983433,-0.0626211396382672,-0.0771743884397694,-0.7904559548109705,-0.0181296616554505,0.0585092421364574,-0.0547534335742038,-0.268920825146188,-84.41116857394474,57.041107253300105,0.0
20,1724915389058481575,-0.4866491556167602,0.1336743682622909,0.1676995307207107,-0.0451106838881969,-0.024080604314804,-0.385477066040039,0.9212994575500488,0.0,0.0,0.0,-0.0139529114282392,0.3330973843462166,-0.079228641712711,0.011243888,-0.190826698339925,-0.1853468140760296,0.0309282380453202,-9.602285463024591,-2.2406652592309033,6.228592459415821,-0.064804368072309,-0.0792320368794878,-0.7899747378703217,-0.0182525483088369,0.0729262352711863,-0.0628556945225486,-9.162362482067492,-126.10606652927272,28.906903025947493,-0.0005435701509975
22,1724915389066115826,-0.4867891371250152,0.1343058347702026,0.167177677154541,-0.0461033321917057,-0.0241838563233613,-0.385136067867279,0.921390175819397,0.0,0.0,0.0,-0.1299991252885671,-0.8457501273323829,-0.0043774712290076,0.018878139,-0.2259347398971994,-0.1286222538793959,0.0965064015305846,-7.838757202436984,4.892317539298016,7.801253483313019,-0.0665930695171171,-0.0801634773593459,-0.789172500840852,-0.0183747415234698,0.0705495504511297,-0.0601360881206698,-3.857427954355794,-106.363451725089,-4.7925466169889335,-0.0004523460318239
24,1724915389077406458,-0.4869972467422485,0.1348992437124252,0.166635975241661,-0.0482952818274498,-0.023940036073327,-0.3842635154724121,0.9216485023498536,0.0,0.0,0.0,0.015861037205179,-1.2442754379188834,-0.3022355161355525,0.030168771,-0.3685415372727595,-0.1157642055545344,0.171416939233373,0.9008462878896992,-13.771685061756454,17.8725385155252,-0.0709176579991459,-0.0813344719533812,-0.7871452289957789,-0.02174599694494,0.0520764450699626,-0.0662071389673162,-23.741520454945796,471.67466159466136,-494.0218997678576,-0.0004733500283975
26,1724915389086396743,-0.4872164726257324,0.1353639811277389,0.1659102588891983,-0.0500296801328659,-0.0248298663645982,-0.3825061619281769,0.9222632646560668,0.0,0.0,0.0,-0.4600181174857961,6.625426219356822,-8.091291807519031,0.039159056,-0.2635767517245835,-0.3463140931052272,0.4125430818735043,11.131437143594445,-17.860981042719423,18.681897669550676,-0.0736127645127126,-0.0841720260372394,-0.7832077627040419,-0.019352378670963,0.0436952917738644,-0.0672386746593991,-2706.548363993683,1883.6430011722955,-4744.903595850331,-0.0006678244958083
28,1724915389118684062,-0.4872577786445617,0.1358473747968673,0.1653027981519699,-0.0496972240507602,-0.0252788439393043,-0.3814043402671814,0.922725260257721,0.0,0.0,0.0,-395.5479538762605,184.35938258211036,-611.0260916048301,0.071446375,0.0327571513326271,-0.0204762445617016,0.0719891770521267,4121.615643912338,-5300.140289724805,12787.840149442309,-0.0727553695598343,-0.0846614293168828,-0.7808328674175716,-0.1184191677716626,1.1339644503551654,-1.2534081755469515,67926.5108038371,-280233.5558461993,350391.6427006286,-0.0005496675792489
30,1724915389119069102,-0.4873039126396179,0.1362891346216201,0.1648145169019699,-0.0495838448405265,-0.0257212854921817,-0.3804782629013061,0.9231013655662536,0.0,0.0,0.0,-369.02543980755223,75.14621085980434,-474.4166303670231,0.071831415,1.63862738855816,-2.085625602999933,5.054586345178633,-4192.305356568259,-8502.55267319184,15167.192017808438,-0.0722947630237529,-0.0853213395564053,-0.7788263120391288,-0.2725231265721959,1.2056416686430964,-1.4913146584659105,105850.44569091126,-297854.1346237194,408912.6756435061,-0.000435698202799
32,1724915389119370851,-0.4874222576618194,0.1366667300462722,0.1643117368221283,-0.0501562021672725,-0.0263043548911809,-0.379028856754303,0.9236501455307008,0.0,0.0,0.0,-328.343164420476,-18.09200680210424,-338.2296497451682,0.072133164,-1.604031084901839,-5.3935786580314495,10.157837041648508,-10297.954271389024,-10482.255805429362,16163.544306485412,-0.0730525940671187,-0.0867219992760322,-0.7756393605467851,-0.3764974442468189,1.2020660635462312,-1.6005451034952989,131383.00439308785,-296812.7658529173,435569.461253523,-0.000455788787824
34,1724915389126441014,-0.487483412027359,0.1370002478361129,0.1638751327991485,-0.050608791410923,-0.0258027743548154,-0.377717524766922,0.9241767525672911,0.0,0.0,0.0,30.928602260928955,-98.91161860489636,131.22065413471506,0.079203327,-0.1548030129053821,0.0678403533045526,0.4095729297588026,120.03393221236412,452.14704595600347,-826.002522931647,-0.0743941002581765,-0.0860303857421565,-0.7727762743739547,-0.0094633569648578,0.0400466533176668,-0.0556081635248295,29180.312941983553,-3066.5711543228485,34714.21303193971,-0.0003955083010803
36,1724915389136958792,-0.4875956773757934,0.1373099535703659,0.1633864045143127,-0.05210917070508,-0.026179676875472,-0.3758928179740906,0.924826443195343,0.0,0.0,0.0,-0.6707153879196053,-0.2894044330648282,0.5826654032482232,0.089721105,-0.2213947511340445,-0.1883718187555977,0.3710651625090451,-2.4335703483383613,-11.325188175722058,-4.3311136012351685,-0.077074651134783,-0.0877106597038375,-0.7687193841751336,-0.0124981819894642,0.0236854325907849,-0.0413143439827914,-1683.5907211615972,5345.280639724456,-7034.470145916105,-0.0004484198194729
38,1724915389150700713,-0.4878001809120178,0.1375320106744766,0.1629111766815185,-0.053621556609869,-0.0262937266379594,-0.3739822208881378,0.925511121749878,0.0,0.0,0.0,-0.0926508818220739,0.7830222869009935,0.6217561412853172,0.103463026,-0.1848543801741092,-0.1099709716251726,0.2995195787266934,-33.14601314725412,-2.475180387564972,46.22922832900846,-0.0799886897865553,-0.0888943210674329,-0.7644810701497285,-0.0285767863368278,0.042441840658661,-0.0472462957161425,142.01319161501374,-97.61705586993384,87.43704292611245,-0.0004436793347837
40,1724915389156004990,-0.4879797995090484,0.1378109455108642,0.1626346409320831,-0.0548707097768783,-0.0261140521615743,-0.372396171092987,0.9260823130607604,0.0,0.0,0.0,0.8652598302891547,-0.0944088061010586,1.2587418299956743,0.108767303,-0.4339776680562378,-0.139848676880572,0.6500420083890891,-20.9976620202753,-1.7218156481794011,31.38909561827086,-0.0826031075629498,-0.0893536617376682,-0.7609702307000704,-0.0268623733373161,0.0454038562239098,-0.0417915365579064,131.77804256679633,-137.48331616668003,64.52739889142283,-0.0002393730300385
42,1724915389166273615,-0.4881164729595184,0.1381343901157379,0.1624111086130142,-0.0556951612234115,-0.0261587556451559,-0.3710469901561737,0.9265732765197754,0.0,0.0,0.0,1.2480551518297198,-0.9508241770061538,0.8168292296240638,0.119035928,-0.1333558098891402,-0.0797830552114602,0.2826790093495759,21.522329889327153,11.509411193764066,-21.28813143268304,-0.0842386242344137,-0.0899282122212582,-0.7579974263159761,-0.0072019063669408,0.0314567039418856,-0.0242863857586854,-20.11413808815551,35.02235371450077,-121.42377548098062,-0.000181201175747
44,1724915389176664962,-0.4881270825862884,0.1384608298540115,0.1621322631835937,-0.0554905124008655,-0.0256355442106723,-0.3700449466705322,0.9270007610321044,0.0,0.0,0.0,0.435531532767841,0.6583920734171931,-1.2692249408199197,0.129427275,0.0087586588309126,0.0993329454249208,0.2138068421735138,8.231633835981743,7.686385736600637,-4.695674789991797,-0.0843380900458464,-0.0887126199467396,-0.755861900285436,-0.001242169669636,0.0258604481408144,-0.0251350977407911,-60.02656028873645,83.71243680372152,-78.97665566550496,-0.0002369157751357
46,1724915389192264818,-0.4881516396999359,0.1387341767549514,0.1617799550294876,-0.0554705150425434,-0.0256150048226118,-0.3686972558498382,0.9275394082069396,0.0,0.0,0.0,-0.0754490715032236,0.2980578552768183,0.3505473241606083,0.145027131,0.0096636359944392,-0.0044276807397122,0.185804430439614,149.08140581148638,-3.691914025001702,116.58200868227038,-0.0844445017549025,-0.0885371320165986,-0.75295651921295,0.0023202943711737,0.064162510359786,-0.0727461220715781,-29.646998331140647,-281.33685286949066,389.87824432592623,-0.0003162242533848
48,1724915389195966631,-0.4881396293640136,0.1390126645565033,0.1614665985107422,-0.0543264150619506,-0.0260400380939245,-0.3674237728118896,0.9281004071235656,0.0,0.0,0.0,-0.1824661336162675,-0.9702434559221016,2.0450755248343406,0.148728944,0.6924421048327435,-0.0154947620192188,0.7213554674343546,120.71814955109524,-2.9083606285401222,95.00083656870297,-0.082117623124499,-0.0883721535242891,-0.7502801546608322,0.0017741157181916,0.0633708882119692,-0.0684595386440456,-21.558013667854834,-265.97429776733395,352.0447757567518,-0.0002777710468078
50,1724915389206868465,-0.4881674945354461,0.1393227726221084,0.1612400561571121,-0.0546284168958663,-0.0261424649506807,-0.3665947318077087,0.9284075498580932,0.0,0.0,0.0,-0.1814663846128141,-1.4091931515968636,2.4890473168280245,0.159630778,-0.0374945609799396,-0.044591740776528,0.1622817759177513,-31.43815547584543,0.9426681792506296,-26.13633764201835,-0.0826864519796934,-0.0887110115786689,-0.7484698370194557,-0.0013363200676614,0.0285086817710302,-0.0176831131669121,4.400190202312437,43.8958544815034,-77.16718434272903,-0.0001872443078135
52,1724915389218677441,-0.4881676733493805,0.1396602392196655,0.1610708534717559,-0.0543780364096164,-0.0261147245764732,-0.3656306564807892,0.9288031458854676,0.0,0.0,0.0,-0.0743922148015592,0.1857091944324964,0.069758401564254,0.171439754,0.0455754586813068,0.012739205577026,0.1752985324628434,-13.809815287818678,-4.031704432353655,10.372107570860631,-0.0823303189731085,-0.0883904833657647,-0.7464111434407863,-0.0021508867817843,0.0347470768210804,-0.0160293254695229,18.029378524583116,23.134115833431753,-102.13153828298776,-0.0001274366794788
54,1724915389226884080,-0.4881975054740906,0.1399805843830108,0.1609296053647995,-0.0552294142544269,-0.0260354876518249,-0.3644404113292694,0.9292228817939758,0.0,0.0,0.0,0.124681546932567,-0.2627642329375048,-0.1824682407591665,0.179646393,-0.1866358519116419,-0.071029380473003,0.3132863534472783,-13.343774875379813,-3.380061056568045,7.957997424450625,-0.0840938186590585,-0.0887576945237918,-0.7437903566637162,-0.0027922717083548,0.0343174006697308,-0.0158577016433838,23.85727556169722,-44.843059551535525,-27.53070750318283,-0.000100992768978
56,1724915389237344972,-0.4882154762744903,0.1402766704559326,0.1607817709445953,-0.0559130497276783,-0.0257878191769123,-0.3630994856357574,0.9297137260437012,0.0,0.0,0.0,0.368911218004807,-0.6011248940238105,-0.4277439768837079,0.190107285,-0.126851406301443,-0.015349427236588,0.2784427341733857,2.1801303611399483,1.412536833124265,14.540414497332565,-0.0856801619648577,-0.0886707279994053,-0.7408629702943843,0.0012166955629702,0.028763008936318,-0.0204784378296665,-3.8554905919545863,-18.108895917462338,24.235285049712655,-0.0001102536412049
58,1724915389246036880,-0.4881837069988251,0.140529990196228,0.1605579406023025,-0.0565612614154815,-0.0255739670246839,-0.3609485924243927,0.9305176138877868,0.0,0.0,0.0,0.1389419689142501,-0.655709504745762,0.1272710052198175,0.198799193,-0.1334312889191806,-0.0313110847187661,0.5338941222966518,11.598423321699974,0.8965394259753966,10.988809991600336,-0.0872527461050408,-0.0885411103517971,-0.7361979345134314,0.0043197993645129,0.0230314039097789,-0.0240954471948606,-22.764398740708817,7.183206109234156,54.5029028529068,-0.0001909784570882
60,1724915389256507260,-0.4881300926208496,0.1406940370798111,0.1603265404701233,-0.0558924823999404,-0.0256611574441194,-0.3589013218879699,0.9313470721244812,0.0,0.0,0.0,-0.052825287222451,-0.4106913918166163,0.579991323699832,0.209269573,0.1438446257491415,0.0125456682279508,0.4168670372895178,0.2441612180332848,-8.79532051744195,-9.117475576930726,-0.0861305209457781,-0.0880323191416901,-0.7318438958881146,0.0030241288408312,0.0162126569852265,-0.0159090244097788,-4.337774292667884,24.475633952423436,4.759151383619207,-0.0002099606125558
62,1724915389267075945,-0.4881204962730407,0.1408711969852447,0.1602244526147842,-0.0570108965039253,-0.0263842269778251,-0.3571683466434479,0.9319251775741576,0.0,0.0,0.0,0.0504402589380637,-0.1405527896252971,0.2197982209174694,0.219838258,-0.1334771904806278,-0.2189211669925015,0.342477778333401,-7.975001160119898,-3.674365783561899,-6.341253471433134,-0.0878810331200017,-0.0900227690907466,-0.7280219515749417,0.0032224139465419,0.0144383576181992,-0.0119328487269756,9.241141597843466,28.390635098584745,-24.442498044316427,-7.919925929274561e-05
64,1724915389277555185,-0.4880626797676086,0.1409983485937118,0.1600757837295532,-0.0573104545474052,-0.0265807788819074,-0.3557681441307068,0.9324365854263306,0.0,0.0,0.0,0.1417759351959541,0.1863683876890353,0.0638104932185886,0.230317498,-0.0272661916723851,-0.0680389071948623,0.2832725807402138,7.383689965714197,9.563009338601136,-6.807565209566285,-0.0884400138647339,-0.0904716190878362,-0.7249897817821203,0.0040801486074855,0.0132494440516088,-0.0112548636371467,7.485518677028785,25.10026037499576,-0.3899854683055235,-0.0001319960951033
66,1724915389286968445,-0.4880364239215851,0.14113250374794,0.1599946320056915,-0.0572850257158279,-0.0266390163451433,-0.3548415303230285,0.9327895641326904,0.0,0.0,0.0,0.2018355829003869,0.3710911098460725,0.182708587723946,0.239730758,0.0189709609507213,-0.0189048603162085,0.2094011342469195,14.034503160302188,4.65417044069455,-1.8843125170777189,-0.0884409962507367,-0.0904747878133816,-0.7230025651241292,0.0059214318042819,0.0175389922251829,-0.0106617027487656,-18.266787928102772,-18.395480031440513,4.154995253674933,-6.386800209207984e-05
68,1724915389298135291,-0.4879288077354431,0.1413719058036804,0.159848541021347,-0.0557295456528663,-0.0270077437162399,-0.3534122705459595,0.9334155321121216,0.0,0.0,0.0,-0.3286497187156441,-0.3379720994864571,0.1168253649643398,0.250897604,0.2965399578252865,0.0255764018436119,0.2673555316303245,6.5917123085489795,3.751488390945988,-2.4033004339409914,-0.0853963394656863,-0.0899310775432581,-0.7200410002791994,0.0082578323833857,0.0205621913088851,-0.0070358084054138,-37.39591932103466,-47.13177323441337,-11.69397715946116,-0.0001166802381628
70,1724915389308288119,-0.4878576993942261,0.1415725797414779,0.1598329246044159,-0.0547194741666317,-0.0270168874412775,-0.3525835573673248,0.9337884187698364,0.0,0.0,0.0,-0.6150047134357055,-0.665425649950197,-0.0553861000914356,0.261050432,0.1948640114023486,0.0615244896805818,0.1728635894325647,-12.784223906538427,-14.343399525084823,15.962580933773282,-0.0835702123129007,-0.0891605719058056,-0.7183381714449991,-4.396776958515147e-05,0.0115119581100842,-0.0077685843356398,16.82700978142762,25.846728940695773,21.013784662020257,7.986420500312289e-06
72,1724915389316526420,-0.4879051744937897,0.141612246632576,0.1597272753715515,-0.0547547079622745,-0.0276910159736871,-0.3507146835327148,0.9344701170921326,0.0,0.0,0.0,-0.1753524910006622,-0.064111265032438,0.3715916999112646,0.269288733,0.0710289787972462,-0.1761923241223969,0.4732898958423983,-10.6603340721908,-7.480191535835295,13.75935317753946,-0.0833454886244739,-0.0902820097770651,-0.7143154216661508,-0.0037556948428125,0.0075405757022339,-0.0081126442136687,37.95352198475111,54.14295012265187,32.93831237374576,-9.939040031077824e-05
74,1724915389327376101,-0.4879172444343567,0.1417330056428909,0.1597065776586532,-0.0546175763010978,-0.0273926556110382,-0.3492145836353302,0.935048520565033,0.0,0.0,0.0,0.0161928029684128,0.2540190412169804,0.459045147808086,0.280138414,0.0178282997952367,0.048071824081069,0.2981087530989319,-4.49992982862863,11.833578008088992,-6.44973013268233,-0.0834386396994825,-0.0894928422776271,-0.7111227901892329,-0.0017260349171159,0.0128170289183344,0.0018253634178542,-4.129028727394659,2.812427830125886,-30.45835186614211,-5.740599437840185e-06
76,1724915389336657435,-0.4879381358623504,0.1418653577566146,0.1597531586885452,-0.0546053573489189,-0.0268983822315931,-0.34787118434906,0.9355642199516296,0.0,0.0,0.0,-0.1950843793878015,0.0696471551879051,-0.1294766376102806,0.289419748,-0.0207333632545542,0.0877438073401077,0.3152336864922482,-3.356147919110332,-0.2131826723739027,-0.8712051937417797,-0.0838850749174467,-0.0884368220260464,-0.7082640067630563,-0.0029324643676993,0.0133302390584568,0.0024580521388424,-0.7100541020777706,-10.642843432530988,-40.40255226377095,6.2493400055348e-05
78,1724915389351081900,-0.4879957139492035,0.1420367956161499,0.1597312092781067,-0.055037897080183,-0.0267820619046688,-0.3462429344654083,0.936146080493927,0.0,0.0,0.0,0.2890624073413752,0.122864026248149,-0.1965085488403979,0.303844213,-0.0512411650055399,-0.0159316871921905,0.2417741219934975,-14.369267425365637,-10.91962867517574,22.92419149287795,-0.0849339374470062,-0.0883717899647005,-0.7047559266634158,-0.0072058351906392,0.0146566057741175,-0.0038402935792944,52.00118419490706,-7.9624419664178365,22.562195733602987,-2.465489465910312e-07
80,1724915389357858938,-0.4880547821521759,0.1421449482440948,0.15969780087471,-0.0557966269552707,-0.0267941504716873,-0.3446976840496063,0.9366709589958192,0.0,0.0,0.0,0.7001804660352109,0.0318023514143536,0.0430321122139412,0.310621251,-0.1876404460290944,-0.1018177935162839,0.4863394934612306,2.1505301204639293,-1.0864827000821764,5.223765591095733,-0.0865024654854576,-0.0887771097541177,-0.7013998967721469,-0.0033831560694324,0.0155876836079649,-0.0044074380521923,18.158422415172662,-18.113695197639338,22.30070746535861,-1.9157075434263938e-05
82,1724915389365885833,-0.4880312383174896,0.1422665417194366,0.1596673876047134,-0.0556666851043701,-0.0268002804368734,-0.3438101410865783,0.9370046257972716,0.0,0.0,0.0,0.4418306137691193,-0.1580588647494175,0.0980133332795875,0.318648146,0.0414168080307926,-0.0003818887458354,0.2348420352198376,18.572385846805556,9.25179117701446,-20.523813818710963,-0.0863370492914857,-0.0886174559397158,-0.6995141679106872,0.00353121893394,0.0148391360503055,-0.0028572803379161,-40.79327153853956,-10.11063370771151,-10.024356572004264,-1.5536965470952285e-05
84,1724915389376509751,-0.4879853129386902,0.1424198448657989,0.1596501320600509,-0.0551079101860523,-0.0266800764948129,-0.3429707288742065,0.9373486042022704,0.0,0.0,0.0,-0.1125888114956554,-0.0750498552075074,-0.245752740180178,0.329272064,0.0986250024165781,0.0503082865796925,0.168772466123228,-0.5111713143809813,-0.3149483525696986,-4.723688424110236,-0.0854433054149192,-0.0879311335981256,-0.697766745410766,0.0023255361274934,0.0122487117397014,-0.0031533134706371,-19.62294396549757,3.826462569745811,-7.858294494232929,9.562341189534505e-07
86,1724915389388055874,-0.4879835247993469,0.1425338983535766,0.1595945358276367,-0.0550609454512596,-0.0267676766961812,-0.3422425985336303,0.9376149773597716,0.0,0.0,0.0,0.0694554286234802,-0.0808987568966355,-0.0290571171865896,0.340818187,0.0187374540773212,-0.0171526463646877,0.1329952344438055,-5.614186066581575,6.9594882674619,12.139517109915417,-0.0853633843494115,-0.0879974761883429,-0.696213880338143,0.0010368500237731,0.013500087580418,-0.0087249456857385,3.8354690133009064,-33.295479564020745,52.03964609865406,-4.133588334460959e-05
88,1724915389395676766,-0.4879711866378784,0.142655000090599,0.1595083773136139,-0.0550234131515026,-0.0263231825083494,-0.3411856293678283,0.9380148649215698,0.0,0.0,0.0,0.0386700100415635,-0.4995710626086949,0.534891533134968,0.348439079,-0.0174843583546136,0.1002811479405288,0.302158407834305,-0.5375880483103468,6.643939054411165,10.136883342162394,-0.0856922060776387,-0.0870393264385372,-0.6939762665650497,0.0024769472297272,0.0119314753506198,-0.0066652564831004,-17.44144635561146,-48.869743238342586,45.13929326365445,-7.098740770303858e-05
90,1724915389405959246,-0.4879338145256042,0.1427227556705474,0.1595042198896408,-0.0548022426664829,-0.0260911490768194,-0.340040922164917,0.9384498596191406,0.0,0.0,0.0,-0.3266033838010903,-0.9178922569583966,0.5986279912549762,0.358721559,0.0354704234471573,0.0469878368864259,0.2390691102343757,-11.533026713307748,-14.80117854715664,3.4661019348426763,-0.0855367559984359,-0.0863477411355494,-0.6915592804391761,0.0007894066174429,0.0027193999853283,0.0025060317188536,-5.924993236685221,7.168898478767126,-7.131261077647519,3.607424931836961e-06
92,1724915389416185153,-0.4879546761512756,0.1427112072706222,0.1595594435930252,-0.0564129948616027,-0.0265185572206974,-0.3382311165332794,0.9389963150024414,0.0,0.0,0.0,-0.086181824875208,-0.3579478645512156,0.3901449368592686,0.368947466,-0.2521257083502047,-0.2021818764760391,0.3721591608916575,-7.618387876559968,-2.372710382110574,7.880530113319594,-0.0884621730443681,-0.0880767474272238,-0.6875732294230879,-0.0042028273705589,-0.0068905328055723,0.005644733080091,33.86230501408133,68.6102153157607,-13.871006165042113,5.3606741094787976e-05
94,1724915389426157207,-0.4880176186561584,0.1425864696502685,0.1596181094646453,-0.0570885427296161,-0.0262447521090507,-0.3363674879074096,0.9396324753761292,0.0,0.0,0.0,0.3521559568768794,0.4609483513571426,0.3151944356752552,0.37891952,-0.128687211892728,-0.0119638613326235,0.400814188703966,16.542055546414087,17.04116555789417,1.0606057626701073,-0.090097470958403,-0.0878392158701584,-0.6835661638305964,-0.0011528614941731,-0.0048021417750163,0.0103444427414487,-24.38455124579122,61.95510436703624,11.367839241464871,4.330494973530448e-05
96,1724915389436633581,-0.4879729151725769,0.1426209807395935,0.1597755849361419,-0.0564431063830852,-0.0255771707743406,-0.3344680368900299,0.940367579460144,0.0,0.0,0.0,-0.6554822549630737,0.8880841161266522,0.6421280660796731,0.389395894,0.0904391037325819,0.1441797779319665,0.3919720514067122,16.060915315393046,11.046763275175708,-2.166438575641473,-0.0894945075897967,-0.0859665609213452,-0.6795966728641897,0.0030460940740018,0.0027952486824749,0.0119285403740085,627.2344497071844,-799.1569721301099,-4564.230617218601,0.000160057481243
98,1724915389475281627,-0.488029271364212,0.1426578760147094,0.159794196486473,-0.0560219250619411,-0.0251850374042987,-0.3323056697845459,0.9411696195602416,0.0,0.0,0.0,126.72716683952746,-149.75074518880967,-830.9520188360975,0.42804394,0.0189135589637941,0.0211179834397638,0.1196975028242654,8428.997332139023,5569.891495308529,32042.675464571625,-0.0891515403850568,-0.0847409756861429,-0.6750452642730457,-0.1728870408840066,0.0603422390498167,0.1067387675466875,32187.49538787355,5022.437420241535,105508.56914407387,2.3552736976792463e-05
100,1724915389475599829,-0.4880847334861755,0.1426772326231002,0.1598284393548965,-0.0555601567029953,-0.0249655358493328,-0.3307531177997589,0.9417495727539062,0.0,0.0,0.0,137.04498404103597,-148.12922601258956,-797.0461914876577,0.428362142,2.7231250189262597,1.808069281234072,10.399706737261775,25242.465317726583,-2753.430460675327,18155.492982884683,-0.0885592756795596,-0.0838742620242498,-0.6717886215832395,-0.1322182692671276,0.0122950252987266,-0.1598552325964988,16676.27160729305,23231.44944392782,206849.66453767545,3.690361471329608e-05
102,1724915389475901192,-0.4881125688552856,0.1426670849323272,0.1597039252519607,-0.0535306520760059,-0.0258195362985134,-0.3290040194988251,0.9424564242362976,0.0,0.0,0.0,137.57556502763603,-135.95196119837476,-706.0835761392501,0.428663505,15.109276069070251,-1.4104108656120764,11.832174752235517,38344.60402912876,-9996.53044038948,4302.652019874589,-0.0843078297090456,-0.0839898886166288,-0.6681866821505881,-0.0882816162854869,-0.0315274358866304,-0.388419796569043,-122.83606625952052,39807.94484230801,293387.2052694814,-0.0001244565847486
104,1724915389480449421,-0.4882338047027588,0.1426709443330764,0.1596362143754959,-0.0528109334409236,-0.0259732399135828,-0.3279830515384674,0.9428486227989196,0.0,0.0,0.0,7.732341575358754,3.9623742592448954,48.26601586943997,0.433211734,0.3413320316798994,0.020845330680128,0.4680688068074156,-1851.5755619534489,180.56085225037344,-1429.126285428556,-0.0829330225888565,-0.0837176059694616,-0.6660657497371862,-0.0266322854372162,-0.0003535626735118,-0.0062313320176805,-16673.427614857505,17057.375445402435,90124.52567506416,-6.505375962632182e-05
106,1724915389486343328,-0.4883905947208404,0.1426596790552139,0.1596655994653701,-0.0525298453867435,-0.0258545875549316,-0.3273936808109283,0.9430723786354064,0.0,0.0,0.0,0.1561150195458718,-0.1781270531220078,1.0376047104910158,0.439105641,0.0859301458263319,0.0606557845131145,0.2131152986214549,-38.84695343173258,4.6861854281846504,-33.16214299316411,-0.0825288352755227,-0.0832575279465713,-0.6648392137460627,-0.0255272565052351,0.0009143261042892,0.0050871517175297,-848.4222141028869,-490.72897153889295,-5347.428045337443,3.0129783146752244e-05
108,1724915389497960609,-0.4886625409126282,0.1427350044250488,0.1597270220518112,-0.0538485534489154,-0.0249660350382328,-0.3271300792694092,0.9431135058403016,0.0,0.0,0.0,0.3066322503176488,-1.0297163608052764,-0.0454801943441344,0.450722922,-0.2626376883032814,0.0677351314436237,0.0590207466166245,6.754270187542711,-14.999805408650062,19.52480309582811,-0.085631226877972,-0.0824158409247367,-0.6642200386336956,-0.0244319857503896,-0.0101597331006892,-0.0030726481472829,28.080176885248108,10.471882222084876,34.13021752639272,7.309649276466174e-05
110,1724915389506314752,-0.4888727962970733,0.1425501406192779,0.1596511304378509,-0.054041389375925,-0.0254879258573055,-0.3254428505897522,0.9436720609664916,0.0,0.0,0.0,0.6320757812568584,-0.4389447266444513,1.0047777814635697,0.459077065,0.0146180915839903,-0.1513487688721564,0.4191165080074427,18.423911036967528,-5.953866007713953,20.5088291319298,-0.0858079436931781,-0.0833758193072641,-0.6606108715350935,-0.0205946103168166,-0.0192215672513826,0.0004938076370155,8.616299816651306,54.6007727257075,69.83041463542101,-9.455315664556264e-05
112,1724915389516111391,-0.4890220165252685,0.1423952281475067,0.1597660034894943,-0.0539314560592174,-0.0253258887678384,-0.3237791061401367,0.9442548155784608,0.0,0.0,0.0,0.3679383996594353,-0.0891758357407529,1.0468441581360295,0.468873704,0.025499653773554,0.023197553947575,0.3604577474016406,-3.4494223563821564,7.191748929862462,-0.6982542517203143,-0.0858495895374789,-0.0828466803076772,-0.657099929061188,-0.0124179445717942,-0.0161030481631545,0.0169759340140247,-37.52921155111824,12.961926124355324,-49.1272956593281,9.766464465616788e-05
114,1724915389527533708,-0.4891263842582702,0.1422074288129806,0.1600298285484314,-0.0544618070125579,-0.0252525452524423,-0.3214970529079437,0.9450058341026306,0.0,0.0,0.0,-0.2014632354594581,-0.2439801652406952,-0.2257550596244938,0.480296021,-0.074631966638257,-0.0361600596481502,0.4229248745565396,1.091883983052563,0.3017860969927058,14.549015521317967,-0.0871046528076222,-0.0828409445896399,-0.6522348918666631,-0.0144306558800053,-0.0225486481737142,0.0204687824576019,-225.5207168866412,-175.58004611745028,163.01939306317476,0.0002408697558846
116,1724915389536224902,-0.4892868101596832,0.1419710665941238,0.1601903438568115,-0.0545243360102176,-0.0250966977328062,-0.3189939260482788,0.9458542466163636,0.0,0.0,0.0,-3.323234958723188,-2.841481804941685,3.0059279254312496,0.488987215,5.0998063381572555e-05,0.0028243967985111,0.6094210674801609,6.405229438629114,3.3462587627654914,13.5203111160991,-0.0875408448323322,-0.0823545605687359,-0.6469425482900683,-0.0163486227398661,-0.0225508298253147,0.0149915336315777,-1445.1765410848975,-5046.338702266217,-1277.1900413615606,0.0001332306168658
118,1724915389567419289,-0.4895605742931366,0.1417876482009887,0.1602686792612075,-0.0553462840616703,-0.0250513162463903,-0.3168919086456299,0.9465140104293824,0.0,0.0,0.0,-169.99488088442197,-691.7989234863483,-221.46448093646657,0.520181602,-0.0450845592365388,-0.0203450303073669,0.1424464800638538,4448.963890817664,20329.831103367185,27224.192751400373,-0.089317734913495,-0.0825942979858818,-0.6424449830517648,-0.4673854888178539,-0.4293010595059172,0.5158711624457055,118958.19811151724,156142.42625165614,-96939.56768483878,5.9007577851734974e-05
120,1724915389567735599,-0.4897098839282989,0.1416504979133606,0.1604335010051727,-0.0548506453633308,-0.0240735337138175,-0.3156191706657409,0.946993350982666,0.0,0.0,0.0,-131.96853300313728,-641.8378678862888,-252.41527708590763,0.520497912,1.3764413338767805,6.4753915675621,8.841097027688857,10198.703541982954,4242.043427604103,16681.786500311446,-0.0890948273750695,-0.0803050685765483,-0.6398333671158198,-0.5216554313683446,-0.6503010121626573,0.4450579135254884,132287.70438353473,210407.86236134253,-79412.60507639154,0.0001489448318091
122,1724915389568045501,-0.489886611700058,0.1413831710815429,0.1605483442544937,-0.053831610828638,-0.0238717757165431,-0.3140454292297363,0.9475799798965454,0.0,0.0,0.0,-87.3078437111131,-560.7044895825715,-271.42750184107547,0.520807814,6.269096224176278,2.8427813578601637,10.726028237833605,15171.945108231102,-11299.734765026107,5809.10195795605,-0.0874103403584051,-0.0791345440341527,-0.6365896651791095,-0.5505281847600334,-0.8319487634378122,0.3581677802876266,139333.02086634678,254928.27922185507,-57916.9733922472,8.478595161506008e-05
124,1724915389576083466,-0.4901959598064422,0.1410898268222808,0.1608397215604782,-0.0544841885566711,-0.0235320776700973,-0.3123373687267303,0.9481156468391418,0.0,0.0,0.0,36.254558327964,55.07630651703872,-21.415935607396577,0.528845779,-0.1630860441889079,0.0094032975159578,0.4530033097205852,-436.16688473625334,-190.8503016011527,-718.8124912505173,-0.0890076132174411,-0.0787384928804659,-0.6329580302011144,-0.0307024576240557,-0.0348283509989535,0.0427471403574308,6961.417071502819,40142.538741882534,18251.11298177734,0.000257980977806
126,1724915389586141983,-0.4904068112373352,0.1407604813575744,0.1613514721393585,-0.0541665665805339,-0.0229174718260765,-0.311117559671402,0.9485498070716858,0.0,0.0,0.0,0.4077978785369349,-0.1526990271586967,0.3860987612150683,0.538904296,0.0321195465766025,0.124407805916363,0.2620936091936561,2.9564672085830557,2.531067496838463,-6.329902659521544,-0.0888810699739637,-0.0772578999868878,-0.6304356056882688,-0.0237166631549818,-0.0358419835254348,0.0517029203687808,-1751.045828842401,-2697.3701903166925,1050.60538656467,0.0004717307590051
128,1724915389595762124,-0.4906603097915649,0.140387162566185,0.1618564575910568,-0.0545157380402088,-0.0223938208073377,-0.3096955120563507,0.9490074515342712,0.0,0.0,0.0,0.2416055926424205,-0.4000685666734191,0.2164861343732012,0.548524437,-0.0907980002315773,0.0668464875125892,0.3175900902411614,0.3093699074244069,4.211686335184902,-1.5961621929731624,-0.0899842940149427,-0.0763445049480747,-0.6274410447898718,-0.0224316404169364,-0.0377887292354568,0.0507775304142601,-24.57876114634363,-26.12855071838092,31.918564614984593,0.0004598861952893
130,1724915389606550092,-0.4908548891544342,0.1399918049573898,0.162383496761322,-0.0537848807871341,-0.0212439093738794,-0.3086742758750915,0.949408233165741,0.0,0.0,0.0,-0.1119015300458206,-0.6869610672994189,1.1602514256122216,0.559312405,0.0708539097351893,0.2356179250978014,0.2112728926313023,21.661015595593096,3.517807582731674,-11.24270964233801,-0.0893733449720831,-0.073608756946166,-0.6253928974436276,-0.0185183158053803,-0.044496430225263,0.0568956308252399,-25.976619910589616,-2.433028133546994,46.751262619562105,0.0004793403854465
132,1724915389617066091,-0.4910545647144317,0.139443427324295,0.1630642414093017,-0.0517204031348228,-0.0210770238190889,-0.3082810640335083,0.949654459953308,0.0,0.0,0.0,-0.3154473335285108,-0.4648779945848016,1.2343498291896795,0.569828404,0.3670817081012061,0.1483027207664982,0.0788210000115156,2.495222740838173,-10.553515775910885,3.8319122709776057,-0.0855634013178507,-0.0719827684093345,-0.6247016674908041,-0.0245606608763679,-0.0523887155159794,0.0751769299442699,34.60802664390881,38.193222807929104,-54.64877406146496,0.0006171286585438
134,1724915389626117260,-0.4913202822208404,0.138967365026474,0.1638260334730148,-0.0508791133761405,-0.0211335867643356,-0.3072330951690674,0.9500381350517272,0.0,0.0,0.0,0.418194814700213,0.0138332485269172,0.2590866365683819,0.578879573,0.1896558890617836,0.0352493265327377,0.2414783617407227,-17.72079166229678,-5.5195477784584615,11.344604081031775,-0.0840013281977971,-0.0714797754260939,-0.6225452677569554,-0.0253970390713504,-0.0543712792090023,0.0824222827397669,66.51565879035061,49.44417226775235,-92.76909624372172,0.0007073252265271
136,1724915389635810539,-0.4915253520011902,0.1384219080209732,0.1646068841218948,-0.0506551563739776,-0.0208704266697168,-0.3059408366680145,0.9504729509353638,0.0,0.0,0.0,0.9120180068957288,0.4573443008367075,-0.4846345136579129,0.588572852,0.0374175356073298,0.0541115923492901,0.2826579166155947,-3.244053671012783,2.5149309217959805,-3.1948195042309955,-0.0838299727922671,-0.0707274666926679,-0.619852301725217,-0.0160428474970615,-0.0518197510594014,0.0793134250823124,-5.163013686449446,-14.691578626483356,-34.39697670377842,0.0007184537412417
138,1724915389646432831,-0.4916362464427948,0.1379232853651046,0.1654349118471145,-0.0497837923467159,-0.0206258576363325,-0.3051294982433319,0.9507850408554076,0.0,0.0,0.0,0.2040595611626863,-0.4023268960732546,-0.3572913698822249,0.599195144,0.1480144259700072,0.0874495006213651,0.1620816339008343,9.178441361855189,4.285841508582042,-9.706299071544402,-0.0823729220743377,-0.0696588421804126,-0.6182095729163618,-0.006972067424634,-0.0447021089618937,0.0722575097734479,-74.63502857882577,-68.29598237621764,22.277619340491984,0.0007707196318121
140,1724915389657855777,-0.4916732907295227,0.1374401599168777,0.166190356016159,-0.0482390038669109,-0.0202025137841701,-0.3047560751438141,0.950993537902832,0.0,0.0,0.0,-0.7466000502660377,-1.0272620543771116,0.0235782407669802,0.61061809,0.2377090859209694,0.1505005009886242,0.0714135865759844,13.965087003411393,-4.628692368121745,19.212062893130707,-0.0797040043340888,-0.0678792938390659,-0.6175341007915434,-0.0126241812935319,-0.0624710934570398,0.071946920865054,-12.531699114173524,71.14927207816014,0.1852579120312292,0.0007013701184033
142,1724915389665988906,-0.4918302893638611,0.1368152350187301,0.1668091714382171,-0.0467080473899841,-0.0203970167785882,-0.3032457232475281,0.9515485167503356,0.0,0.0,0.0,-0.439160137835539,0.2802205232514265,-0.1669214024530609,0.618751219,0.3866876370274954,0.0540877424128214,0.3848841617174256,3.2437081183274614,-1.8374303411699635,14.418118275992502,-0.0767677904720843,-0.067196090513887,-0.6144407552233471,-0.0201544745786712,-0.0677667374959432,0.0724326730378042,55.28548002599812,109.30232173348716,5.703971829333954,0.0005539670383416
144,1724915389675983866,-0.4920421838760376,0.1362493187189102,0.1674882620573043,-0.0453785397112369,-0.0199422631412744,-0.3021519482135772,0.9519702196121216,0.0,0.0,0.0,0.3281786462748554,0.740637035586996,0.2478521865525653,0.628746179,0.2339570401573798,0.1587602253346238,0.2326737204639414,-8.411638176149905,3.773827621539066,-9.999756122147282,-0.0745754214343129,-0.0654380019692177,-0.6122368332864377,-0.01856549478358,-0.0535262870730717,0.0679804009074906,35.01809037771797,-21.26310175842203,19.551044370009247,0.000622274410651
146,1724915389686950566,-0.4922140836715698,0.1356995403766632,0.1682342290878296,-0.0440295673906803,-0.0196436922997236,-0.3011861741542816,0.9523457884788512,0.0,0.0,0.0,0.2097833923751639,-0.3027007910240318,0.1981734653533076,0.639712879,0.2243647044152361,0.1195417839476638,0.1859290681603632,4.609114366268525,5.17798079724348,-14.46009391823198,-0.0722404275924764,-0.0639810120248844,-0.6102954316162171,-0.0129304822050855,-0.0536359742801195,0.079040988798555,-24.54923705572342,-92.4050360865812,-83.0144449336203,0.0006917602163206
148,1724915389695845616,-0.4923093020915985,0.1351971626281738,0.169016808271408,-0.0424301102757453,-0.0190863832831382,-0.3012728095054626,0.9524023532867432,0.0,0.0,0.0,-0.107810175304527,-1.1049385227193156,-1.106489501430826,0.648607929,0.3049271589421026,0.2287588990982567,-0.0162677988901642,-5.12277141978705,4.255628265142288,-5.980268270252468,-0.069509900166282,-0.0619615496374454,-0.6105844776930421,-0.0132580618374547,-0.0584402604390374,0.0749570131494161,2.1611962740407886,-76.82667740875327,-81.71612760371781,0.0007338383555948
150,1724915389706168927,-0.4924767613410949,0.1345703601837158,0.1696345955133438,-0.0417637042701244,-0.0183192398399114,-0.3007000088691711,0.9526277780532836,0.0,0.0,0.0,0.3681661833680221,-1.737948703275202,-1.1718293213040702,0.65893124,0.0821567184705393,0.1765708268508525,0.1226896539615654,-12.11307731647791,-4.6231607308577,5.694444554197995,-0.0687312508403572,-0.0600556196762326,-0.6094446116514296,-0.015221460303735,-0.0766140673702446,0.0557784134881611,46.34916309552642,-11.951211182500757,19.032060516220913,0.0005600756672752
152,1724915389717064449,-0.4926311075687408,0.1335528045892715,0.1701955795288086,-0.0412519611418247,-0.0177135020494461,-0.3002285957336426,0.9528102278709412,0.0,0.0,0.0,0.8759498552982792,-1.3004664518165416,-0.672822844555347,0.669826762,0.0590354589349815,0.1311691522112429,0.0954276478857923,16.013867321860666,13.024001134716658,-12.406845359257064,-0.0681438205936291,-0.0585587103393336,-0.6085034181702967,-0.0047892996350888,-0.0952910238057169,0.0508989539955706,19.52346405709192,91.72395112603778,-20.950691885018703,0.0004692959642187
154,1724915389727191241,-0.4925913512706756,0.1325699388980865,0.1707054823637008,-0.0387041009962558,-0.0162852182984352,-0.3008763790130615,0.9527382850646972,0.0,0.0,0.0,0.8187622286624389,0.1138090350241691,-1.5132563638599883,0.679953554,0.3919056081555565,0.4248673837716806,-0.1234400473279112,-3.827020407296972,-2.61258816358394,0.1369647508804052,-0.064088507497955,-0.0543481523633337,-0.6100374536899864,0.0033139485490245,-0.1045665203141812,0.0419678187876684,-4.22401937825849,150.80749850317335,-52.70695273699896,0.0004256790808682
156,1724915389735669190,-0.4925675988197326,0.1316301226615905,0.1710017770528793,-0.0380790382623672,-0.0156859997659921,-0.3007690906524658,0.9528074264526368,0.0,0.0,0.0,0.7930520569225433,1.4714900984930337,-1.7451594154555956,0.688431503,0.0989988886460373,0.1783305212284404,0.0320911745639221,-15.6456038455507,-23.29623135937596,20.69625361201249,-0.0632586061589114,-0.0528220298449688,-0.6098619162006119,0.0103872674171405,-0.096292963020609,0.0246576346811302,14.62459555176487,23.13774225273288,26.176114437594507,0.0002180590399089
158,1724915389748848274,-0.4922752976417541,0.1306593865156173,0.171115905046463,-0.0363770574331283,-0.016216529533267,-0.2985198497772217,0.9535720944404602,0.0,0.0,0.0,1.347534729492419,-1.0304031258960582,-0.3035141876198821,0.701610587,0.2800841610623691,-0.0102046277825141,0.3530112670904231,12.017426882949982,-12.695956178044796,21.344237073598727,-0.0598129359697343,-0.0526701565714667,-0.6052036060936099,0.0199935167985185,-0.0667467102850701,0.0077351030790525,-165.1070556143406,-2301.8936785789265,1226.3221801409804,3.432954345786701e-05
160,1724915389855534274,-0.4920298755168915,0.1295066922903061,0.1711425483226776,-0.0322257727384567,-0.0160361789166927,-0.2967904806137085,0.9542641043663024,0.0,0.0,0.0,-195.19471762382204,-2070.6527866154174,1095.1492619460682,0.808296587,0.0741977139058607,0.0254865837435421,0.0336482400371894,41612.98521231444,11804.11865865229,-5852.3129913067,-0.0520729675666959,-0.0497546305646688,-0.6017670217487313,0.6980294921233963,-3.0027521460068556,0.8221736067486063,-3648421.1882742033,-530928.2857478494,-4728086.68312202,-5.810975148688305e-05
162,1724915389855954620,-0.4917353093624115,0.1282395422458648,0.1714895069599151,-0.0283681228756904,-0.0161484014242887,-0.2972512543201446,0.954241156578064,0.0,0.0,0.0,-1734.833345821912,-2294.6735498635826,-900.1306108114122,0.808716933,17.63497120662879,5.006849785739988,-2.4360356173779727,27310.569661461857,-587.2784211710186,-16509.78107160061,-0.0446053082081848,-0.0477019474319467,-0.6028927130229946,0.6156463708853153,-3.8765265489990384,1.284316334788116,-3561724.6356507936,3545860.6322063594,-4234053.374449864,0.0002613403152851
164,1724915389856192240,-0.4916004538536072,0.1272026151418686,0.1718563288450241,-0.025725407525897,-0.0165955424308776,-0.2981011867523193,0.9540432095527648,0.0,0.0,0.0,-2567.594838312593,-904.217956980454,-1837.3572501849203,0.808954553,22.181302426780768,3.1965706666367177,-7.787565760350428,-7640.64778204792,-13017.509003832443,15542.565693583136,-0.0392454379687158,-0.0470206028402077,-0.604775491568309,-0.0032910723317627,-4.450797298174251,0.8018343989157302,1228305.6375356333,4708683.038599267,2168954.8859918397,0.0003027737774673
166,1724915389856440939,-0.4917498528957367,0.1260730624198913,0.1718626320362091,-0.0242120511829853,-0.0172414053231477,-0.2973585128784179,0.9543032050132751,0.0,0.0,0.0,-1030.1685873045965,-30.66650624914473,293.2869952771125,0.809203252,13.312103403845905,-1.446235065195054,5.985692472626202,-34147.53470409071,23525.847488453004,15785.331543233357,-0.0360056001075321,-0.0473240380132463,-0.6032728270995245,-0.6321816167584302,-4.281968678353934,0.3951534981372901,6702369.001885675,-1467965.0935636188,5831461.435261715,-5.472314027913112e-05
168,1724915389856688821,-0.4919143319129944,0.1250758469104766,0.1720519512891769,-0.0230487994849681,-0.0156817603856325,-0.2973775267601013,0.9543529152870178,0.0,0.0,0.0,759.8251735696084,-1625.056843169119,1062.8984906403211,0.809451134,5.221814299289973,14.810227427838738,0.1157233996876632,10648.913310962984,28785.94418107019,-32941.90209637649,-0.0347065969162301,-0.0436541212796535,-0.6033739582029358,-0.5172978332793718,-4.464868261398038,0.9443291220614468,3791581.684397303,-1711348.9216969798,-64267.816937758704,0.0001385216954382
170,1724915389856936532,-0.4920062720775604,0.1238604560494422,0.1723305732011795,-0.0203603915870189,-0.0148785207420587,-0.2985985279083252,0.9540456533432008,0.0,0.0,0.0,850.0852631173141,-880.4129765663492,262.5197451443116,0.809698845,18.57483139559842,12.832457093880263,-10.336917305146107,18563.75691563016,-10318.985130335195,12143.891350098796,-0.0299932380510174,-0.0405598619349759,-0.6060383973947828,-0.2557189009023659,-5.08703215414036,0.9223125939792568,-51829.65557975951,4433729.464640667,-4221140.641598382,0.0002217432232343
172,1724915389857192877,-0.4920412003993988,0.1225085258483886,0.1725132912397384,-0.0183010417968034,-0.0142239360138773,-0.2977166473865509,0.9543729424476624,0.0,0.0,0.0,726.3878224591839,634.8730432506491,-1082.1867593714414,0.80995519,13.958068164434671,9.567861089124737,7.191635071353278,-29645.37626598783,24578.15947451791,18598.797605491305,-0.0264849033871035,-0.0380561141908296,-0.6042635067312804,-0.0924246839445004,-4.879986560900932,1.0828274936700382,480534.2608978613,954777.0340637596,-8083006.217385319,0.0001244136706523
174,1724915389857439918,-0.4920535981655121,0.1213967427611351,0.1728688925504684,-0.0169434808194637,-0.0114752352237701,-0.297771543264389,0.9544178247451782,0.0,0.0,0.0,1074.3837629156355,-309.2376505923294,-3754.513774924615,0.810202231,3.864346711237561,24.523032358536888,-0.0650475487641258,20014.044805772577,11596.836918725254,-31.50121041420607,-0.0255241606851747,-0.0320003721894512,-0.6044371288199627,0.1083015907707931,-4.764288653676857,0.4087670961033609,-405761.38114482386,-1129701.121756968,-2813084.0626124507,0.000311894383079
176,1724915389857689090,-0.4919867813587188,0.1201432943344116,0.1727117151021957,-0.0135215558111667,-0.0105586312711238,-0.2968986928462982,0.9547548294067384,0.0,0.0,0.0,517.277347685975,85.82334248892948,-2443.8143574763017,0.810451403,24.14985508163536,15.112878852672994,7.301602608838341,50553.29414819413,-25509.175728165657,4930.694035812915,-0.0195588738101368,-0.0281946082232891,-0.6027022689808034,0.4418193741628329,-5.036762610674884,-0.7846026247987083,-3391492.7519681524,3583036.3114933227,7951373.945870232,-0.0001981177931345
178,1724915389857937092,-0.4918343424797058,0.1188926100730896,0.1724791675806045,-0.0096481554210186,-0.0102262739092111,-0.2965888679027557,0.9549018144607544,0.0,0.0,0.0,-609.0803543965303,1467.491572261778,192.42009852846272,0.810699405,29.070169243455272,11.81192050710712,2.4438731434133603,-23979.26794789669,-29944.90174372788,-2020.422883154701,-0.0123643423288403,-0.0252559308904872,-0.6021429073814887,0.3673955981504377,-4.724372697847798,-0.811709510183988,-3046252.6642532684,3430459.0843152283,6469094.384585102,-0.0002651921879724
180,1724915389858253411,-0.4918178915977478,0.1175267696380615,0.1722732335329055,-0.0092927739024162,-0.0110514489933848,-0.2952326238155365,0.9553162455558776,0.0,0.0,0.0,-969.3104489160748,1688.9186246435124,560.0219409497774,0.811015724,3.8060313804525103,-4.371575218033876,8.892288751864802,-77167.43428538245,-49405.57819808596,19659.7343636058,-0.0112337910663228,-0.026605456233043,-0.5993129370722475,0.0500695200753176,-4.176313010890193,-0.6291123842087977,-1096484.3442394463,670689.2867458093,1120661.088641994,-0.0002392686623451
182,1724915389867248907,-0.4918631911277771,0.1161841079592704,0.1722216159105301,-0.0052233659662306,-0.0099318148568272,-0.2951966226100921,0.9553706645965576,0.0,0.0,0.0,-2.9114732763354754,220.9648996041026,34.16321884671335,0.82001122,0.7910453312878919,0.5049846101422687,0.0035329825571807,-165.89020698180988,242.91252162373573,-501.2263252347712,-0.0041178386293201,-0.0220627589587484,-0.5993161136803347,-0.0040833478393373,-0.1623331932719356,-0.0002263467575573,53191.9354839388,-93145.64401388784,-30873.66859357854,-7.215803413942312e-05
184,1724915389876014066,-0.4918908476829529,0.1146495714783668,0.1722667068243026,-0.0018340682145208,-0.0106198349967598,-0.2961307168006897,0.9550867080688475,0.0,0.0,0.0,0.0799870015671917,2.737557355755772,-0.859329206543448,0.828776379,0.782729989892908,0.0787786971406467,-0.2312530450075841,-23.139816902258076,-14.8287377694248,-4.485980673867556,0.0027869705227464,-0.0213736016808962,-0.6013440711458358,-0.0030538348707054,-0.1493905558580328,-0.0060939095662204,197.5360119154085,-13704.41066258194,-2212.472646398039,3.0583551045469924e-05
186,1724915389886248064,-0.4919208884239197,0.1134275794029235,0.1720700562000274,3.996124360128306e-05,-0.00942840334028,-0.2961700856685638,0.9550886750221252,0.0,0.0,0.0,0.3838576753928384,-3.771714077952274,-2.1945629920055767,0.839010377,0.2807556992243151,0.330852384243981,-0.0106966844878356,-43.148099596365,20.915777990831725,18.80908235000969,0.0056621012952556,-0.0179872217735088,-0.6014391566204559,-0.0026829541047759,-0.1063072492964446,-0.0171575179125103,-257.7408528410974,-1959.098281827829,3197.687280103065,-0.0002028052486054
188,1724915389955825884,-0.4919881522655487,0.1122267618775367,0.1718497425317764,0.002670258982107,-0.0091995131224393,-0.296119213104248,0.955103039741516,0.0,0.0,0.0,-153.51606728232383,-765.9369260431213,1794.6396033185904,0.908588197,0.0702768847767812,0.0286805028018782,0.0008058187364455,65937.58341314372,35029.36307855598,19476.16344300793,0.0105505949624741,-0.0159922175799198,-0.601367002581967,0.1884614696730295,-4.144307010052046,-0.696578028304657,-2290772.2704593996,774279.1223214054,-2305136.0641569975,-0.0002194021938636
190,1724915389956138371,-0.4919289946556091,0.1109259277582168,0.1716310977935791,0.0062705976888537,-0.0085177328437566,-0.2951702177524566,0.955386221408844,0.0,0.0,0.0,-872.5644733034504,-522.8827401005683,1071.0431920185465,0.908900684,20.76745803877134,11.024068701630032,6.114187051624224,8538.100919324457,16938.587251188514,1496.8012342008406,0.0170122127451538,-0.0125739931558347,-0.5994089037432713,0.1402703886145673,-4.384645837376269,-0.1332441135477324,-1709869.3499477494,1821931.319406038,-2429782.6557680853,-0.0002107325032433
192,1724915389956437043,-0.4919010996818542,0.109553039073944,0.1717530041933059,0.0077250460162758,-0.0072694392874836,-0.2949504852294922,0.9554536938667296,0.0,0.0,0.0,-1214.491378660356,319.3413167709814,312.7410629876519,0.909199356,6.847306351016105,10.873900868329097,1.40374146853382,-24137.22872692295,-12038.774667760834,-3524.0048559060097,0.019052079313225,-0.0093343486471005,-0.5989310734428567,-0.325404981349493,-4.470524544975262,-0.0222303545228044,963004.3462039264,2775684.1488962276,-1311999.510993915,0.0001357434370165
194,1724915389956821602,-0.4922336041927337,0.1078963056206703,0.1715313494205474,0.0093432972207665,-0.0076735923066735,-0.293813943862915,0.9557862281799316,0.0,0.0,0.0,199.5190493978049,1364.8642776095894,415.6984391990204,0.909583915,8.690798528405217,0.5323066435704128,6.112727179708979,-2240.7026463059465,10700.384434581398,-16743.892292204597,0.0223724150045454,-0.0091783745522895,-0.5965765650294288,-0.6217914239349511,-4.047227760243857,0.0688482258842668,2303362.175457449,2001970.5862902177,-1521152.3821078169,-0.0001927676729727
196,1724915389957135992,-0.4923666715621948,0.1066909581422805,0.1717188358306884,0.0109057063236832,-0.0059121144004166,-0.2947775423526764,0.9554853439331056,0.0,0.0,0.0,570.6232523839645,1810.0318381761645,-522.3227951761805,0.909898305,6.178309244412404,13.558585542580168,-6.6022803226127404,5612.090487858408,8646.538214208542,-19083.26395464041,0.0243286903957377,-0.0048683819380901,-0.5985520999921728,-0.3096900366252839,-3.5502398810899933,0.2455109026328727,-150705.54285414403,756472.1106591397,-2650534.113686169,0.0002107064108451
198,1724915389957493002,-0.4924311935901642,0.1055384948849678,0.1716642528772354,0.0134232752025127,-0.0060516069643199,-0.2955666482448578,0.955208659172058,0.0,0.0,0.0,-22.81836583310971,1812.7334259847064,-1333.553166486336,0.910255315,13.696936218409808,3.3533969206975693,-4.755622861796585,9771.19611287772,-20275.507520713316,8340.600439491307,0.0292257162164351,-0.0036261577750303,-0.600217315799382,-0.2770933076976689,-2.811108268111589,-0.3805248176980313,-1177787.7524480964,-288445.4120297417,-1029639.3837968224,-2.7870241799309226e-05
200,1724915389958143329,-0.4927255511283874,0.1042043343186378,0.1711471229791641,0.0154899302870035,-0.0067091332748532,-0.2941791713237762,0.9556012749671936,0.0,0.0,0.0,-214.85062505707543,1274.4837201643736,-531.072297139252,0.910905642,6.678350906839728,0.0115632042810246,4.421448521595481,-10190.593667454355,-4832.284495689446,13253.502874111487,0.0335582978733302,-0.0037088914145305,-0.5973431449482931,-0.4271265846496952,-1.93740601737214,-0.7502262986438178,-276562.98558851844,-785679.4119984047,1164369.005740223,-0.0004761475324558
202,1724915389968521331,-0.4929345548152923,0.1029971837997436,0.1708069443702697,0.019331457093358,-0.0045785335823893,-0.2947266399860382,0.9553751349449158,0.0,0.0,0.0,15.711204102277154,73.26852716426131,26.68720004129416,0.921283644,0.5866292403841453,0.6082295031574813,-0.1249688701250035,-224.1262180150914,6.524994460551248,-171.69422890786092,0.0396469431959043,0.0026465596016079,-0.5984081989901738,-0.0312537247927195,-0.1377638131080614,-0.0655616330924449,8130.985651613762,-54131.01051417113,20564.67972873721,-0.000294368712271
204,1724915389976041689,-0.4932301640510559,0.1018442809581756,0.1701352447271347,0.0229074023663997,-0.0041912458837032,-0.2945543527603149,0.955350935459137,0.0,0.0,0.0,0.0994985197396145,1.9615168352603305,0.525307056222748,0.928804002,0.8785437687450376,0.3795434040362842,0.0355321587989314,-11.119308897589518,-44.443896637447914,14.08209917870766,0.0462555047266027,0.0054867563327364,-0.598018603825401,-0.0353567671782961,-0.1324837978799227,-0.0789538547457748,-1152.772632110531,-5465.312638714368,-1916.503476000515,-0.0006169995382334
206,1724915389986296293,-0.4935374855995178,0.1007768437266349,0.1694705188274383,0.0228188075125217,-0.0056351525709033,-0.2942004799842834,0.9554547071456908,0.0,0.0,0.0,1.186690888488472,2.080194647658651,2.717993645069723,0.939058606,0.0662679614352875,-0.272461494457137,0.078420690621063,-43.215888926025066,-20.86823113232545,-23.966502016874575,0.0469378023945825,0.0026583452779961,-0.5973454865117966,-0.025316179938855,-0.0947587855925018,-0.0413208837636318,64.75335224510575,-83.76212600352366,-19.289239894942707,-0.0006135499140459
208,1724915389996173417,-0.4937432706356048,0.0999297052621841,0.1692859679460525,0.0226400773972272,-0.0059015564620494,-0.2962190210819244,0.9548335075378418,0.0,0.0,0.0,1.4336765947434675,0.3458900836629759,0.3097337544749228,0.94893573,-0.0181413395436657,-0.0722235729419124,-0.4260948076630311,-7.253863462303507,12.202436153535515,-17.803537475810934,0.0467484484813637,0.0021428370543639,-0.6015829166172328,-0.0116204452610659,-0.089421187998524,-0.0235305507365541,-16.716171429975688,-49.75142314358359,-185.682814396024,-0.0001456052897761
210,1724915390005964268,-0.4937676191329956,0.0990187376737594,0.1690085530281067,0.0222448445856571,-0.0059049548581242,-0.2975212931632995,0.954437792301178,0.0,0.0,0.0,0.8650851714233327,1.080067126793272,-0.9439991746805316,0.958726581,-0.076622812631681,-0.0310778410402739,-0.2774553449044413,10.343425085111283,30.199698823888788,8.942950932856089,0.0459926422315623,0.0019648069620085,-0.6043106223742034,0.0028732500738648,-0.0879224127453808,-0.0349728313631825,-101.16881234158627,-204.9501651879222,-311.39022592236915,-0.0002410430566858
212,1724915390015616493,-0.4936888813972473,0.0982188135385513,0.1686078161001205,0.0238031148910522,-0.0037952889688313,-0.2986143231391907,0.9540694952011108,0.0,0.0,0.0,-0.5214927055441201,-3.5619081341864725,-5.694178890312752,0.968378806,0.1784749041078055,0.5077947085853223,-0.2504989372365282,17.790312048300258,29.104813128085183,8.357135493322918,0.0477055594074839,0.0069740197546941,-0.6064963167681164,0.0053688418868595,-0.0686765505725628,-0.0419466480836576,-80.33436481780457,-176.32923093781278,-113.8138556048314,-0.0003674416961875
214,1724915390033513681,-0.4936853349208832,0.0974608585238456,0.1678428500890731,0.0259738508611917,-0.0031637346837669,-0.2978613078594208,0.9542505145072936,0.0,0.0,0.0,0.142001999593841,3.3902406469448323,4.823408175712856,0.986275994,0.2101996026557732,0.1418514081849702,0.0837240281490703,167.27251443881903,-314.178361963623,227.5524440185777,0.0514808566877671,0.0094353594739307,-0.604873795689758,-0.0298501797055905,-0.3167953274926134,-0.3088414424600501,226.0800329492672,1983.38705889099,2080.068074091843,-0.0007278506760681
216,1724915390036136827,-0.4937751889228821,0.0965243428945541,0.1669304072856903,0.0265518706291914,-0.0044633112847805,-0.2969326376914978,0.9545187950134276,0.0,0.0,0.0,0.8077102440142951,9.206156935155844,10.853510779062036,0.98889914,0.7126092373167546,-0.795214606667541,0.7609341421391169,140.26187500252854,-268.3199797961291,187.89186180381515,0.0533658522678128,0.0072476683960978,-0.6029897287248385,-0.0286665164207278,-0.3012686973709246,-0.2886010507282157,225.15358411289972,1913.1566740966105,1972.2291761204892,-0.0008639491934486
218,1724915390046445554,-0.4938443303108215,0.095677264034748,0.1663553267717361,0.0270188525319099,-0.004367500077933,-0.2976589202880859,0.954279899597168,0.0,0.0,0.0,1.9689366558190664,16.61275211011028,17.95430084994288,0.999207867,0.0815609965388458,0.0406966523965848,-0.149157987670453,-53.69084648468764,70.92628870249429,-77.06180979034993,0.0541952987863693,0.0077492474303194,-0.6045026304382036,-0.0058985198023664,-0.0731979679363129,-0.0496102297965393,731.6429194626371,-1241.0015299846832,-1231.7708714548037,-0.0005310515240167
220,1724915390118693596,-0.4938610792160034,0.0949323326349258,0.1658980548381805,0.0276610367000103,-0.0037841224111616,-0.2988296747207641,0.953898012638092,0.0,0.0,0.0,368.25564582393827,-1065.2212891837407,-1043.518355278724,1.071455909,0.0123015307294154,0.0197806632513465,-0.0345882430123948,13378.17726721,-2485.1146893923933,-552.8654223367112,0.0550634395090705,0.0093126781117627,-0.6069198868086431,0.0149938120628121,-1.6635780824313144,-1.4001534383326657,-902109.6100678028,-1296542.149325336,-1169203.807257196,-0.0004185347984062
222,1724915390119185123,-0.4938536584377289,0.0941091105341911,0.165205180644989,0.0291273612529039,-0.0045528137125074,-0.2989035546779632,0.9538277983665466,0.0,0.0,0.0,-78.18920941381432,-1706.7923502401643,-1622.0743037287884,1.071947436,6.632776946818633,-1.2100296061686977,-0.308190620567293,6405.754920424832,29925.322146772935,-26847.25471871519,0.0583219555819235,0.0087274538665681,-0.607104772654668,0.1972318915870801,-2.190651615639439,-1.9164979194446232,-674831.724452432,1820227.6482257429,542928.3457997842,-0.0006483617143913
224,1724915390119473611,-0.4937659204006195,0.0933897942304611,0.1645664721727371,0.0306945014744997,-0.0030376284848898,-0.3005638122558594,0.9532628059387208,0.0,0.0,0.0,-233.3423688741848,-652.4709277435295,-1174.2179368319685,1.072235924,7.284778235837456,12.913662579891826,-12.50482737771222,-23069.9092562368,-1953.487615049856,-31545.510543460565,0.0603873872847548,0.0126603344567354,-0.6104851305898931,0.0986593483387423,-2.7904697935454976,-2.4812274183905743,348669.005060223,3890746.4028293537,2963426.1770194573,-0.000598839353361
226,1724915390119702850,-0.4937807321548462,0.0926959961652755,0.1639489978551864,0.0305245630443096,-0.002536118030548,-0.3024956881999969,0.9526585340499878,0.0,0.0,0.0,8.066684508434292,282.44762249802807,-237.8595763959529,1.072465163,-2.6178126397374357,3.1919559758065983,-17.781312510648938,-24170.09998805477,-22165.126357284593,803.9015563406938,0.0597343677807297,0.0136354109619447,-0.6145104623665542,0.0649040288171818,-2.6801546925828745,-2.60771354783634,318577.6870180366,2768814.399008248,4671128.820314633,-0.0005766845435027
228,1724915390119937152,-0.4937345087528229,0.09215097874403,0.1633585691452026,0.0302132852375507,-0.0020439440850168,-0.3038130402565002,0.9522502422332764,0.0,0.0,0.0,-93.18834464350267,617.5812003828232,997.0461749649066,1.072699465,-3.7242531983530394,2.846466892575505,-11.888307828612726,9790.34569480772,-23882.27500753778,34589.8044183685,0.0588232386823147,0.0144661921412933,-0.6172516698124006,0.1039886864124355,-2.661578768070342,-2.588271373190707,-403404.2663200104,3384628.9767157827,5081518.959073642,-0.0005596902811708
230,1724915390120185031,-0.4937331974506378,0.0914032608270645,0.1626990735530853,0.0301725286990404,-0.0031915111467242,-0.3039447665214538,0.9522064328193665,0.0,0.0,0.0,-185.6438416191273,1969.0554436653192,2207.0700120749575,1.072947344,2.508399658260433,-8.94971181563318,-0.8390477926083157,19557.384598559336,12576.332044132168,1491.194440760155,0.0594405014837182,0.0122639169136148,-0.6175905225639455,0.0127057449059293,-2.367328292609102,-2.101417115647166,137067.48418506767,4183619.616170322,2901247.746100857,-0.0006167994473422
232,1724915390120473980,-0.4937270283699035,0.0909378677606582,0.1622802019119262,0.0316993407905101,-0.0013455840526148,-0.3059276938438415,0.9515259861946106,0.0,0.0,0.0,25.75991436603436,2750.6360132555687,2378.383339482771,1.073236293,6.277804569181798,14.949133678677118,-14.919888760403772,12341.966361695915,78467.03919790091,-46180.42104308277,0.0611956508858293,0.0168354913433336,-0.6216338328178693,0.0205722642922925,-1.534981472699768,-1.3818417419621485,695038.2210109758,2547398.86550408,543482.7138356499,-0.0003904718618125
234,1724915390126001215,-0.4936955571174621,0.090453065931797,0.1618105471134185,0.0321502201259136,-0.001168247195892,-0.3071670234203338,0.9511116743087769,0.0,0.0,0.0,-1.417183718331534,177.36474662403091,159.15256857402795,1.078763528,0.139757741515383,0.0965523198128061,-0.4748240068520708,-738.6709905627933,-1792.1112357554648,1752.7030723623136,0.061923668480838,0.0175296055001769,-0.6242208085075833,0.0080939954072896,-0.0726701765634132,-0.0708873868615906,-3242.2252116069326,-316387.5843394912,-273016.3697721462,-0.0004400730998593
236,1724915390137136653,-0.4935515820980072,0.0899812877178192,0.16133713722229,0.0338849388062953,-0.0003924070915672,-0.3085408210754394,0.9506073594093324,0.0,0.0,0.0,0.0498286147570307,0.8317563193854025,1.5835996654664344,1.089898966,0.2561565324738205,0.2201982342603008,-0.2673471676297549,-10.640211786592984,-4.754537102007124,4.918064984007373,0.0647230198937552,0.0201650901413881,-0.6270372840780911,0.0111668628428205,-0.0538797326154636,-0.0491403858183456,47.43965526612032,-6898.017693842305,-6154.043399388731,-0.0004451616015613
238,1724915390145727531,-0.4934673309326172,0.0894421115517616,0.1608710587024688,0.0340857021510601,-7.630563050042838e-05,-0.3098199367523193,0.9501841068267822,0.0,0.0,0.0,-0.101364562243811,0.9250626551747544,1.711870672909916,1.098489844,0.024946661444649,0.0742469439546308,-0.315990364417997,-11.300666075540672,-5.658956996906648,0.4001579276694063,0.0648824455273889,0.0209773898604529,-0.6297054443325175,0.0100962267988258,-0.0524055309902022,-0.0379838736574438,280.6166067999346,-767.1757505738527,-321.598034812438,-0.0004318873254505
240,1724915390155747789,-0.4933627843856811,0.0890380293130874,0.1606805920600891,0.0347669050097465,0.0005325832171365,-0.3109418451786041,0.949792742729187,0.0,0.0,0.0,6.195873313398686,-15.855513280709753,-5.443796141807141,1.108510102,0.0941845085661735,0.1499633707433599,-0.2411271924240323,4.0564993907501,3.178749954757069,7.400402089647043,0.0657757587061394,0.0226345911994178,-0.6320189199936814,0.0093523803497772,-0.0343301069418739,-0.0160009435212895,-55.39354472962651,148.27617177390948,18.125497445699295,-0.0001653401959979
242,1724915390177049597,-0.4932125210762024,0.0885782837867736,0.1604759246110916,0.0353505760431289,0.0005911440821364,-0.3118117153644562,0.9494858980178832,0.0,0.0,0.0,-25.951970172343863,69.85486541648197,28.10202158457537,1.12981191,0.0513842587842536,0.0194377077197629,-0.0866905172545815,22921.990063040284,-4823.34390650775,-13419.16524897692,0.0668287527047008,0.0231700865487156,-0.6338345249069401,0.4252772806466964,-1.1717865640830496,-0.4778341170720637,-4294.326395195145,11642.118982269953,4788.614963075524,-0.0001762676300047
244,1724915390177442473,-0.4930424094200134,0.0881095826625824,0.1602848023176193,0.0369530729949474,-0.0002922194835264,-0.31284299492836,0.949085772037506,0.0,0.0,0.0,-27.65928908609677,74.48397771546507,30.00664066812392,1.130204786,9.22298987352388,-1.9104435982184669,-5.45604543750439,22290.622911020677,-4690.759333236293,-13051.07115733675,0.0704021657260703,0.0225682530645681,-0.6360251395135008,0.4147518487533972,-1.1434491874706108,-0.4664327864716755,-4161.369413379587,11279.587088658747,4642.697830473248,-0.000161837273412
246,1724915390186146210,-0.492949366569519,0.0877118036150932,0.1600886583328247,0.0367711558938026,-0.0003679231449496,-0.3141899704933166,0.948647677898407,0.0,0.0,0.0,-28.336946144682393,75.66104302082645,30.85021738734912,1.138908523,-0.0306020873616205,-0.0410544722838119,-0.3245960634773056,-637.9893184912315,130.71269166626792,356.05112501179065,0.0700718479349383,0.0224100736149925,-0.6388690804905801,0.0065341422030176,-0.0408845796770722,-0.0150510021535383,824.1091757146451,-2243.2613886577587,-907.201812529998,-0.0001701689472981
248,1724915390199194705,-0.4929454028606415,0.0872725620865821,0.1600386798381805,0.0365782007575035,-0.0001071627775672,-0.315712034702301,0.9481497406959534,0.0,0.0,0.0,0.060798049445543,-0.1385193983187589,-0.6301383882204061,1.151957018,-0.0378932605294709,0.0200166970205291,-0.2467513716901667,-10.604148097923728,-15.08867486038753,4.570929822283528,0.0695050387154407,0.0228951438269759,-0.6420635778079652,-6.040348786484629e-05,-0.0516031577994873,-0.0235106450493702,744.8023059022787,-1837.593001481568,-763.1382526646996,-1.9499620473553217e-05
250,1724915390205571159,-0.4929469227790832,0.0868876129388809,0.1598274409770965,0.0360259935259819,-0.0003601148782763,-0.3163989782333374,0.9479418992996216,0.0,0.0,0.0,0.3493701009220419,0.5192785301229379,-0.356630421818097,1.158333472,-0.1368115480599777,-0.137795824634031,-0.2219514646145625,-3.2042033684945745,-13.137478256812816,2.15784177481612,0.0685995315765324,0.0221162420216033,-0.6435365641694946,0.0020915089071742,-0.0503584315407543,-0.0274720293391599,32.198309818104626,66.70844449996457,35.934363331890374,-0.0001844500695187
252,1724915390215980549,-0.492885559797287,0.0865335464477539,0.1596375852823257,0.0360916256904602,-0.0007624456775374,-0.3175424933433532,0.9475566148757936,0.0,0.0,0.0,0.4626468867481753,0.5942418299553491,-0.1008313407077168,1.168742862,0.0389995935981937,-0.0772293644145926,-0.228912309298437,0.8345021382584576,0.2946034505802606,-10.343309084459184,0.068952451338001,0.0214779800042445,-0.645969473073451,0.0059303230651686,-0.0394460893063755,-0.0266876081984994,-3.6676458240669767,-4.827688749543057,6.16973423856602,-0.0001668101463295
254,1724915390226257330,-0.4928242564201355,0.0860730558633804,0.1592776030302047,0.0353192314505577,-0.0011280718026682,-0.3196762204170227,0.9468677043914796,0.0,0.0,0.0,0.2773348463655657,0.4225821729044507,-0.2241522252220209,1.179019643,-0.1153178979986711,-0.1302459168705133,-0.433365390577875,3.8874826133209233,29.98545329618073,-20.857030265014185,0.0676722885015458,0.0204465919511669,-0.6505051106735211,0.0116371659008009,-0.0379461815723054,-0.0295114130016749,-26.95209281670128,-12.13357343680941,-9.700726694466889,-0.000330130577231
256,1724915390236128503,-0.4926556050777435,0.0857635512948036,0.1590386033058166,0.0365878641605377,0.0011554233497008,-0.3226161003112793,0.9458218216896056,0.0,0.0,0.0,-0.0732894036364076,0.3461409996467524,-0.2981094971226499,1.188890816,0.1022921226829817,0.4989691485560081,-0.6483735131350409,1.054075469226853,2.0827831606638263,6.797551658089077,0.0685421267608059,0.0257961782282933,-0.6565569200654477,0.0117391040372609,-0.0311519021567425,-0.0312440726998612,-11.544901684735446,-5.787458455664943,24.19424142789471,-0.0002203201305507
258,1724915390246806437,-0.4925920069217682,0.0854332521557807,0.1586237549781799,0.0356063358485698,0.0004609509196598,-0.3238927125930786,0.945423424243927,0.0,0.0,0.0,0.0803626227783433,0.3069407961827088,0.3262339505500555,1.19956875,-0.1289109615490359,-0.1910017826084571,-0.2456846056658495,6.661163564855001,-29.328468531804205,18.41556888071927,0.0670970754170036,0.0239391394517886,-0.6593132917909953,0.0099907041350242,-0.0314079263923785,-0.0358431686881406,-8.987468004565095,19.236903987943684,80.70847028507717,-0.000392871341178
260,1724915390255713855,-0.4924730360507965,0.0851499587297439,0.1583268344402313,0.0359245911240577,-0.0005066525191068,-0.3248703479766845,0.9450759291648864,0.0,0.0,0.0,-0.1733957492101389,0.6485095418809015,1.2103771409187258,1.208476168,0.1408060929106925,-0.1900358167864012,-0.2250328889298942,18.908034743751564,12.858089251759932,0.425950468727013,0.068302320526432,0.0223858882906385,-0.6614283154252891,0.0125203219574991,-0.0262150012293549,-0.027312813169896,-34.23924753305043,25.822500244190977,39.972224573965576,-0.0002799017031209
262,1724915390265632212,-0.4923580884933471,0.084951676428318,0.1581224352121353,0.0370015539228916,-0.0004232485953252,-0.3259883224964142,0.9446493983268738,0.0,0.0,0.0,-0.5765050179419238,0.7663103220472289,0.9520686991920502,1.218394525,0.2027498460467022,0.0783027752574451,-0.2417093733486575,-7.112648124362509,8.466061031728245,-6.865965693188208,0.0702598295125837,0.0233266213240993,-0.6637668205632573,0.0057491381326713,-0.0190592392211765,-0.0125169407089265,-3.466968360576679,4.1031906047185025,-45.43264149548216,-0.0001928977882223
264,1724915390277747785,-0.4923748672008514,0.084734559059143,0.1580905318260193,0.0363521911203861,-0.0007122675306163,-0.3283068537712097,0.9438710808753968,0.0,0.0,0.0,-0.0683249564856669,0.7009733561432878,0.1146754320412171,1.230510098,-0.0811163851272648,-0.0942299527661547,-0.4016240226527174,1.9566207138974048,13.826567565122245,0.3580440660690129,0.0691639118281312,0.0225266746900565,-0.668701626057578,0.0003359691275122,-0.0091112822388783,-0.008969361050747,36.166217847961335,-63.12181909914749,-31.13089915174471,-1.6598152002694925e-05
266,1724915390286037876,-0.4923623204231262,0.084708996117115,0.1579802334308624,0.0369070172309875,-6.875732651678845e-05,-0.3295379877090454,0.943420708179474,0.0,0.0,0.0,0.198719709652809,-0.1497801803048978,0.0720742335307748,1.238800189,0.0791090587115358,0.1796044662497542,-0.3217528864234098,12.093609886769862,20.28122901276211,9.246351405853574,0.0697599765744816,0.0241971553892828,-0.671259945352941,0.0019164170483207,-0.0039815023711948,-0.0090291686968297,19.54887932223067,-76.23610467397272,-16.188619336174693,-0.000108525749468
268,1724915390300400322,-0.4923247694969177,0.0846294686198234,0.1579569429159164,0.0377638824284076,0.0008524166769348,-0.3308422267436981,0.9429298043251038,0.0,0.0,0.0,0.16438401759241,-0.5881413092941532,-0.4353830507048607,1.253162635,0.0728080251734185,0.1536305080383511,-0.1986116128984562,-15.221429415121747,-18.959898349460367,-79.38992210938913,0.0707373273192233,0.0265984482764297,-0.6739514388604032,0.0049714881911597,-0.0252566773742959,-0.0060210922136754,-13.679678886376507,113.47315903765568,-20.29821029079331,-1.839340489304214e-05
270,1724915390305365410,-0.492296040058136,0.0844702199101448,0.1579194962978363,0.0377210527658462,0.0010156092466786,-0.3325798511505127,0.9423198699951172,0.0,0.0,0.0,0.0770864204592644,0.2224190484154598,-0.5103606399003866,1.258127723,-0.0281411689585859,0.0300537478144895,-0.7437729875256928,-13.367913829095606,-20.58905775201624,-60.82051600310606,0.0704991255350115,0.0270078650226931,-0.677625908230933,0.0057047170407038,-0.0266437984873983,-0.0092896001536084,-8.057775671692237,120.31776597444689,3.345315096904776,-2.657715900330841e-05
272,1724915390315748035,-0.4922385811805725,0.0843114778399467,0.157785102725029,0.0374863632023334,0.0006618508487008,-0.3341225981712341,0.9417837262153624,0.0,0.0,0.0,0.2002157999781023,0.53947273758029,-0.0751334648330164,1.268510348,-0.015739562526847,-0.0903540514820687,-0.3118606333488928,1.061219991516532,-9.999413488845647,36.85128462811564,0.0702478497915276,0.0262997545733889,-0.6809230619125308,0.0049724596603863,-0.0134398662170379,-0.0113765574385671,-93.73886700377074,478.67845398333975,21.102497953809053,-0.0001241047837811
274,1724915390388395123,-0.4921628534793854,0.0842751488089561,0.1577554196119308,0.0372102968394756,0.0006445913459174,-0.3357808291912079,0.9412046670913696,0.0,0.0,0.0,-60.28625532602655,263.10919122500695,-9.123247247018895,1.341157436,-0.006371176109255,-0.0046876628774207,-0.0483077159730503,-893.8782442468441,251.68684533981303,-28920.09721714362,0.0696924389632609,0.0262053926236295,-0.684448819678224,0.1571391143002074,-0.3464647361881248,0.0471469531318007,27951.05161420672,-5629.886186765856,-69902.16173993892,-2.8840969371222888e-05
276,1724915390388739246,-0.4921085238456726,0.0841553583741188,0.1577717214822769,0.0371628031134605,0.0007404766511172,-0.3374069333076477,0.9406248331069946,0.0,0.0,0.0,-50.62073589593659,261.1567490980793,-33.291932013607536,1.341501559,-0.3154325433231979,0.0823319171376895,-10.047526345816935,-1145.3060541869625,266.59935777204817,-17588.647554662697,0.0694930792384893,0.0264740887226012,-0.6878973422258391,0.1362915414090935,-0.2554864501484317,0.0439912491160612,144756.7055880746,-27370.149157745414,-13760.367064293718,2.3404736881336963e-05
278,1724915390389495742,-0.4920413196086883,0.0841161087155342,0.1577993780374527,0.0366339534521102,0.0011131180217489,-0.3389247357845306,0.94009929895401,0.0,0.0,0.0,252.9114638362503,204.36949617316023,50.21346563530776,1.342258055,-1.5929408403552077,0.3068397871193338,-4.280899217256467,-671.2169797510023,-541.9756008130557,5229.391302403408,0.0682021506933362,0.026928443301448,-0.6911132156112876,0.1145625997335741,-0.0632781666381703,-0.0213089491426501,47310.60029018564,-179647.07088868582,-37334.191980593634,2.8787164676175725e-05
280,1724915390390450608,-0.4919009208679199,0.084041953086853,0.1577092856168747,0.035982895642519,0.000765853212215,-0.3399202823638916,0.9397653937339784,0.0,0.0,0.0,-128.4809458090092,-93.2158360090559,-163.47402659976518,1.343212921,-1.007517133146914,-1.2215790094530892,-2.172209296640238,9986.65361183831,20645.76182975902,-47718.77063421803,0.0671833545801028,0.0259049740197747,-0.6932624081712371,0.6955001122466911,0.0719571197172967,0.1911946971056295,-769391.1307788547,-1355320.866600336,-2208155.70748554,-8.803761757523154e-05
282,1724915390390695380,-0.4916962683200836,0.0840689539909362,0.1577740013599395,0.036431610584259,0.001357672852464,-0.3418501317501068,0.9390470385551452,0.0,0.0,0.0,-340.020303921646,-490.4457648673334,-828.478421519636,1.343457693,2.025082570411331,5.227783508623236,-16.985120014418953,-8994.766842905196,-1636.615044902982,-35488.79097424031,0.067570615726413,0.0274615906114715,-0.697325632695953,0.6178159695031127,0.0344051827309215,0.1269597651618141,269201.73856966937,-1145743.360839889,-1892847.6301961483,5.809547926121717e-05
284,1724915390390939746,-0.4915985465049743,0.0840588435530662,0.157771497964859,0.0357263386249542,0.0014404203975573,-0.3441003561019897,0.9382519125938416,0.0,0.0,0.0,2.2762707286360637,-654.0295469355938,-1090.0062511295894,1.343702059,-5.389849783121629,-1.999404593302629,-19.551431731764957,4670.6550638929175,-17416.352856838843,9384.20819449838,0.0661220929856985,0.0272932344948139,-0.7021272320840748,0.5292016347927984,-0.1676650996003275,-0.2135863289776693,1397493.7435161774,25079.93041250971,93034.910650047,-3.947699848891931e-06
286,1724915390391213950,-0.4914136528968811,0.0839740112423896,0.1576503664255142,0.036438263952732,0.000788940989878,-0.3455128967761993,0.9377059936523438,0.0,0.0,0.0,384.47160942724474,-433.464718050027,-706.5761504791291,1.343976263,6.664220317369181,-3.0339206950566555,-10.859574956425034,41635.66129166558,-3547.98254977176,30174.61934252393,0.0678677699745473,0.0266625285637475,-0.7051550273441433,0.6421019682354938,-0.2938078319344093,-0.4190620357986077,1317567.309890892,767851.1937919717,1334249.8708540744,-0.000119348324482
288,1724915390396279500,-0.4911733865737915,0.0839426293969154,0.1576513648033142,0.0365612730383873,0.000884871056769,-0.346964418888092,0.9371650218963624,0.0,0.0,0.0,-78.46678131603333,37.57664659467708,54.73835362637392,1.349041813,0.0406899620062712,0.0315824631702394,-0.6125345444867876,-856.3931808940561,394.4617054790171,1326.7956613904926,0.0679910497254707,0.0270327544469166,-0.708240971826448,0.0380512266753498,-0.0033592726572844,0.0048052778236726,-56748.61063278668,59274.33721842629,96013.21887762682,-2.531778181791679e-06
290,1724915390405771226,-0.4909790456295013,0.0839611813426017,0.1577789336442947,0.0363226719200611,0.0011845894623547,-0.3487342894077301,0.93651682138443,0.0,0.0,0.0,-1.0056839306333247,0.5601693262735039,0.6893159185363333,1.358533539,-0.0637049787588348,0.0282276084093187,-0.3992387635127631,-1.312584620520147,1.909720043645902,17.67813951244927,0.0672836524004234,0.0275561855807613,-0.7120050713873284,0.0185556196525951,0.0018440835127044,0.0096906904937679,4870.691759385652,-2338.507698563826,-3416.2507423317297,0.0001214621678049
292,1724915390419692799,-0.4907599091529846,0.0839845985174179,0.1578372865915298,0.0373206324875354,0.0016255298396572,-0.3503452837467193,0.935875415802002,0.0,0.0,0.0,-0.3804362633246025,-0.1143464005642197,-0.3544559907960085,1.372455112,0.1157975123679463,0.1010252696847313,-0.2510114879572487,-4.412731067381712,34.17862418939388,-51.64042419727743,0.0687994934517948,0.0291969500238112,-0.7153971940270036,0.0259594766107298,0.0098869389007294,0.0228524640077232,-40.41699958146473,-70.25431603186097,-119.11727231002664,5.146388617157306e-05
294,1724915390426306313,-0.4905561208724975,0.0840757638216018,0.1580470502376556,0.0379002839326858,0.0029790967237204,-0.3527316749095917,0.934951901435852,0.0,0.0,0.0,-0.9158203402355884,-0.6474752407214168,-1.2809247533382273,1.379068626,0.0322403652531639,0.4180191326614946,-0.788230721513265,-11.800966036858018,11.818891490810453,-32.578008834696284,0.0688585623479609,0.0323135086889976,-0.7204100130075985,0.0205773250319047,0.0069563656173401,0.0164243264759873,-42.13034021586654,-46.50910578428714,-55.48317764138213,0.0001981913164332
296,1724915390437391173,-0.4905182123184204,0.0840260088443756,0.1579449772834777,0.0372272916138172,0.0025613578036427,-0.3540272414684295,0.9344903826713562,0.0,0.0,0.0,-0.6615326317630846,-0.5294153137374963,-0.3240685470608453,1.390153486,-0.0830888958306266,-0.1219102337531763,-0.2454261379857805,-3.8572349842157,-22.43150264027211,23.550423058660822,0.0678484467266548,0.0311511170714454,-0.7232178842960107,0.008530331069938,-0.0040175933930504,-0.0035146913521098,25.658568672258653,31.915030469025723,81.87309306238062,-9.905441021428929e-05
298,1724915390448151363,-0.4903730452060699,0.0839876979589462,0.1579666286706924,0.0367719382047653,0.0022734825033694,-0.3553385138511657,0.9340113401412964,0.0,0.0,0.0,-0.357046989147486,0.0361045349076726,0.5104429654908577,1.400913676,-0.0562100835246933,-0.0888111326786114,-0.2575075424223311,-20.26033329721254,-6.794181162655491,-25.545845227139047,0.0671565452616083,0.0303845636914032,-0.726048197496851,0.005854014388781,-0.0049034315241733,0.0084014793079951,27.330744435189615,37.84513404298151,-22.35634811331218,2.1108980337641525e-05
300,1724915390455515488,-0.4903684258460998,0.0839448198676109,0.1580606997013092,0.0354194343090057,0.002120726974681,-0.3573161661624908,0.9333093166351318,0.0,0.0,0.0,-0.1606519365451814,0.2406560429036454,-0.157738025838041,1.408277801,-0.3201094850409331,-0.1885894633200022,-0.568720235488866,-14.5863290650511,-3.4638867732940133,-16.744000774691486,0.0646717982736852,0.0292746426754692,-0.7303207216567402,0.0026787377563692,-0.0040406770218002,0.0091516807814215,26.190853866551393,36.158125669893735,-36.679844931115326,9.663536515127158e-05
302,1724915390467029074,-0.4903006553649902,0.0839303731918335,0.1581008583307266,0.0347521342337131,0.0021473108790814,-0.3589473664760589,0.932708203792572,0.0,0.0,0.0,0.1322885946346839,0.8078399495817893,0.392992901724954,1.419791387,-0.105535465443773,-0.0469232600625512,-0.3021749321907557,14.476105436442117,8.838211704915462,10.589196373000105,0.0633545757865634,0.0289580501204756,-0.7338287414265515,0.0056989043581232,0.0009532713661108,0.0026622652753687,-1.9584984675316912,28.995986125551894,44.84235934447796,3.960076686114913e-05
304,1724915390476892307,-0.4902460277080536,0.0839584320783615,0.1581201404333114,0.0347779057919979,0.0022461144253611,-0.360342800617218,0.93216872215271,0.0,0.0,0.0,-0.1185561418449537,0.9225964304454536,0.8100131475249788,1.42965462,0.0020919388964296,0.0109638759140459,-0.3038672369916915,5.1579799860353,18.89962655576041,-11.628892585007309,0.0632883144578323,0.0292556242677924,-0.7368141911211726,0.0059050616185096,0.0120820869932654,0.0146213841285973,-23.68387601600977,-40.39006837373613,-77.3506481922976,1.6230139332996342e-05
306,1724915390486185246,-0.4901879429817199,0.0841515883803367,0.1583669185638427,0.0352743417024612,0.0036318467464298,-0.3625115752220154,0.9313045144081116,0.0,0.0,0.0,-0.3233403899769519,0.0917442694288124,-0.9562445899248276,1.438947559,-0.0003551052559057,0.3006883191359681,-0.5122497214821182,-3.4595722532001374,7.203604177636759,-5.130950555918995,0.0631440930325482,0.0323450645154422,-0.7413907724590063,0.0035822877796825,0.0188545419034009,0.0186248105750976,-2.4020648011517407,-53.835453865010216,-109.09249932430929,0.000231865495873
308,1724915390496852193,-0.4901823997497558,0.084329068660736,0.15846848487854,0.0350503399968147,0.0042636008001863,-0.3642580807209015,0.9306284785270692,0.0,0.0,0.0,-0.1085563984287332,-0.0469759302733849,-1.1284985823060991,1.449614506,-0.0763934040169323,0.0839979083152504,-0.3552464516650294,-1.2548645417871571,-38.17231840309149,20.787629551860643,0.0622065301843261,0.0334766482545127,-0.7451184981291414,-0.0007653620374483,0.0120333082844075,-0.0085585622901476,15.92146597750462,27.354049336905824,116.0092273137433,8.908583727224675e-05
310,1724915390505988036,-0.4901994466781616,0.0844029709696769,0.1582488268613815,0.0341968610882759,0.0026327634695917,-0.3648222982883453,0.9304451942443848,0.0,0.0,0.0,0.0039271007125605,0.5187136039766223,0.965412006578246,1.458750349,-0.0419000911468859,-0.4044694768535957,-0.1178472983447588,13.12819711403455,1.318712352263013,4.164103901921274,0.0617824405782051,0.029855274138054,-0.7464225881748918,0.0005826081510562,0.0162401490825496,-0.0077585177653887,-21.24182558641245,16.416967473081574,136.09983280867115,-0.0002236442525912
312,1724915390516019076,-0.4901666343212127,0.084655649960041,0.1583503633737564,0.0354805514216423,0.0033243652433156,-0.3662642538547516,0.9298282861709596,0.0,0.0,0.0,-0.5787144426220855,0.1822267573638669,1.3052635130342507,1.468781389,0.1927984337854587,0.2121674768003103,-0.3164165241141011,9.03000116049973,24.23020744352663,-7.604388666355465,0.0636222747273829,0.032178245876226,-0.7494585352538579,-0.0009598268249568,0.0220848070882233,0.0115940584182352,-47.65575916688556,-33.84847040105536,-35.6803725882465,8.334117115383399e-05
314,1724915390527095268,-0.4902290105819702,0.0848622918128967,0.1584967821836471,0.0361297205090522,0.003265299135819,-0.3675563633441925,0.92929345369339,0.0,0.0,0.0,-0.979020577678799,-0.1964022683098631,0.0593209435109381,1.479857581,0.1171018304614943,0.0250590302584734,-0.251544248642645,-20.16287438109108,-12.222471076775143,3.0579760160229696,0.0648297591528505,0.032634051714639,-0.7522225509021174,-0.0125669981191798,0.0192058247232358,0.0184196686314965,-3.1301775050937763,8.772824246982985,-45.688096904664306,0.0001329394930375
316,1724915390536117828,-0.4903933703899383,0.0850396156311035,0.1587011963129043,0.0353592708706855,0.0033617070876061,-0.3685870468616485,0.9289144277572632,0.0,0.0,0.0,-0.764642464095743,0.198470767946136,0.1380585734172162,1.488880141,-0.1627807563162005,-0.0508931086289159,-0.2445247870202613,-12.329811795617095,-7.855704101339654,8.150654631243949,0.0632885757813307,0.0323170398674997,-0.7544548255134841,-0.0208937424213786,0.0179006480208108,0.0148617006962155,35.88157449960791,54.31102775322819,39.82664959345688,0.0001950679470588
318,1724915390546271515,-0.4906361103057861,0.0852013453841209,0.1587630361318588,0.034774575382471,0.0029289796948432,-0.3689735233783722,0.9287844896316528,0.0,0.0,0.0,-0.2618062127967908,0.8704325065740037,0.8978126200061435,1.499033828,-0.0744046226414236,-0.1242320382063662,-0.0775209580993447,-15.221296889404355,8.231618419926109,-9.235806925600857,0.0625056544744043,0.0311075938301517,-0.7553200699941939,-0.0268495573316407,0.0238366488129733,0.0223470348612924,55.18269594173631,12.67113764413014,21.173889558698946,5.580095192718006e-05
320,1724915390555641970,-0.4909131526947021,0.0854930952191352,0.1591130197048187,0.033074002712965,0.0041013611480593,-0.3706327080726623,0.9281814694404602,0.0,0.0,0.0,0.3042278472020441,0.5264493612042858,0.6322623644484198,1.508404283,-0.4239311207598613,0.0865469629214135,-0.3861655606145069,0.7387587487690395,11.006464601840095,-8.184476163733155,0.0584205270373481,0.0321357600710452,-0.7588849324238565,-0.0264943887827477,0.0344646416543117,0.0321488369333788,20.87819626944716,-11.279590615475009,44.802957168327154,0.0003350893145405
322,1724915390566323222,-0.4911587536334991,0.0859017595648765,0.1593930870294571,0.0334308966994285,0.0043569924309849,-0.3714757859706878,0.9278303384780884,0.0,0.0,0.0,0.0459627918529738,0.7155867759233645,2.0013486668515847,1.519085535,0.0471083621038421,0.0642443336640801,-0.1722009555301318,24.290639045696967,-4.107563464619984,11.330664838653837,0.0588652482130742,0.0329285871554101,-0.7606817214138539,-0.0200022401611867,0.0326881363134332,0.0338643668859939,-17.45747529715043,25.653413591196568,91.96236267375122,0.0002568701598959
324,1724915390579330286,-0.4913715422153473,0.08623868227005,0.1599546372890472,0.0336725860834121,0.0041455030441284,-0.3724629580974579,0.9274266958236694,0.0,0.0,0.0,-0.0746388177680712,1.1751214638129692,2.6239006846101507,1.532092599,0.0492970844954432,-0.0211712492411801,-0.1626421461687455,-21.636262225174555,-24.78207292215749,-32.74023787415109,0.0594365159245369,0.0327787519413042,-0.7628109157949675,-0.0283036396995655,0.0559646177080068,0.0890520556027034,66.04950397229024,-48.379192668066786,-210.4278898103786,0.0005418749744307
326,1724915390585970579,-0.491599977016449,0.0867122113704681,0.160701498389244,0.0328414924442768,0.0036467446479946,-0.3740073144435882,0.9268369674682616,0.0,0.0,0.0,0.6192865291728507,0.5700994925392222,0.3510021019379041,1.538732892,-0.1682906423906222,-0.247480404236674,-0.4935264414318715,-26.664252486458047,-20.874291344771688,-25.18601984400255,0.05821102177013,0.0313309179086993,-0.7661808480962429,-0.0268887347426591,0.0616849581236014,0.1009871696132416,88.55616299144327,-47.65002321641964,-254.5386711937893,0.0007191787498777
328,1724915390597372713,-0.4917594790458679,0.0872270762920379,0.1616280674934387,0.0304870195686817,0.0032558399252593,-0.3756165504455566,0.9262678623199464,0.0,0.0,0.0,1.3168118851640327,0.8777530613373443,-0.8332418483555051,1.550135026,-0.3528203648972,-0.226917058818385,-0.2982068393552082,-0.5042164657427826,18.633922941634395,18.270928257251647,0.0540813893432142,0.0289384568629686,-0.7697224223080109,-0.0118745036719758,0.0624808522255388,0.0766711129432859,-17.01209959902669,-22.163586228055006,-4.92089056625124,0.000897180054315
330,1724915390605684778,-0.4918453693389892,0.0878514051437377,0.1622375398874282,0.0295232646167278,0.0037978126201778,-0.3761456608772278,0.9260823130607604,0.0,0.0,0.0,0.7016371089705699,0.3957330560372822,-0.2746203422976667,1.558447091,-0.2620021885015363,0.0299522916704819,-0.139424878211344,13.404734233792857,31.370880898107007,-0.3022561811775723,0.0518703167863553,0.0292484399742585,-0.7708670418944602,-0.0009289530712521,0.0746725137937454,0.0776184499924923,-74.66413669681582,-85.87230612627236,78.97355590395034,0.0005737725537835
332,1724915390615749609,-0.4917401075363159,0.0885976254940033,0.1630710959434509,0.0297295898199081,0.0056751351803541,-0.3778564035892486,0.9253694415092468,0.0,0.0,0.0,-0.0578185979941144,-0.8083595955626053,0.6636474740813076,1.568511922,-0.096877779261001,0.3513947112657679,-0.3789578215310891,-4.57405844834256,-17.254742391253476,1.285543780387294,0.0507823561107041,0.0329762013497678,-0.7744965218806196,-0.0013645367074985,0.0656028869047347,0.0701185971635505,-14.58764751973736,-8.889066724937873,106.78231026167828,0.0007865108658403
334,1724915390626158424,-0.4918815791606903,0.0891885608434677,0.163664236664772,0.0272396523505449,0.0046953032724559,-0.3783595860004425,0.9252459406852722,0.0,0.0,0.0,0.4455661074243519,0.2912321373495166,1.921091067542416,1.578920737,-0.3703301533429226,-0.3577359854198227,-0.0955528434362825,1.6521482513605117,-14.031341001219074,-15.949735512216463,0.0468910379861288,0.029305582267879,-0.7756722400487261,-0.0021228851356625,0.0581873527443228,0.0921915063063671,17.004782690987525,55.59770142624936,-78.12820676596846,0.0005620345354397
336,1724915390635919138,-0.4917973279953003,0.089769460260868,0.1648863404989242,0.0267802029848098,0.0049653658643364,-0.3812743127346039,0.9240606427192688,0.0,0.0,0.0,0.32453899269458,0.3758659327777489,-0.6623309339544408,1.588681451,-0.0986222525434045,0.0004521053570248,-0.6464325441602001,7.883891128865322,18.549879922397704,-9.181894970697709,0.0457427139568322,0.0296021284521364,-0.7819776121466945,0.0069712618718185,0.0702164567849621,0.1091166492129094,-33.612403198316265,-55.75864960746952,-242.76000936856136,0.0011883932959467
338,1724915390645832886,-0.4917449355125427,0.0905733332037925,0.1658060848712921,0.0257628075778484,0.005425913259387,-0.3824664950370788,0.923594295978546,0.0,0.0,0.0,-0.2222833572748237,-0.8256636961945305,-2.8483212939738634,1.598595199,-0.2213736850078047,0.0016251543688109,-0.2616245784896766,-5.4776633338539344,-7.324672080945807,23.67548198848682,0.0434712035475813,0.0297338876217705,-0.7845692754560791,0.0040749527573247,0.0653180999554088,0.0784213096042565,-25.35429953164754,-19.383978530356963,-26.326950991283145,0.0008763701685124
340,1724915390657151260,-0.4917144477367401,0.0911088660359382,0.166508212685585,0.024358045309782,0.004946210887283,-0.383475124835968,0.9232166409492492,0.0,0.0,0.0,-0.1241291799523859,0.2705875609971739,-0.637181088002301,1.609913573,-0.1941547684185435,-0.1774567420488941,-0.189297290000454,2.7166602098411303,-10.163937887202897,12.3663794556144,0.0412096099208013,0.0278178449200079,-0.7867956264972797,0.0024618942714873,0.0516884247702504,0.0493865483453328,8.080982939564922,58.899506224640334,198.05382708536808,0.0006748517774134
342,1724915390668440348,-0.4916892647743225,0.0917416214942932,0.1669233292341232,0.0230302866548299,0.0040993830189108,-0.3834099173545837,0.923282027244568,0.0,0.0,0.0,-0.0395582638817907,0.5081249580583433,1.629015407492017,1.621202661,-0.1599751326548132,-0.2284866738004471,0.0175982943814355,-1.150354606690387,-23.964060057896752,5.791437480916393,0.0394061497570448,0.0252325313597281,-0.7867011334903673,0.0012676314319151,0.0713491279948543,0.0639034760579928,25.47788014186425,-60.96733614778117,55.46939366951824,0.0003855099548151
344,1724915390675845146,-0.4916845560073852,0.0923442542552948,0.1675283014774322,0.0216745976358652,0.0026569401379674,-0.3834503293037414,0.9233033061027528,0.0,0.0,0.0,0.236460587224782,-0.3416414430590238,1.3341658467572746,1.628607459,-0.1887859180270071,-0.5003739821086327,-0.0004026353175624,0.622666873263487,-10.736654892382225,-5.667692802320509,0.0380048004422727,0.0215302497876058,-0.7868474790371274,0.0012963934202083,0.0691208699455785,0.0776323910534628,34.182232960060176,-19.469023645650736,-77.37030244439207,0.0005789921386247
346,1724915390686328960,-0.4916611611843109,0.0928868800401687,0.1682818084955215,0.0206583477556705,0.001800796482712,-0.3839962184429168,0.923101842403412,0.0,0.0,0.0,0.5489043922221994,0.8686485116958309,-0.0343529497486381,1.639091273,-0.1152636375054148,-0.2272948125687915,-0.1078645833800512,8.836630174388787,37.26697435374244,-16.68967383231625,0.0367715757200416,0.0191912699547983,-0.788066930853233,0.0072275625070439,0.0649347435556251,0.0839027324537404,-5.425485164203028,92.95636140045345,-170.39380650809557,0.0007311196602251
348,1724915390695803252,-0.4915499091148376,0.0936149060726165,0.1691797226667404,0.0209894627332687,0.0028312818612903,-0.3853779435157776,0.9225158095359802,0.0,0.0,0.0,0.195880497090104,1.5568083370605184,-1.9899723988851687,1.648565565,-0.0159283598697568,0.2218426494922197,-0.3211214558408432,-0.1810658594063516,1.489155570443117,23.953548875766344,0.036560511531779,0.0214031906078139,-0.7910308728984239,0.0122838509964111,0.0840206739326951,0.07816223554806,-51.79549818591864,-4.790774023214553,-158.39524480183724,0.0008661075441773
350,1724915390705588870,-0.4914242327213287,0.0945096537470817,0.1697766929864883,0.0199989397078752,0.0020009463187307,-0.3836703300476074,0.9232513308525084,0.0,0.0,0.0,-0.457870712693793,0.7273776001584911,-3.0546413653402533,1.658351183,-0.1255011342393614,-0.2276737086346791,0.3828839344415105,-1.2179395292167237,-29.80952752528416,50.256020898268915,0.0354065027501257,0.0190419030261037,-0.7873657659877661,0.010786412731278,0.0946290691704856,0.0447000899294058,9.122561293182931,91.71603763818288,-23.22617857779184,0.0005606085974535
352,1724915390716891922,-0.491329163312912,0.0956209525465965,0.1700690686702728,0.019191738218069,9.749822493176909e-05,-0.3802223801612854,0.9246959686279296,0.0,0.0,0.0,0.6365671371353473,4.068085368367285,-2.1999425002929733,1.669654235,-0.0089787568447786,-0.3540628758610807,0.6677914514009274,-19.185562715573944,-5.167344793732809,11.797468657671176,0.0354301824060535,0.0147751067715741,-0.779963143350944,0.0016310663991667,0.0981936206831535,0.0149371378696008,66.86628321776601,142.39509605843816,80.66397969145643,0.0002512642025336
354,1724915390730238972,-0.4914142489433288,0.0969295799732208,0.1700961738824844,0.0138546070083975,-0.0001546166895423,-0.3764668405056,0.9263265132904052,0.0,0.0,0.0,1.0568374609069413,3.554688432552787,-1.043766914330385,1.683001285,-0.7299025815489226,-0.3282388270202496,0.6139214455300187,-42.49722223215221,26.790104275318978,143.04404528613208,0.0257883810198032,0.0101453232139932,-0.7719064013912478,0.0329260607970169,0.2116360199197124,-0.0075975143519926,-176.13099281892687,-400.9410313365574,182.86843303728165,-5.430457682717328e-06
356,1724915390736056001,-0.4911230802536011,0.0984486490488052,0.1700275689363479,0.0111798681318759,0.0005153056699782,-0.3715644180774688,0.9283397197723388,0.0,0.0,0.0,-0.4940829937051545,0.3034436342299376,0.2639855902596556,1.688818314,-0.9479131975552122,-0.1093861622829008,1.8188946303412328,-5.384506927433095,24.587937266607657,115.68312761202716,0.0203767773840937,0.0092649723855959,-0.7613427564797625,0.0358086570944991,0.2197776784932337,-0.0120349406601993,-216.579852924582,-394.27192956012175,187.6869802585048,-0.0001028419175758
358,1724915390748078420,-0.4910465478897095,0.1000631153583526,0.1698768883943557,0.0096741635352373,0.0001647776080062,-0.3663374185562134,0.9304317831993104,0.0,0.0,0.0,-1.8545923396563289,-0.3456063974998642,1.5979113400425924,1.700840733,-0.2152052966485844,-0.1376621895881148,0.9370677498479688,21.17548566351212,11.676719283249165,-12.0472203808516,0.0178830121156299,0.0073947122321494,-0.7501102182658208,0.0052788288274498,0.196188454347606,0.0166526871311933,9.16030086662228,-109.69800559236076,-37.27779292031495,-0.000180430341514
360,1724915390755428408,-0.4910126328468323,0.1017832458019256,0.1701304316520691,0.0088751139119267,0.000483887590235,-0.3624903857707977,0.9319452047348022,0.0,0.0,0.0,-1.2376026112621172,-1.402222505537357,0.6578492151069528,1.708190721,-0.2382692557591188,0.0111988590487302,1.123976182116357,0.1131490787515279,-4.680873495040213,3.1099681286444145,0.0161925738368714,0.0073362661771989,-0.7418486390270225,-0.0052752066721417,0.2009119229085576,0.0248552688262924,84.6436946299825,-57.34190479247246,-37.857407599787464,0.0002242573185785
362,1724915390767139529,-0.4912589490413666,0.1035181358456611,0.1702416241168975,0.0068349712528288,-0.0019576486665755,-0.3584515154361725,0.933521330356598,0.0,0.0,0.0,-0.2332797297118066,-0.4612499058106447,1.894682747930749,1.719901842,-0.1762786674619792,-0.5088884897659736,0.7439113537041993,8.250071867079846,-16.26907644999128,-31.692240446994656,0.0141651118549374,0.0012449983535224,-0.7332279354154332,-0.0160682260824316,0.1463331247688604,0.0240103656534262,70.97162816940593,122.0566027107308,73.90265770626772,9.358403698403835e-05
364,1724915390778101361,-0.4913841485977173,0.1051036715507507,0.170653760433197,0.0057637128047645,-0.0039026376325637,-0.3563965559005737,0.9343088269233704,0.0,0.0,0.0,0.3929835180114507,1.3046579600187194,2.379439298266877,1.730863674,-0.0555049551623278,-0.3984909949788027,0.4043154444628448,-24.239792943631244,21.18771920739904,-32.74591469362946,0.0135524322793992,-0.0031842081720137,-0.7288567383542793,-0.0115628566217935,0.1843625439047844,0.0649601665919412,53.67456142233928,-145.97853713302166,-116.76779390614904,0.0004008578666227
366,1724915390786082138,-0.4914772510528564,0.1068058237433433,0.1713311821222305,0.0038353083655238,-0.003874713089317,-0.3559119403362274,0.9345036745071412,0.0,0.0,0.0,0.8012633813317046,-1.6445952311802126,0.5121226565297987,1.738844451,-0.4538177841766116,-0.164804241200805,0.1327160305074562,-5.7770588067265605,20.341438967463542,-21.443864873427508,0.0099265968847063,-0.0045118184623935,-0.7278132064394729,-0.0085312560038417,0.1821975041757149,0.0760696693428935,65.73251880655039,-190.14880159264868,-221.9009303184202,0.0006708031583573
368,1724915390796141099,-0.4915233254432678,0.1082444489002227,0.1719846427440643,0.0039258627220988,-0.0043069804087281,-0.3555522859096527,0.9346382021903992,0.0,0.0,0.0,1.6472455210053454,-1.2828603706884305,-1.56686866695829,1.748903412,0.047589424379476,-0.0735315267249542,0.0766054065185554,5.006368890512082,-10.043900131689004,-5.2087273172844455,0.0104015674236787,-0.0052592621671699,-0.7270500574343591,0.0048712641806147,0.1482433035396173,0.070065326104844,18.538376441164225,44.69733503085059,-203.33304291279924,0.0006477645168567
370,1724915390805621060,-0.4913927018642425,0.1096964627504348,0.172694444656372,0.0019992657471448,-0.005296824965626,-0.3554287552833557,0.9346861839294434,0.0,0.0,0.0,1.2372212510013123,-0.7810824930272791,-3.4645506277937783,1.758383373,-0.3055679161231787,-0.3395501046655483,0.0305276084469047,-23.39159736000601,-18.48551363773758,13.418374928090188,0.0075030001583252,-0.0084806468124075,-0.7267894497079694,0.0233000432662535,0.1547782415384606,0.0465456249602702,-73.1678524255785,-34.45560820896752,-80.29395195195043,0.0007083179012774
372,1724915390815884451,-0.4910477697849273,0.1113029196858406,0.1728573888540268,-0.0006605706294067,-0.0066146268509328,-0.353660374879837,0.9353503584861756,0.0,0.0,0.0,0.1538555394651097,-2.105708815412024,-2.956536832398661,1.768646764,-0.3916227470710781,-0.422873896002833,0.3713530529988387,7.695516648333779,-3.83045642868062,5.309809126148664,0.0034432235769353,-0.0128415754447638,-0.723001852481603,0.0281450220319925,0.1304229672310679,5.87051034273145e-05,-55.27745285965171,-45.42238419151758,145.47967640618106,0.0001683239933673
374,1724915390827136394,-0.4907984733581543,0.1124484688043594,0.172662928700447,-0.002047038404271,-0.0085757561028003,-0.3532041609287262,0.9355047941207886,0.0,0.0,0.0,0.1521022577388329,-1.5850297091403505,-0.1356013760557073,1.779898707,-0.106673082711214,-0.4130773661456857,0.0869562083165923,-18.024877173311246,2.843476314536808,-24.229618428278037,0.0022282997369613,-0.0174922588893855,-0.7220364925637048,0.0259508666781407,0.1100271757985602,-0.0138057941098548,45.65882745892967,58.10500729980112,104.7412030545548,-0.0001867422631582
376,1724915390836406840,-0.4905289113521576,0.1135312393307685,0.1725614964962005,-0.0052732080221176,-0.0091982288286089,-0.3537850081920624,0.9352667331695556,0.0,0.0,0.0,0.9253074617096952,-0.9560109199872366,-0.2794715903793018,1.789169153,-0.6048696495713763,-0.3716488479818466,-0.1296759400398933,-21.67121184982623,13.459310597970692,-17.593223644377986,-0.0033560630980631,-0.0209382886406212,-0.7232369086822096,0.0300120713152267,0.0970717543322554,-0.0066872716303825,90.9110860900392,85.45983624449998,-20.37371027351779,-8.731436347125679e-05
378,1724915390849065719,-0.4901328384876251,0.1144190728664398,0.1725503802299499,-0.0072842761874198,-0.0087506659328937,-0.3552962839603424,0.9346844553947448,0.0,0.0,0.0,2.2058819024437963,0.4301797036193857,-0.621293515874944,1.801828032,-0.3248625297774878,-0.0458621545687212,-0.2525640288721585,11.997978135585685,-24.902590259593005,6.021412802449602,-0.0074006249468451,-0.0215360400660777,-0.726431643827113,0.0501475361645447,0.0926011764720264,-0.0283292688099177,-53.01883542080677,-47.35761042990592,117.21903810370009,2.0680193552223296e-06
380,1724915390856454480,-0.4896809756755829,0.1152001693844795,0.1722226738929748,-0.0088344886898994,-0.0099349142983555,-0.3557768166065216,0.9344764947891236,0.0,0.0,0.0,1.1492125005969993,-0.5962269923266406,0.8667925504304077,1.809216793,-0.2798629724890495,-0.4482491019208167,-0.1402386747967691,19.80374727181386,-16.353083904862395,-6.470074863142031,-0.0094450777579059,-0.0248566598541302,-0.7274402373170492,0.0690997030775619,0.0991579599803031,-0.0282262036923679,-159.0124909520043,-108.6397257251331,152.72538318703644,-0.00031472150284
382,1724915390865844257,-0.4889373481273651,0.116053007543087,0.1721500605344772,-0.0087527995929121,-0.0107157444581389,-0.3577829003334045,0.9337023496627808,0.0,0.0,0.0,-0.5348280018436766,-1.255068752631892,1.7200467470432128,1.81860657,0.0697286769022005,-0.1470903271400349,-0.4596000069832912,10.18220859437475,11.77113093705238,-22.06158425952094,-0.0086803043844495,-0.0262768594141008,-0.7317444327347431,0.0629963844701961,0.075855841739854,-0.009910482511354,-93.45346008833182,30.019696702886357,70.45531644563823,-6.232945659818396e-05
384,1724915390880109386,-0.4883897602558136,0.1168106645345687,0.1719615012407302,-0.0122551387175917,-0.0125918732956051,-0.3612117767333984,0.9323182702064514,0.0,0.0,0.0,-0.0064530609884405,1.3443731203765967,2.2826649091975724,1.832871699,-0.3712203354830133,-0.4191538860387581,-0.5153323355455148,-74.0861605002162,-6.069875483657739,-92.45229825239258,-0.0137623432816749,-0.0323383040077483,-0.7390312550349543,0.0578629010069846,0.0845343671655687,0.0096296379112175,-69.92925644970956,-49.54136089363,-88.04141091281917,-0.0001722461478013
386,1724915390887131945,-0.4879160821437835,0.1175129413604736,0.1721081137657165,-0.0161255802959203,-0.0126994336023926,-0.3660467565059662,0.9303700923919678,0.0,0.0,0.0,-0.8673401693231471,0.195225849005026,1.223669369323056,1.839894258,-1.040756792436432,-0.4168302121222833,-1.4706965948833457,-40.52644324262343,15.922563004226362,-67.32154618935175,-0.0207228393894194,-0.03544319943502,-0.7493132514773336,0.0590393642637359,0.0965197497011329,0.0288157364468979,-99.79201698426849,-132.79535613734117,-212.6712846066634,0.000168489150683
388,1724915390896286332,-0.4874759912490845,0.1183549538254737,0.1724666357040405,-0.0194203555583953,-0.0118852704763412,-0.3714712560176849,0.9281651973724364,0.0,0.0,0.0,-1.508832397934044,-0.6523949213513833,-1.461549665129692,1.849048645,-0.7576313782614308,-0.0850076560883586,-1.2669152286635266,30.53422092637025,-3.5890943318637696,36.037289069348446,-0.0272420346333323,-0.0364993000929935,-0.7608965705749798,0.0387499513806375,0.0802699731305525,0.0220174163700725,11.509819927107817,31.250367166594135,-152.1034004185834,0.0003925803008277
390,1724915390906782253,-0.4871814846992492,0.1190565526485443,0.1724913865327835,-0.0227011032402515,-0.0140300123021006,-0.3749530911445617,0.9266596436500548,0.0,0.0,0.0,-0.4062322682775452,1.1659288612478411,-1.358535913688161,1.859544566,-0.4418834365557054,-0.602072675494155,-0.722880287548813,15.10264161575995,-7.301189577389149,24.058006194988742,-0.0315856958868807,-0.0430390761600123,-0.7683007162741434,0.031427783154708,0.0869329463643708,-0.0019744122571907,47.89627449145013,55.2423911412578,58.41017545938111,5.897097616821849e-05
392,1724915390916114388,-0.4868602454662323,0.1200345009565353,0.1724370121955871,-0.0250552799552679,-0.0147555228322744,-0.3780948221683502,0.9253101348876952,0.0,0.0,0.0,-0.4334873535228638,0.7023779598856184,-0.4102282417429871,1.868876701,-0.4252407412733223,-0.3220313529465114,-0.7288275607020164,1.9182918587825988,19.030703527746105,3.005237440056753,-0.0352548621252351,-0.0462699210375734,-0.7750046686118706,0.0300545292807257,0.1022204063542568,-0.0069583820691967,-35.42584200836535,-58.86478721893979,35.052062431007585,-7.108141754023477e-07
394,1724915390926124557,-0.4866062998771667,0.1210301145911216,0.1723552048206329,-0.0273520834743976,-0.015227522701025,-0.3811452388763428,0.9239850640296936,0.0,0.0,0.0,-1.1371303545232738,0.0144301087400435,-0.7740946635956539,1.87888687,-0.4045896492553146,-0.2494021527593014,-0.6596331146927594,12.992449555633474,10.550101165348345,12.454241604428251,-0.0389947301513582,-0.0490098575018543,-0.781517947093088,0.0226407447375613,0.0992034813467439,-0.0097351394961062,-22.518274207756846,0.4664119829798139,-33.88751676055586,-2.1617236017411276e-05
396,1724915390937000913,-0.4863922894001007,0.1221060529351234,0.1722308546304702,-0.0281863398849964,-0.0154986847192049,-0.3834455907344818,0.9230032563209534,0.0,0.0,0.0,-0.8174716840026003,0.8371709246412076,-1.1135707799268846,1.889763226,-0.1341205634159798,-0.095722059256016,-0.4586858466819917,-28.360568064471753,-25.652204785555924,31.638468128763797,-0.0402079300526169,-0.0502476702127253,-0.786467821779299,0.0055872139208545,0.1030925838127085,-0.0240242301362982,57.02388924059098,14.618432393736336,15.981759747019453,-5.681803274854774e-05
398,1724915390946192287,-0.4864503741264343,0.1230859905481338,0.1719122380018234,-0.0327384583652019,-0.0167996510863304,-0.3836943209171295,0.92272686958313,0.0,0.0,0.0,-0.078701268274249,0.4975154975680533,-0.6000997760283566,1.8989546,-0.808239482896317,-0.6405046275777587,-0.0656432162500522,8.41674206213536,-1.201242380829345,26.983575141185124,-0.0476184760792177,-0.0561556093688264,-0.7868126626470537,0.0039027784196967,0.1145125711520629,-0.0327043986668709,-4.820656962471226,-22.38988422360853,50.01922727638944,-0.0002455738476029
400,1724915390956114132,-0.4863021671772003,0.1243067532777786,0.1716087460517883,-0.0321082584559917,-0.0172210820019245,-0.3835251629352569,0.9228114485740662,0.0,0.0,0.0,-1.039024012044456,0.4313505538331315,-0.1664211913826865,1.908876445,0.1509424546053118,-0.0304738841001789,0.0330896030921709,45.59321363294036,22.535514922990252,7.253602633238477,-0.0461401193661915,-0.0564422368462298,-0.7864698478924697,0.0042418075635701,0.1114701273832485,-0.0349711055002606,-62.5987838766893,5.318959186107147,42.21118958106535,-0.0002152789259126
402,1724915390967919785,-0.4864023327827453,0.1254602372646331,0.1711343228816986,-0.0329760462045669,-0.0188385844230651,-0.3830280303955078,0.9229558110237122,0.0,0.0,0.0,-1.2977729746892115,0.662535319443462,0.3108629287252644,1.920682098,-0.0283347651542811,-0.3115362059989643,0.0808316641779454,-53.94957292820356,-20.87253811629862,-2.643324007251408,-0.0465401721134683,-0.0600719851958559,-0.7853444518988616,-0.0230998443484296,0.1269291643597583,-0.0360644027746595,92.5140179692597,-144.41256012066464,64.35406281791549,-0.0003852418032599
404,1724915390976354424,-0.4866852462291717,0.1267069429159164,0.1708549708127975,-0.0365271009504795,-0.019506799057126,-0.3829461336135864,0.9228421449661256,0.0,0.0,0.0,0.172134966874193,-1.543798547547314,0.9978466275589348,1.929116737,-0.7169784303902512,-0.4699022742663014,0.0182370798780516,-26.808988708341975,-5.833885688658166,2.5036621731298023,-0.0526093894642178,-0.0640229454415567,-0.7849936629540744,-0.0279101817772833,0.1286189147147718,-0.031010993119354,102.82862811998714,-157.34135607976484,50.19161917392118,-0.0001734472380407
406,1724915390985982565,-0.4868920743465423,0.1277344077825546,0.1705795675516128,-0.0389033481478691,-0.0204987581819295,-0.3822395205497741,0.9230164289474488,0.0,0.0,0.0,0.3770009782657888,-1.9130647317877107,1.1375756367090717,1.938744878,-0.3724258507298052,-0.3838346711613565,0.1514213964600807,29.195372418532017,10.10902188617698,-7.690158328780708,-0.0563043925547715,-0.067633726708114,-0.7833331254056642,-0.0180930111698174,0.0945860676538483,-0.0170214341828316,-21.334642224825924,61.4594145376219,-34.614934542125795,-0.0001827721854032
408,1724915390996618044,-0.4870446920394897,0.1285978853702545,0.170534610748291,-0.0401010029017925,-0.0215422064065933,-0.3830990791320801,0.9225850105285645,0.0,0.0,0.0,-0.3505234724426824,-0.0867996315028722,0.1922691066899632,1.949380357,-0.1393470608015816,-0.2625767336116398,-0.1832235402042891,-3.6956287682254825,6.175267660085366,-13.217225106067112,-0.057662812790638,-0.0705328154975238,-0.7851239372566188,-0.0216332009226007,0.0932913317357782,-0.008628285210035,-112.72100394958736,337.0807022288549,-179.99696371675452,3.475034815793e-05
410,1724915391005528129,-0.4872918128967285,0.1295194625854492,0.1704248785972595,-0.0419997535645961,-0.021964706480503,-0.3837663233280182,0.9222131371498108,0.0,0.0,0.0,-1.685675352505242,4.151011515312455,-2.091653326439054,1.958290442,-0.3634501620621392,-0.2465645787223089,-0.164778055537293,-21.596949994047723,2.008486140619644,2.1499599690641613,-0.0608052971275594,-0.0728127853105349,-0.7864628780337949,-0.0248882005747903,0.0927787364179732,-0.0113707420648062,-244.17392341314763,-104.8760884762197,-1442.6474583098147,-2.026702209889468e-05
412,1724915391071820182,-0.4875376224517822,0.130416139960289,0.1701370626688003,-0.0434098877012729,-0.0216873288154602,-0.3832610547542572,0.9223644733428956,0.0,0.0,0.0,-64.39630394537107,-289.11379927173584,-682.8437476203862,2.024582495,-0.04191869797552,-0.009149143922222,0.0170960469999112,-9517.023261161432,17346.141685003615,10601.14354575079,-0.0636697436655837,-0.0733476310955264,-0.7852908368693213,-0.7878631694613887,2.443696522677044,-1.029867433082302,535623.1196503963,1387597.5418139598,-2128071.557590302,-0.0001980938605534
414,1724915391072182296,-0.4878244698047638,0.13130584359169,0.1697621047496795,-0.0435731187462806,-0.0203602984547615,-0.3826765418052673,0.922629714012146,0.0,0.0,0.0,130.6216670997651,216.10813348869303,-1457.637292848331,2.024944609,-3.5070004496212177,6.306435417644272,3.876882314954003,-19189.035254064955,-17935.012541742446,1234.8293413524862,-0.0650303414954052,-0.0709784359630899,-0.7840334954631559,-0.811286583859328,2.3383623511271594,-1.2784549980199813,578870.9033237379,644296.0824953242,-878511.2182717156,-0.0002866128412144
416,1724915391072478714,-0.4880695939064026,0.1319701969623565,0.1693241894245147,-0.0455861240625381,-0.0207320768386125,-0.3823939859867096,0.9226413369178772,0.0,0.0,0.0,311.99192951757027,224.88884064597005,-1412.042570394127,2.025241027,-11.529180319318328,-7.593458490605657,1.9562108428129157,246.6678320359224,-10808.392799469695,-2163.207037545798,-0.0685004234430832,-0.0731855759526314,-0.7833028871013481,-0.725178557440131,2.5254383407312844,-1.897636775504168,502328.19143820816,-1669787.068644324,1475108.8502528132,-0.000368468474282
418,1724915391072730861,-0.4882306158542633,0.1326679289340973,0.1687555611133575,-0.0463690161705017,-0.0207482185214757,-0.3821218609809875,0.9227145910263062,0.0,0.0,0.0,415.1563608145232,-560.6459981607177,-756.6974581820837,2.025493174,-5.609228357261815,-2.5790719864604115,2.336580266122568,15806.608176011863,6347.213348993184,-1303.4930907991495,-0.0699613430476405,-0.0737935528607004,-0.7826682950978573,-0.6418999520944908,2.495011191996241,-2.1085054486679837,464754.4436518288,-1833030.058637928,1398417.408531804,-0.000494465117721
420,1724915391072979709,-0.4883911609649658,0.1332219690084457,0.1682668775320053,-0.0469867438077926,-0.0210678558796644,-0.3819543123245239,0.9227455854415894,0.0,0.0,0.0,544.4670645943582,-701.8556775890156,-703.5724260377547,2.025742022,-3.559862770668185,-4.324786826001504,1.3215996258639642,-6708.588375330439,-7168.289062390812,4836.404396330502,-0.0708772872591043,-0.0748439758807829,-0.7822635423100897,-0.5177436603199794,2.2474414550453616,-2.277260151830035,293132.15382855374,295267.9424730637,200162.64330692287,-0.0004286529477197
422,1724915391073228413,-0.4884882569313049,0.133786141872406,0.1676225960254669,-0.048317153006792,-0.0213205628097057,-0.3813974857330322,0.9229013919830322,0.0,0.0,0.0,561.0700648252811,-413.9832347472563,-657.102299278477,2.025990726,-8.942797293969402,-6.145624464912194,4.740376134150775,-20298.867525499023,-6836.019135114092,12918.348528325683,-0.0731987523748928,-0.0762835987754442,-0.7809739690291231,-0.3710123877188174,2.1457171341273535,-2.4585619950331594,56229.77923958467,1092020.092624643,191281.75166920444,-0.0005809546401813
424,1724915391077368088,-0.4886876940727234,0.1342117488384246,0.1665399372577667,-0.0497192628681659,-0.0228957440704107,-0.3790848553180694,0.923741579055786,0.0,0.0,0.0,68.39256566097679,-404.58221209306015,440.1708662529056,2.030130401,-0.2914900039263846,-1.0060328940465046,1.1636471769323244,1764.1541363826364,1053.3535131390745,-736.4187315374162,-0.0748059000071244,-0.0800807051141434,-0.7758463930845112,-0.04064475901444,0.0898069645097405,-0.2255869075438696,-100927.87801117529,3217.718727858066,222090.55685489837,-0.0010287704254911
426,1724915391099625982,-0.4886909425258636,0.1346543282270431,0.1658205986022949,-0.050106655806303,-0.0237063951790332,-0.3786061108112335,0.9238964915275574,0.0,0.0,0.0,-13.651981981927122,-219.65922597197095,240.7737026256218,2.052388295,-0.0028647868082257,-0.0823027478450823,0.0421896027233825,17801.248200317503,-21833.99414239328,8269.271141727337,-0.0749567561440911,-0.0818372006631006,-0.774769351436449,0.1158264752759805,2.101114583432718,-2.304509069047981,-1646.3489233586224,-28127.545389075294,30545.512859474984,-0.0006659774098082
428,1724915391099877605,-0.4886614680290222,0.1351889371871948,0.1652342677116394,-0.0498554185032844,-0.0245638824999332,-0.3783074021339416,0.9240100979804992,0.0,0.0,0.0,-14.0604390578617,-226.84040734185425,248.5720281087012,2.052639918,4.526938696524268,-5.638464230482132,2.1465942573964374,17276.550768145204,-21194.218936911704,8027.033974297989,-0.0738709588074363,-0.0832118949931866,-0.7741231159386275,0.1123324914964172,2.0449613878980255,-2.2429742827787047,-1540.808819516202,-27223.45205555901,29559.27221769526,-0.0005237432782634
430,1724915391106135868,-0.4887063801288605,0.135584220290184,0.1647734493017196,-0.0510322712361812,-0.02475799433887,-0.3781924843788147,0.9239876866340636,0.0,0.0,0.0,-10.864803621785558,-192.37340832363216,210.53770483271467,2.058898181,-0.3235032993476491,-0.201606478298343,0.0373705397839982,-449.02674290656216,525.2873630560808,-201.2402939683836,-0.0759230551054937,-0.0844525601702248,-0.7737942993025642,-0.0028462918240137,0.0530911303153134,-0.0615407876648408,769.388257930483,11352.261292624718,-12469.637039442126,-0.0004128520387458
432,1724915391115603975,-0.4886713027954101,0.1359426379203796,0.1643639951944351,-0.0508904159069061,-0.0255567543208599,-0.3778081834316253,0.924130916595459,0.0,0.0,0.0,0.1264189112905414,-1.1661637712622923,0.9105307803650632,2.068366288,0.0950520458754354,-0.1479622974547491,0.0770974068226699,14.807911004590718,3.87247484160064,5.1727712111440916,-0.0750942127865913,-0.0857944169411878,-0.772957635937795,0.002281987317005,0.035176975700808,-0.0453380161034626,591.2237296540253,10614.073916627089,-11644.99089736527,-0.0003664726734527
434,1724915391126002498,-0.4886638224124908,0.1362778395414352,0.1638686507940292,-0.0515776872634887,-0.0259646754711866,-0.3771031200885772,0.9243695139884948,0.0,0.0,0.0,-0.2312757152897267,-0.2117693672146052,-0.3193304145915776,2.078764811,-0.0867144898781095,-0.128174449605615,0.1420432554349956,-8.46477074598143,3.4225696283940477,3.517975995986625,-0.0761322281016835,-0.0870118763767092,-0.7713784002139679,-0.0011453892268207,0.0313405113233926,-0.0450149212920285,-3.32750524791582,66.0570664444038,-41.25570168449921,-0.0004535822404572
436,1724915391137137363,-0.488698810338974,0.1366161406040191,0.1633986681699752,-0.0521283410489559,-0.0261379592120647,-0.3763276636600494,0.924649715423584,0.0,0.0,0.0,0.102144461127936,0.2170430392649074,0.1395932396569246,2.089899676,-0.0734764393109217,-0.0719456190540769,0.1486920747803884,10.978366830033307,-0.9800207359696884,11.091303714604758,-0.0771003093478986,-0.0876839026324355,-0.7696597068943768,-0.0025482315459441,0.0308565264969935,-0.0527485833379568,8.388595054739291,17.613934306840402,105.97224935135348,-0.0004271998647937
438,1724915391145885039,-0.4887170195579529,0.1368893235921859,0.1628648042678833,-0.0520020388066768,-0.0267065558582544,-0.3750037252902984,0.925178289413452,0.0,0.0,0.0,0.0273919098148919,0.227515151739557,1.5116335381681625,2.098647352,0.0898347657429277,-0.1219570923332411,0.3178341238880259,2.4172361204387136,3.700857495578696,0.9216393143676944,-0.0765665749954994,-0.0885341821610608,-0.7667945612089356,-8.692679864807928e-05,0.0345454360119301,-0.0457950426623865,-21.44977157939751,20.0756395265669,72.80657863022482,-0.0004982671624794
440,1724915391155676615,-0.4886960089206695,0.1372639238834381,0.1625833660364151,-0.0522789247334003,-0.0264768060296773,-0.374450147151947,0.9253934025764464,0.0,0.0,0.0,-0.324067506493363,0.6309966888735865,1.3034455889844598,2.108438928,-0.0646178717555327,0.0175015828431508,0.1250398999197582,-20.633892074480528,9.625368767109109,-9.27276400829358,-0.0773063027664327,-0.0882692049350421,-0.7655821827141102,-0.0026022930864524,0.0346448741689737,-0.0231383493647037,-5.7089002980409145,17.93385735419967,-70.07040967058089,-0.0002360392221511
442,1724915391169325565,-0.4888218641281128,0.1376680582761764,0.1623741835355758,-0.0549288317561149,-0.0248999837785959,-0.3733071088790893,0.92574542760849,0.0,0.0,0.0,0.1723127233825975,0.4329817104700666,-0.5815683463711032,2.122087878,-0.4387121804126433,0.0610283604598009,0.1966703003035619,5.556637665921212,-5.828002991250484,21.020727781087704,-0.0835237772807354,-0.0872232946813727,-0.7629633569101383,-0.0083035726072324,0.0550693975816791,-0.0245724533684281,50.166411334466915,-133.02468492826068,-56.97932058936045,-0.0001584063501998
444,1724915391176382859,-0.4888771176338196,0.1381496042013168,0.162167027592659,-0.0558933205902576,-0.0244966093450784,-0.372013509273529,0.92621910572052,0.0,0.0,0.0,0.5767039031904747,-0.9382843499427752,-0.6876514309073201,2.129145172,-0.2792074348163778,-0.0130049388801882,0.4025746891834182,23.64111187305211,-7.358327395087096,14.077263647546024,-0.0857422489678364,-0.0870745871884182,-0.7601138992487659,-0.0049345079632914,0.0542445711311847,-0.0304155055438313,27.970896189320264,-116.95896782412112,21.646180784751415,-0.0001467679763299
446,1724915391186303735,-0.4888857007026672,0.1384926587343216,0.1618504673242569,-0.0561502501368522,-0.0245434176176786,-0.3704811334609985,0.9268163442611694,0.0,0.0,0.0,0.4451482793042995,-1.0199246358080265,0.038621623859629,2.139066048,-0.0301667087172975,-0.0423259462150721,0.3316590577355415,25.266739416433836,-5.283814211325446,3.8498039373339488,-0.0863310764036701,-0.087210203721763,-0.7567870171806054,0.0021720039354171,0.0334802828884353,-0.0352810194021682,-35.63527935109542,50.23256677070211,78.85584523495085,-0.0002722048895646
448,1724915391195678393,-0.4888384342193603,0.138796791434288,0.1614898443222046,-0.0554946549236774,-0.0252710543572902,-0.3684056103229522,0.9276632070541382,0.0,0.0,0.0,-0.0871276952204331,-0.0311276837828327,0.8279126063659941,2.148440706,0.208153520189851,-0.112485426446863,0.4651749264059469,10.56627086896219,-3.8506996759591594,-2.132540915317925,-0.08476897805427,-0.0878882418926024,-0.7523349279278079,0.0039429474288112,0.0334245967376194,-0.030232327362051,-40.01341156289361,43.08479699897181,41.993315517972825,-0.0003212479958511
450,1724915391205721907,-0.488810658454895,0.1391430646181106,0.1612748205661773,-0.0550164505839347,-0.0260042157024145,-0.3671078383922577,0.928185760974884,0.0,0.0,0.0,-0.3086125714006402,-0.2697348092384846,0.7955886734554374,2.15848422,0.1544296824325412,-0.1120658685778475,0.2675628875784598,-12.523835566649764,3.1773766393625555,-9.600648495352578,-0.0834634960126363,-0.0887840215418036,-0.7495517397202258,9.771504392475094e-05,0.0328409444225146,-0.0188035730605173,5.837591227454574,116.80651944632754,-70.34794906112126,-0.0001716736300992
452,1724915391216578841,-0.4888409078121185,0.1394804120063781,0.1611012518405914,-0.0554686412215232,-0.0259944926947355,-0.365685760974884,0.9287203550338744,0.0,0.0,0.0,0.0820906991507824,2.648115945042041,-0.7560224965237894,2.169341154,-0.0657450488050647,-0.0407691384991552,0.2815711079156357,-17.34510380110796,5.737569502904302,0.6299316934618272,-0.0844520523723453,-0.0889687381402482,-0.7464562097538121,-0.0023815181879827,0.0274288011411584,-0.0141836447961652,-610.292713925667,-1492.710018968549,-91.61181244669552,-0.0001308623940634
