seq,stamp,px,py,pz,ox,oy,oz,ow,lx,ly,lz,ax,ay,az,timestamp,lyap_z,wx,wy,wz,aa_x,aa_y,aa_z,roll,pitch,yaw,vx,vy,vz,jx,jy,jz,forward_velocity,forward_velocity_1,deviation
27084,1724816833644139045,-0.4923810660839081,-0.2370496541261673,0.1438827961683273,-0.0317449383437633,0.0552912689745426,-0.1859500706195831,-0.9804885387420654,0.0,0.0,0.0,0.6965114333709455,2.142195585677533,0.091798751333765,0.0,0.1438827961683273,0.0,0.0,0.0,5.875259623921506,-14.88975654650459,13.257479113936654,0.042005235247286894,-0.12052242411079842,0.3723143640677374,0.0894519423164688,0.05745813836067691,-0.07709429450554034,-35.62675095092264,-46.563762145170806,-16.50266377649796,0.0,0.0,0.18201724001225994
27086,1724816833654125688,-0.4914877414703369,-0.2364758402109146,0.1431128829717636,-0.0321336984634399,0.0559857599437236,-0.1865908056497573,-0.9803147315979004,0.0,0.0,0.0,0.34071979037417055,1.6771799163967982,-0.07300746035115191,0.009986643,0.1431128829717636,0.058674120396418346,-0.14869868298685424,0.1323977109908417,31.08264919931094,17.422946481834902,3.7480079852399126,0.0424378126129672,-0.12206191243655487,0.37358203216275937,0.09640775334696272,0.07885148091101435,-0.07617753314812425,-55.86974519341147,-90.58740874553213,-21.39099547360168,0.09408900184053863,0.06897342616320773,0.18201724001225994
27088,1724816833664404433,-0.4904232025146484,-0.2354390174150467,0.1423395723104477,-0.035005122423172,0.053503181785345,-0.1871907263994217,-0.9802407026290894,0.0,0.0,0.0,-0.44770962012504434,0.28031168119594385,-0.3445956193562911,0.020265388,0.1423395723104477,0.6448435700440491,0.37223605321237974,0.07031811824491331,15.96066374483375,10.839794188623506,1.1425170562286953,0.04895773374572694,-0.1182728111767927,0.3744853841124402,0.09614586636479672,0.09117120311139892,-0.07867150753086882,-55.78961540459451,-99.27380276501194,-11.095236130738286,0.1234786602138949,0.0652257873088834,0.18201724001225994
27090,1724816833674620558,-0.4895163178443908,-0.2346060872077942,0.1415009498596191,-0.0368450544774532,0.0527642294764518,-0.1880868226289749,-0.9800417423248292,0.0,0.0,0.0,-0.8052925674461271,-0.361996697530115,-0.30231659769954433,0.030481513,0.1415009498596191,0.3909133724243892,0.0784359748150967,0.15491670008912958,-1.144938457843807,12.51466633408532,-3.11818492218634,0.05275928707549232,-0.1175529845482167,0.3761180365655311,0.08728472203248927,0.0847110838506584,-0.083227244810411,16.62079970772107,-32.98350956737359,60.36665884617196,0.10210804840348768,0.05897218552424776,0.18201724001225994
27092,1724816833683797671,-0.4887275397777557,-0.2338024675846099,0.1407277733087539,-0.0389662124216556,0.0498730689287185,-0.1884606033563614,-0.9800392389297484,0.0,0.0,0.0,-0.22719653159267805,-0.41829606253323126,0.7152074934956567,0.039658626,0.1407277733087539,0.575873266095231,0.5335307615963262,0.03232941308096821,-2.1912267975475945,15.859830038030077,-1.5025581955383522,0.05797857365339361,-0.11268061900920412,0.37668897974286814,0.08040620041166235,0.08361769194324076,-0.08481767332818002,92.59530941971903,8.146726550921084,34.81712269522665,0.1019511697096763,0.05372834307238639,0.18201724001225994
27094,1724816833694414040,-0.4879420101642608,-0.2329632639884948,0.1398203521966934,-0.0400825999677181,0.048131737858057,-0.1894358992576599,-0.9798932671546936,0.0,0.0,0.0,1.1193827291459115,-0.15641157181925758,0.15073024468404395,0.050274995,0.1398203521966934,0.27817512223237356,0.2876503696452827,0.16197768412306582,-32.989461273954475,-21.68112689890295,-15.476738560248592,0.06071987703336331,-0.10973419500447193,0.37859851801578487,0.08440915587336661,0.07550290882014998,-0.06631265299584044,37.85367159059294,36.02950007888602,-111.98952463747605,0.0880202250880931,0.04545153312613211,0.18201724001225994
27096,1724816833704622068,-0.4869781136512756,-0.2322273254394531,0.139331504702568,-0.0395342707633972,0.047776136547327,-0.1880865842103958,-0.98019278049469,0.0,0.0,0.0,0.6323591786319769,0.3228962562045936,-1.5697941795193184,0.060483023,0.139331504702568,-0.1071491169416689,0.08084942721185114,-0.2677862358038628,-20.756692829579713,-30.027786138833676,4.25473492592252,0.05991989614416908,-0.10874558377994742,0.37590357638574423,0.1031220842145153,0.07987355909901339,-0.08040338526989466,-96.56575526235088,-24.77707138013311,-32.86496291325656,0.10842633403050553,0.06423138968726579,0.18201724001225994
27098,1724816833713653169,-0.4859773218631744,-0.2314438223838806,0.1383455842733383,-0.0390286482870578,0.0491240881383419,-0.1886283159255981,-0.9800423383712769,0.0,0.0,0.0,-0.6300880402291305,-0.47398975616996974,-0.7825258760007485,0.069514124,0.1383455842733383,-0.1588531992632856,-0.26838858044333447,0.14101151852173122,33.59436489160699,-0.619667944854239,29.528572847895592,0.05836070456775648,-0.11124047003736591,0.37703845999328817,0.0992387609238854,0.08194863935976926,-0.09609392557666485,-47.79157451923254,-28.955473178396183,140.83913881867767,0.1220199011232496,0.078890959113526,0.18201724001225994
27100,1724816833724794034,-0.4850308299064636,-0.2305969148874282,0.1374547183513641,-0.0428247079253196,0.0470325201749801,-0.1902719885110855,-0.97966867685318,0.0,0.0,0.0,0.1018363808132996,0.018169793179658722,1.524103949911559,0.080654989,0.1374547183513641,0.7558040651206265,0.2476603672778121,0.25370432698426115,6.593466784831447,14.304826680129342,-1.098810228071497,0.06645063938357919,-0.10866297432305745,0.38004974851491585,0.08946905025688778,0.06699585985843903,-0.09168877884354032,67.7853360347102,77.25442912708459,127.84818530884937,0.09779130669149698,0.05584887853209939,0.18201724001225994
27102,1724816833735184114,-0.4840575158596039,-0.2299882471561432,0.1363884508609771,-0.043178591877222,0.0465326234698295,-0.1909937560558319,-0.9795365333557128,0.0,0.0,0.0,0.8263645719249499,1.1413752434275404,2.0850749442662764,0.091045069,0.1363884508609771,0.09266741283072588,0.08606158625354958,0.13362443351559106,-27.602535149100284,38.978398055108,-48.174824952227695,0.0672564035581051,-0.10786352771111375,0.38150324248968714,0.10001123568198267,0.08036605410783437,-0.06491624151324871,-5.631263683547015,-44.79092797624179,-138.44765492933192,0.09707336330774177,0.07194481053729403,0.18201724001225994
27104,1724816833743586486,-0.4831741452217102,-0.2291649580001831,0.1360992193222046,-0.043090496212244,0.0431254021823406,-0.189015582203865,-0.98007994890213,0.0,0.0,0.0,0.26695591404216135,-0.2738825080237395,-0.38582086055719467,0.099447441,0.1360992193222046,0.10686304582200136,0.7841107820177119,-0.5199727478478902,15.851588024627015,19.610287798979762,-14.666194253963615,0.06856432367307654,-0.10099383223291303,0.3775699834464656,0.10567534356524533,0.0889680061069349,-0.0507374969915837,-44.10859456517062,-120.9164363424072,-238.29198226319897,0.12969827187765057,0.06291243109142981,0.18201724001225994
27106,1724816833754067755,-0.4820594489574432,-0.2283503264188766,0.1353541165590286,-0.0452510192990303,0.0418846234679222,-0.1899331212043762,-0.979858934879303,0.0,0.0,0.0,0.09841166300900461,-0.919951112795264,-2.1541363101551507,0.10992871,0.1353541165590286,0.4581706108143685,0.15984623657994085,0.15158421626251947,19.86431231847658,-30.138635158857586,30.661550259265212,0.07319524959271165,-0.09943515713195925,0.37928199813935304,0.10315005865171045,0.06913140791655614,-0.08188866716839094,11.861895354706332,45.393066894320356,31.053850122751644,0.11988278969900769,0.07369395439221489,0.18201724001225994
27108,1724816833765360231,-0.4809335768222809,-0.2276741862297058,0.1342979967594146,-0.0478957369923591,0.040372185409069,-0.1906049847602844,-0.9796661734580994,0.0,0.0,0.0,0.5723223025632436,0.8948669856421771,0.62698271443558,0.121221186,0.1342979967594146,0.5163749289420514,0.17746067920071815,0.09134062682083965,-39.19184752210692,-0.9260416881678211,-10.443218929741928,0.07890975336771537,-0.09751533723469663,0.3804684448837082,0.1083899972078406,0.07057629075879035,-0.0962627145378363,61.40660411879813,63.85288005899333,116.23810397828682,0.10515552694794411,0.07522966084830193,0.18201724001225994
27110,1724816833774348538,-0.4798971712589264,-0.2269632667303085,0.133413165807724,-0.047098834067583,0.0398285835981369,-0.1904376596212387,-0.9797596335411072,0.0,0.0,0.0,1.2633407466510596,0.7758495126866078,0.7414037828913651,0.130209493,0.133413165807724,-0.15315837457193418,0.15135241882163278,-0.03907303858724874,-19.39289933009435,5.573800334110793,-15.427090616295452,0.07755680423969628,-0.09613165550364194,0.38022351811125293,0.11430902955202882,0.0841063707866283,-0.07703497912837154,28.707496420968152,-53.31609203786706,-63.87918910010606,0.12634620466329796,0.0826817749924377,0.18201724001225994
27112,1724816833784814151,-0.4787130057811737,-0.2260219603776931,0.1328678131103515,-0.0484472587704658,0.0378573648631572,-0.1894944459199905,-0.9799548387527466,0.0,0.0,0.0,0.9767688382387876,-0.27047573122251034,-0.860669646522144,0.140675106,0.1328678131103515,0.3152735671808432,0.3130022450296653,-0.21171145618525225,23.836248446883648,-12.972193449756238,11.62408267854464,0.08104091325025249,-0.09269065786438821,0.3782655218498449,0.13490077434232717,0.08333725210032661,-0.08630882814937912,-117.60759232637022,-54.12199589885871,-43.42786229429328,0.1329490105195242,0.07387361648076528,0.18201724001225994
27114,1724816833793619851,-0.4773639440536499,-0.2253370583057403,0.1318544149398803,-0.0500375628471374,0.0376204214990139,-0.189980462193489,-0.979789972305298,0.0,0.0,0.0,-0.727333380860081,-0.40731202923851084,-0.43066497556733196,0.149480806,0.1318544149398803,0.37014939172642247,-0.011777654641089309,0.0989884499555872,11.403093922876792,10.750803661366486,8.799912624743506,0.08422031439587635,-0.09286596526687148,0.3791293923229218,0.1361610602629959,0.07949604544995914,-0.09369902116764184,-149.90825734856585,-33.46730340424254,57.84713723727969,0.15970155107841463,0.11875791065241628,0.18201724001225994
27116,1724816833803982061,-0.4761608242988586,-0.2244923710823059,0.1311442553997039,-0.0521920919418334,0.0335885919630527,-0.1895883679389953,-0.979900062084198,0.0,0.0,0.0,-1.7488870565023387,-0.9727160533253558,0.27868190303779716,0.159843016,0.1311442553997039,0.5513679930050605,0.6804629319697549,-0.13276745835079384,-4.908073762713151,7.920410102781194,-3.206677042181483,0.09000154080808401,-0.08572189943471284,0.3783692931825277,0.11801008039519445,0.07562787027893769,-0.09317942419806968,1796.1029338020637,1162.8862047844825,-769.3707604452356,0.1316322023652564,0.0800794160602909,0.18201724001225994
27118,1724816833813598540,-0.4750089943408966,-0.2238176465034485,0.1300282478332519,-0.0534138306975364,0.032224029302597,-0.1897299438714981,-0.9798526167869568,0.0,0.0,0.0,32.432277470536754,21.075186631148654,-14.597062671311171,0.169459495,0.1300282478332519,0.304294055205607,0.23112473958776533,0.007376811644639361,-22.40739738879665,-35.04336509217777,8.677731422635514,0.092904566403953,-0.08351505419004683,0.37864387638465913,0.10121661507762969,0.06092429624049789,-0.08845991340820714,-3193.27246787954,-2189.3529636606927,1552.0794347379474,0.12707007705634504,0.08955174430572475,0.18201724001225994
27120,1724816833840572651,-0.4736830592155456,-0.2228733152151107,0.129729762673378,-0.0523867309093475,0.0299645829945802,-0.1871244311332702,-0.9804806709289552,0.0,0.0,0.0,-564.2490110870876,-377.1036319344221,261.74418927099396,0.196433606,0.129729762673378,-0.05154784826028681,0.16978235029571828,-0.20462342878542208,21588.692169282658,43971.289442562615,-2721.7675689111193,0.09192585492485064,-0.07844549351293273,0.37355388587159005,3.562071872607021,2.3396879939840574,-1.6237795334038196,-55557.580182132544,-36807.651759329136,25084.664401990478,0.057494325344124186,0.03310221994119942,0.18201724001225994
27122,1724816833840932694,-0.4723836779594421,-0.2220198512077331,0.1291373819112777,-0.053227961063385,0.0268278717994689,-0.1871071606874466,-0.980529487133026,0.0,0.0,0.0,-584.4128192521894,-390.4619176098188,270.84706440094084,0.196793649,0.1291373819112777,7.825123003625161,16.212663476680138,-1.1976191666664717,20092.16420358022,40851.003336107955,-2527.5695053586724,0.0947345685288133,-0.07259344620838075,0.37366888683328886,3.355589731528406,2.2016962149425168,-1.528008956661513,-49857.09046139868,-33001.53295217633,22455.22201196138,4.094754860795208,2.5283073949080572,0.18201724001225994
27124,1724816833845237071,-0.4709783494472503,-0.2212269306182861,0.1285962909460067,-0.0579184703528881,0.02311397716403,-0.1869285255670547,-0.980392336845398,0.0,0.0,0.0,-482.70487108025935,-321.5088936738575,221.99969435456885,0.201098026,0.1285962909460067,2.4610236410144317,1.2781257279506195,-0.2197830826704695,-934.1956700947312,-2361.0261234077047,160.6890480391986,0.10535523963301886,-0.06702493258148456,0.37327614983018276,0.2781274533438136,0.15063607792100697,-0.11263009028271043,33875.47411593701,22769.9953777002,-15910.866812999555,0.3619293023486421,0.2382861351261418,0.18201724001225994
27126,1724816833853929371,-0.4694096744060516,-0.2205069363117218,0.127846822142601,-0.0569646954536438,0.0223495382815599,-0.1870065778493881,-0.9804509878158568,0.0,0.0,0.0,-8.388796502961455,-5.0878533379376805,3.6095355277655585,0.209790326,0.127846822142601,-0.18263774718557305,0.21481405013427726,0.009969448944890961,-149.0206202990407,-40.06427948536152,-6.411182500793309,0.10374907769699748,-0.0651769351075059,0.3735577670967082,0.15917898843142098,0.07669171160246258,-0.05804801741881249,29458.778000756647,19612.26818507128,-13592.324002909654,0.1922122390944564,0.13902093659513343,0.18201724001225994
27128,1724816833863853011,-0.4680712223052978,-0.2198154330253601,0.1275899708271026,-0.0567828454077243,0.0184951163828372,-0.1851560920476913,-0.9808929562568665,0.0,0.0,0.0,-0.5161849963106162,-0.6856501770494199,-0.6224348684324581,0.219713966,0.1275899708271026,0.095927117631231,0.7492299888523833,-0.42574364707532736,34.00166657155866,12.661471395892296,3.4139958286319434,0.1049112799229632,-0.05734225794941087,0.3701236867986705,0.1359270750282029,0.06493725900790892,-0.05247581193158002,450.432228945593,260.00967636387685,-167.33512800295784,0.14921653681859046,0.10047235518676308,0.18201724001225994
27130,1724816833874862947,-0.4665618240833282,-0.2191584408283233,0.1266873776912689,-0.0593008175492286,0.015919666737318,-0.1863557696342468,-0.980561912059784,0.0,0.0,0.0,0.2546345686458018,-0.0656366166700364,0.7003835292649341,0.230723902,0.1266873776912689,0.5427292469881411,0.3854738012758153,0.18987187525442425,-24.53687734308555,-15.715848531617318,3.7337422363466555,0.11074627493204905,-0.05334783768329991,0.3726626645984582,0.15255973478409146,0.06348169497514533,-0.07379081527279219,126.8638882734935,72.06955439362719,7.7547155291555665,0.14482688340273772,0.1063290318157117,0.18201724001225994
27132,1724816833884033758,-0.4650445878505707,-0.2185471653938293,0.1260732114315033,-0.0581860095262527,0.0143456179648637,-0.1856593042612075,-0.980785071849823,0.0,0.0,0.0,1.8523706693692867,0.7156546962085137,-0.08705788450995122,0.239894713,0.1260732114315033,-0.1797281114576595,0.37367575115873203,-0.1744904652733578,-35.441020587130716,-2.1922078522894175,-25.71604499929923,0.10916068973230811,-0.049766023671315815,0.37144652883932616,0.14530002007604814,0.06338825987582197,-0.0472288278033024,125.03621932595027,62.823556303369145,-81.40067798148692,0.1748001846819465,0.13002028949769934,0.18201724001225994
27134,1724816833898477728,-0.4634040892124176,-0.2177058905363083,0.1258401274681091,-0.0598623901605606,0.0115789696574211,-0.1842149943113327,-0.9809930324554444,0.0,0.0,0.0,2.5395066820805816,1.1141841682539084,-1.1612727309794266,0.254338683,0.1258401274681091,0.29424087480367783,0.3214069798889679,-0.2271115766968381,16.88517900433111,60.32807054517989,37.28274935021162,0.11354054375640109,-0.0447878490461607,0.3686992212981285,0.23220397460713116,0.09023747539353977,-0.11635659039448498,-595.7748594727124,-163.99171835993687,493.3924507157561,0.12608549630525215,0.08471674398121758,0.18201724001225994
27136,1724816833904385638,-0.4617455899715423,-0.2170954644680023,0.1249105259776115,-0.0604362785816192,0.0089897746220231,-0.1846404075622558,-0.9809049963951112,0.0,0.0,0.0,-2.534906329703359,-0.3176187621496869,3.125628430899462,0.260246593,0.1249105259776115,0.3555047342624659,0.8323452199874007,0.09204763017658797,-0.08504989391606266,52.512870504543095,8.58998328059294,0.11559409492721225,-0.03996482560646292,0.36980259268668686,0.23880480355964195,0.09502050654493388,-0.11445842571409859,-594.7934522051249,-197.1067830333151,431.82954440953637,0.2925666241534067,0.22326306323940384,0.18201724001225994
27138,1724816833913767516,-0.4601297080516815,-0.2163276970386505,0.1244756951928138,-0.0606630370020866,0.0049063740298151,-0.1825587898492813,-0.981309413909912,0.0,0.0,0.0,-4.180090863389726,-1.4927367907875202,2.7999228746888982,0.269628471,0.1244756951928138,0.1989440607775419,0.8188956774572906,-0.5042412772462093,6.26492250591977,-11.627308651340474,-22.86272357076396,0.11759712851315608,-0.03178383442682873,0.36599524513840365,0.16061003037453858,0.0752466879136886,-0.04335345326120432,86.82653355555512,-20.547328685746237,-179.66280351084524,0.1885451379937441,0.130795760674387,0.18201724001225994
27140,1724816833924897423,-0.4584956169128418,-0.2155772000551223,0.1240327134728431,-0.0632268860936164,0.0012205259408801,-0.181550845503807,-0.9813461303710938,0.0,0.0,0.0,0.24806352529828146,-0.3389182836858202,-1.1135251131076096,0.280758378,0.1240327134728431,0.5717281432887885,0.5548904263034675,-0.22138228634512097,-7.574203690332972,-24.67038375002791,26.285916314512598,0.12400910147984721,-0.02535602300437884,0.36429283489985936,0.16894140834634896,0.06675189731666542,-0.07529133467967064,240.76037461712775,89.29262653652741,-79.56484245761503,0.16014879476326302,0.11228455877305764,0.18201724001225994
27142,1724816833934305367,-0.456730306148529,-0.214954599738121,0.1230421438813209,-0.0637600645422935,-0.000373411050532,-0.1817969679832458,-0.9812667965888976,0.0,0.0,0.0,1.2637986111618984,0.38682074293568824,0.3013875589552155,0.290166322,0.1230421438813209,0.17388063593028788,0.31523776702949546,0.032845439408479817,-23.81723226902647,-6.3170020161265334,1.1992945531403176,0.12562881516107094,-0.02245182731601333,0.36496888165954594,0.16729504874303913,0.06693774700204003,-0.07180267350238445,47.870851738209126,11.014824393969182,63.75385155910747,0.1964878978310547,0.1491111460430489,0.18201724001225994
27144,1724816833946178429,-0.4550488591194153,-0.214148461818695,0.1226914152503013,-0.0641676783561706,-0.0037547834217548,-0.1800150424242019,-0.9815614819526672,0.0,0.0,0.0,0.9317050865090764,-0.47324228942378355,-0.23990675366797376,0.302039384,0.1226914152503013,0.16787200790841453,0.5272775888625162,-0.3398553134572174,1.6043814178646674,-9.756081652177091,-7.763195836081579,0.1276832895306029,-0.01573184202983156,0.3617562212410678,0.20385926576251734,0.07703065130640496,-0.06926467493146582,-237.8799622305002,-73.90605403552468,31.9772907084498,0.15599827072715625,0.10757475911805159,0.18201724001225994
27146,1724816833953533069,-0.4532659947872162,-0.2135403156280517,0.1220010221004486,-0.0646285563707351,-0.0051384703256189,-0.1790456920862198,-0.9817023277282716,0.0,0.0,0.0,-1.7741126650582002,-1.023481969659707,0.348652614158911,0.309394024,0.1220010221004486,0.18928636012866987,0.32971810625286674,-0.28931090892715683,5.042165885977118,-24.616124452093356,8.127108836346464,0.1291013468720555,-0.013054403428479716,0.3599563066461152,0.20092636889668292,0.06752145295020107,-0.07309590102122066,-218.40660884577164,-18.595373018157634,86.50836401255545,0.25475632057369924,0.19472551113981296,0.18201724001225994
27148,1724816833965036203,-0.4517011344432831,-0.2130364924669265,0.1215339824557304,-0.0661464482545852,-0.0059879943728446,-0.1780909895896911,-0.9817700386047364,0.0,0.0,0.0,-1.5967289413292267,-0.22589771623773158,1.4604057951703213,0.320897158,0.1215339824557304,0.28561803606679487,0.0869604330998822,-0.1732503288652252,42.7305151478153,-17.368292497581873,23.210203690963567,0.13240978355868083,-0.011802779952163405,0.3581106592385808,0.15577404549301832,0.06059641710502284,-0.053440144132447465,91.14214786294053,0.8088025361507007,-12.686812466883524,0.14227017062078642,0.11068354201797281,0.18201724001225994
27150,1724816833974177578,-0.4501337707042694,-0.21236053109169,0.120952196419239,-0.0703403502702713,-0.0065004960633814,-0.1786528974771499,-0.981373131275177,0.0,0.0,0.0,-0.21348280702523237,-0.716323150992666,0.5501671314562704,0.330038533,0.120952196419239,0.925814461379635,-0.044674344035739354,0.1342386331544442,-11.464229350765958,-2.0082031217508596,-3.8054289238519043,0.1408590149130682,-0.012374506229872491,0.35927083647812413,0.15809311008387184,0.061263697810117534,-0.04189398729023619,48.205458405375026,-27.19843970861732,-96.58903400609938,0.18570791699244651,0.13222603535388938,0.18201724001225994
27152,1724816833984292578,-0.4486842453479767,-0.2118827849626541,0.1207718625664711,-0.0697553306818008,-0.0068889022804796,-0.1770774573087692,-0.981697678565979,0.0,0.0,0.0,-0.8799431604432755,-0.6953923805169326,-0.39342788782888105,0.340153533,0.1207718625664711,-0.10228773837143025,0.07370442676847454,-0.32332170280579375,-27.01619927636719,-29.66619135723749,9.523324152251668,0.139861270684202,-0.011178787253768682,0.35613665080062135,0.15070499563064033,0.04518377776269844,-0.04430803760669466,-15.527740478866605,77.90386173553314,113.59474326942639,0.15057109648175537,0.1172466105242102,0.18201724001225994
27154,1724816833993575760,-0.4472221732139587,-0.2114807814359665,0.1201349422335624,-0.0715060606598854,-0.0045211734250187,-0.1779435724020004,-0.981428861618042,0.0,0.0,0.0,-0.5950294770268698,0.6738964968793062,2.423675030608445,0.349436715,0.1201349422335624,0.28270499981907227,-0.5541506641603253,0.2316203463498342,22.17027913501471,-8.254987198369975,13.130631755438188,0.14246619423168264,-0.016574426443184707,0.3575418172333735,0.14126234964397,0.04634770653279041,-0.04927888329680297,39.82938287861178,60.76904200774571,245.91654371073233,0.16153268077901284,0.13006432183398134,0.18201724001225994
27156,1724816834004175061,-0.4459213614463806,-0.2109526991844177,0.1198465675115585,-0.0729064121842384,-0.0052627585828304,-0.1769578903913498,-0.9815003275871276,0.0,0.0,0.0,-0.062277659280824516,0.2683612906862476,4.333789723677772,0.360036016,0.1198465675115585,0.2841039996927524,0.0769530324078637,-0.1937467922942892,-26.268047321337754,31.80880669017469,-44.257231726101736,0.1455081856373459,-0.01547254859281021,0.3556262602914494,0.14006429640538443,0.06012868722884157,0.012221961319059282,-10.812426147186724,-95.03786257834145,-89.826592771166,0.1319572736643123,0.09678169811863786,0.18201724001225994
27158,1724816834014108518,-0.4443686306476593,-0.2102594673633575,0.1203350350260734,-0.071684829890728,-0.0059671946801245,-0.1737365424633026,-0.982161581516266,0.0,0.0,0.0,-0.738259764437359,-1.20425817010809,0.9275985057543022,0.369969473,0.1203350350260734,-0.2225981087192573,0.13474381501532282,-0.671781223421081,-8.111983092337812,-11.307019267025982,0.05574869288906337,0.14338888657195234,-0.0131874324869138,0.3492146649154225,0.13991815239245398,0.05318880333752318,0.041600008226399865,-14.128689597003191,-34.38437480978006,-291.6644365627933,0.17139056104867448,0.12490988077263726,0.18201724001225994
27160,1724816834025392421,-0.4429999589920044,-0.2098720520734787,0.1207073628902435,-0.0731972903013229,-0.0050432346761226,-0.1733454763889312,-0.9821243286132812,0.0,0.0,0.0,-0.20651298209653923,-0.132745293061864,-1.7067688981006384,0.381253376,0.1207073628902435,0.2357267565651578,-0.21234831083367314,-0.05359117711167507,23.10435980073953,-10.083483213555347,33.901207529299015,0.1460623415139714,-0.015471288570542101,0.34827061844522583,0.12231331204472085,0.0331190528226486,0.026047978319332366,71.33359708399882,110.61964125819037,-52.78778324838785,0.12622469066883818,0.10349778647150905,0.18201724001225994
27162,1724816834035928234,-0.4417012631893158,-0.2095350623130798,0.1209134459495544,-0.0748926028609275,-0.0046896650455892,-0.173800379037857,-0.9819177389144896,0.0,0.0,0.0,0.7831983845210226,1.1867771627859383,-0.48557694971283105,0.391789189,0.1209134459495544,0.30686680537937755,-0.11518514569184592,0.09814383501113977,24.774961799818797,26.25040039718511,7.2446889270061074,0.14928177033078166,-0.016823788555624566,0.34911486620705784,0.13345391517013283,0.04791144625563604,0.004834026915411904,28.701574223233646,9.800703687765058,119.29241619455793,0.1270812055853944,0.10560743620521086,0.18201724001225994
27164,1724816834045327015,-0.4403615295886993,-0.2089512199163437,0.1208354085683822,-0.0778582245111465,-0.0064822668209671,-0.1743707954883575,-0.9815757274627686,0.0,0.0,0.0,0.5059875666233316,0.31098215313460464,0.6639973223054607,0.40118797,0.1208354085683822,0.690832234312471,0.2743090209262729,0.10622630968841493,-48.36721442844829,10.57914860154785,-33.43716566611405,0.15575324143406416,-0.014427230033185497,0.3504935681907873,0.13851596584440173,0.05724431997861679,0.013081075696264932,-45.832282212694636,-89.00777268008959,-35.431139283819014,0.15507049304748002,0.11233051732797394,0.18201724001225994
27166,1724816834055070724,-0.439052551984787,-0.2084426879882812,0.1211788728833198,-0.0745239928364753,-0.0064317337237298,-0.1717088222503662,-0.9823038578033448,0.0,0.0,0.0,-0.10562326403644651,-0.5141209446173476,-1.2746333313069584,0.410931679,0.1211788728833198,-0.6816803935112573,0.06564525328476015,-0.566020998041181,-35.37842647770406,-22.27746333103662,-16.542154476303633,0.149184418225174,-0.012957382954599594,0.3451390340418762,0.14311687631815317,0.05338530017965759,0.017394628790173172,-61.45806916162062,-18.42033089716625,-84.69571203384608,0.1445207263319032,0.11019941287380097,0.18201724001225994
27168,1724816834064316380,-0.4376523494720459,-0.2079386264085769,0.1211830526590347,-0.0742550417780876,-0.0057831476442515,-0.1704849302768707,-0.9825415015220642,0.0,0.0,0.0,-0.6623353860858563,-0.10312361888676191,-1.0552330756282142,0.420177335,0.1211830526590347,-0.08336845445278707,-0.14788893644662088,-0.25880995948953617,49.27319024358006,-14.099321117541482,34.38978777572748,0.1484482222151975,-0.013954819016134256,0.342569713264488,0.1370711031756251,0.047596092640010745,-0.009456474657824288,24.399726795217287,44.779318663570514,126.67692965104592,0.16094858114791952,0.12442943840202489,0.18201724001225994
27170,1724816834075996663,-0.4362634122371673,-0.2074848413467407,0.1209263876080513,-0.0759560912847518,-0.004945061635226,-0.1713158637285232,-0.982271373271942,0.0,0.0,0.0,0.8712122265899609,0.42472637118826473,1.9434741036919283,0.431857618,0.1209263876080513,0.26432984120184116,-0.17982345162922705,0.1600216243391535,40.168454431726836,29.540285784866825,-7.775869688032676,0.1515124222970491,-0.016310905032278337,0.3441040957249542,0.12921042750648937,0.0541094270437803,0.005501273918834926,43.23442589451006,-17.39550596858973,40.38661225336467,0.12467338784794345,0.09809558346487234,0.18201724001225994
27172,1724816834085670075,-0.4349310100078583,-0.2068391740322113,0.12119971960783,-0.0791448205709457,-0.0073840119875967,-0.1701727956533432,-0.9822030663490297,0.0,0.0,0.0,0.5839624610797767,-0.2449546107558822,0.6009273586340605,0.44153103,0.12119971960783,0.7362178412553186,0.36449310728941653,-0.26476400699120506,-72.82971872996941,1.1646351448050836,-37.43338513605641,0.15866275075347724,-0.01243171253622177,0.3421181287822006,0.15000914929546738,0.05715320208400421,0.029611834721884556,-107.4527713953787,-19.699872039451858,-201.72161177724655,0.15248798977897018,0.10868247180923889,0.18201724001225994
27174,1724816834094072263,-0.4335810542106628,-0.206428974866867,0.1214584186673164,-0.0759982764720916,-0.0069001675583422,-0.1679906845092773,-0.9828304648399352,0.0,0.0,0.0,-0.8863554306515598,-0.04901176851014055,-1.5532714625059023,0.449933218,0.1214584186673164,-0.7632357256532695,-0.02787673616489849,-0.5320001768134316,-71.90489256686801,-29.843228031520322,5.1465395222164565,0.15230418085131078,-0.011970901102373302,0.3376654363204973,0.143486068524183,0.05101101410872122,0.020856518460909967,-118.43462094872265,4.987691570721582,-135.41202414650604,0.16812446794313746,0.13671737529917538,0.18201724001225994
27176,1724816834105694095,-0.4321896731853485,-0.2058009207248687,0.1215411350131034,-0.0767554268240928,-0.006365068256855,-0.1686359494924545,-0.9826647639274596,0.0,0.0,0.0,-1.3536064403318626,-0.2857487603000095,-1.1823332878330524,0.46155505,0.1215411350131034,0.11399223147061899,-0.10375708588377444,0.12182474880409502,66.41909949407611,32.94097610956972,15.518474165587548,0.15361358579599255,-0.01337839104718686,0.33888113305560336,0.1314167142417908,0.061404875787555824,-0.005413688020558638,397.3541652831326,28.12380375676809,167.52458473236464,0.1309608582656221,0.09531789945823119,0.18201724001225994
27178,1724816834114686395,-0.4309265613555908,-0.2051975131034851,0.1214052662253379,-0.0792640447616577,-0.0089277802035212,-0.1686799228191375,-0.9824380874633788,0.0,0.0,0.0,5.263932973331062,0.3045554189875519,1.2676152218294252,0.47054735,0.1214052662253379,0.6482022555583813,0.46707996060947676,-0.02208504730907299,19.186207692094644,26.271141357949865,-11.456333219220147,0.15943725524282162,-0.009198653012364928,0.3393397311587343,0.11705230543634038,0.05062461391775486,-0.008544566561916156,314.0446687095258,52.429475395429975,126.55343276341148,0.15464639312571968,0.10963590408336614,0.18201724001225994
27180,1724816834131208359,-0.4297033846378326,-0.2048613131046295,0.1214633807539939,-0.0775006860494613,-0.0067654810845851,-0.1679534167051315,-0.9827204942703248,0.0,0.0,0.0,-2.3538662993805843,0.7695997750911623,-1.070379175384538,0.487069314,0.1214633807539939,-0.2557838557329591,-0.22842186056042357,-0.0733246895374897,-457.13495334005256,-62.60763000085531,-518.6138744934581,0.15523080747596477,-0.012736200529252626,0.3375518044586122,0.4123096497932863,0.10129415442346357,0.061448706939550846,-2378.5998506428655,-466.7876110063154,-472.2674063902317,0.07663316016627374,0.0632924081993386,0.18201724001225994
27182,1724816834134082312,-0.4283493161201477,-0.204529732465744,0.1216689422726631,-0.075082927942276,-0.0059497947804629,-0.1653506308794021,-0.9833546876907348,0.0,0.0,0.0,-10.148455161218369,-0.8193519803677608,-2.593005527660009,0.489943267,0.1216689422726631,-1.770745082299328,-0.4186075581693822,-1.8215099366767198,-371.10222425342204,-38.874583370290054,-439.04766092191744,0.15021104029936327,-0.013128878992735392,0.3321943510264377,0.39543420205685464,0.10235753979821904,0.05571955126414885,-2178.1624093539463,-476.6322070289477,-409.93503593016084,0.48391668160820794,0.4105518590161148,0.18201724001225994
27184,1724816834144593336,-0.4271036684513092,-0.2039542496204376,0.1216469854116439,-0.0765809938311576,-0.0073552201502025,-0.1657873094081878,-0.9831560254096984,0.0,0.0,0.0,-12.515449677290485,-2.898088757610425,-2.2938657242131053,0.500454291,0.1216469854116439,0.3268636973794855,0.22229890979622385,0.06957429545183993,83.39219985840406,16.4054130709867,79.34612576386382,0.15363374102358202,-0.010929873436738938,0.3332708640412774,0.12436097632025422,0.04802347285479591,0.005417050525593048,509.6650082776242,41.098838649635255,171.4063123002116,0.12986825108434255,0.0941117027904427,0.18201724001225994
27186,1724816834154173863,-0.425861120223999,-0.2035529017448425,0.1217644289135932,-0.0771114453673362,-0.007415625732392,-0.1655516177415847,-0.9831538796424866,0.0,0.0,0.0,-1.2155260783766817,-0.4184648859470288,0.5965651592582807,0.510034818,0.1217644289135932,0.11135692055505951,-0.009725506818666243,-0.04845041882904027,-8.54710254362886,-11.956628513365596,-6.414166002869717,0.15470579006837182,-0.010950665497003013,0.3327978871692449,0.1203700420895828,0.04009091408408594,0.005200220403402511,634.6594017066067,154.3480908291856,114.55324292755968,0.13639079450265545,0.10947443621951783,0.18201724001225994
27188,1724816834163679291,-0.4248048961162567,-0.203188806772232,0.1217472925782203,-0.0778709352016449,-0.0075263390317559,-0.1652919650077819,-0.9831368327140808,0.0,0.0,0.0,-0.3208604739817762,0.0634218027312361,-0.07950900581288628,0.519540246,0.1217472925782203,0.16164745948263093,-0.0077392296036793845,-0.05372964083247163,-6.412257200780335,16.720597231768238,-18.87302906032423,0.15624795759689622,-0.010944256034298123,0.33228188168677836,0.1012810319675097,0.03997540243860431,0.016710428586743653,101.37535019454322,7.506850185423005,-135.22318950327215,0.11750789145435693,0.09255628958319688,0.18201724001225994
27190,1724816834175938378,-0.4237188100814819,-0.2026723176240921,0.1222448498010635,-0.0767646729946136,-0.0104590207338333,-0.1620504260063171,-0.9837364554405212,0.0,0.0,0.0,1.0365947211208955,-0.5273906927415206,-2.7506428838426293,0.531799333,0.1222448498010635,-0.10199041120430682,0.4582966115642965,-0.5747060897689316,5.314997020201631,-42.32004940167555,50.91508714708045,0.15504404993663007,-0.004301669220457669,0.32619241908598146,0.12402554265441168,0.041947755420777,-0.004666384659444134,-139.78324670622158,-61.536214045277625,50.0147402024635,0.09759684938331335,0.07240190765783688,0.18201724001225994
27192,1724816834183947565,-0.4225400686264038,-0.202337309718132,0.1219706833362579,-0.0772921591997146,-0.0092267207801342,-0.1632222533226013,-0.9835137724876404,0.0,0.0,0.0,-1.3937974593797575,-1.0900612305008146,-0.9482226459065626,0.53980852,0.1219706833362579,0.08091974755919948,-0.3010177603241344,0.3218726719756755,2.2923951117471004,-54.4691442835331,52.104889542095194,0.15567979323956785,-0.007082446063504369,0.32836631555202056,0.128043757794444,0.03412228212658164,-0.03196546726213523,-205.5136465108921,-11.989000753730476,244.17144652749516,0.15255336979156137,0.1244520312514784,0.18201724001225994
27194,1724816834193777685,-0.4215121865272522,-0.2020948529243469,0.1216837987303733,-0.0768795683979988,-0.007377321831882,-0.1636375486850738,-0.98349267244339,0.0,0.0,0.0,-2.2324074432429013,-0.5049546620854231,1.6827844718720075,0.54963864,0.1216837987303733,-0.14442402450568137,-0.34979666099418877,0.11211050998724881,0.5286544222936103,9.168879511950836,-17.30357604500646,0.1542551247581344,-0.010649885622714206,0.32892443357323464,0.09147327665368366,0.022043509354110924,-0.011603583371513793,29.012899701486674,79.41093850932526,107.28203841903505,0.10660933113621894,0.0898845668650059,0.18201724001225994
27196,1724816834204964100,-0.4206555783748626,-0.2018816322088241,0.1217777952551841,-0.0778202638030052,-0.0071662818081676,-0.1634363979101181,-0.9834536910057068,0.0,0.0,0.0,-0.4525414171864197,0.6365544840458435,0.8414586905690358,0.560825055,0.1217777952551841,0.16003586417598598,-0.06734350785308968,-0.030087746187167374,-8.146607040479637,11.889786553140151,-8.552745588174892,0.15605028808383184,-0.011342157793585255,0.3284754591141613,0.08544061262614733,0.025608694294684042,0.002274021116443592,73.95709134338537,42.18910432192175,-62.47454069150552,0.07872087945112202,0.06670310265223413,0.18201724001225994
27198,1724816834213763498,-0.419842392206192,-0.2016109675168991,0.1217553839087486,-0.0771806761622428,-0.0068411920219659,-0.1630911231040954,-0.9835637807846068,0.0,0.0,0.0,-0.3911666787564352,0.5934918341442602,0.3798690434410885,0.569624453,0.1217553839087486,-0.156426430253157,-0.05519403960664059,-0.07655963547898752,-17.673811856752607,8.174723038999804,-10.470792059046019,0.15468238827902564,-0.011717737083585913,0.32773472896522376,0.08205893561132527,0.03341004911028023,0.0069157625795943645,17.189184307063226,-34.7628038709687,-67.63725193311514,0.09735993131410518,0.07755481985188067,0.18201724001225994
27200,1724816834224400666,-0.419102668762207,-0.2012214958667755,0.121950626373291,-0.0764965489506721,-0.0074741300195455,-0.1618115603923797,-0.9838238954544068,0.0,0.0,0.0,-0.07697914467221523,-0.16036406161364036,-0.5347995241159788,0.580261621,0.121950626373291,-0.10923551639863255,0.11912436759421821,-0.2546701829591155,8.095732101808085,2.3954665727374467,-6.432886901512399,0.15354743936484153,-0.010049765645254958,0.325252213436037,0.07780983286337673,0.03595439380201704,0.009058056195698327,-10.515988147980604,-55.035305366350784,-41.22551059977643,0.07777587927350176,0.0550006749983688,0.18201724001225994
27202,1724816834234324996,-0.4182538986206054,-0.2008707821369171,0.1219544410705566,-0.0765018910169601,-0.0076279221102595,-0.1607275009155273,-0.984000027179718,0.0,0.0,0.0,-0.5522022206913735,-0.5599351811171083,-0.5294676805583931,0.590185951,0.1219544410705566,0.004991757221207171,0.013340283010040874,-0.2230374047670573,12.335959423465628,-10.557772389474204,10.758123515464646,0.15361826392110223,-0.009580310939210843,0.3230849466396206,0.08003178343192374,0.030663276941593764,-0.0030661072066235917,-60.418903741976685,-13.274413669193581,41.30696515527296,0.09231847165364745,0.06997386986961397,0.18201724001225994
27204,1724816834244445155,-0.4175006449222564,-0.2006087154150009,0.1218878030776977,-0.0772645771503448,-0.0072940224781632,-0.1605068892240524,-0.9839789867401124,0.0,0.0,0.0,-1.2930027706812122,-0.41576880236574176,0.3093028096431719,0.60030611,0.1218878030776977,0.13835924213710754,-0.09246072122062633,-0.036034704483636854,5.205521348638699,4.565948360643536,1.3766969825943214,0.1550235337287422,-0.010448854287347795,0.3225807556315132,0.06643426017512866,0.0247201835098938,-0.0012810752602190334,-10.342140419123261,31.027254399324484,25.492563032990322,0.07872806544398651,0.06217975399074321,0.18201724001225994
27206,1724816834254338068,-0.4169207513332367,-0.2003755271434784,0.1219264194369316,-0.0777287557721138,-0.0079321460798382,-0.1596260815858841,-0.984080731868744,0.0,0.0,0.0,-0.7874280853493167,0.05347393990996063,0.00650663564632617,0.610199023,0.1219264194369316,0.11275315582597473,0.09796891722337354,-0.1878002206953973,-3.2519426181777704,8.037878620399741,-5.271491294538863,0.15615554020460834,-0.009203459109051074,0.32089539138174406,0.05413208458872276,0.022265402824670488,0.0030642598130024012,39.32451353061417,26.041086872498617,-37.96744179560213,0.06309287837611054,0.04840400613236582,0.18201724001225994
27208,1724816834265403962,-0.4163772463798523,-0.2001453042030334,0.1219499409198761,-0.0780541375279426,-0.0083070751279592,-0.1589821875095367,-0.98415607213974,0.0,0.0,0.0,-0.4980821972586651,0.07686351559408888,-0.5047395149596992,0.621264917,0.1219499409198761,0.06855329132675718,0.048143302643695124,-0.1214961608952539,-3.2721946894061382,-5.5353844646695585,6.737506892885717,0.156925130872627,-0.00846761938742572,0.31965034811688614,0.051064148732201886,0.026590444393894686,-0.0022200565244716586,-5.534928199687592,-21.703857946554745,6.898567738980842,0.05318106242439004,0.0402298670683551,0.18201724001225994
27210,1724816834273916592,-0.4159297943115234,-0.1998810619115829,0.121902585029602,-0.0782462134957313,-0.0083334557712078,-0.1587304472923278,-0.98418128490448,0.0,0.0,0.0,-0.7526712322855924,-0.26386213993338836,-0.09829815497111577,0.629777547,0.121902585029602,0.045426630001196254,-0.005740363942332577,-0.05925867157880684,-2.962634429266749,-12.893268262864119,8.29325873303276,0.1573161236186322,-0.008436950610017062,0.3191444839777743,0.04537799310644175,0.025188655807714788,-0.006694886611676054,-12.923042847517596,-14.625643540470016,32.39404739853977,0.059599345571982716,0.04001987204033965,0.18201724001225994
27212,1724816834285133821,-0.4155269861221313,-0.1996850222349167,0.1218107566237449,-0.0785158723592758,-0.0069543565623462,-0.1588878482580185,-0.9841451048851012,0.0,0.0,0.0,-0.6465868706784428,-0.052477069186920966,0.03815884120036006,0.640994776,0.1218107566237449,0.00855958776640549,-0.2473818033415846,0.0482847299736459,2.719019771739534,-0.6709946150753145,-0.9144322635954523,0.15741114805130002,-0.011262482183558306,0.3192445330538421,0.03568308338588366,0.020762706561855637,-0.0014804911137256127,10.586894202687418,3.019742263953031,-6.984949934116092,0.03948568674617561,0.02833036438577461,0.18201724001225994
27214,1724816834294706100,-0.415187269449234,-0.199459433555603,0.1218513622879982,-0.0789716690778732,-0.0066428915597498,-0.1586358696222305,-0.9841514825820924,0.0,0.0,0.0,-0.536018769658466,-0.15283807547305617,-0.18512998892871063,0.650567055,0.1218513622879982,0.08364438692113901,-0.08331892388280723,-0.04625275970515924,2.6094271184431124,7.213988427544625,-0.5313967391537044,0.15821836829932068,-0.011980542244310334,0.3186819376430615,0.03127207171355195,0.023054761632298693,-0.0046007217165584535,6.279689950260039,-25.495125297209537,4.010375488700644,0.04113443201349434,0.026528159150103738,0.18201724001225994
27216,1724816834304388622,-0.4149257838726043,-0.1992412209510803,0.1217202097177505,-0.0793325826525688,-0.0061444854363799,-0.1587828397750854,-0.984101951122284,0.0,0.0,0.0,-0.5268416032015909,-0.5467093139841169,0.12143995462768702,0.660249577,0.1217202097177505,0.05764279514776103,-0.11067890238326378,0.0401250486615199,-8.223561514022155,-4.07050790313283,-4.361927524720345,0.15877379359616942,-0.013100079992847383,0.3188964296615614,0.025345470900369094,0.017732848361807996,-0.0050139011870999894,4.580029046119755,-16.01379962152473,5.351420624329605,0.03252980122759943,0.01811594166725254,0.18201724001225994
27218,1724816834314639192,-0.414683997631073,-0.1991115808486938,0.1217613965272903,-0.0790252909064292,-0.0052975257858633,-0.1579678058624267,-0.9842627048492432,0.0,0.0,0.0,-0.44047702992190385,-0.4431990837278697,-0.10922802973234363,0.670500147,0.1217613965272903,-0.08675305075676806,-0.16591242880708532,-0.14873281195682028,0.4074708868821544,-3.928660484590602,-4.04585732330137,0.15790902326876294,-0.014539101726669026,0.31712254024529557,0.020870184038436435,0.01216058322236968,-0.0019881309862244123,11.211449238152106,17.02097183780208,-22.842981875299195,0.026410861803172914,0.018629080070428634,0.18201724001225994
27220,1724816834324065996,-0.4145108163356781,-0.1990011632442474,0.1216905862092971,-0.0793636739253997,-0.0044697122648358,-0.1576071232557296,-0.9842974543571472,0.0,0.0,0.0,-0.3106354808951184,-0.2227288043243495,-0.3275122274976841,0.679926951,0.1216905862092971,0.0427407921890632,-0.190292856984929,-0.06222362202379751,1.0898222992727655,-5.510583517181324,3.273338523250943,0.158325200464702,-0.016218218840817877,0.31626075657853087,0.01668418779264158,0.008853078550377091,-0.006523717655136707,13.243828366993188,17.91285989693583,15.148717204400125,0.020978411010925756,0.013577867762906233,0.18201724001225994
27222,1724816834334697241,-0.4143536686897278,-0.1989413350820541,0.1216330751776695,-0.0790899991989135,-0.0029440075159072,-0.1569756120443344,-0.984426200389862,0.0,0.0,0.0,-0.17618949654240545,-0.09793255405548124,0.292791105395401,0.690558196,0.1216330751776695,-0.09730456927125469,-0.2839382822434473,-0.09820559731285868,-0.21974961813725435,0.4894724603061693,1.3152336062521197,0.1573172901384422,-0.019035235313679857,0.3147550628231323,0.014981359660581006,0.008021453228609587,-0.008163681563452485,1.6771050092064446,-7.754974871135149,55.80128765033233,0.015691864270627694,0.012150613533993767,0.18201724001225994
27224,1724816834343566357,-0.414219319820404,-0.1988524794578552,0.121540293097496,-0.0792211294174194,-0.002039537532255,-0.1566756516695022,-0.9844656586647034,0.0,0.0,0.0,-0.24247683773156392,-0.31094667512085,0.7688618721040141,0.699427312,0.121540293097496,-0.0034116987143023585,-0.2108007668281201,-0.05176666091089744,2.7406703182101917,6.515315034860869,1.3608909612373776,0.15730188033436304,-0.02080983674984905,0.3140085183115081,0.013300200410419905,0.007007058016000656,-0.002259133690108328,-1.4229927626180494,-11.636470453122019,25.687633402337283,0.01728024909233947,0.011015117731557536,0.18201724001225994
27226,1724816834353889316,-0.4141042232513428,-0.1988163292407989,0.1216155216097831,-0.0790005177259445,-0.0011828161077573,-0.1561808586120605,-0.984563410282135,0.0,0.0,0.0,-0.18446334773415712,-0.28230976869301494,0.6977343214196623,0.709750271,0.1216155216097831,-0.06938841201700702,-0.16434159505304044,-0.08427846677293356,-0.11511896999921495,3.3555034454745387,0.509062091565849,0.15660985779321995,-0.022349483002612188,0.3128837683986882,0.01016122452028867,0.001435322753319923,0.006916786838326416,7.336231099544499,19.259329636859853,-25.15516125853329,0.011846103311682113,0.009726087355866582,0.18201724001225994
27228,1724816834364411881,-0.4140079021453857,-0.1988233923912048,0.1216843277215957,-0.0790993645787239,-0.0004645905573852,-0.155916541814804,-0.98459792137146,0.0,0.0,0.0,-0.08885743213603514,0.09716887158629829,0.23712727875456185,0.720272836,0.1216843277215957,-0.0032816797852453384,-0.14131508195265607,-0.03968034616864775,3.9961515881536513,5.1458201241900525,-2.459451420666226,0.1565901676111789,-0.02375316255198706,0.312239226546757,0.009503178193067896,0.001225926608555028,0.01220845655419378,-4.286022043299379,22.994783059710514,-55.39229852169346,0.008657872673615065,0.009082018147938194,0.18201724001225994
27230,1724816834373900536,-0.4139147400856018,-0.1987955272197723,0.1218486800789833,-0.0792191997170448,-0.0002070693444693,-0.1553291976451873,-0.984681248664856,0.0,0.0,0.0,-0.2439397789088592,0.20353966721936628,-0.38788744208152154,0.729761491,0.1218486800789833,0.015074707581143688,-0.06718262914613986,-0.12032569703049166,-1.164896997379378,2.136491959493342,-0.2344252750615865,0.1567626525804823,-0.024204678241188722,0.31101168658693723,0.008434831584612112,0.0031496064394715972,0.01218453976143774,-12.339187164250117,2.999434623228292,-41.52122446805264,0.01066211632757364,0.008879583420491482,0.18201724001225994
27232,1724816834384019478,-0.4138443171977997,-0.1987613588571548,0.1219165474176406,-0.0791528448462486,0.0003353570064064,-0.1551194339990615,-0.9847196340560912,0.0,0.0,0.0,-0.3255832404937657,0.1452863916735193,-0.5452917231327367,0.739880433,0.1219165474176406,-0.030159372639453886,-0.10681659490923016,-0.03351256675871511,-1.9349169208536978,-0.5201045164628457,4.255183908061892,0.15646992357809217,-0.025219427497546795,0.310507991843646,0.0045490325760582095,0.005217898770943918,0.00410099828318522,8.469964380748475,-8.046757179648836,10.665283239257732,0.007825105828262869,0.005753110390907956,0.18201724001225994
27234,1724816834394829088,-0.4138229787349701,-0.1986836940050125,0.1219307854771614,-0.0790982693433761,0.0007272814400494,-0.1548887491226196,-0.9847601056098938,0.0,0.0,0.0,-0.04305103687834713,0.031861616482128804,-0.12722283790167488,0.750690043,0.1219307854771614,-0.021798652484696687,-0.07321554719791619,-0.0374477183665694,0.7113831506888457,2.7897453554938245,-0.2265500617571577,0.15624766770887374,-0.025938167874040425,0.30998471186020093,0.0017043105189260555,0.0061058005225557155,0.0011345793581255537,497.70304857267035,311.22132303887844,474.7324695283893,0.0041044126599492055,-0.0002828990259990226,0.18201724001225994
27236,1724816834450908544,-0.4138058722019195,-0.1986552029848098,0.121941290795803,-0.0791407003998756,0.0009666075347922,-0.1545873880386352,-0.9848037958145142,0.0,0.0,0.0,165.06339678979162,111.08327049121651,153.36016531754262,0.806769499,0.121941290795803,3.7108003922324885e-05,-0.009488545991421854,-0.010151170990345489,-734.6014164614742,-4988.654947058662,-26.505597627132563,0.15626661281161447,-0.026375203748135078,0.309339317551537,0.0633294189984781,-0.006735222750478442,0.03682618608112875,-322173.91936713445,-174001.86704542322,-154824.67095177877,0.000450012162644294,0.0001399219096032908,0.18201724001225994
27238,1724816834451501371,-0.41376793384552,-0.1986592411994934,0.1219633519649505,-0.0791496038436889,0.0018613536376506,-0.1545092761516571,-0.9848141074180604,0.0,0.0,0.0,-27.96748090309498,6.82740485997941,60.58849848745592,0.807362326,0.1219633519649505,-0.4400605532503352,-2.998168371818594,-0.026033563007636124,8332.096946626774,-1799.977718901153,124.02239834296054,0.15601369910239343,-0.028128579792680058,0.3090475991932298,0.16221100506459152,0.05981552100763565,0.1286993357387587,-496026.8934196658,-223251.81599690526,-335692.1684897287,0.059915294276048796,0.06378844084920693,0.18201724001225994
27240,1724816834451814904,-0.4137007892131805,-0.1986294388771057,0.1220188736915588,-0.0797905251383781,0.002239778637886,-0.1544786095619201,-0.9847663640975952,0.0,0.0,0.0,-211.7467824398508,-71.02758093055593,-74.37744184290801,0.807675859,0.1220188736915588,3.6770607459061933,-3.0250256258588957,0.037859513076075914,3239.940751509324,-1815.454592349849,682.5091177204896,0.15717046091891113,-0.029067269103155043,0.30891132832757845,0.12114635952173103,0.044473243461879974,0.13204466105725032,-244149.330979188,-66166.03104630572,-270738.1445701786,0.23796439394013694,0.1785620296741707,0.18201724001225994
27242,1724816834452166073,-0.413694828748703,-0.1986337155103683,0.1220475286245346,-0.080067940056324,0.0029721674509346,-0.1544986367225647,-0.984738826751709,0.0,0.0,0.0,-162.96538433213473,-22.619654934620826,-106.62687571717841,0.808027028,0.1220475286245346,0.9242988435160492,-4.342924570345737,0.4658289602230374,-5837.159763892879,-2451.208524244409,-54.71818874785078,0.15749737419255794,-0.03059916736750585,0.3088339324238681,0.015017647418176239,0.010840467046421054,0.07247460424002838,263895.236302389,160304.9182005786,42880.928771732186,0.01495924606993434,0.02141520229945112,0.18201724001225994
27244,1724816834452544683,-0.4136899411678314,-0.1986202150583267,0.1220712438225746,-0.080119214951992,0.0038682841695845,-0.1544125527143478,-0.9847450852394104,0.0,0.0,0.0,-12.034219541565779,47.24021969265451,-35.40151859343667,0.808405638,0.1220712438225746,-0.4686267720303132,-4.739636013687423,-0.07469095340853808,-3153.3444479407217,-667.5189889324622,-1245.708712921306,0.1573296984345028,-0.03236702377005512,0.30852456416894525,0.010158561451873993,0.0321376017217645,0.05782364531964301,344863.4634381882,156326.59524111397,163901.36100455694,0.025142303958732817,0.0024997331457972715,0.18201724001225994
27246,1724816834454952966,-0.4137076139450073,-0.1985967457294464,0.1221367567777633,-0.0802061259746551,0.0044608456082642,-0.1540209800004959,-0.9847967624664308,0.0,0.0,0.0,-5.377953330770465,-8.118175548306642,-11.729947734458728,0.810813921,0.1221367567777633,-0.009607488286057262,-0.5216286570489115,-0.28770668337252686,149.31101828688284,1385.999483894886,-63.50859758315306,0.15733557100367673,-0.03349916995362455,0.3076428957777909,-0.006571406945003133,0.007873929581237782,0.023044841135694494,2310.12566234287,-17895.43285029858,7993.462073897026,-0.003129424333112442,-0.00952005694423522,0.18201724001225994
27248,1724816834463818707,-0.4137408435344696,-0.1985880136489868,0.1222053468227386,-0.080171100795269,0.0051758205518126,-0.1538027226924896,-0.9848302602767944,0.0,0.0,0.0,0.292595163978939,-0.6071783096348798,-0.7776872450016541,0.819679662,0.1222053468227386,-0.03344879271730321,-0.16153563289925735,-0.03667980907195946,2.5667342067168404,23.94144915809289,16.6461152551595,0.15705768198235376,-0.034862738230135616,0.30709721254775263,-0.0030455816822581028,-0.00023002572103969499,0.0075439850618979065,340.1414927477794,488.568281389632,713.0049833915148,-0.003003347822572658,-0.0037578335985354724,0.18201724001225994
27250,1724816834474299505,-0.4137640595436096,-0.198605477809906,0.1222820281982421,-0.0805680304765701,0.0057306787930428,-0.1537200212478637,-0.9848077297210692,0.0,0.0,0.0,0.14720969346107796,0.07001787132567619,0.22332974048595128,0.83016046,0.1222820281982421,0.058573384346314795,-0.11721186340876305,-0.006784305019375478,-8.77757264555055,-14.902601346052776,1.4947056930492257,0.15768090697552098,-0.03606488987343742,0.3068343071966559,-0.0012810951455044517,-0.0027912639898808322,0.011420390727364449,-9.07581394307047,44.713044068435096,20.179292068823564,-0.002349428199576809,-0.0015055818286102284,0.18201724001225994
27252,1724816834484573975,-0.4137678146362304,-0.1986454874277115,0.1224407032132148,-0.0798789337277412,0.0082356994971632,-0.1534958928823471,-0.9848809838294984,0.0,0.0,0.0,0.10226468177408855,0.3289839238389126,-0.32808109931950374,0.84043493,0.1224407032132148,-0.20845571354001413,-0.46302603849642604,-0.005102042899701209,2.0431770608341715,4.68871787765259,-0.8518439303439391,0.15556961325615404,-0.04075582604454303,0.3060398202694931,1.843448656302371e-05,0.0010947551323692295,0.01223912421879092,-5.235751566080399,-2.20818733731065,-30.929185147654614,-0.0008912163973386896,0.0009624730663519607,0.18201724001225994
27254,1724816834493654553,-0.4137645661830902,-0.1985955089330673,0.1225261241197586,-0.0801150873303413,0.0087076192721724,-0.1533624678850174,-0.9848785996437072,0.0,0.0,0.0,0.04780861567640596,0.08893160581407579,-0.426447070991262,0.849515508,0.1225261241197586,0.03507200604745593,-0.11270447813898878,-0.020987699590066362,16.819781183867477,21.265667329008963,0.37553967433603475,0.15590243041594032,-0.04173730746152555,0.30569255302645043,0.0007527074456206151,0.00368697222438108,0.0059874559470429745,-7.656253808092734,-18.974192949326184,16.920788598766293,0.0023883358600618847,-0.001259664331323515,0.18201724001225994
27256,1724816834505366452,-0.4137497842311859,-0.1985797733068466,0.1225445941090583,-0.0806939899921417,0.0093640675768256,-0.153397262096405,-0.9848198890686036,0.0,0.0,0.0,-0.06692512897898134,-0.020579396169817105,0.19096164162673301,0.861227407,0.1225445941090583,0.08102544061227014,-0.12517654326690938,0.015509461301960206,-5.536371205742693,-3.9877433271010467,-2.4804684809573314,0.1568534686619353,-0.0432137627679756,0.30564360843186794,0.0008133435142383405,0.0017597040175463263,0.004950931320742313,-5.358507087380627,-1.058969773776494,19.83473008928405,0.001674549003790364,0.0008044974623353785,0.18201724001225994
27258,1724816834513676410,-0.4137456715106964,-0.1985626965761184,0.1226056292653083,-0.0807223916053772,0.0100828474387526,-0.15318164229393,-0.9848440289497375,0.0,0.0,0.0,-0.08528785990423463,0.019508361179580706,0.1619115685274981,0.869537365,0.1226056292653083,-0.020759529952277124,-0.17554808539391697,-0.03810233487784843,-5.8212276024633205,0.24924345321370822,-2.554100975890498,0.15670470781911763,-0.04460523104299068,0.3051025700637546,-0.000167930037662245,0.0024376037956077568,0.008185580045138252,2.2584300197389617,-1.7456474943242788,-14.330323473801581,0.0014157780453622451,-0.00011601168267767279,0.18201724001225994
27260,1724816834524025908,-0.4137559533119201,-0.1985325366258621,0.1227011829614639,-0.080805130302906,0.0105423619970679,-0.1530705690383911,-0.9848496913909912,0.0,0.0,0.0,-0.004321458150183492,-0.08323920759517092,-0.126052667018666,0.879886863,0.1227011829614639,0.0018394123141357078,-0.09162439064005379,-0.014299890117159517,2.418511608222112,4.479598234964545,1.5556750076429589,0.1567370072345505,-0.04551877568273707,0.3048080764200567,-0.0006278864216540114,0.0018394676430331103,0.00693098378784196,7.614315373971509,-2.9962068164593525,-17.057902417636384,0.0003470910070252958,-0.0017935954705335547,0.18201724001225994
27262,1724816834536045738,-0.4137583971023559,-0.1985254287719726,0.1227523609995842,-0.0810892209410667,0.0110314954072237,-0.152994304895401,-0.9848328232765198,0.0,0.0,0.0,0.08428506099277835,-0.022490096873384442,-0.18079408412680337,0.891906693,0.1227523609995842,0.034189114800530995,-0.08844537193344992,-0.005989635995117416,-2.0074792164249153,-6.905269702955202,-1.3559336399392627,0.15715888278542384,-0.04655755343265837,0.3045705418613592,-0.00011975184742851752,0.0004837343177435116,0.005348429991528292,0.8412631581627661,5.327835176455131,-4.770577354006335,0.00018155757507293122,-0.00035987264370950493,0.18201724001225994
27264,1724816834543516923,-0.4137589037418365,-0.1985223144292831,0.1227973848581314,-0.0811796486377716,0.011662907898426,-0.1528473794460296,-0.9848409295082092,0.0,0.0,0.0,0.06024377573866918,0.018586458288090062,-0.217440506516197,0.899377878,0.1227973848581314,-0.002629967475813726,-0.17333135649345358,-0.02562753247713156,-1.6591777440852054,-4.69921959193796,0.9828145874898659,0.15715773831872093,-0.04780661926905019,0.3041783253530421,0.0007050484128896528,0.0007350546875635189,0.0037695202043979137,-6.261152158546742,7.583714837047157,25.389977859698526,0.0003480704211588829,-0.0001797987478965369,0.18201724001225994
27266,1724816834553786239,-0.4137407541275024,-0.1985102742910385,0.1228042393922805,-0.0814114809036254,0.0123018687590956,-0.1529749780893325,-0.9847941994667052,0.0,0.0,0.0,-0.04701118624107916,0.125906783449897,0.47092377117044404,0.909647194,0.1228042393922805,0.02647422878923092,-0.12754429942328507,0.035440278721117845,-4.390448406729475,0.4461700628910883,-0.7701441503644308,0.1574221227471532,-0.04915725217057,0.3043327890986969,0.0006157701079096967,0.0007134574121625548,0.0014503484542629508,-6.660921118160284,1.2776933830463717,27.03414430082917,0.0020678138858972552,0.001328962497889481,0.18201724001225994
27268,1724816834563774163,-0.4137457907199859,-0.1985076069831848,0.1228263303637504,-0.0811069384217262,0.0131505504250526,-0.1527191996574401,-0.9848479628562928,0.0,0.0,0.0,-0.07678810914821992,0.04956062707259495,0.3523979328276586,0.919635118,0.1228263303637504,-0.08755818301889544,-0.16206597348822743,-0.03750022457826433,-5.101425824265296,9.64542268948195,-15.31623694566116,0.15657870096648663,-0.05069747364086977,0.3037089184440252,-0.00022599944532686322,0.00321452372885922,0.01292238368023213,3.62894743771829,-22.412069941837753,-59.4505430874871,-0.00028872579303764275,-0.0005639716172461669,0.18201724001225994
27270,1724816834573623650,-0.4137453138828277,-0.1984473168849945,0.1230576410889625,-0.0807079821825027,0.0128097739070653,-0.1514470875263214,-0.985081672668457,0.0,0.0,0.0,0.02316021571739598,-0.31463005943694977,-0.6953377199427886,0.929484605,0.1230576410889625,-0.07646135975393317,0.060193516569366126,-0.2661908914122115,6.029196935763896,1.2323767837147264,5.468627259958382,0.15595109168437965,-0.04970378742612948,0.30120815482904695,-0.0009095667584375633,0.001751836252923411,0.008659928388552451,12.019883601837659,-8.63446682090595,-3.4146606238037336,0.0030267078007484437,-0.0018114644368823604,0.18201724001225994
27272,1724816834584171346,-0.4137657284736633,-0.1984781920909881,0.1229815334081649,-0.0810549780726432,0.0136966053396463,-0.1519786268472671,-0.9849594235420228,0.0,0.0,0.0,0.17109086301004664,-0.08557937371384657,0.4316196030671448,0.940032301,0.1229815334081649,0.0425091191705923,-0.1677749198598453,0.11552349519318227,10.437916565844525,-5.869536551934951,14.172903772105144,0.15635239004578147,-0.05164139964720491,0.30213784401101806,0.00038023958537536373,-0.0034432470318446207,-0.00164021273520909,1.7995147858028497,27.132975181502456,90.6081593927535,-0.003087638907113858,-0.0009455469331665765,0.18201724001225994
27274,1724816834593703684,-0.4137421548366546,-0.1985154598951339,0.1230139285326004,-0.0817474052309989,0.0140361152589321,-0.1522395014762878,-0.9848570823669434,0.0,0.0,0.0,0.08292593544297296,0.21972956745902553,1.1554605308709172,0.949564639,0.1230139285326004,0.13475870493547568,-0.08809888244736494,0.0609587412918422,-2.141896447497447,8.234303876093657,-15.943484369029472,0.1576138590860124,-0.05256170246022455,0.30258106203989066,0.0024315996989408006,-0.0007532303706874188,0.014604948066962109,-14.132475855276784,8.837204593523484,-20.8566112521815,0.0013725563984396678,0.00352938314794283,0.18201724001225994
27276,1724816834603699487,-0.4137182831764221,-0.1984899044036865,0.1232773810625076,-0.0817153006792068,0.0139950672164559,-0.1512241512537002,-0.9850168228149414,0.0,0.0,0.0,-0.10952676850920798,0.06497526376719545,-0.0675716564120088,0.959560442,0.1232773810625076,-0.010540264063267291,-0.00709219148230639,-0.20552598160247781,-7.0961905900683115,-5.894613408050756,-7.18348959591297,0.1576155936005344,-0.05230925928189943,0.30053823861013057,0.0018740394119625137,0.0007883504376788864,0.020402760190750158,-20.237714237824964,-16.42680367176547,-100.8557465121603,0.004411867423651924,0.0014352198404137498,0.18201724001225994
27278,1724816834613833209,-0.4137045741081238,-0.1985000818967819,0.1234229728579521,-0.0818521603941917,0.0150185832753777,-0.1507459580898285,-0.9850636720657348,0.0,0.0,0.0,-0.3247230372371138,-0.11119661836421582,-0.8687466357231506,0.969694164,0.1234229728579521,-0.006017901767032233,-0.21064265833486767,-0.07823216140377406,1.8805563886504082,-7.940269984648822,8.51069556308766,0.1576142540611823,-0.0542929557815459,0.29941863360834253,0.00021195003906093746,0.0005299031267087528,0.013064898698028848,-11.481100684823184,-12.334309466900493,-28.13906982102106,0.001774567367898264,0.0015209102842573745,0.18201724001225994
27280,1724816834626225624,-0.4137192368507385,-0.198470264673233,0.1235651448369026,-0.0822102203965187,0.0157275944948196,-0.1504777073860168,-0.9850637912750244,0.0,0.0,0.0,-0.3191756994169083,-0.18751188052165266,-0.44576975767481564,0.982086579,0.1235651448369026,0.039022712210511,-0.12497199339164765,-0.03415080072077166,10.93804738987028,-13.90595496406506,23.9520930364346,0.1581342677180041,-0.05575586240145606,0.29875618971338946,-0.006247599428583328,-0.0021467288732672785,0.0001070257957387355,21.765277169675542,20.089776875702867,111.27332301024,0.00021738102732426435,-0.0019201964328474385,0.18201724001225994
27282,1724816834633615437,-0.4137877225875854,-0.1985061913728714,0.1235158517956733,-0.0829275995492935,0.0168765429407358,-0.1512363702058792,-0.9848684668540956,0.0,0.0,0.0,-0.06439448727633984,0.07661420169501545,0.7164563401193391,0.989476392,0.1235158517956733,0.1520370555656246,-0.3194774287277888,0.2327246714470434,5.215289729883706,-10.973145848839524,13.092707455683247,0.15918210839453178,-0.0583588085185059,0.30008355306053724,-0.007715771423105977,-0.0034069148421123074,-0.0005437435089596931,27.09274609834634,22.904738533463284,108.68017747202262,-0.01066207729170091,-0.007322065391746346,0.18201724001225994
27284,1724816834644670628,-0.4138473570346832,-0.1985197961330413,0.1236111670732498,-0.083318330347538,0.0178568698465824,-0.1511367708444595,-0.9848334193229676,0.0,0.0,0.0,0.1129898027413288,0.11752135198834614,1.1142606458649817,1.000531583,0.1236111670732498,0.043017415816882745,-0.1869595525856301,-0.0032726412430124177,7.349702526082296,10.888286433178829,-15.292653324557023,0.15967928131189654,-0.06039371783844594,0.29971901905524984,-0.006206849508011203,0.0015274943783776251,0.020682451631830467,6.363328301953857,-18.3006372793064,-53.11550581560948,-0.00498667081524504,-0.004860476409425068,0.18201724001225994
27286,1724816834654056321,-0.4139120876789093,-0.1984834820032119,0.1239013895392417,-0.08454430103302,0.0180738270282745,-0.1506654322147369,-0.984797179698944,0.0,0.0,0.0,0.09556474540473844,-0.22955291867781852,-0.09423392461939362,1.009917276,0.1239013895392417,0.24914292140643612,-0.0935198301398714,-0.09856030523223203,2.1480091440969558,-1.702906372144808,-4.0267174975431095,0.16208175002080258,-0.06111194680415475,0.29866334432054437,-0.005333618061804657,1.0358055034132008e-05,0.02472001116912992,-6.588523327977858,-13.220699494220627,-94.33654101410072,-0.003554273483866999,-0.008052093920934145,0.18201724001225994
27288,1724816834665614792,-0.4139514863491058,-0.1985382884740829,0.1240988373756408,-0.0847474262118339,0.0196412894874811,-0.1501984298229217,-0.9848211407661438,0.0,0.0,0.0,-0.0479445028824384,-0.04418141882608431,-0.6946391665538542,1.021475747,0.1240988373756408,-0.008061896388345596,-0.27915212567182857,-0.05790800085169241,-6.417320245476138,-4.674097982262573,2.6041539806667218,0.16206269798354878,-0.06418824317988206,0.2974798718532561,-0.004193077510674215,-0.003609561902429448,0.016166141349425622,-9.254328428502268,17.584799035657507,-5.958645484495932,-0.003543448307443588,-0.0020596426080065457,0.18201724001225994
27290,1724816834675021538,-0.413996934890747,-0.1985635757446289,0.1242438927292823,-0.0851623490452766,0.0206807982176542,-0.1499220132827758,-0.9848061203956604,0.0,0.0,0.0,-0.11079365271714625,0.13307813033144145,-0.39863782464352615,1.030882493,0.1242438927292823,0.052799546103790944,-0.23595227113623074,-0.04040052668815835,4.714925083419686,-3.34504738230196,7.88555959288155,0.1626072980450626,-0.06631717441114632,0.29674449925770713,-0.005766543084821052,-0.0019657983041980742,0.009979509164439904,2.230627456883652,3.0172102577891193,48.24340858000845,-0.00437260192981516,-0.004041250054578531,0.18201724001225994
27292,1724816834683730096,-0.4140546917915344,-0.1985748708248138,0.1242869347333908,-0.0857119634747505,0.022068353369832,-0.1501365005970001,-0.9846956729888916,0.0,0.0,0.0,-0.019518565159256207,0.03175608476393797,0.15674793595533487,1.039591051,0.1242869347333908,0.07971017050593197,-0.329076295997691,0.07684117358025029,3.728409315720068,0.4300988052897132,3.932109028385506,0.16328820409635264,-0.06925355669647264,0.29694037073302637,-0.00627607365051297,-0.001142790321485343,0.008596399007422484,5.535871284057493,-7.169293254933514,47.20666983011694,-0.006363325908025317,-0.0060259467094784394,0.18201724001225994
27294,1724816834695133444,-0.4141209423542022,-0.1985855996608734,0.1244395226240158,-0.0865895524621009,0.0228329673409461,-0.1499598771333694,-0.9846283197402954,0.0,0.0,0.0,-0.0302330349649631,0.016680677611180146,0.4476677450208668,1.050994399,0.1244395226240158,0.1317572352875255,-0.15807556299084904,-0.020632284213247244,-9.000249308264202,1.63142257629673,-4.890693079985859,0.16482764397310365,-0.07099351028262647,0.29641252111086885,-0.005916442112773979,-0.0017176423620792747,0.015095945505017916,-0.9498395522865519,-2.434914805437274,-12.056418084596608,-0.004867347192351518,-0.005514986936024606,0.18201724001225994
27296,1724816834704895939,-0.4141795933246612,-0.198608860373497,0.1246012300252914,-0.0864455923438072,0.0240878500044345,-0.1496629863977432,-0.9846562743186952,0.0,0.0,0.0,-0.039591503442851506,-0.016391494731338316,0.015981416435921214,1.060756894,0.1246012300252914,-0.06947583180773595,-0.25384373906931496,-0.03781253181792606,-7.088167765255928,-6.375387291227119,-0.3347546870874385,0.16420507782155191,-0.07337774647006609,0.29564050995088376,-0.00672785339292048,-0.000994063562890446,0.018444142687829235,-0.5498733703288314,-4.210195643417851,-29.632017656053886,-0.005209653402042013,-0.005376645506573715,0.18201724001225994
27298,1724816834713772925,-0.4142451286315918,-0.198606476187706,0.1247801333665847,-0.0865349397063255,0.025327606126666,-0.1494239419698715,-0.984653651714325,0.0,0.0,0.0,-0.041173446769599636,-0.06040455239644714,-0.1293196140688812,1.06963388,0.1247801333665847,-0.02322872116623404,-0.28271603617400415,-0.029281294903716646,1.8494198532006556,-0.6908202180582528,-0.29781922259227067,0.1640486954311016,-0.0758112213031826,0.2949721750276788,-0.006727992527189031,-0.0018701467388826387,0.015946661751314206,-5.353601269432552,0.30031600491705546,-8.907260633937712,-0.005439203033710581,-0.007607706307866536,0.18201724001225994
27300,1724816834728696670,-0.4143291115760803,-0.1986880451440811,0.1249125674366951,-0.086214855313301,0.0270552635192871,-0.1487810015678405,-0.9847331047058104,0.0,0.0,0.0,-0.25091670633442187,0.07600794502255348,-0.07505676718041898,1.084557625,0.1249125674366951,-0.07993774290842091,-0.22875495978220653,-0.06531016097448554,9.708272132004627,1.849947338355065,-11.023599289280138,0.16297342112507296,-0.07902090508101264,0.29345020713817965,-0.008375077975152578,-0.001811012393797995,0.017830911504924885,-11.941941511812555,-8.471349318062515,-57.258535482069746,-0.0062456509921063694,-0.003988229271299345,0.18201724001225994
27302,1724816834736361725,-0.4144041240215301,-0.1986875385046005,0.1250845044851303,-0.0865400210022926,0.0278034191578626,-0.1480193585157394,-0.9847984910011292,0.0,0.0,0.0,-0.33413610829558826,-0.05826176845122563,-0.7536814045277399,1.09222268,0.1250845044851303,0.04765689215694007,-0.22152691761459334,-0.1837008812463648,3.4105966514724964,3.3496390300234893,-3.835111113142573,0.1634717838355752,-0.08046753735597431,0.2917795931606733,-0.010851697290888751,-0.0009447724190536633,0.016463042171231734,-2.7534053765452207,-13.278411357322838,-45.4098521331648,-0.007520334154573003,-0.010015617180964055,0.18201724001225994
27304,1724816834745431128,-0.4145139753818512,-0.1987069547176361,0.1251697689294815,-0.0863794684410095,0.0285474359989166,-0.147527128458023,-0.9848651885986328,0.0,0.0,0.0,-0.27214793112974156,-0.13320321232323365,-0.7027450450610994,1.101292083,0.1251697689294815,-0.0634437582542647,-0.16532178655921292,-0.09389125402244766,-1.920851489259912,-0.014053830527096522,18.21482138276815,0.16298453298939478,-0.08180860391437406,0.2906921594232946,-0.014000485255163397,-0.00331111434521425,0.003454822519685763,16.582695035713968,8.590104219336801,58.43070389580985,-0.011408626694330832,-0.011221702012399847,0.18201724001225994
27306,1724816834754056950,-0.4146502315998077,-0.1987451165914535,0.1251507848501205,-0.0865210071206092,0.0295125599950552,-0.1480052322149276,-0.984752595424652,0.0,0.0,0.0,-0.04913800703298754,0.07915616699536103,0.23455393167970007,1.109917905,0.1251507848501205,0.0047274153214234066,-0.21639994877989335,0.1314204317510375,1.426557394720391,-0.0008013129229444971,7.208968431034923,0.16295760216991098,-0.08383443012319969,0.2915107027937382,-0.01573236084782792,-0.0034123633920764007,0.0033946764762324833,13.861044780288823,20.73279859577582,51.60920986487129,-0.016528067465535392,-0.01369296914328054,0.18201724001225994
27308,1724816834763867595,-0.4148038625717163,-0.1987673044204712,0.125246524810791,-0.0863727629184722,0.0302738919854164,-0.1478907465934753,-0.9847596287727356,0.0,0.0,0.0,-0.046969472914813126,0.2391948865507739,0.10426653020420597,1.11972855,0.125246524810791,-0.05354434432566567,-0.15034293363745357,-0.008874994194909076,-3.9052388201266464,-2.6879694598029733,-1.0686860578784705,0.1624598086993449,-0.08527579418946145,0.29118464772572256,-0.014522404725703097,-0.0016215750048473865,0.008390808328409882,-19.283692256369868,-10.04407623840638,-8.668612240560304,-0.014761650916774852,-0.014607892618596513,0.18201724001225994
27310,1724816834774370708,-0.4149436056613922,-0.1987771391868591,0.1253192722797393,-0.0862024277448654,0.0318592488765716,-0.1484155803918838,-0.9846456050872804,0.0,0.0,0.0,-0.468828396065903,-0.1626675367661884,0.06507400429364063,1.130231663,0.1253192722797393,-0.07168570196356155,-0.2845108994078559,0.12868309576550488,10.087392679804095,1.4496965497178387,8.532476352475484,0.16163272537834578,-0.08844296284477277,0.2920396364260897,-0.01693066625612616,0.001527822976489901,0.004932042198505293,-9.016343831638364,-37.69147715715327,7.15780659745196,-0.012348521757129602,-0.012670282500296427,0.18201724001225994
27312,1724816834784636873,-0.4151538014411926,-0.1987367272377014,0.1253498941659927,-0.0870314463973045,0.0324614308774471,-0.1492455303668975,-0.9844275116920472,0.0,0.0,0.0,-0.24882720501273248,-0.5438968566318063,0.24782680808227975,1.140497828,0.1253498941659927,0.1504277681980233,-0.12689835670598873,0.1704770363657815,-9.591737934672231,4.734021134764857,-17.88171788916056,0.16304135420860852,-0.09001145717977886,0.293562255425004,-0.024147396304535107,-0.004783347708556818,0.009557560215498029,41.03549419431756,14.296325814069336,-26.853494441677064,-0.018116782374384743,-0.020811432663746198,0.18201724001225994
27314,1724816834793823911,-0.4154058396816253,-0.1988523602485656,0.1254917532205581,-0.0862952098250389,0.0332969427108764,-0.1483600437641143,-0.9845983386039734,0.0,0.0,0.0,0.2893531207011675,0.010274841855112488,-0.36600104053813937,1.149684866,0.1254917532205581,-0.19442162292955278,-0.1707058817610065,-0.17428412294373535,-12.560950231176278,-0.6578295838283763,-10.919521615238923,0.16142189082344635,-0.09130054197844183,0.291721303447656,-0.022699778282614602,-0.009197604141895965,0.010167619574978914,29.38161566844059,42.81819885384704,-61.309483296375696,-0.02836258656764667,-0.023033175899563378,0.18201724001225994
27316,1724816834804295769,-0.4155870378017425,-0.1989082247018814,0.1255352795124054,-0.086246445775032,0.0339942499995231,-0.1484463810920715,-0.9845656752586364,0.0,0.0,0.0,0.2485060178511277,0.24974067926205923,-0.9423147250095958,1.160156724,0.1255352795124054,-0.02784072953983908,-0.1285292548870473,0.028963627576996727,11.25005595875628,0.39678021229203253,15.458716526426285,0.1611226374903408,-0.09267770251048715,0.2918048475766384,-0.01809672384068506,-0.003232091191934572,0.0011735613453414118,-2.960300148720611,-5.983021371286008,5.370381551791601,-0.01764419370542943,-0.01508186917652765,0.18201724001225994
27318,1724816834814416562,-0.4157779514789581,-0.1989203691482544,0.1255179792642593,-0.0865429565310478,0.0348252058029174,-0.1491147130727768,-0.9844096899032592,0.0,0.0,0.0,0.22774350902686558,-0.09301412240327542,-0.2971118168853039,1.170277517,0.1255179792642593,0.040462157023823775,-0.16002853879093154,0.14677891609096202,-3.2592116703096528,-7.994626793912146,8.181071928346418,0.1614189477969774,-0.09451485127582998,0.293016373007839,-0.017450481492048198,-0.0038339142364307577,-0.00917953789935666,7.29875939967156,-11.029446631910767,80.498722811484,-0.01848525607935333,-0.01754628828655169,0.18201724001225994
27320,1724816834823798190,-0.41592937707901,-0.1989792436361313,0.1253668963909149,-0.0863490849733352,0.0362390093505382,-0.149882510304451,-0.9842590093612672,0.0,0.0,0.0,0.3775315375101736,0.002112056662120984,0.6037496188551474,1.179659145,0.1253668963909149,-0.07714842544386206,-0.2774897594822881,0.19344234846821554,-4.125696391046527,-0.33738459262104215,-5.455546198228014,0.1605629116512977,-0.09737539021688423,0.294396723502898,-0.013888610864720263,-0.004998304826120403,-0.005654687608317666,-97.6884072090174,-8.442464905344952,107.60798505371282,-0.018751026583311167,-0.01275024984410397,0.18201724001225994
27322,1724816834836003237,-0.416063129901886,-0.199019968509674,0.1254637986421585,-0.0864745676517486,0.0367426164448261,-0.1496046483516693,-0.9842715859413148,0.0,0.0,0.0,-2.6193867466942353,-0.39597836291500277,2.1010427458220184,1.191864192,0.1254637986421585,0.006041786346903396,-0.08816432106178777,-0.03874372559993883,4.639763833585628,11.291609142597727,-12.805011289785773,0.1606993763789769,-0.09836195444495358,0.29375475992709615,-0.009314687460025617,-0.002968288438528699,0.005334825413649158,-62.99845693588669,-509.8212731933258,-508.1175606474608,-0.010620456995493601,-0.009803627421708516,0.18201724001225994
27324,1724816834866397364,-0.4162217974662781,-0.1990823000669479,0.1254287958145141,-0.0863329172134399,0.0378024242818355,-0.1501496285200119,-0.9841609597206116,0.0,0.0,0.0,9.283008260867973,-52.01126752788838,-61.08783000955725,1.222258319,0.1254287958145141,-0.017660275515582986,-0.06441276953762017,0.04275890034092841,2011.4437045685002,-4792.671573316805,-1148.484925085678,0.16006582994805021,-0.1005021558681629,0.29472990539151855,-0.3155561034072889,-0.05756465655770171,0.16007057486419285,51636.80821159974,15673.292708130612,-19231.075094638436,-0.005678285350493635,-0.004294721316298794,0.18201724001225994
27326,1724816834866889787,-0.4163796603679657,-0.1991110891103744,0.1255089044570922,-0.0866685062646865,0.0383512862026691,-0.1499775499105453,-0.9841364622116088,0.0,0.0,0.0,35.11898789426647,-44.154790196993105,-70.69449087156275,1.222750742,0.1255089044570922,0.988874126661445,-2.4626760314460903,-0.5319653488576582,-438.57237132316124,-2599.8481398297204,316.94512343923674,0.16059863679316527,-0.10165746033353171,0.2942753912521474,-0.31083049554274567,-0.08357680961665892,0.12946155640506163,50730.06004154218,20559.49124245297,-13359.132785021211,-0.3055792473770103,-0.2956228999505424,0.18201724001225994
27328,1724816834867388792,-0.4165298342704773,-0.1991654932498932,0.1255567073822021,-0.0866434350609779,0.0390189178287982,-0.1500088721513748,-0.9841076135635376,0.0,0.0,0.0,59.55519174189799,-31.56699008209021,-74.2509509224425,1.223249747,0.1255567073822021,-0.48537278701461817,-2.611886613667782,0.37665417186171557,-2728.158426670661,-247.03600178037416,1679.9825712634108,0.1603587544869355,-0.10297408342876023,0.29425252472827046,-0.28039993391036777,-0.10122605693131348,0.089868978405937,44917.107159079096,23842.278766045154,-5784.151459689663,-0.30809149008167125,-0.25842602735563447,0.18201724001225994
27330,1724816834873572465,-0.4166892766952514,-0.1991938054561615,0.1256582140922546,-0.0866556391119957,0.039496224373579,-0.1498723924160003,-0.98410826921463,0.0,0.0,0.0,26.753265206387997,9.849276131878028,-7.110406272417276,1.22943342,0.1256582140922546,-0.0210141177817185,-0.15633142662760635,-0.030250568038445873,50.532785493587674,253.3223762781904,-46.27809562544645,0.1602639901211191,-0.10389852614754896,0.2939117181911866,-0.021500386492730783,-0.005094448873279589,0.020923221673927905,-4267.357079430434,3902.3165280903295,7102.353783020686,-0.024162437285375083,-0.024013421477889478,0.18201724001225994
27332,1724816834884233101,-0.4168397486209869,-0.1992575973272323,0.1259641200304031,-0.0871164947748184,0.0398827157914638,-0.1489766240119934,-0.9841880798339844,0.0,0.0,0.0,0.32396118242517646,0.07471325631022349,-0.4141949257313906,1.240094056,0.1259641200304031,0.06628346848200675,-0.09828496282637632,-0.16475656799121813,3.8071345666990957,4.1942070883989455,0.973498291733191,0.1611696347724741,-0.10465174907076795,0.2919999317180098,-0.014090427547799322,-0.004795144045182553,0.01935856136954328,-1249.7156906693544,-456.1107550933367,320.4767410491072,-0.01215894284238173,-0.013154838177734551,0.18201724001225994
27334,1724816834894849977,-0.4169890880584717,-0.1992959380149841,0.1260709315538406,-0.0874871537089347,0.0401799418032169,-0.1489023864269256,-0.9841543436050416,0.0,0.0,0.0,0.05504544635581787,0.10412999028719053,-0.2645884605712513,1.250710932,0.1260709315538406,0.06037492805751988,-0.06697989598276799,-0.010723951834743227,-3.3723921093214972,-0.1303642300325052,6.341774029489971,0.1618345195903238,-0.10533530417654184,0.2917719538417113,-0.014574885184508446,-0.003508810007064156,0.012133541174283557,-10.044836253300627,-1.6458157949839887,18.365351110785408,-0.013372322322241531,-0.012846789036844622,0.18201724001225994
27336,1724816834903819698,-0.4171236753463745,-0.1993266344070434,0.1261954754590988,-0.0875898525118827,0.0405716821551322,-0.1487986445426941,-0.9841448068618774,0.0,0.0,0.0,0.08077183118532194,0.05589822576712604,-0.06746776761803297,1.259680653,0.1261954754590988,0.008786538486205267,-0.09148207256437613,-0.01572672454539343,-7.791286894766945,0.19790305531031382,-5.1036239869769435,0.1619421364878048,-0.10612240223889546,0.2914989365364082,-0.013318206054822923,-0.0027038436461612747,0.012912249998227487,-1.0793733825849818,-9.60012939854266,3.093209182048323,-0.013798027252770616,-0.014011045474437614,0.18201724001225994
27338,1724816834913698433,-0.4172368943691253,-0.1993455290794372,0.1263124495744705,-0.0872160494327545,0.0408683381974697,-0.1481935977935791,-0.9842570424079896,0.0,0.0,0.0,0.02716058947117428,-0.08488410052568394,-0.24235564979688023,1.269559388,0.1263124495744705,-0.09037530320083721,-0.057653835760326205,-0.11560270307303387,-4.2509439131002615,3.2857799168903803,-1.3429400060836238,0.16117940822577764,-0.10650083519279127,0.290273276975408,-0.013165791083974199,-0.0025198626404154822,0.010567174202553709,-6.683722954622155,-14.678440959352885,-9.276519064628669,-0.01020484039009866,-0.010994127596233801,0.18201724001225994
27340,1724816834924604907,-0.4174010157585144,-0.1993803232908249,0.1264123618602752,-0.0868806019425392,0.04103684425354,-0.1480349898338318,-0.9843035340309144,0.0,0.0,0.0,-0.06086842716215224,-0.2501204316960298,-0.2420597235699431,1.280465862,0.1264123618602752,-0.06705649006719173,-0.023486092062102597,-0.024681697904966694,11.829688619495956,-1.7346674757625333,11.331299512841849,0.16048087265047392,-0.10671056586873479,0.2899647723787396,-0.0127282982624628,-0.004692003141784085,0.00786409132480248,-5.3627427479508665,-2.410365056860048,9.201823137006834,-0.014269106320796502,-0.013889814565462764,0.18201724001225994
27342,1724816834933936621,-0.4175012707710266,-0.1994360983371734,0.1264753937721252,-0.0874691233038902,0.0413566939532756,-0.1485083103179931,-0.9841667413711548,0.0,0.0,0.0,-0.08928629208506511,-0.1708934418951731,-0.08293718986692156,1.289797576,0.1264753937721252,0.12071585485657618,-0.0785369363122321,0.10497081249695674,16.08629269647539,-3.765622120604985,17.084950455491555,0.1615160023762279,-0.1075910045074143,0.2908190918900316,-0.014102575088802638,-0.007432935146455932,0.005651427217615357,8.485548666299234,20.20192255129607,21.133799713873486,-0.01121139985586888,-0.00881681614768731,0.18201724001225994
27344,1724816834943989897,-0.4176794290542602,-0.1995265930891037,0.1265202611684799,-0.0886548608541488,0.0417767502367496,-0.1500566005706787,-0.9838079810142516,0.0,0.0,0.0,0.12090764251587627,0.15904872551210292,0.1737373524729634,1.299850852,0.1265202611684799,0.2387270044287862,-0.09328438909450516,0.3112932415212499,0.3966875950396025,-4.47819497005532,3.3921216293334684,0.16359670182092564,-0.10902294085334684,0.29377288083248265,-0.014372200084217468,-0.007820660522478207,0.0064874505344239,10.857969252191673,26.63992332576254,16.151166320950626,-0.0189669438898305,-0.014385195821993189,0.18201724001225994
27346,1724816834954404567,-0.4177929759025574,-0.1995953023433685,0.126609668135643,-0.0893715694546699,0.0426405221223831,-0.1508319526910781,-0.9835874438285828,0.0,0.0,0.0,0.12555942822427657,0.36982436219548614,0.24074220373187422,1.310265522,0.126609668135643,0.12049010747640185,-0.1724120156726164,0.16179609813084725,-9.05249792100205,-4.503231564523588,-13.32169975109742,0.16470029248268858,-0.11106976874613582,0.29515016597778015,-0.011519149325081912,-0.004032132801508936,0.009274119432465255,-358.03971960068696,59.95690483703757,351.0166944216583,-0.011322560225395092,-0.008847716788493283,0.18201724001225994
27348,1724816834963616137,-0.4179041087627411,-0.1996115446090698,0.1267007142305374,-0.0897462740540504,0.0434760265052318,-0.1509803682565689,-0.9834940433502196,0.0,0.0,0.0,-6.093298987250148,1.245726677449587,6.281630403308359,1.319477092,0.1267007142305374,0.055844952834578535,-0.18868174693023637,0.0474968331004341,-5.399591964669861,1.313738318742657,-10.16413414422102,0.16519829807648354,-0.11285608989963426,0.2952973155686634,-0.011571517275334564,-0.0005761290463159874,0.01127314267697166,792.6766719260374,-225.1605366442884,-793.2497324692981,-0.010865649712793518,-0.011508840924916972,0.18201724001225994
27350,1724816834989591492,-0.4181685745716095,-0.1995395570993423,0.1270952969789505,-0.0900721549987793,0.0424408763647079,-0.150416225194931,-0.983595848083496,0.0,0.0,0.0,122.00788321546156,-28.060055667663477,-120.46126046686845,1.345452447,0.1270952969789505,0.03411895800509487,0.07104108487466482,-0.052147178248589554,17893.472022531285,1787.5555059725446,7296.208700910453,0.16620038639553003,-0.11081261351663298,0.2942591805215208,-0.6157460529580021,0.095546865426968,0.618655283572707,11757.02195707924,-1710.8642613861157,-11942.193966098595,-0.007205295919280819,-0.011381899520920741,0.18201724001225994
27352,1724816834989943228,-0.4183880388736725,-0.1995055079460144,0.1273157745599746,-0.0911436900496482,0.0421890579164028,-0.1509161293506622,-0.9834313988685608,0.0,0.0,0.0,126.17575973849394,-28.664603324568475,-124.69539966859213,1.345804183,0.1273157745599746,6.413126169533945,0.7082550464448689,2.548961523653945,16372.886211699459,1596.138334188717,6693.938463125792,0.16835318275849948,-0.11071625065284492,0.29519042060191847,-0.5721395928947501,0.08552586087837177,0.5755996046749812,10436.043550879005,-1411.6350417181466,-10640.249173611437,-0.49605539001443394,-0.6575521046386327,0.18201724001225994
27354,1724816834993547962,-0.4185365736484527,-0.1996138244867324,0.1274981796741485,-0.092035561800003,0.0448897443711757,-0.1520705670118332,-0.98305082321167,0.0,0.0,0.0,111.5799214203971,-22.407342700775263,-111.42003243486081,1.349408917,0.1274981796741485,0.30676840165115166,-1.4987924826753445,0.7774601672802094,-1267.5536316431612,-425.53700955640784,-381.1384651069678,0.16924732168438103,-0.11651303791749275,0.29705748175866936,-0.03600624259890495,-0.024247920522302735,0.041642710399441896,-5642.483665442987,1846.877036092388,5348.101172232877,-0.04198698237334475,-0.03295082275351618,0.18201724001225994
27356,1724816835004245245,-0.4187566936016083,-0.1996890753507614,0.1276592463254928,-0.0935822427272796,0.0454058349132537,-0.1531386226415634,-0.9827152490615844,0.0,0.0,0.0,0.638103154814003,0.8739127716430629,-1.3437919359640382,1.3601062,0.1276592463254928,0.28433636411475866,-0.1232673036205433,0.20174328170074715,-11.57959578955352,63.83615626271657,-35.482378012284116,0.17206463543586656,-0.11817901909741618,0.2989734770978605,-0.02174030835693941,-0.008547565905638876,0.014995975489849656,-5241.8197443152785,1077.3550262112742,5225.651800193635,-0.019809458107223094,-0.01826227221310345,0.18201724001225994
27358,1724816835015086097,-0.4190051555633545,-0.1997983604669571,0.127821147441864,-0.0939869880676269,0.0461294613778591,-0.1531784236431121,-0.9826367497444152,0.0,0.0,0.0,0.16357384790877494,0.4791884370518231,-0.3331959353510867,1.370947052,0.127821147441864,0.05462441470619019,-0.14259775253496565,0.018536387326069118,-9.427686124528508,-2.791578658657887,-1.6793690866904392,0.1726648503315087,-0.11973646704552171,0.2989058538189526,-0.02246373541462887,-0.005597110997010546,0.013031550472914155,-11.167423942143007,-15.269394851152292,32.30761981127834,-0.02290936315594177,-0.019547736797271495,0.18201724001225994
27360,1724816835024190910,-0.4192062020301819,-0.199815034866333,0.1279252469539642,-0.0943470671772956,0.0469257608056068,-0.1536506563425064,-0.9824908375740052,0.0,0.0,0.0,0.31121908210456706,0.5018273146199769,-0.5048330297303991,1.380051865,0.1279252469539642,0.058726908586199146,-0.1757260808448383,0.11963240333241795,-0.2760161788060136,0.22835692836323673,4.136351136348199,0.17310286671175704,-0.12149995230733014,0.2997094774136684,-0.019213331063747674,0.0003489051214451422,0.00883562835768803,6.520757982705336,-13.424883265848852,-4.908047382250752,-0.020092443043423926,-0.021095096939333643,0.18201724001225994
27362,1724816835035752938,-0.4193862378597259,-0.1997789889574051,0.127989262342453,-0.0946875065565109,0.0475820489227771,-0.1539694368839264,-0.9823765754699708,0.0,0.0,0.0,0.2442603044454974,0.11299155776511588,-0.35686037456700753,1.391613893,0.127989262342453,0.04486735107659661,-0.11631032600797767,0.06516138702007075,-5.837397474634051,-5.255063900511201,-4.525586767014639,0.17355894223070625,-0.12295451111363485,0.30022347378420317,-0.016287158597044993,0.003930544607754882,0.002352908449690716,-65.21103175448062,-54.28857490612434,31.9743783663767,-0.013168439011840073,-0.01608988549096732,0.18201724001225994
27364,1724816835043749469,-0.4195204377174377,-0.1997430622577667,0.1279904693365097,-0.0947067439556121,0.0484579838812351,-0.1540002822875976,-0.9823271036148072,0.0,0.0,0.0,-0.6058264080245265,-0.43537996082916575,0.004879004029895884,1.399610424,0.1279904693365097,-0.027466106974148235,-0.21581689715239136,0.029998932778608295,-7.24453578713062,-9.200748641350769,-3.7873707773100254,0.17334698218585004,-0.12469581151196567,0.30016146358435264,-0.014382727401398565,0.003745756288042301,0.0006265587755169832,-201.77365696801735,35.48703244246996,-474.4382493210046,-0.014570564389683646,-0.017317954453870625,0.18201724001225994
27366,1724816835079586092,-0.4196504950523376,-0.1997288018465042,0.1280893087387085,-0.094819888472557,0.0488737411797046,-0.1538231819868087,-0.9823233485221864,0.0,0.0,0.0,-23.168914969199932,17.54917572787238,-100.45858011259658,1.435447047,0.1280893087387085,0.002170511064467757,-0.02471150852690747,-0.007785324826180476,80.63945351367892,-9480.723807740967,2898.4818347663554,0.17347854811008648,-0.12551996856162773,0.29973048321101253,-0.17163944420747157,-0.07806864377636202,0.036257048627874155,54044.099536403635,23064.49798643132,18353.57954225887,-0.0029782405054993833,-0.0037484099725471395,0.18201724001225994
27368,1724816835080028206,-0.4197272956371307,-0.1997637450695037,0.1281055212020874,-0.0949593335390091,0.0498262345790863,-0.1540140509605407,-0.9822319746017456,0.0,0.0,0.0,1.0229465383489469,27.869377339852875,-92.22880862770226,1.435889161,0.1281055212020874,0.038257665962673944,-4.268012322143747,1.2894891019597592,205.7238399987778,-4898.512460662852,3677.3641040089815,0.17346541903349486,-0.1274769624993538,0.2999681516520067,-0.18198518234453331,-0.07020173634879256,-0.008710453323487855,57791.98907794502,20262.948422898226,34103.233430641965,-0.1831116797591014,-0.14246450332706095,0.18201724001225994
27370,1724816835080348921,-0.419787585735321,-0.1997842043638229,0.1280921697616577,-0.0950763747096061,0.0506106577813625,-0.15435890853405,-0.982126533985138,0.0,0.0,0.0,20.27272903816377,33.65146729202635,-77.68794743254192,1.436209876,0.1280921697616577,0.13310827426371272,-4.745757443580632,2.6417601644017066,262.2491029821189,-1284.2226903740273,3840.973912706144,0.17343437687399743,-0.12912241268720148,0.3005448290891093,-0.17597495119881756,-0.05891952951229307,-0.03608376452202844,55645.380267979024,16222.011216114846,43617.81964834409,-0.20215381148756972,-0.15519278744735052,0.18201724001225994
27372,1724816835084256376,-0.4199033677577972,-0.1997824311256408,0.1282152235507965,-0.0942556709051132,0.0506725125014781,-0.1538888067007064,-0.9822761416435242,0.0,0.0,0.0,29.37354268654366,11.02534180066065,10.812258473407368,1.440117331,0.1282152235507965,-0.436907975558326,0.014746143233849934,-0.22386718573714887,-99.26398941792141,899.2464378091328,-539.0320570017748,0.1718376728766949,-0.12891536674685236,0.2996857980989177,-0.023796655983328918,-0.00011526115467130893,0.025162081351025822,1064.1268267572661,-4545.451507176522,16476.54481441908,-0.023894022279611696,-0.030438408350754315,0.18201724001225994
27374,1724816835095391673,-0.4199832081794739,-0.1998017728328704,0.1282945424318313,-0.0940106585621833,0.0512247793376445,-0.1534969508647918,-0.9823322892189026,0.0,0.0,0.0,1.0819796799715402,-0.0805645994607993,-1.5884543479296855,1.451252628,0.1282945424318313,-0.06300793061871676,-0.09678473342986764,-0.05910600315109491,13.219968482471412,-29.50964701306123,23.281147066605126,0.17124438024164534,-0.12986492718281126,0.2988463098296723,-0.0004635151682492733,-0.005035051244547617,-0.008720535470507329,-1183.1201382389154,-406.6796088749711,-362.6251617830421,-0.006379166428069648,-0.006765278123040611,0.18201724001225994
27376,1724816835104048988,-0.4199420809745788,-0.1998675614595413,0.1281124055385589,-0.0939234867691993,0.053418505936861,-0.1541293859481811,-0.9821248054504396,0.0,0.0,0.0,-0.023039810763891506,0.37441869862125954,0.32709259984765393,1.459909943,0.1281124055385589,-0.08558311154482275,-0.48346641869278784,0.19955576693673732,3.7515640578986806,-4.509953580147888,9.825446364342294,0.1703718261812715,-0.13428321994709133,0.29984608422310577,0.002082281720475976,-0.003301002124640462,-0.012683339980863906,-76.13706086913615,25.570129749956102,141.0241975520027,-0.0005432728212065219,0.008473042768896655,0.18201724001225994
27378,1724816835113927472,-0.4199515879154205,-0.1998517215251922,0.1280812919139862,-0.0940745696425437,0.0537993274629116,-0.1544429063796997,-0.9820402264595032,0.0,0.0,0.0,-0.19462248356939355,0.32284434206939217,0.815749088048314,1.469788427,0.1280812919139862,0.023157034296517703,-0.07539046050133005,0.0705877065638493,2.7684440336058733,21.17832920776579,-9.918940640401102,0.17052454248685464,-0.13513542981246796,0.3004120358597379,-0.0017196710789200154,0.002360351127423499,-0.0006055945046989919,3.95793607314726,-15.250519422460783,-8.80930858836341,-0.0008650742921505679,-0.0011722469201297617,0.18201724001225994
27380,1724816835123888467,-0.4199763238430023,-0.1998206079006195,0.1281008124351501,-0.0939683094620704,0.0541514158248901,-0.1544191837310791,-0.9820348024368286,0.0,0.0,0.0,0.059017745702483596,0.07019431501916236,0.14266351277310774,1.479749422,0.1281008124351501,-0.03202397382282389,-0.06663537334537176,0.0032889071779196337,-2.7534474354551515,1.5470588718807563,-4.091926278909221,0.17021649806352931,-0.1357951354666341,0.30033105627122836,-0.0017474004679556288,0.003062591358892419,0.003433271959592865,21.629702750914564,-13.918743152768352,-54.69418775085404,-0.0011694340817645567,-0.0034809700157395307,0.18201724001225994
27382,1724816835134196782,-0.4199864864349365,-0.1997896879911422,0.128151923418045,-0.093850590288639,0.0543912500143051,-0.1543365269899368,-0.982045829296112,0.0,0.0,0.0,0.24108724030629786,0.04880991550384853,-0.2837628736556771,1.490057737,0.128151923418045,-0.030684254384902212,-0.0435604492756525,-0.010469816226185124,4.030810718620879,0.4923329918176105,2.5689484339205926,0.16992516283421577,-0.13621943335714115,0.30014700493419244,-0.00047974383347693106,0.003782926119376029,0.0021003591731156845,-0.8123405829337924,-2.6805493505449838,-0.29087962177309556,0.0006188782182074871,-0.002258981312434457,0.18201724001225994
27384,1724816835144663785,-0.4199861288070678,-0.1997417658567428,0.1281435340642929,-0.0941523239016532,0.0546696819365024,-0.1546212285757064,-0.9819567203521729,0.0,0.0,0.0,0.036232543834892106,0.014311217624396189,0.14975738653907603,1.50052474,0.1281435340642929,0.05296496474945733,-0.05696544862234518,0.05790809493425444,7.415500338763352,-4.545196296162964,6.363333061660328,0.17041134027465019,-0.1369097307244169,0.30064807741458105,0.0032990383991631234,0.004069894583711431,-0.002511390640451694,-24.87197619753985,1.1282630684539527,39.572804925132814,0.0012660948583753451,-0.0013423746897603442,0.18201724001225994
27386,1724816835153756940,-0.4199303388595581,-0.1997087746858596,0.1281071901321411,-0.0947282537817955,0.0551911816000938,-0.1551077216863632,-0.981795370578766,0.0,0.0,0.0,-0.2318041910006851,0.05952032643972291,0.4950242364617882,1.509617895,0.1281071901321411,0.11584343988905581,-0.1240840101874909,0.11443284129325644,-11.087800531595834,-1.1477057040886562,-2.0332172157685116,0.1713493223440471,-0.13819854581186308,0.3014895276091127,0.0010628167426283142,0.004096501893922522,0.003513973528495029,-8.838833719992294,11.611416656771675,4.554339308112195,0.006319260861401368,0.004975533479894527,0.18201724001225994
27388,1724816835163992458,-0.4199779033660888,-0.199661448597908,0.1282296925783157,-0.0937490537762641,0.0556748732924461,-0.1550115197896957,-0.9818772077560424,0.0,0.0,0.0,-0.08449655227002326,0.25486713854920306,0.15664555007599618,1.519853413,0.1282296925783157,-0.20506243806085692,-0.06401261364100068,-0.0014228259267788862,-5.617664788814709,2.4431589295147247,-3.0668357827084574,0.16926787298318827,-0.13884179164979912,0.3013628948670534,-0.0011471436327958884,0.005357767908948929,0.006649792814241273,9.505459294443328,4.758556977399808,-22.17148065293698,-0.0013792865634422648,-0.006811290511694091,0.18201724001225994
27390,1724816835175113823,-0.4199483692646026,-0.1995929926633834,0.1282393783330917,-0.0940337479114532,0.0560980550944805,-0.1553346067667007,-0.9817748069763184,0.0,0.0,0.0,-0.03782894984505467,0.13466748234238468,0.04163506971881481,1.530974778,0.1282393783330917,0.04343431421513092,-0.0782377862393902,0.06418773647820232,7.053610764522392,5.789500198217664,-1.858015066240705,0.1696728174981913,-0.13981982976694227,0.30192520488279434,-0.0004988650175867804,0.009782992754976405,0.006582695969347796,0.5958184482576452,-29.865985806353677,-7.418715607292767,0.004444611591275498,0.0004978924461370502,0.18201724001225994
27392,1724816835183922857,-0.4199747741222381,-0.1994815021753311,0.1283372193574905,-0.09401535987854,0.056000716984272,-0.1553162038326263,-0.9817850589752196,0.0,0.0,0.0,-0.057702030018681565,-0.2613997150170213,-0.003323684439497321,1.539783812,0.1283372193574905,-0.0011191540596300336,0.022083016720965937,-0.0063075160569621425,-2.726523642835933,3.847881520274046,-3.2894231892998063,0.16966604876279975,-0.1396187170668124,0.3019030848650612,-0.0015027783242658188,0.009132562924380139,0.00728206465865977,-0.7653364919067873,-15.208175936918689,-6.749933552937188,0.0024382404874264854,-0.007724158328136377,0.18201724001225994
27394,1724816835195347055,-0.4199697971343994,-0.199429377913475,0.1283637434244156,-0.0940603166818618,0.0562687888741493,-0.1554378867149353,-0.9817461967468262,0.0,0.0,0.0,-0.04436028147743608,0.005676080401404715,-0.10482627251529986,1.55120801,0.1283637434244156,0.002270616204788,-0.04567633525320059,0.02594276316838349,2.457888377857697,-2.534081527645007,-2.026613893024948,0.16966326970218124,-0.1401830917086947,0.3021091253618101,-0.0013284144530452124,0.003367396895873398,0.006018597562789552,3.8873748150414524,26.977094080541075,-10.380634435853167,0.002080466786871486,-0.0012175940323582404,0.18201724001225994
27396,1724816835204002678,-0.4199928641319275,-0.1994080692529678,0.1284400820732116,-0.0942567661404609,0.0564264953136444,-0.1553291827440261,-0.9817355275154114,0.0,0.0,0.0,0.0071219944718733455,0.26278195634556434,-0.2044863007879612,1.559863633,0.1284400820732116,0.03771810848345567,-0.045332025326418106,-0.023402443173894595,0.29778349550911704,0.2722340389219733,3.019381366025646,0.17002732845035493,-0.14053558878875913,0.30184052345677737,-0.0021033872804139264,0.006763209871458287,0.005149096686677623,8.131919358497552,-3.475660849201597,0.7375220566779661,-0.0005593895766810181,-0.004015294151567567,0.18201724001225994
27398,1724816835213605734,-0.4200070798397064,-0.1992972940206527,0.1284504234790802,-0.0942606329917907,0.0566606670618057,-0.1557752937078476,-0.9816509485244752,0.0,0.0,0.0,0.1084828573624907,-0.12409662220160234,-0.06687474847281885,1.569466689,0.1284504234790802,0.00011811645062894795,-0.04024112299527608,0.09850086196973719,-4.413507065409947,-1.433271923313244,3.431105901534619,0.1699055721010995,-0.1410764491002333,0.30271608336225114,-0.0010052023338786853,0.007906548341809483,0.0020770339829212503,1.8780719244772048,-22.701194159240178,17.429927893737663,0.0021571394470050118,-0.005138293002829888,0.18201724001225994
27400,1724816835224199386,-0.4200121760368347,-0.1992559432983398,0.1284841150045395,-0.0940445438027381,0.0571247190237045,-0.1558586955070495,-0.9816315770149232,0.0,0.0,0.0,0.026975427789045273,-0.15906952755905474,0.1539992313904876,1.580060341,0.1284841150045395,-0.052457908893088025,-0.0783699120829391,0.02659604962508788,1.2326314853358051,-1.640219272134586,-2.7572305195922633,0.1693302663230176,-0.1419423294235196,0.30285505304396554,7.536946936781419e-05,0.003750280212283741,0.004325603484125473,-7.101180762554611,6.9021511181331014,1.0309300722874215,0.001147814554510714,-0.001954327828068756,0.18201724001225994
27402,1724816835233998060,-0.4200063943862915,-0.1992205828428268,0.1285368800163269,-0.0941688418388366,0.0574981160461902,-0.156001403927803,-0.9815751314163208,0.0,0.0,0.0,-0.037233907543320705,0.0010399549678459519,-0.01552312125545953,1.589859015,0.1285368800163269,0.015773212451498073,-0.07668685139018303,0.03610694502797378,2.3196189607390454,1.6780459813660333,-1.48250935239817,0.16945297976222706,-0.14274263220254266,0.30307934557071425,-0.0003402978327589068,0.004305783751275882,0.005306587240088589,-28.507566444525196,13.32975309451484,-9.407376485339299,0.002389572817946266,-0.0010364555342472841,0.18201724001225994
27404,1724816835246893190,-0.420026570558548,-0.1991532295942306,0.1286039799451828,-0.0939980298280716,0.0577030777931213,-0.1558152735233307,-0.981609046459198,0.0,0.0,0.0,-0.7774160289530646,0.12184616686953137,-0.0028847683176916883,1.602754145,0.1286039799451828,-0.033118709170303566,-0.02948649199212871,-0.024640215552195335,-1.8157610485206845,1.9663109906145153,-2.103551027823952,0.1690801924775438,-0.14306390615059192,0.30269821307113015,-0.0007324123787508796,0.003374778904587039,0.0031440434413565477,66.74301600910337,2.2298788795308595,-33.97133380554276,0.0008047544650903194,-0.003569710298694579,0.18201724001225994
27406,1724816835267042346,-0.4200151264667511,-0.1991434246301651,0.1286024898290634,-0.0939829051494598,0.0581563413143157,-0.1559189558029174,-0.9815673232078552,0.0,0.0,0.0,4.475904991715012,-0.05797058697304536,-1.7877841750422352,1.622903301,0.1286024898290634,-0.007500781751273249,-0.04320106975282707,0.015063181992518595,-3283.7782692350675,-2574.7057164389917,730.161509419736,0.16890699315844207,-0.1439730306043426,0.3028526080673683,-0.03991538796333316,0.011939141507752993,0.008275012190296138,506.90824717595297,-170.53042904659463,-80.82697205536488,0.0006695304928669195,0.00038851863943294596,0.18201724001225994
27408,1724816835267590910,-0.4200376272201538,-0.1991367042064666,0.1286071538925171,-0.0935397669672966,0.058649007230997,-0.155965581536293,-0.9815728664398192,0.0,0.0,0.0,4.757653341055343,-0.15393098748769427,-1.8320070880527792,1.623451865,0.1286071538925171,-1.857924696281207,-1.4940343386217618,0.4264788460475738,-3084.3488569602514,-2421.9314984244543,689.0672278981824,0.16787421626104465,-0.14482020239787696,0.30294683508888287,-0.037364178339915455,0.011900127169254926,0.007263794933296985,460.073828149929,-169.79919010119463,-61.32993175742883,-0.033896230969452816,-0.043356147327068065,0.18201724001225994
27410,1724816835274059110,-0.420000672340393,-0.1990864872932434,0.1285596787929535,-0.0942847058176994,0.0591262951493263,-0.1567118167877197,-0.9813541173934937,0.0,0.0,0.0,3.650377587035037,-0.860898102988062,-0.7578179382935883,1.629920065,0.1285596787929535,0.2229365098309709,-0.16316886738261435,0.23733251094118973,198.43325160290502,136.76354412904567,-25.815856127508628,0.16912044211800545,-0.14611811592476326,0.30429750314530274,0.0015659191092556313,0.004588747708432983,-0.003717865708307677,-221.12765210875676,-46.51450331058043,135.69198952277836,0.006625470981924296,0.003553110135394049,0.18201724001225994
27412,1724816835285850889,-0.4200713634490967,-0.1991006284952163,0.128593698143959,-0.093809075653553,0.0594048164784908,-0.1567008048295974,-0.9813846349716188,0.0,0.0,0.0,-0.030665207893380397,-0.0597189553787517,0.18914944793141714,1.641711844,0.128593698143959,-0.08716880474286948,-0.03358696833033301,0.0065797460240092365,-7.8445122001065375,1.7502756431363133,-13.173550117638332,0.16809108867307845,-0.14652156920438725,0.304307636876371,-0.006300960815654122,0.0002297646452209534,0.007552620545265398,-101.57343628241779,44.30655931436715,-1.2093235705868004,-0.005592500687652354,-0.005527576141117387,0.18201724001225994
27414,1724816835293961194,-0.4201241731643677,-0.1990907937288284,0.1286809891462326,-0.0936792641878128,0.0596929155290126,-0.1564052402973175,-0.9814266562461852,0.0,0.0,0.0,0.32029708313884175,0.16776679309599485,-0.27537625817034844,1.649822149,0.1286809891462326,-0.047850300261326376,-0.07092823015650902,-0.06458684999918829,6.772931335231323,-3.8610982775411524,-0.45119501512621696,0.1677935508059768,-0.1470011538571374,0.3036883480725047,-0.0029992202505653154,0.0014743587663277324,0.004810186152280682,9.116736201485233,24.142038129225767,-3.852684928068573,-0.00421126477105882,-0.007477980136835817,0.18201724001225994
27416,1724816835307692798,-0.4200837016105652,-0.1990644633769989,0.1286086440086364,-0.0943492576479911,0.0603940486907959,-0.1572003811597824,-0.9811925888061525,0.0,0.0,0.0,-0.3486309643101103,0.4084430819164231,0.9137615766039674,1.663553753,0.1286086440086364,0.08990647888911245,-0.10667147402353175,0.12273432699746187,0.42999608187629823,0.3645718902580639,4.006631889664215,0.16881719813658425,-0.14872756458138978,0.305120176299364,-0.0006192150365755822,0.004110723471348443,0.0024880717407089747,-5.822246692045755,-31.1486290114322,-19.4829622608103,0.002569145221986707,0.0026349051473787133,0.18201724001225994
27418,1724816835322183149,-0.4201472103595733,-0.1989713609218597,0.1287633031606674,-0.0940380468964576,0.0608728229999542,-0.1573777645826339,-0.9811643958091736,0.0,0.0,0.0,0.22286887229201024,-0.7872143921589769,-0.990649159665427,1.678044104,0.1287633031606674,-0.0506886679885378,-0.056011624571690365,0.033463168377535324,174.74816317327088,-94.68276334435151,173.41012319847115,0.16803129153307492,-0.14960897658201663,0.3054659679152788,-0.013652212821597232,0.013338958217886443,0.03228697050271023,113.51872286170034,-114.96070777157877,-306.0482183526136,-0.0006316844672763492,-0.0071500863576719614,0.18201724001225994
27420,1724816835323718632,-0.4201696813106537,-0.1989497542381286,0.1288163959980011,-0.0942354798316955,0.0610303878784179,-0.1576214283704757,-0.9810965657234192,0.0,0.0,0.0,0.4092281992652172,-0.9690139631199007,-1.4889935518450794,1.679579587,0.1288163959980011,0.2476459455169765,-0.21736996746620782,0.32894922803440396,166.71333054050046,-91.40008990222674,165.3520121321693,0.16834482002550447,-0.15002259101029577,0.305913083461485,-0.013127394179816676,0.01189849543732402,0.030270053192459123,106.49633928835601,-98.50993703920041,-280.6404175199094,-0.0044400690985750835,-0.02142579012206013,0.18201724001225994
27422,1724816835334543932,-0.4201967716217041,-0.1989867985248565,0.1288153529167175,-0.0940777584910392,0.0619632937014102,-0.1577958166599273,-0.9810251593589784,0.0,0.0,0.0,0.4270459368287275,-0.5174965210531106,-1.1756896560881218,1.690404887,0.1288153529167175,-0.052546131017444715,-0.16227445522391118,0.05170952260088204,-10.292155308182682,7.210889613211904,-12.245603833849692,0.16773672941573864,-0.1518481298993729,0.306174113864608,-0.0035508277905300645,-0.0009494049482423605,0.0007606927376428985,-17.40337605297551,46.404328333890966,82.2775559117263,-0.0033928060119490506,-0.0012504455496790906,0.18201724001225994
27424,1724816835344671794,-0.4202426671981811,-0.1989729851484298,0.1288311779499054,-0.0941579490900039,0.0623259097337722,-0.158035397529602,-0.9809560179710388,0.0,0.0,0.0,0.07028791372606208,-0.0030343527536366363,0.16298123656949765,1.700532749,0.1288311779499054,0.008451850698023504,-0.06914276456721534,0.0543234717275354,0.886378959123876,2.512635196147377,-4.6202059760633265,0.1677570693693477,-0.1526304549904965,0.3066046875626102,-0.003561696755888022,0.00015173169251170293,0.0035428585064263274,-40.50197569370047,1.5496158927577603,81.15110630184198,-0.003625618518190921,-0.004853500841015383,0.18201724001225994
27426,1724816835353522006,-0.4202666878700256,-0.1989810168743133,0.1288778483867645,-0.0941318869590759,0.0627601221203804,-0.1578823775053024,-0.9809554219245912,0.0,0.0,0.0,-0.3289707973934187,-0.3701842258120501,0.4865643669973983,1.709382961,0.1288778483867645,-0.02342717236960176,-0.09858966435923829,-0.024293841426009592,-2.646662298081185,-2.2266114552544103,-6.910952626212152,0.16760487775186467,-0.15345485686272275,0.30624281272676257,-0.0023877457073857578,-0.0007394291875673087,0.0041212409910487136,-70.4022233341997,107.36318683169583,310.2961527391815,-0.0020217745673716866,-0.002758182590335168,0.18201724001225994
27428,1724816835389582498,-0.4203048348426819,-0.1989829838275909,0.1288571804761886,-0.094542771577835,0.0630300790071487,-0.158165156841278,-0.9808530211448668,0.0,0.0,0.0,-6.583462850028866,25.371586597343963,51.89564812150002,1.745443453,0.1288571804761886,0.021509662360166108,-0.017165336801483362,0.01626076447837584,-3953.5208802285815,-6540.538635021248,-1172.2345805935945,0.1683069346107362,-0.15416315358593674,0.30672311658740303,-0.08207591347081689,-0.05368461454554563,0.08355554547426891,21300.434629257576,8741.972173373928,-33273.898498524446,-0.001100810344611051,-0.0009252271552115896,0.18201724001225994
27430,1724816835389898928,-0.4203310310840606,-0.1990001201629638,0.1288838535547256,-0.0944065079092979,0.0633824244141578,-0.1580657511949539,-0.9808595180511476,0.0,0.0,0.0,0.21625947130335277,28.160100267552636,41.27043940322904,1.745759883,0.1288838535547256,-1.2404840172348166,-2.104955138534301,-0.35792745056840625,-2305.720470268156,-3678.2737485504813,-1191.2025124462016,0.16794917073996446,-0.15480089653003648,0.3064973388609522,-0.08417126269139885,-0.04558175818338839,0.10011486583560725,21853.190297530124,6631.973022024342,-37558.16884814664,-0.08113254214106994,-0.06850950247174219,0.18201724001225994
27432,1724816835390540357,-0.4203868210315704,-0.1990182101726532,0.1289686411619186,-0.0942961126565933,0.0635852217674255,-0.1576782017946243,-0.9809194207191468,0.0,0.0,0.0,14.707232280604131,29.57896337169913,12.004915571929402,1.746401312,0.1289686411619186,-0.5318018755654058,-0.6680596444561309,-1.1332745153361532,974.4200297851502,1946.672547844571,-995.0372305188163,0.1677312016840738,-0.15510196467658047,0.3056995152073902,-0.07514145724983656,-0.02419957769091674,0.11220475902984539,19405.8197364403,1030.5877715870631,-40459.47679308598,-0.06991519557460467,-0.08544549478763938,0.18201724001225994
27434,1724816835394532764,-0.4203926920890808,-0.1990153491497039,0.128920093178749,-0.094559259712696,0.0639568716287612,-0.158060073852539,-0.9808083772659302,0.0,0.0,0.0,13.01496753712977,4.334899811136787,-21.15149930750315,1.750393719,0.128920093178749,0.11736146212906916,-0.18890999505343914,0.20559413062664755,110.33565061047196,86.58545045397378,231.72155829725165,0.16809259221770992,-0.15598271475704603,0.30639103858968525,-0.0007789824826129887,0.0005497172266570871,-0.009924553105213008,-719.009554910217,-4567.682927538063,-5118.053004571188,-0.0030606060272998577,-0.0004538048762535752,0.18201724001225994
27436,1724816835403861670,-0.4203848838806152,-0.1990138590335846,0.1288762390613556,-0.0946417972445488,0.0645018592476844,-0.1585091352462768,-0.9806922674179076,0.0,0.0,0.0,-0.1261874270402431,-0.012899678211004711,0.5704640280642355,1.759722625,0.1288762390613556,0.007399054631152918,-0.10988157029640122,0.10827642416097095,-8.164994279114449,6.5107501271434725,-9.016541442737186,0.16803147901575005,-0.15716231419607282,0.3072256611261883,-0.0016751341693286292,0.00035301361397976905,-0.0014910993394723349,-712.9919081022042,-242.62625874519526,1171.4912978736393,9.991259918540492e-05,0.0011900383952763477,0.18201724001225994
27438,1724816835413667558,-0.4204272031784057,-0.1990084052085876,0.1288947016000747,-0.0945125073194503,0.0648638308048248,-0.1586328595876693,-0.980660915374756,0.0,0.0,0.0,0.05261173470769116,-0.08911005043751372,0.13282511222318422,1.769528513,0.1288947016000747,-0.035330153585285344,-0.06624628874643584,0.03444913289100345,-1.22590159975118,3.0917668818704573,-3.3893264078961307,0.16764939249647945,-0.15785923949961203,0.3074530502102686,-0.0032230263476087373,0.00031089304667730744,0.0006648301534220025,18.36187173053375,-6.8437766798316435,-28.42601342197718,-0.0035999743067713936,-0.004425117715781536,0.18201724001225994
27440,1724816835425648783,-0.420449823141098,-0.1990082710981369,0.1288848370313644,-0.0945134684443473,0.0651869773864746,-0.158923253417015,-0.9805923700332642,0.0,0.0,0.0,0.27448347342081203,-0.15751996588279704,0.029462239683551758,1.781509738,0.1288848370313644,-0.00417397726674804,-0.04908512327632191,0.05444025522571128,3.059514310626506,-5.560423652804971,2.297744731486567,0.1675124289244503,-0.15854789461655597,0.30800496908051095,0.0004883540692972588,-0.001998367400103618,0.0009821115461630114,10.273885776823203,6.421615970901483,-24.591336438071604,-0.0019031803050209614,-0.0016996412266285733,0.18201724001225994
27442,1724816835434270689,-0.4204308688640594,-0.1990379691123962,0.1289045065641403,-0.094693586230278,0.0657952055335044,-0.1592034250497818,-0.980488896369934,0.0,0.0,0.0,0.3119117463804715,-0.026884526916134473,-0.281611909923724,1.790131644,0.1289045065641403,0.025053329820260106,-0.1404130194261878,0.07815509803823625,0.49106381899067275,-5.042364993353726,0.34732511661813203,0.16765417452427675,-0.15985395310491274,0.3084733520443419,0.0026360128551274897,-0.003137968209967923,0.001254625843214896,-6.049046330820189,14.545123913726698,-10.300333286658198,0.0013986160434704858,0.0029606215344253383,0.18201724001225994
27444,1724816835447989732,-0.4203851521015167,-0.1990743279457092,0.1288993060588836,-0.094564601778984,0.0664441287517547,-0.1593365967273712,-0.9804359674453736,0.0,0.0,0.0,0.0021133434860989286,0.15942215397165826,0.1398246566853657,1.803850687,0.1288993060588836,-0.03148973782759556,-0.08843170903418958,0.030459157022725225,17.682743508513294,-12.615949664034284,24.427015982239677,0.1671881989096871,-0.1611198276965412,0.30868595418075623,0.008286441154950808,-0.0012083558581608145,-0.009446245449574064,-41.74052324425244,-2.974566408776557,75.97127552719387,0.0022781827039329064,0.0040330384541907354,0.18201724001225994
27446,1724816835453633069,-0.4203268885612488,-0.1990777999162674,0.1288249492645263,-0.094938725233078,0.0669997856020927,-0.1599508821964264,-0.9802619218826294,0.0,0.0,0.0,-0.2779177550406092,0.10420571300262263,0.6736041400815803,1.809494024,0.1288249492645263,0.11891610630593345,-0.19771003028167558,0.23308427535306295,9.743706312865775,-7.3423167174008075,13.88286559551733,0.16767794304395825,-0.1624391674136212,0.309811669970792,0.007347168105097168,-0.00026511032231901765,-0.006521892808305729,-29.287064963060082,-8.419045133030156,44.7406692076492,0.007387328899494324,0.011234655159483338,0.18201724001225994
27448,1724816835463549492,-0.4203059077262878,-0.1990743279457092,0.1288762241601944,-0.0946070402860641,0.0673530548810958,-0.1598327308893203,-0.9802890419960022,0.0,0.0,0.0,-0.2140112989352422,0.04450958432720167,0.2487176957021942,1.819410447,0.1288762241601944,-0.07908793678634353,-0.06103878690759947,-0.012987618234131864,-9.880482740774752,7.323249713915414,-13.810537222246895,0.16693106818559292,-0.16301455232984288,0.3095808266617872,0.0026487000921484594,-0.0003284518307644646,0.002865852057052365,17.32281122977553,2.642274328730232,-58.57623774985339,0.0029328956120962804,0.0013478704900977074,0.18201724001225994
27450,1724816835473796040,-0.4202731251716614,-0.1990848779678344,0.1288811862468719,-0.0942953750491142,0.0676679983735084,-0.1595901846885681,-0.9803369641304016,0.0,0.0,0.0,0.07866353957171038,0.1632962296438045,-0.5180251095175592,1.829656995,0.1288811862468719,-0.07353311454577643,-0.0543871408307702,-0.03799082986834703,2.265494559873461,-0.9367881946572334,2.0499721043570234,0.1662560867240855,-0.16349958810561568,0.30909815289241854,0.003206449606970807,0.0006664993239802186,-0.001975509848453072,13.45820753153409,-1.4945760646210955,-27.61954137947621,0.002776899258000401,0.0032927418924962064,0.18201724001225994
27452,1724816835484265920,-0.4202394783496856,-0.1990597546100616,0.1288341879844665,-0.0941909775137901,0.0681262761354446,-0.1597006767988205,-0.9802972078323364,0.0,0.0,0.0,0.05797427723959939,0.007637921221576804,-0.3021438069781868,1.840126875,0.1288341879844665,-0.03137682199507842,-0.08116179785407299,0.03150791805921649,6.830897094916789,-0.007178689685103379,10.64257974265886,0.16589697296987257,-0.16439216619815608,0.3092854990511945,0.004289268539462654,0.003084351949928177,-0.007886339674707976,-7.164185567569142,-19.843867421815503,48.54675916305658,0.0030058349842083986,0.0027023230129311696,0.18201724001225994
27454,1724816835493826125,-0.4201890826225281,-0.1990242898464203,0.1287291347980499,-0.0944548770785331,0.0684337168931961,-0.1604813039302826,-0.9801228642463684,0.0,0.0,0.0,-0.05580676942096327,-0.22551724738683648,0.40576803572893994,1.84968708,0.1287291347980499,0.058409693448971914,-0.058968945161308114,0.1682116726337061,1.792088111616504,0.15117484766287292,3.72803605339602,0.1662070933580045,-0.16521396364615645,0.3107988153936766,0.00444677306677832,0.0012080928148208159,-0.008484154694944124,-6.8598474278488055,-6.344986488423327,38.33430538642095,0.004262316086833722,0.004876519467228431,0.18201724001225994
27456,1724816835504330680,-0.4201518893241882,-0.1990404725074768,0.1286689192056656,-0.0944397076964378,0.0689092278480529,-0.1608760356903076,-0.980026364326477,0.0,0.0,0.0,-0.06967439407440454,-0.08391159400064627,0.39624138311439755,1.860191635,0.1286689192056656,-0.010481286777197472,-0.08242981547760839,0.085358110307062,-7.29609252922742,-0.13189218718689588,-10.44785749592746,0.16597305797296927,-0.16621620042853777,0.31155030747600915,0.0030262578934383555,-0.001498590373151032,0.0011834601403828415,1.8243911009763425,13.34918784393991,-39.41491650002694,0.001909638663464877,0.00442966319525841,0.18201724001225994
27458,1724816835513796986,-0.4201276302337646,-0.1990543007850647,0.1287391185760498,-0.09410310536623,0.069263756275177,-0.1606544703245163,-0.9800700545310974,0.0,0.0,0.0,-0.0255790605909975,0.04133653392721279,-0.30537160960068666,1.869657941,0.1287391185760498,-0.08584304674298693,-0.06575106849766871,-0.03538699026225892,1.4448571520748523,1.7872711169494888,0.554428170241076,0.16523319495250213,-0.16677487017182108,0.3111112053115767,0.002925919525299747,-0.0008106673408256881,0.0004636067588030812,7.152202188689861,5.017746927948383,-32.84278105377125,0.0031958653378816207,0.002102273599865085,0.18201724001225994
27460,1724816835523800770,-0.4200945198535919,-0.1990555375814438,0.128670260310173,-0.0942404344677925,0.0695267543196678,-0.1611852496862411,-0.9799511432647704,0.0,0.0,0.0,0.07233674974599391,0.004704927528681679,-0.1975831292850027,1.879661725,0.128670260310173,0.028048190623431966,-0.04760344618475957,0.11086636572095389,4.4707294112487075,0.2202776443230059,6.035997944720258,0.1653424963570528,-0.16742709984396192,0.3121412030720336,0.002511671812968075,-0.0007284034037189357,-0.00501566832589706,8.281976989070559,3.760208049443261,11.967932385902746,0.001921308117400261,0.0038753145126103517,0.18201724001225994
27462,1724816835535519621,-0.4200760424137115,-0.1990723758935928,0.1286371201276779,-0.0941945016384124,0.0699597671627998,-0.1615085005760193,-0.9798714518547058,0.0,0.0,0.0,0.14871907653872757,0.15065887439334846,-0.04095304843583947,1.891380576,0.1286371201276779,-0.014476244061287176,-0.06690163001428341,0.06376325423695643,-1.1108039604679738,0.08559719150267009,-2.881365876106895,0.16506977161860206,-0.16832330064627582,0.31275795792756433,0.00492087302333033,-0.0007215668614009019,-0.002524449899391712,-10.753896115153555,11.690950331346308,-6.229175364423655,0.0005694229413833145,0.0022544352901854234,0.18201724001225994
27464,1724816835544440477,-0.420009434223175,-0.1990739554166793,0.1286166608333587,-0.0941875353455543,0.0702219009399414,-0.1616834998130798,-0.9798245429992676,0.0,0.0,0.0,-0.06450612499278918,0.24976608198458417,-0.22958934755253269,1.900301432,0.1286166608333587,-0.007286619726747505,-0.05437371838669689,0.04578750203440315,0.37566603365831314,1.2097094897720577,1.2727991088761903,0.16494976056862184,-0.1688688782414071,0.31308586585729736,0.005861413954413308,0.0016415885578435763,-0.004611520997063856,-10.259494074086968,-5.691592246329282,-6.853860607648956,0.0065633493027621335,0.007306746571546327,0.18201724001225994
