seq,stamp,px,py,pz,ox,oy,oz,ow,lx,ly,lz,ax,ay,az,timestamp,lyap_z,wx,wy,wz,aa_x,aa_y,aa_z,roll,pitch,yaw,vx,vy,vz,jx,jy,jz,forward_velocity,forward_velocity_1
13514,1724558929328186226,-1.0068644285202026,0.1953596919775009,0.1527633070945739,-0.0205964464694261,0.0795861706137657,-0.4557196795940399,0.8863190412521362,0.0,0.0,0.0,-276.25105943167995,36.195196197939545,257.972237807639,0.0,0.1527633070945739,0.0,0.0,0.0,946.8253056769265,1856.2132428212603,9179.625137855159,-0.11009515303963074,0.12261205317180225,-0.9566051067559861,1.1345816772510455,-0.26348355240810095,-0.21597943541477185,71044.74580866452,-101284.30358508098,-655475.427631817,0.0,0.0
13516,1724558929328553547,-1.006447672843933,0.1952629089355468,0.1526839733123779,-0.0204334743320941,0.079680785536766,-0.4551783502101898,0.8865923881530762,0.0,0.0,0.0,-250.1548323564955,-1.0086554792359834,17.202348254492335,0.000367321,0.1526839733123779,0.3477888181065543,0.6818261045663482,3.371869085262095,-2617.1852264771833,2077.756138169688,2050.4314399849627,-0.1098188380682096,0.12299689210303469,-0.9553923011989842,1.0331088618495414,-0.2501882967454776,-0.1212208150510321,63022.05423935392,5769.573012199755,-462602.45488445123,0.8900502850045617,0.4036961186777831
13518,1724558929328953729,-1.0060784816741943,0.1951685845851898,0.1526767760515213,-0.020669313147664,0.0801760330796241,-0.454956591129303,0.8866561055183411,0.0,0.0,0.0,-228.43229607258854,47.97387121361729,-83.83353124502408,0.000767503,0.1526767760515213,-2.2534088431585704,1.609895600297088,1.0842091058041847,7388.313567206622,10153.140053261202,2551.644792352631,-0.11067593949713266,0.12368497174188202,-0.9550291940949568,0.9443789065251167,-0.26681218143562546,-0.21930827227717486,58953.19615134914,147180.70294894083,226342.55764595082,0.7219460822519,0.3365099863731992
13520,1724558929329377829,-1.0056681632995603,0.1950414478778839,0.1524932831525802,-0.0183197613805532,0.0812886804342269,-0.4540112614631653,0.8870909214019775,0.0,0.0,0.0,-201.33062737991827,121.53055231989744,227.36163463671264,0.001191603,0.1524932831525802,7.122059585183308,9.436823887417138,5.882480873350905,6366.429920903671,7522.0448823074785,1710.6756456337216,-0.10739689154290515,0.12793485131870375,-0.9529684994605747,0.8444857444327454,-0.20623431031310702,-0.18237805764546522,190452.52779493836,-25005.39719804836,277159.35236938455,0.8534289567883709,0.24568576735858672
13522,1724558929329916069,-1.0052976608276367,0.1949943453073501,0.1525660902261734,-0.0176278203725814,0.0827510803937912,-0.4539778232574463,0.8869868516921997,0.0,0.0,0.0,-12.376254018932059,-27.487462210454737,64.62426544844126,0.001729843,0.1525660902261734,-0.20346367403761195,6.016936113654542,0.24320636995921982,-11340.816359566725,-12137.231911918423,-4236.754535059632,-0.10753470638745707,0.1311687698925329,-0.9531875750864875,0.7594909806070973,-0.15537724608583403,0.035823982603602644,301732.0166416386,-244444.03399170478,-488892.38197611563,0.4482364340818178,0.3469958872784405
13524,1724558929330307266,-1.0049803256988523,0.1949142664670944,0.1525518298149109,-0.0183483865112066,0.0830418765544891,-0.4538492560386657,0.8870108723640442,0.0,0.0,0.0,91.63531145490929,-113.89609599656167,-179.667365260074,0.00212104,0.1525518298149109,-3.9947307517656783,-0.3754771762047082,0.3601293514703993,-9502.39577017553,-16027.784647610031,292.8323928299698,-0.10907687527254314,0.13103797755927088,-0.9530303172987904,0.7960289898154682,-0.20081085034447194,-0.03578602164665576,260635.4351108682,-216534.6505774346,-612343.9253385643,0.6360261550487397,0.2956586757301159
13526,1724558929350370457,-1.0046098232269287,0.1948893368244171,0.1525204330682754,-0.0193719081580638,0.0834181681275367,-0.4536924064159393,0.887033998966217,0.0,0.0,0.0,-75.9900517107776,15.717097488978254,14.387661929282274,0.022184231,0.1525204330682754,-0.10878182144767222,-0.013512131289393091,0.007130719819139015,-12611.67772113726,-8050.623256619815,7390.490502599312,-0.11123673158001281,0.13078424210607945,-0.9528567706631297,0.8181558918408882,-0.17705087730263358,-0.1561776077217587,-9920.68288752783,2175.3947058149206,2467.042943678847,0.011815693385008487,0.009352297671413382
13528,1724558929350748027,-1.0042952299118042,0.1948212385177612,0.152460366487503,-0.0204242821782827,0.0833326056599617,-0.4531252682209015,0.8873082995414734,0.0,0.0,0.0,-79.74692983625036,16.508015219946927,15.267947113484244,0.022561801,0.152460366487503,-4.96156155151934,-3.11051789066199,2.8501964031295945,-12085.609116835047,-7713.168045939646,7080.152014852127,-0.11295276824445397,0.12973755587882352,-0.951645763845728,0.7889165439392709,-0.17101330963180983,-0.1506003891666634,-9339.447346946625,1972.174985246779,2200.479243007745,0.6457085453738775,0.3085932624063027
13530,1724558929357051439,-1.0039830207824707,0.1947267949581146,0.152404174208641,-0.0219076089560985,0.0832768902182579,-0.4525777399539947,0.8875575065612793,0.0,0.0,0.0,-74.35095524644932,16.039623296480865,15.356075945217146,0.028865213,0.152404174208641,-0.4224566533434584,-0.23908307438145981,0.15039503678592725,461.8474488362369,291.9095777905658,-271.874026841825,-0.1154711774078968,0.12834836253237986,-0.9505227884328546,0.043563715420695814,-0.012506203369189173,-0.0021015706518410227,3139.1644368603056,-598.4995012396013,-517.5187630935364,0.041785645350623846,0.015076136102387267
13532,1724558929367674330,-1.003627061843872,0.1946382820606231,0.1525038182735443,-0.0227004494518041,0.0833018869161605,-0.4522117078304291,0.887721836566925,0.0,0.0,0.0,-0.13069292733296445,0.2975690904360817,0.3434396893426593,0.039488104,0.1525038182735443,-0.1396769338929351,-0.06746557661109792,0.0628395769920637,20.426927980902157,21.336823275596586,-3.6507998231688923,-0.11685890991481053,0.12771389380604525,-0.94977059240412,0.03956434465148817,-0.005148751775026383,0.014182102304975075,3316.7391763322726,-733.9284217317195,-734.9190464884913,0.02486546745868028,0.014260486381221028
13534,1724558929377312427,-1.0031927824020386,0.1946164965629577,0.1526824980974197,-0.0222603268921375,0.0840875953435897,-0.4519427418708801,0.8877958655357361,0.0,0.0,0.0,-0.25705010782784554,-0.23539985189667742,-0.8081850884944181,0.049126201,0.1526824980974197,0.003045201988539281,0.18348989465610863,0.06780232573609282,10.063754191196434,6.675471041411016,3.983671843805271,-0.11677226966630265,0.1295464966224262,-0.9493239760328407,0.040454076053947574,-0.005735169302276688,0.007090983781070648,24.882926589845976,-31.1838010227208,-32.233361000858025,0.025442161717071848,0.0273503635424448
13536,1724558929387861954,-1.0028191804885864,0.1945158690214157,0.1526251137256622,-0.0218666438013315,0.0841174572706222,-0.4512684047222137,0.8881458044052124,0.0,0.0,0.0,0.4441649660511242,-0.28592226720533465,-0.14070424867113518,0.059675728,0.1526251137256622,0.054429113933331504,0.030332549966854847,0.1498824858047681,-0.45536821795713867,-10.094251663925021,1.030915292590604,-0.11599792648995243,0.13004794466607006,-0.9477776779024811,0.03370816025888246,-0.010234151834509042,-0.002271538621828384,54.65533762994164,12.781053053938816,65.7310758311861,0.028875727259964713,0.01195825553996558
13538,1724558929400596915,-1.0024161338806152,0.1943748444318771,0.1526448875665664,-0.0221097469329834,0.0840503796935081,-0.4509112536907196,0.8883274793624878,0.0,0.0,0.0,0.9585877053564165,0.14695168865660535,0.7341949977337099,0.072410689,0.1526448875665664,-0.03324879444075171,-0.03021150373869078,0.05924955396930123,10.283654227615672,31.4985288615864,-1.8655235203003588,-0.1163176100143256,0.1297532355485553,-0.9469768327997927,0.05602316588330325,-0.011714810629165129,0.007416918732953803,-109.81957410726996,31.038472353159992,-19.908554283507566,0.02704356102788095,0.009764523358498013
13540,1724558929407218767,-1.0019612312316897,0.1942950636148452,0.152714192867279,-0.0213626455515623,0.0848065540194511,-0.450768232345581,0.8883464932441711,0.0,0.0,0.0,-0.2858373511541028,0.3423177654206149,0.29726516860116636,0.079032541,0.152714192867279,0.09396240429879951,0.30319208696668654,0.06497769566918798,1.54191087391761,26.4818033406188,-5.568218516609821,-0.11566975727877035,0.13179723878258187,-0.9467801534388884,0.059638013609550455,-0.009835404811958881,0.012187124574574604,-136.3995735381058,6.447902249786315,-81.87340135932291,0.04810888040253058,0.03196475299997011
13542,1724558929417181243,-1.0015028715133667,0.194230243563652,0.152861401438713,-0.0216175373643636,0.0860724970698356,-0.4511090219020843,0.8880455493927002,0.0,0.0,0.0,-0.8724008254234725,0.0609923736714591,-0.7565678452471905,0.088995017,0.152861401438713,-0.15550490220056026,0.20928554609515834,-0.08691970530908093,-6.6428052051162565,0.6111985070118795,-1.173789979470047,-0.11736622939024054,0.13376743988546713,-0.9478924273561349,0.044324006744275835,-0.005548266122211487,0.008806909172707655,-1.8924395047071334,-39.473388987695884,-58.94180809340067,0.029867987573854442,0.023959744917941745
13544,1724558929428462396,-1.00102436542511,0.194179892539978,0.1528844982385635,-0.0206795800477266,0.0877955183386802,-0.4507535696029663,0.8880797624588013,0.0,0.0,0.0,-0.16580397251836754,-0.5278316447466458,-0.8231677795422971,0.10027617,0.1528844982385635,0.0045781342590274525,0.3443998267927529,0.07961446140920837,-6.54497403918188,-18.987927885140493,15.098265844157119,-0.11725487286548475,0.13773110078019218,-0.9474512154005865,0.042974314999078445,-0.009578242036267781,-0.005058452318474238,31.37032888511004,-15.770472698161957,15.692513669554216,0.027834750552519452,0.021326576269517818
13546,1724558929438070588,-1.000606894493103,0.1940460056066513,0.1527777463197708,-0.0217543337494134,0.087921604514122,-0.449677437543869,0.8885870575904846,0.0,0.0,0.0,-0.12024215879385292,-0.3812805163627537,-0.49566267831287336,0.109884362,0.1527777463197708,-0.22799080771898594,-0.09143586740117199,0.22743197590094016,-9.591723347696895,-23.951569745442367,2.4015559191374436,-0.11913103996770182,0.1371163818310998,-0.9451560769348123,0.04100347434770413,-0.016045831726646753,-0.009645950943066417,1.0201953213230386,36.651079996973706,19.703092818158304,0.03791383466957644,0.012169841328505208
13548,1724558929447838381,-1.0002306699752808,0.1938683092594146,0.1526980698108673,-0.0227159224450588,0.0878327637910842,-0.4490599632263183,0.8888838887214661,0.0,0.0,0.0,-0.1472345499305221,0.18920625824271398,-0.44603014121044865,0.119652155,0.1526980698108673,-0.17656753582828316,-0.11279478772710447,0.12196836226766158,24.84740616343538,1.6527311181918503,5.090111875612758,-0.12067493924791911,0.13616501535560502,-0.9438289570559266,0.040671823210324476,-0.016871994016790737,-0.014668264489664296,-2.872737101858524,40.0372103866754,20.51031099094274,0.03809138191129535,0.006497652429599814
13550,1724558929457731580,-0.9998067021369934,0.1937146186828613,0.1524877101182937,-0.0215333215892314,0.0870252102613449,-0.4477101266384125,0.8896733522415161,0.0,0.0,0.0,-0.1767506172076987,0.4012543519670839,-0.08851498117217127,0.129545354,0.1524877101182937,0.265476984707127,-0.057972385101881664,0.3315189016122405,6.965672553793242,3.13089438729674,4.094489398481446,-0.11759330431312828,0.13598536884995674,-0.9404732971304377,0.03808010241396431,-0.012256739246645054,-0.01839814578637,23.780462942021153,-12.204144547943743,55.64756309212045,0.04034192454805431,0.009005541655513054
13552,1724558929469308275,-0.999430537223816,0.1936171352863311,0.1523135304450988,-0.022448681294918,0.0871905609965324,-0.4468605816364288,0.8900614976882935,0.0,0.0,0.0,0.4611106287332354,-0.1957102887361869,0.8199966382180626,0.141122049,0.1523135304450988,-0.16480940512828768,-0.05438160575756861,0.1474506111855449,-17.43035307065776,-0.8906831252619272,-8.418161123203552,-0.11925951232978792,0.1355618837105844,-0.9386873501099529,0.0371883522353329,-0.00849550706196922,-0.01551464747422493,27.766502823579806,-31.243609012413593,77.06273026481874,0.027787147408444027,0.009719949577177112
13554,1724558929479041071,-0.9990301728248596,0.1935338377952575,0.1521586924791336,-0.0233024749904871,0.0872647911310195,-0.44623002409935,0.8903486132621765,0.0,0.0,0.0,0.5077079621487557,-0.3335076664962514,1.5584549074121823,0.150854845,0.1521586924791336,-0.17294777694970515,-0.07287655384331972,0.12673834641409404,9.683295647627231,5.262975797178475,-19.862249001419162,-0.12076453289096656,0.1350053815465849,-0.937365749849152,0.0460796287514782,-0.014660229076369546,-0.002862194631649828,5.11085725564898,26.4953959545527,24.892455661615216,0.033103759726195135,0.014558453736175484
13556,1724558929487471315,-0.9986056089401244,0.1933656930923462,0.152229830622673,-0.0233747363090515,0.0873646363615989,-0.4468656480312347,0.8900180459022522,0.0,0.0,0.0,0.5531537152975883,0.18670699700569898,1.3960423482020485,0.159285089,0.152229830622673,-0.014501870267925009,0.023797744183300672,-0.1702003394393211,7.2242703907821,10.973944084678115,-21.634491975349512,-0.12108355988684226,0.13503144768570055,-0.9388275679459281,0.04739635594076219,-0.015281985261291986,0.01216333839953343,-7.653374331647384,27.296787344073834,-55.1339833574229,0.04429053219010782,0.015184455073697489
13558,1724558929499736264,-0.9980772137641908,0.1932614743709564,0.1524454802274704,-0.0237906631082296,0.0885159969329834,-0.4478693306446075,0.8893885612487793,0.0,0.0,0.0,0.22652569994030447,-0.09253422218778995,0.07979026448380644,0.171550038,0.1524454802274704,-0.1323631294574424,0.14958460919742794,-0.19307300008674957,24.207652209123324,44.604232506372874,-1.7769502263560621,-0.12305867646126778,0.13656409907093442,-0.9414253276560963,0.061264148840450616,-0.008344393701193553,0.022392704441582367,-119.6743248416517,-32.7364651212882,-128.55331539730565,0.029534900552311887,0.02153278381917115
13560,1724558929508211687,-0.9974514842033386,0.193191647529602,0.1526634395122528,-0.0214643068611621,0.0907272696495056,-0.4488243162631988,0.8887432813644409,0.0,0.0,0.0,-1.3326966594262062,-0.4283758737124571,-1.1341223981364765,0.180025461,0.1526634395122528,0.2708663088219784,0.7287946828092251,-0.20761842058847302,-6.773724765704463,-10.936860165088184,-0.5123607764011471,-0.12111387849192136,0.14248068524191013,-0.9439486516381917,0.05788861139322421,-0.012983447076132748,0.018651549107502774,-67.83239236085339,6.902834039412506,-102.34527822583993,0.045821733447223505,0.04097079702008389
13562,1724558929517304005,-0.997080624103546,0.1930273175239563,0.1527641117572784,-0.0231370348483324,0.0907807424664497,-0.4494874179363251,0.8883606791496277,0.0,0.0,0.0,-0.8166322080690613,0.08822818047055148,-1.665909473966887,0.189117779,0.1527641117572784,-0.32085911374706005,-0.14392191655358877,-0.20053469764421183,-32.2949149160285,-62.27452307577529,11.687591842507455,-0.12426658230901541,0.14095880252697957,-0.9456148761759776,0.03665684027947691,-0.015717854277899512,0.0015829732607297586,92.54577206465082,42.54699310568935,16.73349098090631,0.036588464157134286,0.011292695813835765
13564,1724558929529829126,-0.9966927766799928,0.19287109375,0.1526202112436294,-0.0249126981943845,0.0893450602889061,-0.4485997259616852,0.888906717300415,0.0,0.0,0.0,0.9599911624496986,0.3749089814179216,-0.15845889957392778,0.2016429,0.1526202112436294,-0.15968868546574602,-0.34229613202492565,0.13406887781137905,4.417671638676568,25.893158297336097,9.058272746493378,-0.12595890396187637,0.1369145459716205,-0.9433923154664628,0.05262860122093116,-0.007901568493569044,-0.015636238135446234,-31.302035749513966,-13.015194155231422,89.20455073806353,0.029579106612798008,0.006034486607535837
13566,1724558929536906111,-0.9962337017059326,0.1928334534168243,0.1524929702281952,-0.0253701750189065,0.0896383672952652,-0.4481477439403534,0.889092206954956,0.0,0.0,0.0,0.04611154481826607,0.13923407268071364,0.3482835803971741,0.208719885,0.1524929702281952,-0.1622139875005633,0.007818559461361662,0.12757247260426793,11.123336185932683,38.97809937023176,-5.880119253610252,-0.1269843785140922,0.13708331214332795,-0.9424952614073733,0.05816211816565442,-0.006244568706073039,-0.011894017040394722,-95.21350149234277,-13.435606558897511,-17.8234084254862,0.04448986260126454,0.030281389326567567
13568,1724558929546915131,-0.9957464933395386,0.1927578449249267,0.1524600684642791,-0.0243147984147071,0.0904974117875099,-0.4482358396053314,0.8889902234077454,0.0,0.0,0.0,-0.4267095643745793,0.2859760905573649,-1.0960330987452096,0.218728905,0.1524600684642791,0.1116308438158884,0.24939725343012245,-0.001525128534195493,11.4171735638155,5.028872798528043,7.435331895737934,-0.12591298640699866,0.13955767173223954,-0.9428283413212757,0.0482079204786956,-0.006194431753765883,-0.010963219358884224,-16.91309683425741,-4.156726597471402,-75.05068887576445,0.03483047197534264,0.021732183986281618
13570,1724558929557221210,-0.995254635810852,0.1927084326744079,0.1522656232118606,-0.0236763134598732,0.0908459424972534,-0.4469431340694427,0.8896226286888123,0.0,0.0,0.0,-0.2791948579406891,0.043443918167902495,-1.1346248894454807,0.229034984,0.1522656232118606,0.06011466224048526,0.09846020347266109,0.29088171847052785,3.907581320995762,-0.47021552447111326,24.607826276954235,-0.12489147767634182,0.14093941920594472,-0.9399528469540606,0.04983582522874741,-0.00026553148254038206,-0.034876944488530626,-12.938201164422772,-51.49843200389719,96.40167431021973,0.03435393934676035,0.020629366494242816
13572,1724558929566788722,-0.9947590827941896,0.1927461177110672,0.1517897397279739,-0.0222403611987829,0.0914595201611518,-0.4449455440044403,0.8905975818634033,0.0,0.0,0.0,-0.6450262363919741,-0.6976540426236989,0.677185482544981,0.238602496,0.1517897397279739,0.17660425111085606,0.2198639457422372,0.49288208799424554,-11.827154612070334,-9.420687121493971,-6.790871332561565,-0.12256866864542414,0.14360886673961862,-0.9354876734709505,0.04328190857939518,-0.004573598363273312,-0.03520100907895696,24.013851991340715,-27.62432517914942,138.7064244490867,0.034401130588943424,0.024438631287145813
13574,1724558929578062455,-0.994384229183197,0.1925814747810363,0.1515860259532928,-0.0240518953651189,0.0912523791193962,-0.4445509910583496,0.8907687664031982,0.0,0.0,0.0,0.4526521319416372,-0.34705671669679905,1.567883198301698,0.249876229,0.1515860259532928,-0.27558926251368926,-0.18005479141948366,0.04564003080315352,-19.683952134081586,-23.1898094434082,-15.119470465985431,-0.1255661938027491,0.14165825283456818,-0.9347180836077477,0.03654131312072906,-0.015724927591028504,-0.01812075627227472,67.36070124322198,51.55123378254057,31.836551839904672,0.033735773978112255,0.0047281220576063775
13576,1724558929586847832,-0.9940406680107116,0.1924356520175933,0.1514264792203903,-0.0258124563843011,0.0906908884644508,-0.4440782368183136,0.8910126090049744,0.0,0.0,0.0,0.8390173165089752,0.2458642419646847,1.5246421087806739,0.258661606,0.1514264792203903,-0.30867579444959387,-0.299688752572893,0.08089690070764134,25.606585031351358,26.305496858183034,-12.421122782056088,-0.12813132117398396,0.1391364382384976,-0.9336696864538597,0.04771039888048989,-0.014378068314757186,-0.003984591799929937,-18.391210641566087,29.284210020900858,-61.68332834574831,0.03877049780844416,0.006630045713882146
13578,1724558929596766579,-0.993471086025238,0.1923179030418396,0.1515457034111023,-0.0238031428307294,0.0918618366122245,-0.445252388715744,0.8903623223304749,0.0,0.0,0.0,-0.041833779011597905,0.10849117708865452,0.2771880681034323,0.268580353,0.1515457034111023,0.27423433729186253,0.4082985089045164,-0.22634125579895084,18.884574742551386,21.85627192589498,-11.780656628064822,-0.1258001310931913,0.14286936149413704,-0.9364368033064531,0.05119125486731946,-0.01090291599830806,0.010192651871486547,-57.42091821841608,-9.97735271588755,-112.37143059361303,0.04143964394931144,0.026547221119634614
13580,1724558929607081344,-0.9930099248886108,0.1922158300876617,0.1516312360763549,-0.023445725440979,0.0922205820679664,-0.4459362030029297,0.8899924755096436,0.0,0.0,0.0,-0.2974546036343799,0.04711573570877586,-0.7382047600937202,0.278895118,0.1516312360763549,0.041205325703548804,0.10253381846878679,-0.1419606496188542,-6.8611365776581845,-27.03272952231785,15.493857039599217,-0.1256038699275439,0.1437350638912194,-0.9380386347315498,0.046546655664784,-0.01237830554337016,0.000693134725395339,-15.052616339089317,13.399378032105746,-39.35784000916455,0.03287675356250605,0.019889331032308628
13582,1724558929617378210,-0.992511749267578,0.1920628547668457,0.1515602618455886,-0.023137729614973,0.0912454277276992,-0.445555716753006,0.8902915120124817,0.0,0.0,0.0,-0.35244074396542047,0.38398213568864614,-0.536154420734402,0.289191984,0.1515602618455886,0.13225248454818134,-0.14898351257743597,0.09275083419094857,-0.6136332179056988,-2.0797000382097215,12.861454354553238,-0.12407809072569922,0.14233184584650635,-0.9368881902562429,0.04505476400944275,-0.009938585008995027,-0.00502948894984101,2.869872370076317,4.297067913449675,44.949404750111405,0.041193241670929207,0.015380727572337419
13584,1724558929628852915,-0.992037296295166,0.1920116990804672,0.1515263766050338,-0.0227678231894969,0.0918261781334877,-0.4449939727783203,0.890522301197052,0.0,0.0,0.0,-0.21452682355349895,0.06989631636435212,0.3034887217331882,0.300666689,0.1515263766050338,0.004296625672128332,0.11290837391387286,0.11331617658345965,-30.638620523748283,1.275340106475388,5.417698873577253,-0.123866020599447,0.14377828779709506,-0.9357464994665828,0.038356575648933244,-0.0036522116187338582,-0.010930954353851163,21.193738789204986,-32.6490016173086,37.99031529785793,0.028250180166949745,0.020217649080692103
13586,1724558929637317936,-0.9917312860488892,0.1919858157634735,0.151384025812149,-0.0241376161575317,0.0925122275948524,-0.444160521030426,0.8908312916755676,0.0,0.0,0.0,0.02217280785018949,-0.23943157978307247,0.40536824620987455,0.30913171,0.151384025812149,-0.3767543422464553,-0.01085799229910556,0.18181721434682407,-19.02671027276702,-4.0354263999324385,-2.127704994063797,-0.1268324454366986,0.14387952445454574,-0.9341920025116655,0.03884621243730635,-0.00604521181372597,-0.0032550223833078817,7.0284155274821645,-12.782290730764744,-32.026936504723615,0.026112481803917894,0.015729598696044025
13588,1724558929647606440,-0.9912979006767272,0.1918862611055374,0.1515201181173324,-0.0250739008188247,0.0934482961893081,-0.4439049959182739,0.8908350467681885,0.0,0.0,0.0,-0.1672864550924813,-0.07383337262225736,-0.47513073197349054,0.319420214,0.1515201181173324,-0.2475354914915963,0.07999284503253343,0.03212795842038374,14.761545768794175,5.480246283726949,3.912727400094276,-0.1293468413176281,0.14473800073191687,-0.9339668841701901,0.038628297186612315,-0.007967632516198364,-0.005354468399962897,-22.53013142068081,13.012942629927046,-26.040387253780352,0.030577053715310436,0.01967586715638685
13590,1724558929656885820,-0.9909687042236328,0.1918266266584396,0.1513149142265319,-0.025146260857582,0.0940888375043869,-0.4429551959037781,0.891238272190094,0.0,0.0,0.0,-0.4107954802549294,0.021120356978858612,-0.2184612910266309,0.328699594,0.1513149142265319,-0.09212837650894286,0.1028085388565836,0.22294762509338523,17.068487947554715,4.448674275313891,2.6489991711328535,-0.12991950131076566,0.14595143238219044,-0.9320182011574161,0.035853187402963727,-0.007706886715483918,-0.01203206252369693,22.769029027186626,-13.077271586509767,-19.45768819835564,0.029247175827328376,0.011681392486377213
13592,1724558929668352441,-0.9905522465705872,0.191720113158226,0.1513198018074035,-0.0241317246109247,0.0947441235184669,-0.4430420994758606,0.8911536931991577,0.0,0.0,0.0,0.5447453043372137,-0.4591213921668551,-1.1092080944014395,0.340166215,0.1513198018074035,0.10813665115613945,0.18201583809146163,-0.0005201120415560253,5.879293649227634,-1.221140759363498,-6.61257919466065,-0.12872026176197243,0.14802034093173216,-0.932296257212683,0.02955955289772305,-0.007563597758597496,-0.00743599989546162,24.265815543457244,-23.53185298569835,-3.127372269247181,0.028723755579136447,0.014197821464159446
13594,1724558929682272797,-0.9902549982070924,0.1916439831256866,0.1510834246873855,-0.0240000579506158,0.0949544906616211,-0.4422672688961029,0.8915196657180786,0.0,0.0,0.0,-0.11564142654705911,-0.47659583702049035,0.10716387810752614,0.354086571,0.1510834246873855,-0.005810967229715355,0.02764750936772163,0.12502345919619498,93.65981559175152,53.42727166865766,37.88630164564532,-0.12855063319937576,0.14862528309666675,-0.9306010337461287,0.055623712730323405,-0.021924673774648795,-0.04839480126482698,-245.84159243007616,105.15400892584202,301.00113844089356,0.019467061866458458,0.005091702983344905
13596,1724558929686654460,-0.9899640083312988,0.1915252208709716,0.1508280485868454,-0.0225268136709928,0.0951286926865577,-0.4417523443698883,0.8917948007583618,0.0,0.0,0.0,-1.4664716357218621,0.13091345368788077,1.7206748275429464,0.358468234,0.1508280485868454,0.5450402071911261,0.35072926828100265,0.3308426883627917,72.5113822338504,38.98994014187512,25.886080275107343,-0.1259752709710891,0.15033362366416564,-0.9293441604834333,0.05237513318373743,-0.023247410848962424,-0.043719328329742346,-216.66186050871323,113.05181892923342,272.4538727874935,0.06949011833050821,0.007000984764296387
13598,1724558929697314526,-0.989769697189331,0.1913774311542511,0.150739699602127,-0.0231077279895544,0.0946410670876503,-0.4414198398590088,0.8919963836669922,0.0,0.0,0.0,-1.3997119798959927,0.6722218245645838,2.140825386538736,0.3691283,0.150739699602127,-0.06186384142416788,-0.13473628055440615,0.059911307454937654,-24.623290427400015,-16.823831941129548,-10.674870159299802,-0.12651192536859301,0.1489891529824442,-0.9285204515348777,0.01793803773372815,-0.010627503269693861,-0.008425388451387406,79.32652896802959,-5.287488220912008,-49.67769801838809,0.0230064585495159,-0.0016274698455352027
13600,1724558929707335512,-0.989592671394348,0.1913014203310012,0.1506539732217788,-0.0231557730585336,0.0945144593715667,-0.4410037100315094,0.8922144174575806,0.0,0.0,0.0,0.08349636151697404,0.0910765825888381,0.803747197141251,0.379149286,0.1506539732217788,-0.004253788084334231,-0.032809633106034686,0.09179896847070369,6.384284020163594,18.181163196685624,-6.266816639548726,-0.1264114639467438,0.148779031418015,-0.9275558136597695,0.02115774943546711,-0.008710817223683165,0.0020058508855509416,51.48638442883683,-30.07138789584041,-104.23528638479704,0.01774890447291548,0.002925201134401162
13602,1724558929717573513,-0.9893395304679872,0.1912004649639129,0.1507849693298339,-0.0223454739898443,0.0954359248280525,-0.4413893818855285,0.8919462561607361,0.0,0.0,0.0,-0.39899785931810305,0.07525592951735116,0.04193170034739471,0.389387287,0.1507849693298339,0.06775402956212878,0.2371098246454902,-0.0711935644391144,-5.790177858882864,2.59774211996123,-4.240736547530863,-0.12587317738470136,0.15109558142938728,-0.928596003185351,0.019525259281664376,-0.008826340570292857,0.007753652297568081,-21.15380027702194,-19.384703441463195,-72.51302872376073,0.020521368901297986,0.009349340895481313
13604,1724558929728332777,-0.9891882538795472,0.1911171972751617,0.1508113890886306,-0.0230159275233745,0.0957514494657516,-0.4412440359592438,0.8919672966003418,0.0,0.0,0.0,-0.3329076976426044,-0.3350206832650048,-0.7167994856253844,0.400146551,0.1508113890886306,-0.13954092180741912,-0.0036723494940862867,0.01524137264188516,-16.666286930142657,-19.634604082401232,6.99623585652873,-0.1273490070765269,0.15107709052884336,-0.9284263957855091,0.012523797480896937,-0.007038131880240717,0.0023309364903058016,180.26984759738298,259.91779800883995,343.7529651385589,0.014083830743333038,0.002738941567872671
13606,1724558929803573943,-0.9890543222427368,0.1909565031528473,0.1509212106466293,-0.0244928784668445,0.0949277728796005,-0.4412596523761749,0.8920082449913025,0.0,0.0,0.0,104.85182838216019,176.04743497897545,243.12618652347675,0.475387717,0.1509212106466293,-0.025292319348284575,-0.036946525111007315,-0.0041530184190858325,-4304.497311504277,-10766.289350158788,4780.536608930928,-0.1292451236491193,0.1482800486228737,-0.9283800662662931,0.1547091170305066,-0.29597514529098135,-0.16356892715816684,12579.833265170571,-37613.58332818054,-60819.43252150377,0.002530335824506592,-0.0003378325135686195
13608,1724558929804019404,-0.988985002040863,0.190823882818222,0.1508479118347168,-0.0253136754035949,0.0941655859351158,-0.44076669216156,0.8923097848892212,0.0,0.0,0.0,110.48514371535623,159.18666875086058,215.86455351029983,0.475833178,0.1508479118347168,-1.9541343646019451,-4.861301596576211,2.1379981144472473,-925.1991768109267,-4143.44320613062,1648.84887129269,-0.12993400627661134,0.14625576011968267,-0.927142413008095,0.2016880620046777,-0.21707845661933334,-0.054618674846039994,-101664.81958419766,-109937.83815394524,-238657.87471157013,0.35197282710961314,-0.17169644215512805
13610,1724558929804791990,-0.9887674450874328,0.1907642185688018,0.150953009724617,-0.024538230150938,0.0941443815827369,-0.441127598285675,0.8921552896499634,0.0,0.0,0.0,-121.22887518694642,-22.342636025638683,-206.30307820698542,0.476605764,0.150953009724617,1.893271825158738,0.8971262307677821,-0.8223108496732493,-17007.95749083619,-4784.234882173908,4036.3365041581164,-0.12857747026534264,0.14686118807228324,-0.9278695042472398,0.2937788183030534,-0.11811245917402857,0.07368020521221297,-315171.6845874042,-90717.76519587322,-366814.16456296446,0.20824690598236353,0.13237805038742723
13612,1724558929805124280,-0.9886680841445924,0.1907191276550293,0.1509685814380645,-0.0257143359631299,0.094294860959053,-0.440765768289566,0.8922851085662842,0.0,0.0,0.0,-228.13701365870793,-31.871931376527755,-302.5207341670739,0.476938054,0.1509685814380645,-6.900769581847281,-2.4416151555159176,1.643407836261312,-11599.69041217843,-4924.030417716837,4981.626023160298,-0.1307751502225102,0.14612729467464045,-0.9272161014584839,0.21913427625543136,-0.14703727317606763,-0.048090327563130586,1555.7193977584393,74645.6239621356,128603.85854802052,0.27808907421724505,0.08038733776758669
13614,1724558929805566040,-0.9886181950569152,0.1906475126743316,0.1508915722370147,-0.0264699775725603,0.0943124145269393,-0.4402124881744385,0.8925343155860901,0.0,0.0,0.0,-37.585178081266264,61.78464863433723,-0.12401865128072131,0.477379814,0.1508915722370147,-3.294766596518967,-1.6077704606560637,2.411824470245707,7278.646237930145,2069.759750820078,467.21501963193657,-0.13206183760532325,0.14556280263027704,-0.9260545218885372,0.11629677914652348,-0.1287130945240449,-0.14418155895256746,330493.36166458146,171768.39093023416,522833.8828529602,0.2206385574908314,-0.09283730648911546
13616,1724558929806222074,-0.98853862285614,0.1905956119298935,0.1508263498544693,-0.026253493502736,0.0942146778106689,-0.4397979974746704,0.892755389213562,0.0,0.0,0.0,80.97400956367574,135.26764823324555,185.34460552789398,0.478035848,0.1508263498544693,0.6188843243438585,-0.07242285996929478,1.4788763731683108,-5729.518798915266,2780.8055404488423,-2092.572695121504,-0.13151388791529522,0.14564320505548586,-0.9250762139496752,0.2818165351204698,-0.06839858985262026,0.06753222155941785,-371798.1289873526,61079.9877243645,-302850.9357692533,0.14916251557174476,-0.008535355577335197
13618,1724558929806507788,-0.9884381294250488,0.1905774027109146,0.1508664190769195,-0.026509391143918,0.0944721400737762,-0.4396658539772033,0.8927856683731079,0.0,0.0,0.0,-94.00572434103597,146.38154550797805,25.952323464451943,0.478321562,0.1508664190769195,-2.473384638571377,0.7768998582124406,0.7975703205443925,-6108.93883595246,2945.4972126193034,-2407.4669109863785,-0.1321916795618665,0.1458931986008778,-0.9248773333054564,0.2836328301935964,-0.02435908657730579,0.10339398030606617,-503425.8052760792,8540.722587620869,-472710.6598331999,0.23943165147261208,0.18667899025017368
13620,1724558929806965172,-0.9883582592010498,0.1905950903892517,0.1508867293596267,-0.0266754887998104,0.095082402229309,-0.4397047162055969,0.8926968574523926,0.0,0.0,0.0,-244.4518680730416,128.0598040733956,-127.90160522865567,0.478778946,0.1508867293596267,-1.8159094504578481,2.1042546763495573,-0.32032905690496605,1383.245294696299,2768.7577549811986,-2337.852861491728,-0.13306243358506595,0.14682784108123229,-0.9251528717555413,0.16715038371847868,0.03691390091915614,0.04236331209710664,-313843.2893530949,-38887.19519129481,-321436.19025258464,0.06689133844346704,0.1426854394805898
13622,1724558929817179746,-0.9883557558059692,0.1905712336301803,0.1508536338806152,-0.0269612129777669,0.0951122939586639,-0.4394923150539398,0.8927896022796631,0.0,0.0,0.0,-9.26337437251312,-2.1479152954237475,-2.732890133786371,0.48899352,0.1508536338806152,-0.05598475438477587,-0.02221028918794393,0.03994688644569759,101.50202149817677,-118.26405931666807,19.14825824385174,-0.13357004317512003,0.14665720266604423,-0.9247134642028125,0.0013494937470248658,-0.001861767009076587,-0.002012623048741169,13463.101629598435,-7224.745573113806,7091.471229086386,0.0024642475000129786,-0.0023019179178935182
13624,1724558929830843177,-0.9883171319961548,0.1905544549226761,0.1508485674858093,-0.0267152152955532,0.0950345322489738,-0.4394751489162445,0.8928136825561523,0.0,0.0,0.0,-0.06805464069840655,0.07075966749002105,-0.19216916817971108,0.502656951,0.1508485674858093,0.03700627893651571,0.005260186077235527,0.006910372593013072,19.254734920961234,-0.8471372134501715,9.69334404077605,-0.1330519834163228,0.14674097506748876,-0.9246284577753383,0.002140222105850853,-0.0010859573544763634,-0.00990056061808886,206.41086457209337,53.56389266124984,112.06861186987126,0.002707924957508991,0.0006547580410911159
13626,1724558929837073989,-0.9883057475090028,0.1905480921268463,0.1507598012685775,-0.026161216199398,0.0947569906711578,-0.4392484128475189,0.8929712176322937,0.0,0.0,0.0,-0.10766980843861415,0.09531669000430135,0.29618284254497795,0.508887763,0.1507598012685775,0.19235098945455312,-0.008137834373835062,0.10172037849916966,9.179553891429327,-2.013149004185161,5.6449570708821755,-0.1317596378583992,0.14677440473930564,-0.9239867054246543,0.001358381181802315,-0.0006053456113370714,-0.01000361893019619,-1.2815887988649197,-1.948255439976755,53.18980706414855,0.003978916995429242,-0.0024450903893212046
13628,1724558929847320988,-0.9882997274398804,0.1905488967895507,0.1507287919521331,-0.0261256974190473,0.0945885479450225,-0.4392629563808441,0.8929829597473145,0.0,0.0,0.0,-0.03525600584640615,-0.02389596077455474,0.4167677393694452,0.519134762,0.1507287919521331,0.020960427167119614,-0.026455571885360466,-0.0017312903247159205,-12.208942571027427,3.254997227836287,-5.8465090117300775,-0.1315421974412648,0.14650333105681487,-0.9239685080701809,0.0005552205437169278,0.0006777655917726833,-0.001698659342959985,9.106410096248762,-10.07061730955761,-15.260044666096896,0.000730035248583586,-0.0001691935860518138
13630,1724558929858067309,-0.9882941246032716,0.1905629336833953,0.1507254987955093,-0.026264613494277,0.0950398221611976,-0.4393219351768493,0.8929020166397095,0.0,0.0,0.0,0.0855904124904591,-0.11449979335021368,-0.051825001089997685,0.529881083,0.1507254987955093,-0.059334484948734716,0.06535383644626735,-0.01667033485815894,1.7053763312965051,-0.25180231799277275,1.1622375851258366,-0.13221976586618076,0.14717600536310016,-0.9242414801315569,0.0006623554340450255,-0.0012595413041065484,-0.0016570355050449237,14.797748219337869,5.4097760831455535,-13.832851542214758,-0.0006756556694729333,0.0012698700006657895
13632,1724558929868058598,-0.9882861971855164,0.1905265152454376,0.1506963968276977,-0.0261055510491132,0.0948638543486595,-0.4392566382884979,0.8929575085639954,0.0,0.0,0.0,0.2664380630032436,0.06812341985669527,0.08652904867780764,0.539872372,0.1506963968276977,0.04295449111287,-0.018862698017456637,0.018651864192962,4.241801566806965,-4.682570587354524,-0.19568172367619008,-0.13175954694053252,0.14701370548494622,-0.9240296425682556,0.002219980200230509,-0.0017925238626528284,-0.0026922326855389755,-3.5530553701077308,6.4016450371077696,-5.421362508558963,0.0037771231423182087,-0.0029286728578788307
13634,1724558929879030296,-0.988244652748108,0.1905291676521301,0.150669515132904,-0.0260963235050439,0.0946952402591705,-0.4394013285636902,0.8929044008255005,0.0,0.0,0.0,-0.0334341471709525,-0.004732615789363931,-0.20510935982490347,0.55084407,0.150669515132904,0.017252413125557014,-0.02510035058140189,-0.02844711869606077,4.233153238056623,8.98312001298579,-9.462465302871,-0.1316106578965495,0.14669969163079982,-0.924305742160822,0.006475075849635914,0.0004183917039295437,0.0005479919644972853,-41.479828799094975,-4.145688285884044,-36.36378634937776,0.0024236987589310918,0.0019744355182515056
13636,1724558929886902710,-0.9881784915924072,0.1905334591865539,0.1506907641887664,-0.0256650447845459,0.0948798879981041,-0.4399085938930511,0.8926475644111633,0.0,0.0,0.0,-0.439899387974819,-0.023277743528850675,-0.5466394905233519,0.558716484,0.1506907641887664,0.08772133472500636,0.0995720417054312,-0.13214117994045974,1.814882188182604,4.604724293252573,0.1023051852926149,-0.13108802503911873,0.1473405848503074,-0.9254521882163452,0.003832339109209215,-0.0007838551010852512,-0.0038934791452316375,-23.336213480410503,5.038527652684718,4.003175533394023,0.0041730712772270135,0.005943754472265683
13638,1724558929897006354,-0.9881990551948548,0.1905083060264587,0.1505659371614456,-0.0255834236741065,0.0948571860790252,-0.4397301077842712,0.8927401900291443,0.0,0.0,0.0,-0.3087667569492237,0.12351273778033287,0.1082778925859556,0.568820128,0.1505659371614456,0.013517529588801166,0.0004497096131082588,0.0410215466211982,-1.2844588697659587,-9.353837757258702,3.8975299208912353,-0.1308905219125282,0.14739920728953684,-0.925037271208983,-0.0019634817950731076,0.0006594194279010424,-0.00918905692479477,20.953234539862304,2.654733867207403,53.2299580990998,0.002569601429779134,-0.005524487645466052
13640,1724558929907252100,-0.9882184267044068,0.1905477792024612,0.1505046784877777,-0.0255255438387393,0.0942925736308097,-0.4400078654289245,0.8926648497581482,0.0,0.0,0.0,-0.011231527390860932,0.027346177532180688,0.5332406098368057,0.579065874,0.1505046784877777,0.06331771145719345,-0.09064213781234912,-0.05661846372459048,10.882575677421496,2.56882959896422,-6.216156787676294,-0.13030900486067426,0.14640288699022572,-0.9254965017529161,-0.002375069587706946,0.0017240202741568567,-0.0015090945867530792,13.342555863217882,4.695254435427999,54.998541756479824,-0.0032977791415375775,0.000742145904950494
13642,1724558929916804317,-0.98824542760849,0.1905452907085418,0.150530070066452,-0.0245471242815256,0.0939710065722465,-0.4404801428318023,0.8924931883811951,0.0,0.0,0.0,-0.023575135890848073,0.1975987351781141,1.1790165763544544,0.588618091,0.150530070066452,0.22090019183053508,0.0359502346776948,-0.08648636622135136,4.208546785665378,7.0381667781950465,0.8084454168077019,-0.1283263360381004,0.14663686694301792,-0.9263692647601888,-0.0022246261093847863,0.001303417714850319,0.0016579345056522143,-10.075031843532114,10.533869178744581,40.365744195265265,-0.0018622284239075701,-0.0013801360565668407
13644,1724558929930520858,-0.9882640838623048,0.1905939728021621,0.1505331099033355,-0.0242913216352462,0.0939225628972053,-0.4404924809932709,0.8924992084503174,0.0,0.0,0.0,-0.33475868421612637,0.19851095170352417,1.1961853667303517,0.602334632,0.1505331099033355,0.0365905370913942,0.01008672530536691,0.0021126135345375225,6.828345602553124,-3.1507847270751403,-47.86997461934689,-0.12782280736059362,0.1467777928949624,-0.9263580917459209,-0.0033225476590530434,0.008773023138193281,0.034521951740451584,3.1738635434813673,-19.98953428332913,-230.55756965789976,-0.003647538941218787,0.002008013970155635
13646,1724558929937035307,-0.9882918000221252,0.1906672865152359,0.1508641242980957,-0.0240401048213243,0.0936366245150566,-0.4419238269329071,0.8918282389640808,0.0,0.0,0.0,-0.23407177348469424,0.00623812786561212,-1.0229722445380616,0.608849081,0.1508641242980957,0.1437731597512303,-0.014353386982512276,-0.4778249168914363,-2.5286275737690103,-1.4593404099088874,-31.37734359394492,-0.12734013648293768,0.14628899920267024,-0.9294670141251485,-0.006291387145054728,0.008995531980223959,0.03860247919565296,20.473245337381805,-24.95404727660334,-255.76499154689537,-0.018846492047460472,0.01586814933831392
13648,1724558929947453448,-0.9883912801742554,0.1907233744859695,0.151062861084938,-0.0249926634132862,0.0941218510270118,-0.4422923326492309,0.8915682435035706,0.0,0.0,0.0,0.06281509298216903,-0.1777492343422616,-2.273266291883856,0.619267222,0.151062861084938,-0.1988255861395449,0.008635778816426794,-0.1000315637743319,4.279931245681323,4.254899047273283,27.050846045218613,-0.1295654873753326,0.14624472479111691,-0.9305233562363564,-0.00503689297768517,0.00859537679683875,0.00046502660717884226,21.61500137681849,-7.9187774115875005,63.94675447534685,-0.012694762247078314,0.0022002519026949677
13650,1724558929957118900,-0.9883995056152344,0.1908352524042129,0.1509004682302475,-0.0240536909550428,0.0940490961074829,-0.4420407116413116,0.891726553440094,0.0,0.0,0.0,0.21002103516797963,-0.16693428387556342,-0.0056143006188087985,0.628932674,0.1509004682302475,0.17580357758753584,0.06812826541770202,0.07882012300790658,26.747268240014588,-2.411948834129115,5.897112704924529,-0.1277671732507047,0.14699553191213816,-0.9298450783661955,-0.004946257920565245,0.005627870403927204,-0.009066006137842031,4.5766972743832985,11.604690137929051,144.02182218029654,-0.007220191251885276,0.005394106778173465
13652,1724558929968039521,-0.9885040521621704,0.1908233314752578,0.1508969068527221,-0.0226577017456293,0.0929644852876663,-0.4422558546066284,0.8917701840400696,0.0,0.0,0.0,0.12855115309512427,0.08917772770655147,0.4493936715917252,0.639853295,0.1508969068527221,0.3196826010874993,-0.06391955928103206,-0.012336214880374808,2.7593981507574092,7.07358230960009,-8.596783091927328,-0.12428282258810851,0.14628609636547873,-0.9298915051475265,-0.00017699628103429177,0.005533356972561521,0.0029705986945165463,-22.12212504064068,-1.3297631977757174,-17.504901207008448,-0.00474978152924807,-0.0065799890702031025
13654,1724558929978969288,-0.9884032011032104,0.1909562796354293,0.1509654372930526,-0.0210243202745914,0.0934676304459571,-0.4429338872432709,0.8914210200309753,0.0,0.0,0.0,-0.2736242888199157,-0.19644362622414924,-0.38918597345339695,0.650783062,0.1509654372930526,0.23590689612310334,0.2230394998212911,-0.10902749084018341,-20.848970145179642,-10.170329613397918,-1.985395395496365,-0.12192448625707981,0.14855909549340476,-0.9313897361667813,-0.002143004746102406,0.0075782286532906085,0.0007414739911428825,4.168594468809211,-24.091973063092887,-12.245172776328296,-0.005136033997823782,0.016164773177760616
13656,1724558929986729305,-0.9884824752807616,0.1909898221492767,0.1509407311677932,-0.0211478304117918,0.0932623520493507,-0.4432293772697449,0.8912926316261292,0.0,0.0,0.0,-0.015578437253740852,-0.37215579953980005,-0.12895866187237193,0.658543079,0.1509407311677932,0.0014805893699728183,-0.05656783121611322,-0.08663219027995506,-16.60647548806517,-18.19485877472802,5.424456279140072,-0.12200468844929081,0.14804157685810013,-0.932010294530058,-0.004782839885734802,0.0039407224183554135,-0.003299179315222389,25.132078218864464,-11.532284007398465,22.650485770295166,-0.008986813866335533,-0.0032150743084011753
13658,1724558929998449522,-0.988442361354828,0.1910292506217956,0.1509000211954116,-0.0207677502185106,0.0933811739087104,-0.4431467950344085,0.8913301825523376,0.0,0.0,0.0,0.13521837524650726,-0.31063617261793364,-0.056150561970638196,0.670263296,0.1509000211954116,0.04764240185703627,0.04592393337022024,0.021878197105320987,-0.6743860537101486,-5.057949994201546,-8.782656130170828,-0.1214180410174362,0.1486069634534135,-0.9318190110176509,0.0007805672696719057,0.0012888283181613502,0.0021238119515079035,6.292320164175271,10.624821379846336,-21.638042552082922,-0.00013769676789119635,0.004021074503479753
13660,1724558930006911544,-0.988451898097992,0.1910274773836136,0.1509521901607513,-0.0209324099123477,0.0930348262190818,-0.4437584280967712,0.8910582661628723,0.0,0.0,0.0,0.14829923852197543,-0.18788470026391763,-0.4094058239830506,0.678725318,0.1509521901607513,0.013751946134793663,-0.08120622959871218,-0.1626643994668273,-5.1644572059512335,-6.156697822281699,1.2239514163599177,-0.1214932173558766,0.14775810237056133,-0.9331163847451698,-0.00014921442150495068,-0.0018552457612344142,-0.0015213282107691128,-6.192211393264852,10.07185460127111,-2.023405105270563,-0.0014047241299122838,0.00030815927211815864
13662,1724558930016916298,-0.9884418249130248,0.1909894496202469,0.1508460491895675,-0.021189933642745,0.0929931849241256,-0.4431864321231842,0.8913412094116211,0.0,0.0,0.0,-0.005183655712091867,-0.13957057976906057,0.04021853056873923,0.688730072,0.1508460491895675,-0.05163202114632266,-0.03791796900707489,0.12202396253257579,0.12158149980158983,4.0891444482872705,8.13315735865509,-0.12182272121904932,0.14752971603271317,-0.9318447877961284,0.004388384074907492,-0.0015624422180788855,-0.005364684350382731,-12.029612181335361,2.8774278650206755,19.585653537537656,0.0051713659107341615,-0.004352107228092361
13664,1724558930029340278,-0.988335132598877,0.1910045742988586,0.15086030960083,-0.0209256578236818,0.0928875356912612,-0.4437187910079956,0.8910934925079346,0.0,0.0,0.0,-0.1035506422396508,-0.13393249984744093,-0.1076379762720541,0.701154052,0.15086030960083,0.05258200322629874,0.009219360563831828,-0.09046393073249225,-14.814695533493694,-8.405324111778599,-8.517929295605239,-0.12133726814368753,0.14750707850328082,-0.9329865812140816,-0.0027533601443252564,-0.005901314510012412,0.0016822757002010746,46.38032293773214,54.13938338515371,-109.76349244476471,0.003921735033690566,0.006227140114874001
13666,1724558930038612534,-0.98843914270401,0.1909005939960479,0.1508796066045761,-0.0223016366362571,0.0927488356828689,-0.4440523982048034,0.8909083604812622,0.0,0.0,0.0,0.7022440411244583,0.7395693287952696,-1.8026085584860665,0.710426308,0.1508796066045761,-0.24534871011327336,-0.1531374721048831,-0.11003480299950036,-10.97951790805367,11.331471818020134,-1.1543780581854115,-0.12373622023708657,0.14597308631563571,-0.9338347533581887,-0.0004521873338205751,-0.005653273062844022,-0.003985736639545934,30.673533451352586,43.287234805617054,-143.20541005489588,0.0020158965676787097,-0.015041925231618384
13668,1724558930046906500,-0.9883630275726318,0.1908949613571167,0.1508015394210815,-0.0227229446172714,0.093640886247158,-0.4444131255149841,0.8906245231628418,0.0,0.0,0.0,0.5394826507653983,0.72083158510249,-2.696599599066041,0.718720274,0.1508015394210815,-0.17948879793733963,0.1548168575921868,-0.1125143883144681,25.65239822219636,40.13220765600978,4.7348541593368,-0.12538513273894705,0.14713125528808485,-0.9349320583686984,0.008740865798962716,0.005769013013027013,-0.027774795275284703,-10.70225230388029,-61.49088558306123,-1.6071967561905254,0.007311568100845465,0.0030963867302688914
13670,1724558930057684169,-0.9882749319076538,0.1910474449396133,0.1502450257539749,-0.0195549149066209,0.0958357080817222,-0.4446177184581756,0.8903641104698181,0.0,0.0,0.0,0.5490886528652725,-0.7714448065165258,-1.2268427497170418,0.729497943,0.1502450257539749,0.34503903214800224,0.6293959045787424,0.009015606890754625,4.592763797250721,0.7505453059280827,3.929829495635909,-0.12177857963192126,0.15387493705039298,-0.935680287793405,0.0065874286919722636,0.004345642927013671,-0.054434050042956095,38.501091543790906,-79.97268585636755,163.42870944876995,0.0014514882818537393,0.006230760974767922
13672,1724558930068668474,-0.9882203340530396,0.1909854412078857,0.1496157795190811,-0.0196757744997739,0.0968201830983161,-0.4447293579578399,0.8901991248130798,0.0,0.0,0.0,1.3930344834959765,-0.9951290305369004,0.8712212964159671,0.740482248,0.1496157795190811,-0.09793087680733178,0.15309107385873102,-0.030058649973813273,-17.367362140859047,0.9818791003992757,-16.045145491841133,-0.12293737890707748,0.1555036537433837,-0.9362196163411648,0.02100258268561106,-0.011285918976540188,-0.053953141085441914,145.0248787854797,-77.06814718053991,-55.55929287645675,0.01627447200750523,-0.012414240151730802
13674,1724558930077676372,-0.9879127144813538,0.1908421069383621,0.149154394865036,-0.0191514231264591,0.0989286676049232,-0.445804238319397,0.8894408345222473,0.0,0.0,0.0,3.2031520251322805,-2.1082307000688885,-1.45065235657856,0.749490146,0.149154394865036,-0.08476509450287224,0.4895109648156509,-0.26684086557462594,4.821702834268756,22.065789594369004,-16.417104192102286,-0.12416621501641219,0.15958330705048254,-0.9391851957392845,0.03414698642207625,-0.01708860903729814,-0.039992882687773346,60.595443271203465,-8.945643732070383,-175.44010858959305,0.0407258041606674,-0.002539422316709654
13676,1724558930093933338,-0.9873576760292052,0.190529778599739,0.1488336324691772,-0.0172319468110799,0.1014468446373939,-0.4477026462554931,0.8882420659065247,0.0,0.0,0.0,0.07035448059127702,1.1093695023659365,-1.8875430185648554,0.765747112,0.1488336324691772,0.09220606902674913,0.39988149739084977,-0.24418083427899498,-84.080788158318,419.29561214320063,-173.28666311597286,-0.12344496068432455,0.16554421808212735,-0.9439905626972219,0.13738727622546776,-0.09431689650170938,-0.15160784106882375,-802.8725517614733,561.8363503168584,748.733008451615,0.03835089665923602,0.0006792234982435375
13678,1724558930097003508,-0.9868760108947754,0.1901966631412506,0.1482917070388794,-0.0163410231471061,0.1042113527655601,-0.4489134550094604,0.8873273134231567,0.0,0.0,0.0,-2.74838174237554,3.0453040118421613,0.8608989718152253,0.768817282,0.1482917070388794,-0.220998815903428,1.9334985607045174,-0.8774817843754205,-75.0188975958031,355.4797395476443,-135.13828103143538,-0.12470259260165377,0.17110137944263723,-0.9474474088819067,0.13396197297715773,-0.08751335066874777,-0.15451655374044115,-735.5432098616338,472.32939439556606,755.9098074804506,0.20710862514378575,-0.031057400329957883
13680,1724558930106928351,-0.9862819314002992,0.1900014579296112,0.1474638879299163,-0.0148740010336041,0.1081365272402763,-0.4486459493637085,0.887018620967865,0.0,0.0,0.0,-4.191292285514782,2.6563861051544517,3.893966377260785,0.778742125,0.1474638879299163,-0.09939831189817142,0.8401701526804654,0.06364042136746723,11.898133442420665,-111.17672588661432,56.532346161083424,-0.1257625682878761,0.17945353025478938,-0.9478686219697144,0.05430130109956366,-0.030682532822478237,-0.08795493745938732,178.58937965325026,-153.63783122244573,-8.720576890686146,0.06496656575509922,0.0016559347198306152
13682,1724558930116639107,-0.9858074188232422,0.1895988583564758,0.1465665847063064,-0.0152309350669384,0.1070537120103836,-0.447562575340271,0.8876910209655762,0.0,0.0,0.0,0.6211069646030327,0.07700979447138323,0.8227990872037196,0.788452881,0.1465665847063064,0.012778100168532553,-0.24909273536295823,0.24878373340242052,2.352094421635584,-51.69936806110048,5.986147378114223,-0.12515170759601732,0.17735597645006476,-0.9451256207742794,0.05003905936155206,-0.03405341523849614,-0.07686489801061924,284.5446234037568,-142.6093608035763,-161.98848958724545,0.07754909108597935,-0.023461782569883252
13684,1724558930128411143,-0.9852015972137452,0.1893036663532257,0.1458834707736969,-0.0156080024316906,0.1073323860764503,-0.4468128085136413,0.8880284428596497,0.0,0.0,0.0,0.9592044426574615,0.15368256875076503,1.117515830187663,0.800224917,0.1458834707736969,-0.09082022305286754,0.005279173331142982,0.13259502387439936,16.60918785312579,56.573295895769185,-16.032911899554087,-0.1259444579793655,0.17761308312900204,-0.9435601551375503,0.07247824363862776,-0.02709403197527216,-0.07173467213510598,-60.944786343714654,-17.32872158049465,52.29508353871206,0.059964546709139165,-0.0019576145412456922
13686,1724558930136957596,-0.9844517707824708,0.1890595853328704,0.1451853513717651,-0.0134877283126115,0.109608419239521,-0.4471153318881988,0.8876327872276306,0.0,0.0,0.0,-0.11800212844847247,-0.14234787016742523,1.7335917146998894,0.80877137,0.1451853513717651,0.20878793017597172,0.7057281584016282,-0.04266915266553437,3.7035399723913187,27.012368987580782,-18.450749551539687,-0.12436356326286584,0.18355186128047504,-0.9446932572311921,0.07480057699332576,-0.02849512325139525,-0.057954024334474497,-79.93022274335883,-7.705007006711989,-30.081595336304865,0.0882113563302772,0.01108419379586087
13688,1724558930147688825,-0.9838233590126038,0.1887546628713607,0.1448832005262375,-0.0138290030881762,0.1112256944179534,-0.448044866323471,0.8869574069976807,0.0,0.0,0.0,-0.35442660311465657,0.1378743256121593,0.03412670379719707,0.819502599,0.1448832005262375,-0.17393343360293864,0.25524046819146917,-0.21295814630962706,0.6605548786288145,22.400424035691863,-3.9701033903429996,-0.1267179494862938,0.1859832121696981,-0.947348759225223,0.06828281028120387,-0.02973176988388282,-0.03771800260717484,-31.45348633529741,29.14066543756176,-139.44194392153787,0.06147696023061667,0.005198931492128806
13690,1724558930156963015,-0.9831121563911438,0.1884683668613433,0.1444567590951919,-0.0113672586157917,0.1149848401546478,-0.4488015472888946,0.8861300945281982,0.0,0.0,0.0,-0.7216497021087336,0.4323988584671624,-1.1074060324671597,0.828776789,0.1444567590951919,0.12333540804449135,0.9789872054644865,-0.15441184952894632,-6.411170904243084,-5.309624282209346,14.678209929826625,-0.12606849468162892,0.19480962860676443,-0.9499611491441711,0.0670230825304543,-0.02642440568133697,-0.05224193744015526,-46.32428801662303,19.334829577525127,-3.453408258803421,0.07730142195230964,0.00945303865295523
13692,1724558930167929406,-0.9825024604797364,0.1882362365722656,0.143802672624588,-0.0138543965294957,0.1153108850121498,-0.4479499757289886,0.8864830732345581,0.0,0.0,0.0,-1.3169048928318365,0.4833437361869538,0.4060547375448591,0.83974318,0.143802672624588,-0.44575514598424204,-0.1600490841285211,0.11503212993539158,-7.5724661545343315,-64.90824647268272,15.36303349684952,-0.13066682789953352,0.1932303712077035,-0.9484570202303186,0.05151267689002026,-0.020699902815302096,-0.05843865971962359,497.2946621019538,14.793654725438913,225.58869433159933,0.06013864577004397,0.0021285213946211955
13694,1724558930177377951,-0.9820489883422852,0.1880444586277008,0.1432603299617767,-0.0153742367401719,0.1137433275580406,-0.4470577836036682,0.8871107697486877,0.0,0.0,0.0,7.872055009751947,0.705735790392938,3.250506814832387,0.849191725,0.1432603299617767,-0.15649148190082698,-0.4561901454505088,0.18523871625040508,25.125633658036758,-21.724501861918238,4.814388743141887,-0.13170043581301083,0.18918603693444117,-0.9461154254315376,0.039863188364422264,-0.016447734719547524,-0.04669635988899268,-3197.8088853962036,-1025.896878438727,-1447.9007670940046,0.05453260538965162,-0.000833011609911161
13696,1724558930210236570,-0.98166823387146,0.1879438757896423,0.1429490149021148,-0.0152020752429962,0.1124124452471733,-0.4464689791202545,0.8875796794891357,0.0,0.0,0.0,-573.7493386202423,-152.92304857209058,-244.17839258917058,0.882050344,0.1429490149021148,0.041872980879028535,-0.07097447811873991,0.04449885551386182,5725.038248385852,12401.999640377373,-7445.378857652285,-0.12999060913073682,0.18706458370667498,-0.9443298137138265,1.3389592921726035,0.03596089059959695,0.2895364847518067,-197842.57248383877,12010.559507478029,-19747.31223653129,0.010873695772535413,0.0022403313149010925
13698,1724558930210643000,-0.9811173677444458,0.187958687543869,0.1430681943893432,-0.0143820643424987,0.1130931079387664,-0.4470834732055664,0.8871975541114807,0.0,0.0,0.0,-655.0640961998723,-147.95771373550645,-252.26571047890775,0.882456774,0.1430681943893432,2.397450577845452,5.031858064963763,-3.0189340090042083,2218.578056424823,653.5553115496392,-4207.459926324575,-0.1292979994563354,0.18893391813256175,-0.9458375666330667,1.1026872688494223,-0.02696840995682237,0.18901609678670184,-145953.06311006064,25853.40640947863,2254.565380136366,0.6947689753840864,0.8702785278396471
13700,1724558930211083689,-0.980752170085907,0.1879165023565292,0.143101692199707,-0.0141743626445531,0.1128467842936515,-0.4477652609348297,0.8868883848190308,0.0,0.0,0.0,-693.5246355569707,-130.04841499995868,-240.68665575608767,0.882897463,0.143101692199707,1.6658399451444652,-0.3671855108929948,-3.281942135478174,-1562.7514648353151,-11415.68308651242,-525.8284058831493,-0.1288339044574822,0.18858730054163353,-0.9472766017896265,0.7787773735847985,-0.08888587262056058,0.07548462858599758,-74652.87292545609,39440.751506528686,27093.739248240865,0.5373786922600938,0.415751474603073
13702,1724558930217213726,-0.9802348613739014,0.187954843044281,0.1435194164514541,-0.0120141198858618,0.1147706806659698,-0.4491681456565857,0.885963499546051,0.0,0.0,0.0,-74.98115048054794,9.523947060172606,-4.7780696264148785,0.8890275,0.1435194164514541,0.3913978399253118,0.9128226581417258,-0.4526195215697004,-146.35962461306366,110.72698168907702,304.5606053450839,-0.12710544800952203,0.1937830928620995,-0.9508068904288346,0.06470484561762646,0.005241851809328679,0.04419120371806429,66244.57483203824,14026.592319551663,24373.058127457658,0.029996752910950258,0.06766885698499543
13704,1724558930227710965,-0.9799094796180724,0.187991663813591,0.1435527354478836,-0.0115052238106727,0.1163079515099525,-0.4495246410369873,0.8855888843536377,0.0,0.0,0.0,-2.6200716679195284,-0.3797303182792191,-2.5837592330253836,0.899524739,0.1435527354478836,-0.038717838291310314,0.312048450448663,-0.07758836413067677,-21.621009887447542,-41.76529024117283,23.121442252503194,-0.1277541116857116,0.19692867429927227,-0.9520547653958684,0.02371718524046429,0.0003964862393024404,-8.972976413090805e-05,4085.1360877336833,-569.1447938642184,109.90720495720765,0.014207854389588201,0.021101102912562984
13706,1724558930242500542,-0.9797104001045228,0.1879326999187469,0.1434834003448486,-0.011155217885971,0.1162681505084037,-0.4495533406734466,0.8855840563774109,0.0,0.0,0.0,-0.7174294310813996,-0.9976077969608408,-3.0238496487312467,0.914314316,0.1434834003448486,0.044779554721070626,0.016630724579914616,0.0017125816883155852,4.759532453994125,-17.001621384979153,4.565552432972043,-0.12709307380249565,0.19717587304955494,-0.9520610731085539,0.011733505980149106,-0.003513958664080441,-0.004242559609848762,592.0341964711322,746.6387490950099,4185.120696752567,0.011759274526453202,0.0034794843955020987
13708,1724558930326659781,-0.9795501232147216,0.1878634393215179,0.1433397233486175,-0.0101702101528644,0.116232194006443,-0.4494906067848205,0.8856324553489685,0.0,0.0,0.0,271.02514063635016,439.4142913046528,2367.711542635244,0.998473555,0.1433397233486175,0.020953551095951612,0.009616150237332283,0.004549422688143238,-22228.204517813254,-76052.01233843644,25203.95324503058,-0.1252739769293943,0.19802690296649178,-0.9517775383048918,-0.004178984801910701,-0.4386049044154561,-1.5723857251344953,773877.9623017855,-298293.7622938808,1572564.669395825,0.0020764687753348776,6.307293079067267e-05
13710,1724558930326957767,-0.979551374912262,0.1877322793006897,0.1428695172071457,-0.0124363387003541,0.1136868968605995,-0.4483432173728943,0.8865151405334473,0.0,0.0,0.0,502.4430439956414,350.2066778138199,2837.943275516941,0.998771541,0.1428695172071457,-6.626192680326586,-22.73306050475772,7.541567063197135,-16219.96954315047,-10843.784762769736,-1731.796340994203,-0.12664070239997183,0.19158874927369415,-0.948637753767457,0.07686886843657703,-0.3071965206737559,-0.8643230226741707,-179696.73352516093,-370046.3479398643,-2276005.6396915847,0.6492028536308917,-0.6867130132603906
13712,1724558930327230436,-0.9795101881027222,0.1876816898584365,0.142811894416809,-0.0141547955572605,0.1131393611431121,-0.4481394290924072,0.8866624236106873,0.0,0.0,0.0,214.8448129893775,231.6721722076042,1255.753123282895,0.99904421,0.142811894416809,-9.530166552031185,-9.352993671947518,0.32654535532598017,22835.830891811966,45813.85518046304,-14796.277986623918,-0.12915959635076696,0.18907065855227195,-0.94821651688672,0.2713693609864549,-0.23435633481130935,0.024712176221157733,-2263527.024040145,-225526.7789737464,-7345919.253248153,0.2742690254638979,-0.10541689069332043
13714,1724558930327480811,-0.9794145822525024,0.1876117885112762,0.1428723484277725,-0.0136565277352929,0.1130720525979995,-0.4482741355895996,0.886610746383667,0.0,0.0,0.0,-629.7876943224188,223.30008577686496,-938.2955245290633,0.999294585,0.1428723484277725,3.8859158786899424,1.3688824436236642,-0.6963700683402805,28993.73003500221,20306.79647854473,6322.251785749529,-0.12822820469291749,0.18938818787178036,-0.9484373829294669,0.21055958521333196,-0.1845050882613748,-0.12177582063065984,-1886123.0920323478,-230163.72044918776,-3758001.72473174,0.39594997390462044,0.04892894125020311
13716,1724558930327804979,-0.9794182181358336,0.1875917166471481,0.1426804214715957,-0.0132346134632825,0.1126539185643196,-0.4475026726722717,0.8870599269866943,0.0,0.0,0.0,-616.9541419461418,66.12069904154299,-55.850589739883375,0.999618753,0.1426804214715957,2.9639924478874122,-1.4986929592662914,5.721353207063664,-999.3383826526779,-8849.228723623863,7297.021835169754,-0.12690312944151133,0.18914224214754813,-0.9465013206315737,-0.15598864827779835,-0.10196398334304035,-0.5741916539151362,799545.3818865768,-157389.94143085714,2740381.4559948742,0.15422078886246318,-0.18075577505661183
13718,1724558930328168811,-0.9795340895652772,0.1875382661819458,0.142478808760643,-0.013010592199862,0.1116270795464515,-0.4470317363739013,0.8874303698539734,0.0,0.0,0.0,-15.72649350782956,142.58346355487205,948.618801907295,0.999982585,0.142478808760643,3.353654099839798,-4.7196625397380885,3.2716745492596453,9221.327311168558,16037.80806749806,-16679.590898793096,-0.1254166563207569,0.18758848046748894,-0.9450791396243593,-0.17065417201229138,-0.15488250970480522,-0.04741758219961412,502977.3696434283,514885.3879678202,40053.765478486544,0.03707696453502859,-0.4156190070109805
13720,1724558930328435182,-0.9795507192611694,0.1874954551458358,0.1425649970769882,-0.0119199259206652,0.111701875925064,-0.4475167691707611,0.8871918320655823,0.0,0.0,0.0,-105.92209419031138,339.1607913632791,428.6944879233507,1.000248956,0.1425649970769882,7.39940384830017,4.406462108357265,-3.1110425636211114,657.7382043208663,6679.470030170146,-2035.9764444915613,-0.12362996897798803,0.18865023706246095,-0.9460646519213666,-0.17004933810790135,-0.06073137027476605,0.10790831814694002,16525.707965835452,-9617.748460343108,-566958.6144991308,0.03150428580112033,-0.09547734472365672
13722,1724558930328697687,-0.9796231985092164,0.1875053793191909,0.1425375342369079,-0.0115034859627485,0.1113674864172935,-0.4473350942134857,0.8873310089111328,0.0,0.0,0.0,-9.71241779902482,143.2353703430374,638.1374903707509,1.000511461,0.1425375342369079,3.8130518315766624,-0.975338696540082,2.026595583306185,-12300.279600091471,-2119.845149640256,882.1361354798182,-0.12252228439265637,0.18846146301232938,-0.9454952034626604,-0.22584334988755472,0.0246012419396493,0.18049398681679918,551275.9489685048,-717629.7771290226,1015263.20304831,-0.16926431085280813,-0.15059233500097044
13724,1724558930328980172,-0.9796717166900636,0.1875083148479461,0.1426751911640167,-0.011209163814783,0.1118174046277999,-0.4477801024913788,0.8870536088943481,0.0,0.0,0.0,202.18217544719843,-50.74816419019412,991.0207048976321,1.000793946,0.1426751911640167,0.7523610071941516,4.013660863587284,-3.405539134505146,-10475.621576076277,17054.642756063833,-18573.504341005086,-0.1225188385368476,0.18946916235971983,-0.9466082634951073,-0.16692888212821533,0.009787822543023794,0.47068737796147553,724255.7919774823,-663552.2304064119,1203276.9266295056,-0.19864346009315786,0.011207355617277993
13726,1724558930337150741,-0.9798951148986816,0.1874455511569976,0.1425933390855789,-0.0109457597136497,0.1118310615420341,-0.4480232298374176,0.8869324326515198,0.0,0.0,0.0,9.967281609719313,-1.0487911931715437,-32.75116148117221,1.008964515,0.1425933390855789,0.06201914420504904,0.035820368859286605,-0.05882602658688004,-50.297641355331876,-286.0016559008044,226.867376569551,-0.122110506134767,0.1897010146697664,-0.9471304183126154,-0.02171810929465323,-0.005109517615287551,-0.0029193139907315313,-13625.387667868876,3473.1512946053945,-69098.79805540314,-0.007668852929879353,-0.023853188397489317
13728,1724558930347652712,-0.9800472855567932,0.1874266117811203,0.1426585018634796,-0.0116549525409936,0.1106386259198188,-0.4486711621284485,0.8867453932762146,0.0,0.0,0.0,0.5086775039438244,0.2004223383996725,0.21314727176225598,1.019466486,0.1426585018634796,-0.004638289875831515,-0.25658721876436336,-0.14298878727110106,-9.363252549480055,-18.28824818914182,6.215495029107489,-0.12238058609696811,0.18684333573506637,-0.9483131825130893,-0.02240057503625792,-0.005669189622087956,-0.006519633764439092,-428.4393629079345,70.69517505672428,1581.7737892011587,-0.008014201420104903,-0.008449226842530222
13730,1724558930357973633,-0.9803587198257446,0.187328889966011,0.1424621492624282,-0.013027693144977,0.1093532890081405,-0.4482744038105011,0.8870863914489746,0.0,0.0,0.0,0.8764213011012831,0.4406093989980989,0.7449073340535473,1.029787407,0.1424621492624282,-0.1318681304616276,-0.3484238424012779,0.0654904697489513,13.903440723831114,28.29543127262808,-2.838511310796358,-0.1235334140361003,0.18335735048074894,-0.9471820941775356,-0.011331905059748237,-0.0010272230017722705,0.0013194470190036611,-41.04762504738069,-18.45660356379835,-38.0124610921478,-0.006299926474866813,-0.02874258091739183
13732,1724558930367442199,-0.9803023338317872,0.1873924881219864,0.1426513642072677,-0.0116404742002487,0.1098788231611251,-0.4490848183631897,0.8866307139396667,0.0,0.0,0.0,-0.1783168207705551,-0.09662678875316014,-0.3927711587551677,1.039255973,0.1426513642072677,0.22763417580860368,0.2425787827300393,-0.16150974351858002,10.712409644722301,19.123895362646845,-7.358531077959551,-0.12171354414880371,0.18544992080947745,-0.9490118309114611,-0.004736274114300443,0.0030652039669289977,0.00824560333969604,-60.90232282394214,-47.98463231999768,-63.75402889031152,-0.005641502106929632,0.012843542348060247
13734,1724558930378998123,-0.9805078506469728,0.1873764097690582,0.1425811052322387,-0.012198599986732,0.1092103794217109,-0.4491163790225982,0.8866898417472839,0.0,0.0,0.0,-0.1699978949261488,-0.5276679883207507,-0.33408540165937844,1.050811897,0.1425811052322387,-0.03297138427077064,-0.14701344180308978,-0.012207843516002452,-21.758502606927948,-28.27409952107992,17.007963908525237,-0.12208213949556947,0.1837465073602912,-0.9489441768640341,-0.0191359727389937,-0.005509854186913188,-0.012149175844914595,41.526437785668286,-7.930226770428185,65.33344495247115,-0.007963090939251629,-0.012534395472369963
13736,1724558930387887605,-0.9806872010231018,0.1872992664575576,0.1424316018819809,-0.0137093495577573,0.108236938714981,-0.448330670595169,0.8871845602989197,0.0,0.0,0.0,0.4781981358835585,-0.39732114022526566,0.658737143746491,1.059701379,0.1424316018819809,-0.22096918007357907,-0.3611583457153133,0.1669392520436036,-5.751844838792963,-6.456163793235765,3.0158504507822785,-0.12370248115479901,0.18074210359482787,-0.947046303574789,-0.013288537354355867,-0.00873454950425323,-0.005334841082434316,35.359913549217346,33.49766690576917,41.213147062504945,-0.0016398810770353212,-0.021906591638753834
13738,1724558930401660304,-0.9807232618331908,0.187177762389183,0.1426031589508056,-0.0138811776414513,0.1076835840940475,-0.4493049085140228,0.8867563009262085,0.0,0.0,0.0,0.16378779426494328,0.46593272293014,-0.2774042961539288,1.073474078,0.1426031589508056,0.028348836764077907,-0.07380598739457522,-0.1571972100912406,5.206113534785834,28.90666292554846,8.44374885211361,-0.12368040509433074,0.17946625968043656,-0.9491026939514006,-0.010534714940291678,-0.014944340716052551,0.0014369488503405137,-20.285328973326042,62.05066932558014,-65.77877539882667,0.003332305979495256,-0.005969662006422481
13740,1724558930407541459,-0.9808050990104676,0.1870744973421096,0.1425839364528656,-0.0136667042970657,0.107950858771801,-0.4493890404701233,0.8866844773292542,0.0,0.0,0.0,0.05087345899733814,0.8292853094344589,-0.6587545293983879,1.079355233,0.1425839364528656,0.026579948782192976,0.11639669552131388,-0.027229308237245592,2.814440263792423,14.375946059643464,11.374254271576454,-0.12356830636753702,0.180125828224968,-0.9493499759407676,-0.009662264028726497,-0.009901693977395709,-0.002125949337952626,7.941560258884129,23.08389083212039,-2.3626862013631342,0.006659926084374616,-0.02257758587944895
13742,1724558930416923052,-0.9808320999145508,0.1870961934328079,0.1425810903310775,-0.0133305294439196,0.1076625213027,-0.4497752785682678,0.8865288496017456,0.0,0.0,0.0,0.5315545552987315,0.4667055252070304,0.2541235629886573,1.088736826,0.1425810903310775,0.09960452106092677,-0.017590256727166114,-0.0810222699166168,-6.386354667401377,-17.881999155131776,7.223514141739434,-0.12276744688202214,0.17986868365336706,-0.9500961860578272,-0.010643725925383762,-0.0025427940190185794,-0.009098365545299636,32.54015688116351,-38.537072589353194,65.11688352469093,-0.003443525774865817,0.0001291813846910988
13744,1724558930428186159,-0.9810569882392884,0.1870018988847732,0.1423596888780594,-0.0147205237299203,0.1067543253302574,-0.4487784504890442,0.8871216773986816,0.0,0.0,0.0,0.645244917698397,0.03415827805271064,0.5522922308105891,1.099999933,0.1423596888780594,-0.16393420656193214,-0.26767757408924836,0.17554643052863864,12.022069913285495,14.883890144172351,-14.294071643384555,-0.12419286783289109,0.17712028406071087,-0.9477250563927698,0.003945502283215774,-0.0015820624410167738,0.00724965388227794,-38.08728969950582,-21.980783446000643,-43.087928699299574,-0.001313035326946796,-0.022091765315577883
13746,1724558930436903776,-0.980861246585846,0.1870339214801788,0.1426044404506683,-0.013897986151278,0.1068239361047744,-0.4496392905712127,0.8866904973983765,0.0,0.0,0.0,-0.011884932109370153,-0.04664819905613374,-0.29268847626742006,1.10871755,0.1426044404506683,0.17986619685777033,0.11232260236997565,-0.19921500078732804,7.161287190795511,14.757675288247084,-9.867919408747966,-0.12295566169232021,0.17787791994561541,-0.9495985332363887,0.005184234256041975,-0.0016293511687663909,0.005997226784426601,-37.65510346259673,0.11397330898334657,-47.61317004694199,0.00495433217308154,0.02144963303332614
13748,1724558930447855990,-0.9810420870780944,0.1869431138038635,0.1423663347959518,-0.0150156412273645,0.1066965162754058,-0.4487999975681305,0.8871127367019653,0.0,0.0,0.0,0.09478159763047583,0.08371064822912783,-0.13560612874564487,1.119669764,0.1423663347959518,-0.1858089112929298,-0.12276848029399753,0.14844219037793055,2.4344355565026863,1.5678362573042226,-2.4973887270618835,-0.12467183285165431,0.17674440894863608,-0.9477908323840523,0.0029353610010929287,-0.0027074741389832013,0.0007411521718498904,-22.14609243233825,2.5423361732317185,-21.633612231783083,0.0009670130222445064,-0.02046827269901687
13750,1724558930457330905,-0.980854868888855,0.1869632303714752,0.1425576359033584,-0.0143723608925938,0.1067470088601112,-0.4495268166065216,0.886749267578125,0.0,0.0,0.0,-0.3764112941986757,0.03107481182944978,-0.6354749036844369,1.129144679,0.1425576359033584,0.1308913998173436,0.08088544770839778,-0.15588560295997692,8.696454680044795,4.218613880025687,-5.73940074614199,-0.12371084762609068,0.17732193840718116,-0.9493762122595447,0.006293429445385357,-0.00042126506343720393,0.0022785122969688487,-48.25391965241408,-11.322421373250634,-42.32938530094284,0.006062721004290348,0.01709267293067644
13752,1724558930468592681,-0.9809642434120178,0.1869244277477264,0.1423435360193252,-0.0150631880387663,0.106502778828144,-0.4487947523593902,0.8871378898620605,0.0,0.0,0.0,-0.900070295010902,-0.1736324731924773,-0.9725979189364113,1.140406455,0.1423435360193252,-0.10217975673831865,-0.10284734623643946,0.1325900425421838,-17.003391625706108,-13.336278280332095,21.076843942989026,-0.12457115280439884,0.17635749839617715,-0.947725337868632,-0.007728215519409609,-0.0028851774873335234,-0.015556182984532485,-95.76561480515656,-450.7738487558484,-878.9136002079,0.0005107188667939038,-0.012161424248632128
13754,1724558930527263512,-0.9808112978935242,0.1869264245033264,0.1424869000911712,-0.014039097353816,0.1067681834101677,-0.4493662118911743,0.8868333697319031,0.0,0.0,0.0,-21.57757980351107,-158.84809883784862,-312.0373343961029,1.199077286,0.1424869000911712,0.02882769633007329,0.02509244256849621,-0.018086128581557486,5650.011745628993,-1880.4390104988809,-2929.1763606311893,-0.12310069655164323,0.17768732274426532,-0.9489796673216039,0.04491479713442459,0.0007290793625998049,0.1141539897490702,168532.1899689862,582432.7839150286,848058.9011194068,0.0010354781347720163,0.002015197998680694
13756,1724558930527669599,-0.9807929396629332,0.1869267225265503,0.1425335705280304,-0.01371212862432,0.1064173504710197,-0.4496336877346039,0.8867451548576355,0.0,0.0,0.0,47.33583720707955,79.31493386374541,34.74690963811503,1.199483373,0.1425335705280304,2.3390982806574008,-0.7438208904794797,-1.215812414285645,-1919.7605654431568,1403.0224019259726,2080.266621202094,-0.12223211252067147,0.17732714947964748,-0.9494400706818065,0.036089252241936265,-0.06422371752830713,-0.013443575457841916,-23963.167448370205,434985.9775048108,125943.02272808962,0.005043980793285433,0.04959486605280873
13758,1724558930528005854,-0.9807833433151244,0.186887040734291,0.1424933075904846,-0.0137108480557799,0.10654778778553,-0.4494957327842712,0.8867993950843811,0.0,0.0,0.0,-14.644140497525754,183.3996570946078,-125.60850187287784,1.199819628,0.1424933075904846,-0.4249782107395012,0.6457996827837611,0.8841145256812488,-4153.917247106621,-2944.063308338107,-2556.2835995517053,-0.12232683423678717,0.17757892544640677,-0.9491671235914811,0.07123714473164,0.029064665968803638,0.09540151750326231,-389710.19922959676,-443539.9425165545,-1361093.353628131,0.13193629546710323,-0.10148137585672716
13760,1724558930528262912,-0.9807566404342652,0.1869234144687652,0.1425601094961166,-0.0138972485437989,0.1064140573143959,-0.4496548473834991,0.8867319226264954,0.0,0.0,0.0,-155.18346370611533,-78.60679078825444,-649.2474977927777,1.200076686,0.1425601094961166,-0.6936983868741821,-1.501666453810361,-1.5025825304418767,6487.327752911815,11041.4167404374,-4077.188020700062,-0.12256542856341335,0.177148635966819,-0.9495087508518867,0.04405385658083105,0.0577300588813614,-0.02518218391352889,-309181.01149947103,-787044.5780512089,-1068782.8207476498,-0.09953290701525189,0.22423110656261191
13762,1724558930528559973,-0.980764091014862,0.1869118064641952,0.1424547731876373,-0.0128453858196735,0.1072681099176406,-0.449854165315628,0.8865437507629395,0.0,0.0,0.0,-165.48374666376074,-232.69331566818303,-634.3468557942534,1.200373747,0.1424547731876373,3.819326814560499,8.436549946980918,-0.9260859032386882,11296.17780238122,24913.585523002203,1748.1926514844527,-0.12153509210072702,0.179602665614748,-0.9500962284147983,-0.01901586809157152,-0.030887138154746197,-0.2798939335637556,3580.392919556705,-370330.86968967225,185179.34175604483,0.08026780592223844,-0.11695376858476343
13764,1724558930529736911,-0.9807581901550292,0.1869136393070221,0.1424736827611923,-0.0139281004667282,0.1064682900905609,-0.4496495723724365,0.8867275714874268,0.0,0.0,0.0,17.108633407002632,23.30472765481286,213.18633180972037,1.201550685,0.1424736827611923,-1.0529979891599734,-2.070602088181991,0.2339262829202247,-3520.5885070728914,-7599.454284159309,838.3518015298439,-0.1226715997105626,0.17721736686942974,-0.9495169178649553,0.0045799357141831365,0.0012297193406123341,0.013789499265530303,132415.62068558842,185664.60151324997,611856.4846215562,-0.001206217754785459,0.007344808606133325
13766,1724558930536722530,-0.9807441830635072,0.1869086474180221,0.1424755901098251,-0.0139888506382703,0.1061372831463813,-0.4497045874595642,0.8867384791374207,0.0,0.0,0.0,-0.17559666795954249,-0.18471123367470832,-1.3808863859289846,1.208536304,0.1424755901098251,0.028910126339364843,-0.09196732189269434,-0.015734336301214992,97.50480070226205,184.36513880452338,-21.85838118163116,-0.12247512173624062,0.17656632528497787,-0.9495480606479,0.0022012370851456353,-0.001149234777971131,-0.003947612917484911,-1442.347450884071,-1959.3738009056458,-17969.20138950234,0.0016730246579741142,0.0006359768527783303
13768,1724558930546649027,-0.9807195663452148,0.186891108751297,0.1423768699169159,-0.0124164279550313,0.1072272658348083,-0.4499887824058532,0.8864864110946655,0.0,0.0,0.0,0.06252760066382598,0.15790139533272,0.04113044365796631,1.218462801,0.1423768699169159,0.18753746074605307,0.3434010332913477,-0.03691583708660972,-0.7578955805539906,2.8469425440471845,-2.0569467273176087,-0.12075352285291661,0.1799054208531707,-0.9503376452001029,0.0027844065626467795,-0.0007845902290481988,-0.001317993547735874,8.822500166480541,15.629722472957397,62.90123624692811,0.004612441485181775,-0.0019881670648676593
13770,1724558930558416849,-0.9806825518608092,0.1868955790996551,0.1424817144870758,-0.0132575621828436,0.1063497215509414,-0.4502527713775635,0.886445939540863,0.0,0.0,0.0,-0.045230689471997376,0.07836682858304118,-0.3396457687262869,1.230230623,0.1424817144870758,-0.054889456271980136,-0.19524676625605836,-0.06004898275042898,1.9533876745555387,10.728381232723923,5.100594080760108,-0.12147603410794165,0.17753925913038512,-0.9507684382971496,0.003572937606818982,0.002763929436621737,-0.003955847878721386,-3.550203810659589,-20.174133142235675,8.741804111469706,-7.88564719318203e-05,0.0038873041608339307
13772,1724558930566837675,-0.9806498885154724,0.1869332194328308,0.1423708796501159,-0.0124358069151639,0.1070454865694046,-0.4502141773700714,0.886393666267395,0.0,0.0,0.0,-0.041340839555545725,-0.1723548029460535,-0.018377735537005304,1.238651449,0.1423708796501159,0.09746645148980398,0.23555961084621185,0.025482751188949118,3.4699642082285225,15.779579488788006,5.035337692179448,-0.12066006878637868,0.17953425062008968,-0.9507953630109579,0.0025157358245095907,0.0020790244340709307,-0.0075118482474296755,4.952496066038228,-14.980273229021025,21.562231420995637,0.000988408447485703,0.0031281098164643445
13774,1724558930579574506,-0.9806441068649292,0.1869136393070221,0.1423840522766113,-0.0139351077377796,0.1060628220438957,-0.4501497149467468,0.8865222930908203,0.0,0.0,0.0,0.10824879439834367,-0.07815557383918093,-0.06333684587868796,1.25138828,0.1423840522766113,-0.1400445817555877,-0.24505383813448378,-0.00905482833667466,8.969225880461739,0.597757620212672,-4.175463577114581,-0.12239633995332219,0.17642210222560484,-0.9505273312020666,0.003611395205822987,-0.0018697288840527904,3.536148841831732e-05,-5.40978241383815,12.46416339490504,-14.14465927546201,0.0013097457873364493,-0.0007551990837877191
13776,1724558930587136448,-0.9806026220321656,0.1868980079889297,0.1423798352479934,-0.0138969980180263,0.1057428121566772,-0.4503250420093536,0.8864720463752747,0.0,0.0,0.0,-0.00967579331158596,0.0388524464391282,-0.21795392597381433,1.258950222,0.1423798352479934,0.051767909698972575,-0.06843964409910788,-0.04720143108584649,17.52128137623992,23.729310664052214,-1.8071569833624082,-0.12205669300249798,0.17586489937183655,-0.9508230382544469,0.004529751060527332,-0.0014197353681311142,-0.0033882418902022593,-18.33215178908954,6.836358642320674,-5.065688859362787,0.0048922987033453505,0.0013824452909989527
13778,1724558930599883341,-0.9805654287338256,0.1868938207626342,0.1422758251428604,-0.0126006221398711,0.1068043857812881,-0.4504214525222778,0.886315107345581,0.0,0.0,0.0,-0.30217796621324083,-0.05958648753532392,0.047966638661101096,1.271697115,0.1422758251428604,0.10656110910389258,0.24206382782391725,-0.0006752519689710578,-17.401623699367292,-31.821107931711616,1.3340718004571919,-0.12076688622665047,0.1789266889933781,-0.9512113024504467,0.0015890370713407265,-0.0013683056299100826,-0.001121606337907366,-0.29258163554599115,4.263552134692699,-16.796105194894693,0.003382688418853587,-0.00023150852265029488
13780,1724558930608088498,-0.9805594086647034,0.1868771016597747,0.1423037946224212,-0.013733415864408,0.1059347540140152,-0.4503457248210907,0.886441171169281,0.0,0.0,0.0,-0.18492630546563296,0.038703171116888965,-0.2887427756145088,1.279902272,0.1423037946224212,-0.1508346411391568,-0.3157577005250123,-0.0019609089937458394,-10.036209472820588,-26.05910553512777,3.185741472642032,-0.12195107767876684,0.17635297131070574,-0.950908941205343,-0.0012678996452493152,-0.0021932467679466328,-0.0014138652500514937,11.105707800984757,11.852793959530368,8.02580112210432,0.0014543840525541077,-0.0005189492400816001
13782,1724558930617634380,-0.980593740940094,0.1868544369935989,0.1422367393970489,-0.0139539539813995,0.1055414453148841,-0.4500568509101867,0.8866313695907593,0.0,0.0,0.0,-0.11427622097448878,0.15044682722030128,0.332738836785806,1.289448154,0.1422367393970489,-0.009712855909709649,-0.09890741800077253,0.0655697715056517,15.443497456660893,24.44685343596013,1.9596735837057808,-0.12191295192422444,0.17549196474296253,-0.9501613417870884,-0.0012200525601571144,-0.00027740774227513754,-0.006981282612968265,-2.81942342459746,-2.405304776723039,43.839018593689715,0.0010688099244635333,-0.005350195662132239
13784,1724558930630384295,-0.980568826198578,0.1868866086006164,0.1421484649181366,-0.0121349869295954,0.106341503560543,-0.4501914978027344,0.8864942193031311,0.0,0.0,0.0,-0.3242727813108883,-0.12052641648996602,0.5295417999884701,1.302198069,0.1421484649181366,0.19842933739403087,0.24225247265872063,0.0034561488869327525,-42.728983240910146,-65.17267303295296,-13.226373614982741,-0.11944169756904979,0.1785635231104277,-0.9504947157020779,-0.004708473189182882,0.0007850315427084809,0.012859430322951226,24.983495123441983,-6.688022244023663,-78.84063078166464,0.00032700217306991095,0.001744329621615572
13786,1724558930636957240,-0.9806223511695862,0.1868858784437179,0.1423000246286392,-0.0137334456667304,0.1053050383925437,-0.4503977596759796,0.8864898085594177,0.0,0.0,0.0,-0.019589335154635908,-0.115132584835029,-0.3081322752224537,1.308771014,0.1423000246286392,-0.2825327004720051,-0.49763412982548233,-0.1117902658142986,-35.959342436948624,-57.3814490911027,-6.69312649393816,-0.12135893549125877,0.17522800976040254,-0.9508365902058604,-0.007011595464575748,-0.0006979547708034772,0.012861393658821108,37.01204255198524,14.535498488605182,-88.79099672235704,-0.008589537178494484,-0.0001568812443075612
13788,1724558930648402602,-0.9806800484657288,0.1868661940097808,0.1422440111637115,-0.0136162415146827,0.1049076989293098,-0.4502818286418915,0.8865976333618164,0.0,0.0,0.0,0.21784170876768053,0.3245639828039422,-0.5540628677568404,1.320216376,0.1422440111637115,0.04755354604813094,-0.05458901600531455,0.027648068703171283,15.237658056223724,24.613762198846505,0.9566407792564524,-0.12074581737739636,0.17464600957623397,-0.9504410065993135,-0.0006429850557410077,0.00018627891048694778,0.0031877953887802235,-6.103198723924381,9.52249638365727,-19.053640322167634,-0.0006574470840023114,-0.005224627847204973
13790,1724558930661470602,-0.9806228280067444,0.1868970692157745,0.1424062550067901,-0.0132833085954189,0.1050964072346687,-0.4510543942451477,0.8861874938011169,0.0,0.0,0.0,-0.26250446909259867,0.017878097318315245,-0.7667431059283358,1.333284376,0.1424062550067901,0.04372040677486157,0.05674444720245609,-0.12735483662908645,-2.1061275015552385,11.138617078601836,19.312454779657244,-0.12048221077532709,0.17518189753812594,-0.9522093333103976,-0.0028482865044878736,0.008117671105054569,0.0002912385605071677,7.484868106309278,-44.082341276715155,12.102877841373825,-0.0015589699752457684,0.006843845677221203
13792,1724558930667073440,-0.9806561470031738,0.186956375837326,0.1423787623643875,-0.0130399549379944,0.1053750663995742,-0.4509287774562835,0.8862219452857971,0.0,0.0,0.0,-0.11428962990448388,-0.27862652989603653,-0.6307639112600071,1.338887214,0.1423787623643875,0.027565417189516748,0.12544380889621345,0.055734837101940556,-2.856322723772178,4.404842001716096,22.46875735661441,-0.120287749496315,0.1759171546686219,-0.9519802074588789,-0.004544258332959572,0.0068028200467153965,-0.00531410863842563,21.477135729609703,-31.448257110100638,37.897340311340784,-0.01102675845605975,0.004060501813955497
13794,1724558930680779242,-0.9806714057922364,0.1869228035211563,0.1422922760248184,-0.013329136185348,0.1049386784434318,-0.4507841169834137,0.8863430023193359,0.0,0.0,0.0,0.013225831189497717,0.010257800755057722,0.34554991151207126,1.352593016,0.1422922760248184,-0.010676341111847697,-0.07759917861342129,0.02139625443061444,4.681361587416363,-6.436844119616222,-11.637642027619439,-0.12035985330113907,0.17489648312919392,-0.9515548743884825,0.00020619122845744187,0.0015104664193152928,-0.0015646652584457854,-2.8689705933155105,18.449770257321564,-16.34944614801182,0.0024259295529581934,-0.0038365379905885453
13796,1724558930686956393,-0.98066645860672,0.1869431585073471,0.1422958225011825,-0.0133777884766459,0.1046237647533416,-0.4510007202625274,0.8862693905830383,0.0,0.0,0.0,-0.038385323661822526,0.11690911290198142,0.000724127114381079,1.358770167,0.1422958225011825,0.03904206090262742,-0.09403732328622946,-0.07591552703902553,3.890130087705571,0.6744864166530182,-8.57639330520849,-0.12018852232211516,0.1742635575085901,-0.9519569653397992,-0.0006402341561440039,0.0026774079052360733,0.0007702528060162805,-1.1021104809710378,11.836835739057094,-56.65477985974893,-0.002285460462746272,0.003195965741486465
13798,1724558930698244612,-0.9807034134864808,0.1869606375694275,0.1423085629940033,-0.0134513592347502,0.1045409813523292,-0.4511211216449737,0.8862167000770569,0.0,0.0,0.0,0.09879184984634423,0.13854296247088171,-0.6559700023656284,1.370058386,0.1423085629940033,-0.0028305924961526973,-0.0176157950039375,-0.02467638597574639,7.001591226876854,-0.44229193812643786,8.197609951191566,-0.12026491647484043,0.17403271238229515,-0.952213440581582,0.0009612332114912192,0.0025117973582116093,-0.007003968256313442,-8.057127916999493,5.299551340553943,-0.7923987439263023,-0.003307601431851428,-0.00041314023146279657
13800,1724558930706970697,-0.98066645860672,0.1869890540838241,0.1421925872564315,-0.0130520975217223,0.1040171161293983,-0.4508998394012451,0.8863969445228577,0.0,0.0,0.0,-0.10783742253417344,0.20760764746672045,-0.27580963507724454,1.378784471,0.1421925872564315,0.13051684337738745,-0.07012588017189614,0.07153462483458052,-0.3790340077906982,-5.641684075133321,3.5731184615350857,-0.11900441338052896,0.17349967310219833,-0.9515101129870068,0.001532711469600656,0.004754238804050459,-0.012507223686304414,-21.304008651651408,3.476998399363459,40.8192608663022,0.0021037553787276436,0.002408308883687049
13802,1724558930716862400,-0.9806815981864928,0.1870528757572174,0.1420776546001434,-0.0135256275534629,0.1035939007997512,-0.4507645666599273,0.8865082263946533,0.0,0.0,0.0,-0.29193398440027596,0.1922405977028193,0.0971634457235462,1.388676174,0.1420776546001434,-0.04883407188921474,-0.12171659475245054,0.023313123462100453,-17.552323483496075,-5.037794985675094,-4.723085984849275,-0.11942246913763031,0.1723316676835973,-0.9511323532614565,-0.0014775175236203808,0.006254203111502474,-0.011256424999427531,-12.601502335652334,-15.06758091007463,70.67443066922374,-0.00405790214417282,0.001986962589315058
13804,1724558931019510239,-0.9806378483772278,0.1871137470006942,0.1420292109251022,-0.0133328642696142,0.1034342795610427,-0.4507800936698913,0.8865218162536621,0.0,0.0,0.0,51.543257422644984,-129.50606047245492,326.77269534154846,1.691324013,0.1420292109251022,0.0016165993524656181,-0.00036882798996383255,6.72142775364427e-05,3152.15447559384,-2540.3299259892146,4835.374448373511,-0.11892736940186803,0.1722232303854409,-0.9510982736260074,0.02484880972042447,0.4404036367568551,-0.2530326016252502,-22792.78212761559,425712.33490127214,-240479.96096768038,-5.116155937510527e-05,0.00021163400558089042
13806,1724558931019939001,-0.980627179145813,0.1873028427362442,0.1419205665588379,-0.0131347337737679,0.1031018793582916,-0.4504123628139496,0.8867504000663757,0.0,0.0,0.0,41.756629556236334,53.282061681269056,223.51729633797206,1.691752775,0.1419205665588379,1.3550552630938877,-1.091109079474742,2.0762292232931667,1284.2869514779266,632.290943513341,-1053.4288025224741,-0.11818316608034142,0.17186398832004499,-0.9501449461181941,0.046979855852896435,0.38479682225647593,-0.11272591099682927,51778.08255410602,432085.8499232715,-274038.23068723304,-0.29589696456136677,0.31602840691810835
13808,1724558931020345991,-0.9805995225906372,0.1874377280473709,0.141929030418396,-0.0129035925492644,0.1030653417110443,-0.450551301240921,0.8866873979568481,0.0,0.0,0.0,91.65084127591307,231.36569142848418,99.15433356081314,1.692159765,0.141929030418396,1.154420886649333,0.3932757409438478,-0.6301356413767298,695.3088424420139,5251.192159893828,-2805.0614370563144,-0.11776080986939215,0.17199273233902299,-0.9504224688193174,0.06016541934127417,0.4771691102123157,-0.061825881134069505,189952.58283297467,-16342.840053820692,-24916.91053414246,-0.2303240086545205,0.30688740818126686
13810,1724558931020737526,-0.9805788993835448,0.1876794546842575,0.1418737024068832,-0.0123145785182714,0.1034293249249458,-0.4506453573703766,0.8866055607795715,0.0,0.0,0.0,191.3959699579376,53.99572343012983,195.1103173128319,1.6925513,0.1418737024068832,1.8742444040986213,3.053461915584158,-0.28026412932094924,5820.798552719017,3380.1569472815313,-506.623219947071,-0.11707038074668626,0.17316717421676298,-0.9506752114812,0.11836860592325138,0.5694146536326912,-0.032763017716831655,-42228.62459655475,-449833.14365241106,85689.48405317076,-0.4404157447808708,0.49443768669497956
13812,1724558931021139466,-0.9805042147636414,0.1878885328769683,0.1419053226709365,-0.0110210170969367,0.103431299328804,-0.4509633183479309,0.8864607214927673,0.0,0.0,0.0,51.88115462676694,-125.49863583990441,163.78588308882817,1.69295324,0.1419053226709365,5.857052534827227,3.0033544883242667,-1.0616540999395132,1980.3028223612218,2521.1070897681966,-2196.8508607501044,-0.11481510824700805,0.1743168890816924,-0.9512474038675015,0.2129346187414285,0.5161839716753036,0.0955382641140261,-500499.03096703417,-293662.78684504353,-301191.71817450563,-0.32446064517452367,0.5361708389953055
13814,1724558931021525993,-0.9804118275642396,0.1880865693092346,0.1419485211372375,-0.0099990172311663,0.1039565876126289,-0.4513904452323913,0.8861939311027527,0.0,0.0,0.0,-198.59309356508513,-182.17083839122137,-35.61919691471517,1.693339767,0.1419485211372375,3.6753705588566032,4.9612768643521505,-2.0047649999334487,-5730.006733115056,-288.18007946256967,-392.01863120780195,-0.11356945109319902,0.17613376343956344,-0.9522510871338133,0.1648200591373552,0.470253418199178,0.10107583955489474,-234201.83494974455,-35465.725693561326,-124144.82371790684,-0.2940959986277211,0.5668851921662444
13816,1724558931022060372,-0.9803785681724548,0.1883067637681961,0.1419946402311325,-0.009785478003323,0.1040901318192482,-0.4515740275382995,0.8860871195793152,0.0,0.0,0.0,-18.028069603048607,-119.00444226791626,187.4558115375781,1.693874146,0.1419946402311325,0.5500708998219541,0.8521107180677912,-0.701259241860089,-1118.9962381143923,-4645.058778971538,1915.14715573815,-0.11335103920990705,0.1765437638288082,-0.9526816684022316,0.003941715824566927,0.32610893373828276,0.04514249083001687,367228.8817896362,194580.14494303416,373731.7505724268,-0.31024553583161085,0.3811062810298446
13818,1724558931022589795,-0.9804070591926576,0.1884343326091766,0.1419969499111175,-0.0092137278988957,0.1037963554263114,-0.4516322612762451,0.8860980868339539,0.0,0.0,0.0,191.77633524140148,24.070391326984634,362.3886848636739,1.694403569,0.1419969499111175,2.4383189600498745,-0.010183609081638768,0.03774359457813105,4616.386701160136,5564.2374449232675,-1385.82926036712,-0.11205649780046095,0.17654067142478194,-0.9526609646842901,0.14284939248898354,0.34216907181360057,0.2976095847333795,-31884.272774466528,40920.68441140413,-190329.61806550453,-0.22478754480859084,0.1625342291663289
13820,1724558931023120590,-0.9802265763282776,0.188669815659523,0.1423109769821167,-0.0071810591034591,0.1047301813960075,-0.4523098766803741,0.8856613636016846,0.0,0.0,0.0,-53.00877881027167,-76.24968212439661,-15.765868769812919,1.694934364,0.1423109769821167,5.447331481160337,6.771178528379711,-2.17818322706432,1294.1488655260277,4878.032817205209,-1858.637124481682,-0.10944370246714798,0.17998500697827172,-0.9542323152362013,0.20707246302384874,0.3516115830557567,0.4290389477901613,-312373.5964660853,-144956.07259361108,-518265.8745179139,-0.2685779611584611,0.6618050927434933
13822,1724558931023920534,-0.9802212119102478,0.1888401359319687,0.1424581855535507,-0.0065811034291982,0.1049170568585395,-0.4526727795600891,0.8854582905769348,0.0,0.0,0.0,-123.50938846644061,-139.10880781206166,-196.27052917856585,1.695734308,0.1424581855535507,1.2085359679745427,1.1519510259597963,-0.8727750036221703,-3684.279509059229,-10361.99689989672,2659.5889409701826,-0.10862177596905381,0.1808249994089773,-0.9550394487983729,-0.04510421756913274,0.17724546352775405,0.0989109388146403,122060.28736006797,41449.64236734205,57916.64782657742,-0.2002615741541175,0.20948656333026788
13824,1724558931024451951,-0.9802634716033936,0.1889217346906662,0.1424807012081146,-0.0072635919786989,0.1036383733153343,-0.4524450898170471,0.8857199549674988,0.0,0.0,0.0,15.559629026532898,-74.70793805425467,-65.3863689838465,1.696265725,0.1424807012081146,-0.17935597844098763,-5.532816754327925,0.9033895379336607,-725.0235296085527,-4193.392940133305,931.9433456387802,-0.10857277246551603,0.1779541439995528,-0.9542306622955464,-0.04305156693783374,0.1311620513672409,0.0710115654983241,190158.1048942282,139011.57723496345,156425.44567435596,-0.17605460562128772,0.08563571634688229
13826,1724558931025195980,-0.980257511138916,0.1889960020780563,0.1425633728504181,-0.0068741873838007,0.1034533008933067,-0.4527944922447204,0.8855661153793335,0.0,0.0,0.0,82.52281469089556,47.28856402237767,-42.61643251353294,1.697009754,0.1425633728504181,1.2465444226022637,0.08264049102873922,-0.9141141019302473,-110.01649968328707,1894.4111139522524,-477.61114091182236,-0.10776810361808256,0.17794183927279808,-0.9549243799829169,-0.01928990982742107,0.08808809289590158,0.008938392545928764,117184.56801445426,156107.27460347547,49415.39120098901,-0.09530467555596277,0.10551350275652285
13828,1724558931025764533,-0.980280339717865,0.1890409886837005,0.1425240635871887,-0.0069743804633617,0.103087231516838,-0.4528843760490417,0.885562002658844,0.0,0.0,0.0,160.95878484002336,132.62889472030736,-6.34813327062183,1.697578307,0.1425240635871887,0.30356749795480015,-1.2962807606012723,-0.33186704814029694,-828.176304671191,-562.0600372293595,-762.0588740327669,-0.1076149470904573,0.17718880633288853,-0.9550344043214152,0.049606542787159924,0.16067150120832707,0.002439965207088335,5916.0720866128395,49294.42815324328,-62974.585436136775,-0.07422214705028245,0.02746514898871102
13830,1724558931026301067,-0.9802082777023317,0.1891684830188751,0.1425616145133972,-0.0070329485461115,0.1028947010636329,-0.4532817006111145,0.885380744934082,0.0,0.0,0.0,97.2781407919025,108.03686757850818,-104.31962673483079,1.698114841,0.1425616145133972,0.2796590497591235,-0.6544441680323819,-1.6450951053053473,1557.3878772297946,2871.9019451979566,-366.4074457347242,-0.10761511626682208,0.17674494001574512,-0.9558877301849991,0.1561078386664576,0.2343455336369118,0.0016068986567887578,-105781.19101493355,-3011.7564508269134,-62019.336355576386,-0.12710653758494245,0.2798598653519421
13832,1724558931026870091,-0.9801062941551208,0.18929985165596,0.1425212621688842,-0.0062564751133322,0.1031199544668197,-0.4534984529018402,0.8852492570877075,0.0,0.0,0.0,44.87568269523598,132.16612885002948,-66.84149157119272,1.698683865,0.1425212621688842,2.132596500575589,1.9909530506836792,-0.597620282796798,-4200.56043208621,-7463.445454057171,1375.37372685576,-0.10648386548591991,0.17783498849573987,-0.9563540486182157,0.15037671264178698,0.2781524450441566,-0.11977141688541337,-8924.308003234706,-5734.44182711438,165633.98566396526,-0.07142568963309281,0.2734139351432981
13834,1724558931027404288,-0.980040431022644,0.1894721537828445,0.1424327790737152,-0.0081472285091876,0.1016777232289314,-0.4534003734588623,0.8854508996009827,0.0,0.0,0.0,81.81698480599755,104.96097865764742,71.67454633788242,1.699218062,0.1424327790737152,-3.85097924636834,-8.07041173990362,-0.09632538593376015,-2849.061119251228,-3136.464104537393,-1481.9783047798119,-0.10846803527215167,0.1735431455624783,-0.9559362942701177,0.2019054436046872,0.3764280901423831,-0.08202392371427436,64308.973375578586,-44322.10497261894,28661.690172031012,-0.16085983099123016,0.29744954984255084
13836,1724558931027946246,-0.9798877835273744,0.1897057890892028,0.1424342989921569,-0.0085412440821528,0.1014981418848037,-0.453910768032074,0.8852062821388245,0.0,0.0,0.0,114.00637144516168,84.57194279983122,-39.6030073242904,1.69976002,0.1424342989921569,-0.8028533253647566,-1.1389326213776032,-2.2303007957114773,5897.015700772293,6607.385236282151,-1156.8993609055656,-0.10910161475487204,0.1727983156222217,-0.9570881249275502,0.23819552739223582,0.3898714572659401,-0.0426226664530418,29477.80527519266,-24466.249276373586,-143180.58052471234,-0.18786879597138126,0.5060028068194158
13838,1724558931028548610,-0.9797734022140504,0.1899130344390869,0.1423782110214233,-0.0079695899039506,0.100748486816883,-0.4542809128761291,0.8851073980331421,0.0,0.0,0.0,111.73335295994343,78.64153914832008,-84.24393909370421,1.700362384,0.1423782110214233,2.9318910094627215,-1.2979571755172328,-1.0655359604481787,3146.649665538367,2556.0340984189897,2443.810599060457,-0.10743193785893845,0.1719517055563823,-0.9576500966322234,0.3383658261777782,0.4808285632525724,-0.14166639311645213,-196674.91057498963,-86252.97430797649,-82222.58760763789,-0.15364134708091004,0.3665039257476563
13840,1724558931029080956,-0.9795234203338624,0.1902333498001098,0.1422799527645111,-0.0070418990217149,0.1006934344768524,-0.4542566537857055,0.8851339221000671,0.0,0.0,0.0,-83.71946001379723,-3.222200314976419,-131.8317142547897,1.70089473,0.1422799527645111,3.1704290424802437,1.3894701295764356,0.4754275820055484,-435.38333605218634,2430.004231029891,1456.243655548879,-0.10571405327906579,0.17271409181093814,-0.9574744356913961,0.3721770476289521,0.4886507076016784,-0.1487907696669879,-246958.4977222604,-3328.9259270516195,-14563.198383200677,-0.18673162369964202,0.7151951263789281
13842,1724558931029918280,-0.9793400764465332,0.1904936134815216,0.1422024965286255,-0.0064463084563612,0.1003715395927429,-0.4543997049331665,0.8851016163825989,0.0,0.0,0.0,-132.2039685013138,192.13674937915738,-45.473893552630045,1.701732054,0.1422024965286255,1.6423203532849657,-0.024145441075137098,-0.19965796282054152,-2923.55354183124,-5831.785803485685,1315.3158994752175,-0.10436753413045503,0.17267646445034288,-0.9576410847821872,0.10816750507444794,0.46235701462822476,-0.41517623461726316,192187.58543945482,43369.267431602624,442972.2282726556,-0.11040266060918205,0.35677273876915916
13844,1724558931030488461,-0.9793214201927184,0.1908160746097564,0.1418404877185821,-0.0071631297469139,0.0991813093423843,-0.4540305137634277,0.8854197859764099,0.0,0.0,0.0,74.48042406640967,143.115775966672,339.04829006642433,1.702302235,0.1418404877185821,-0.45117138286878655,-4.958120994977379,1.3740437607107563,-4384.198914882053,553.6045220511405,-3101.917207048193,-0.10443902731570925,0.16994650850596527,-0.9565514824824893,0.1038782964898246,0.6587027712679969,-0.3352373443484282,239126.71313723264,-243217.50004175893,312154.8497633968,-0.32954084892375357,0.35684650205411456
13846,1724558931031100042,-0.9792112112045288,0.1912800371646881,0.1418320387601852,-0.0080731259658932,0.100055880844593,-0.4551064670085907,0.8847609162330627,0.0,0.0,0.0,139.80166293242416,-108.78084961153883,292.33722752047885,1.702913816,0.1418320387601852,-3.5999022982416657,1.4200951893824905,-4.368373796700981,556.369032357336,5072.8306980062625,-3218.9896185570324,-0.10711310961024852,0.17052808902320657,-0.9593401585335378,0.2032219856073425,0.6142181065658576,0.0025605988278414316,13648.790071434581,-133220.7349320585,-327417.23144019383,-0.5078729871232506,0.7091131243015714
13848,1724558931031788128,-0.979053556919098,0.1915908753871917,0.141846477985382,-0.0076505728065967,0.1000955998897552,-0.4556995630264282,0.8844547867774963,0.0,0.0,0.0,77.0735877399633,15.27732994123835,-127.29918705462518,1.703601902,0.141846477985382,1.1994240513340009,0.7640519511554704,-1.8063732897174272,4208.552038928024,559.4144311277425,1595.60135229472,-0.10651051703776787,0.17091829944018708,-0.9606510320114017,0.28189376300156255,0.511463896751934,0.0024330932428426877,-136717.14172054807,189471.63354449417,-350110.7876941407,-0.23903765346135863,0.4966860808409426
13850,1724558931032385438,-0.9788578152656556,0.1919273436069488,0.1418383121490478,-0.0068508856929838,0.1002782136201858,-0.4562885463237762,0.8841369152069092,0.0,0.0,0.0,-28.209121891547625,133.2090198672572,-201.74117059796743,1.704199212,0.1418383121490478,2.2788596717900065,1.8826212900701014,-1.956574547504976,1314.482128026366,-3368.296693204072,991.8279425799219,-0.10537109231680525,0.1719129163149068,-0.9619510865059424,0.30861058905497885,0.6059414427934371,-0.13951375975179303,-119172.02419916465,82421.71973149614,109526.06532410366,-0.2682760646461377,0.6358745505328931
13852,1724558931032926629,-0.9787001609802246,0.1922761797904968,0.1417011022567749,-0.0065251938067376,0.0993367433547973,-0.4565520584583282,0.884109616279602,0.0,0.0,0.0,-64.71047449459388,121.41730902260178,-27.650126474849273,1.704740403,0.1417011022567749,2.7486629404572316,-2.5101539371435093,-0.8101653510415203,80.2053997830485,-4187.181035477413,679.9116055097124,-0.10393439876742552,0.170516071547523,-0.9622495857874495,0.25757946382509544,0.6657926450063201,-0.23108974283475447,4503.908337591609,-22979.564473696562,354089.65717920323,-0.3140459240777948,0.6375926646389974
13854,1724558931033505121,-0.9785720109939576,0.192674458026886,0.1415812969207763,-0.0063030063174664,0.0983895286917686,-0.4569474756717682,0.8840129375457764,0.0,0.0,0.0,-17.613560698880633,107.38727007020748,197.22804411832283,1.705318895,0.1415812969207763,2.3078608204215763,-2.5024287705001513,-1.3062943426581466,-1033.988300067162,643.409162093551,-2452.303760379371,-0.102702580097084,0.16899824199487082,-0.9628608315615823,0.23843842691690043,0.7427257879370757,-0.15954839569761248,79149.62059029631,-53303.745483198625,285532.1907114198,-0.3975113181702919,0.6428702335065817
13856,1724558931034097751,-0.9784204363822936,0.1931475549936294,0.1415156126022339,-0.0062463241629302,0.0977199003100395,-0.4579648971557617,0.8835609555244446,0.0,0.0,0.0,27.918598947359328,58.16063707763419,303.7891769085208,1.705911525,0.1415156126022339,1.5299513401695737,-1.7386101725130294,-3.727754382781913,620.1081772552297,2790.9946551643566,-2991.247495803931,-0.10215152006208003,0.16774738895692878,-0.9649830158570483,0.2373947321691503,0.7908234754898729,0.0019937395242521916,82370.3041710417,-57221.14894006913,19021.781608303747,-0.48492121165940466,0.7688973807754101
13858,1724558931034675361,-0.9782936573028564,0.193600133061409,0.1415802836418151,-0.0055283117108047,0.0975009128451347,-0.4592844545841217,0.8829048275947571,0.0,0.0,0.0,78.61516223727946,39.65829050546779,224.2569802287934,1.706489135,0.1415802836418151,2.9762122287830146,0.7191525921777758,-4.83924012244294,-2718.8312154662854,4500.772024476716,-1973.2912109783183,-0.10091065723552313,0.16787735003952076,-0.967846246421007,0.27022960765748394,0.8114698292426681,0.19503236025249748,-75189.71854257114,-65022.77337202712,-294293.601444134,-0.5322900865201655,0.77717171788297
13860,1724558931035324029,-0.9780814051628112,0.1941468566656112,0.1417673081159591,-0.0058964751660823,0.0989688783884048,-0.4609703719615936,0.8818597793579102,0.0,0.0,0.0,-88.868542252514,-26.552178920030315,-80.72115560804534,1.707137803,0.1417673081159591,-2.591975910693426,3.8176557097995714,-6.1549510776917895,-1812.9338738567437,1893.8824611766172,-194.60130527895672,-0.1033123242156178,0.16993384345786477,-0.9721312369132376,0.3370828048001613,0.8400459967461416,0.2604090450381591,-276398.0149699609,-176368.31955997454,-333213.5904392918,-0.5532506785167248,0.9179004378517449
13862,1724558931035933906,-0.9778701663017272,0.1946575790643692,0.141910120844841,-0.0055376961827278,0.0998260155320167,-0.4623854160308838,0.8810243010520935,0.0,0.0,0.0,-267.87427845292274,-176.71742437384523,-205.41425924075628,1.70774768,0.141910120844841,0.18494507748985486,3.3196574942551202,-5.222164976449036,4465.319929059901,-5880.459781446369,2946.241075167871,-0.10378193269903634,0.17161839393133346,-0.9755581994881957,0.17282969474001675,0.7833666684522029,0.10710179572656386,-88935.77189420335,-177562.00672030076,-23468.827333103458,-0.5318444771130358,0.9151008301352833
13864,1724558931036519860,-0.9778665900230408,0.1950861662626266,0.1419013440608978,-0.0053095482289791,0.0986803621053695,-0.4631570875644684,0.8807494640350342,0.0,0.0,0.0,-204.81683765788128,-242.1070148458113,-117.27558742049382,1.708333634,0.1419013440608978,2.7519165613425502,-2.976844790238053,-2.6982021845565805,3110.852287957842,-7928.4653996433835,3430.185695944839,-0.10240954589284255,0.16972067325146978,-0.976971955716767,0.016682543484293433,0.632651823223064,0.012612442784595501,106688.60498503323,-77721.40927443825,132724.37303782717,-0.5916121524416362,0.5966638093446394
13866,1724558931038584449,-0.9777551889419556,0.1956737339496612,0.1421280950307846,-0.0050222035497426,0.0997437834739685,-0.4649719893932342,0.8796743750572205,0.0,0.0,0.0,8.712200129006364,-156.15536712702425,28.025258494312155,1.710398223,0.1421280950307846,-0.0639987317893311,1.1483350958627088,-1.9978865805813633,-1102.4046701741902,1564.6747049807173,310.874160222645,-0.10329084141016136,0.1716554804824378,-0.9813823892829323,0.0424156278886052,0.24268722073648785,0.09043183877388739,82930.19575082512,36806.55184394348,55828.07684050003,-0.22230307406950187,0.28186477266198207
13868,1724558931047087875,-0.9777987599372864,0.1962697356939315,0.1422177404165268,-0.0076480018906295,0.0975759699940681,-0.466131180524826,0.8792850971221924,0.0,0.0,0.0,-3.8697540874629586,-12.153187991023147,-6.814310404363512,1.718901649,0.1422177404165268,-0.2794656864082611,-0.7251766284791901,-0.3465681554341555,4.664988222814788,-112.08253861161515,127.6680990294711,-0.1060561139649478,0.16521483887315846,-0.9837019116033681,-0.014901187410224281,0.06103422129242464,-0.009831847390978865,-656.8395487433967,9964.842788172087,-1980.7369787958514,-0.062092314228975876,0.05643397681396872
13870,1724558931057907296,-0.9780945777893066,0.1968054324388504,0.1418308913707733,-0.0078388638794422,0.0949865579605102,-0.4656424820423126,0.8798257112503052,0.0,0.0,0.0,0.3503695411730575,-0.28653583925668746,0.889835907952282,1.72972107,0.1418308913707733,0.1840455187214636,-0.44776641013233653,0.11891117326596398,24.807466104475346,44.32133394166692,0.026548199935884753,-0.103771214103576,0.1605316219475874,-0.9818911202407854,-0.01725127526290038,0.056318674565204674,-0.015048971266368838,179.57424447568323,616.0540392413964,399.04038475606984,-0.049919056422978364,0.019266493993853544
13872,1724558931068012858,-0.9781736731529236,0.1974388062953949,0.1418742537498474,-0.006385289132595,0.0951370447874069,-0.4670496582984924,0.8790749907493591,0.0,0.0,0.0,0.17842162369306036,1.401447505074254,1.9677722349783078,1.739826632,0.1418742537498474,0.26452708104889916,0.17645477846080793,-0.2866515489461037,4.165134182135452,34.895644710720106,-20.50054571517142,-0.10159651938465236,0.1620084689823455,-0.9849956660705853,-0.008353321432288396,0.054832330402897256,0.006893696496066859,-25.37055472387841,73.34139277393149,4.18868402822373,-0.05650464505668901,0.0478623824189105
13874,1724558931082235363,-0.9783030152320862,0.1980616599321365,0.1420243978500366,-0.0045142173767089,0.0951484143733978,-0.4683801233768463,0.8783772587776184,0.0,0.0,0.0,-0.34965803107845916,0.5691107126471096,-0.023940867045610048,1.754049137,0.1420243978500366,0.24772338214902867,0.13482205912243414,-0.18525192571881285,-17.331359420379293,18.698082888536625,-108.62589707362156,-0.09853543108981051,0.1636531931282235,-0.9878465812449909,-0.019868999464108583,0.10576081661207581,0.030805486757774503,75.52080257311314,-406.59642629763346,-193.29765547329427,-0.04273150573664969,0.03286683404748456
13876,1724558931086801257,-0.9784095287322998,0.198635384440422,0.1421947330236435,-0.0041390904225409,0.0954895988106727,-0.4701194763183594,0.8774122595787048,0.0,0.0,0.0,0.16028561143066988,-1.797573190265619,-0.9845833639908745,1.758615031,0.1421947330236435,0.144917702924789,0.2518939864777139,-0.8509008737677812,-24.097266450527503,6.36869884045354,-85.57053948744979,-0.09853241665413603,0.1644155140258566,-0.9918800164454343,-0.020791199449373465,0.10394471744734712,0.02819668070818704,95.33468476862721,-397.05853285047044,-148.53369505491656,-0.12245846257050927,0.09736804620402857
13878,1724558931097420490,-0.9785676598548888,0.1992030143737793,0.1422691792249679,-0.0053666508756577,0.09512909501791,-0.4713080525398254,0.876806914806366,0.0,0.0,0.0,0.7688383953451925,-3.018638251349884,-1.0340447370002155,1.769234264,0.1422691792249679,-0.1500307313871179,-0.15644948573131195,-0.27236752946317566,2.574007500541609,-5.727015316486232,31.155158425890576,-0.10057303142815334,0.1624749000756985,-0.994629554871357,-0.010141984456083719,0.05028322034299393,0.00753560008055576,-118.80692175292468,451.9394008984541,-175.0986358863783,-0.05337308337881203,0.03732289710186927
13880,1724558931107967823,-0.9786248803138732,0.1997001618146896,0.1423541605472564,-0.0042459685355424,0.0952213928103447,-0.4722787141799927,0.8762806057929993,0.0,0.0,0.0,-2.3292095408002957,7.68718405630458,-4.666393766057362,1.779781597,0.1423541605472564,0.19505119995332137,0.12598264530875122,-0.1881104327157816,19.900132835955752,18.122509189959185,6.499892474114411,-0.0988622753959253,0.16359956788504665,-0.9967643846645073,-0.0044839976795962855,0.03975892689872884,0.006178862587297385,-54.00680492193163,143.03874320823434,60.54297350834872,-0.04327043388191849,0.03744559399766649
13882,1724558931127917050,-0.978678822517395,0.2002150118350982,0.142406553030014,-0.0026490041054785,0.0961122512817382,-0.473389059305191,0.8755902051925659,0.0,0.0,0.0,5.638552766575685,-22.36111923938745,11.820142701607807,1.799730824,0.142406553030014,0.10842050721217243,0.16093953974716185,-0.11460972121390073,1913.5043363023844,582.2073709353242,156.41706965231407,-0.09713078289220727,0.16657108276638968,-0.999389579291626,-0.15907644377239194,0.5208144578275835,-0.25813073279547893,1383.4589489247664,-4742.1519220312,2367.186475025992,-0.02328527789584609,0.02038794429802611
13884,1724558931128883448,-0.978839874267578,0.2007414996623993,0.14214488863945,-0.001609016326256,0.0959615632891655,-0.4734663665294647,0.8755674958229065,0.0,0.0,0.0,7.021593451529456,-27.095414966661757,14.179917890233376,1.800697222,0.14214488863945,2.0474114685910627,0.750757642205243,0.043701618071243946,1782.3128619163442,537.4442037998291,146.46867141842006,-0.09515682619713878,0.16729732702144995,-0.9994176290767752,-0.15300060419629347,0.49702897977747673,-0.2455341506927453,1293.1150285857095,-4412.794557092577,2191.434892035891,-0.49563761274284845,0.3167448347676107
13886,1724558931137696847,-0.9790911078453064,0.2012828141450882,0.1420086771249771,-0.0033974735997617,0.09506656229496,-0.4735847413539886,0.8755960464477539,0.0,0.0,0.0,7.3251674088476415,-26.91481011618618,13.36831371782785,1.809510621,0.1420086771249771,-0.2565994835695063,-0.37056246785228114,-0.05972511062335058,-129.29537443013203,-64.48170732311853,8.228304241951202,-0.09745344335195512,0.1639959437797569,-0.9996305203002518,-0.0320801413633518,0.058658062474279404,-0.028501427812789082,-291.1792418430658,1178.719328823639,-539.0328230606178,-0.06365784075640192,0.03307126383537737
13888,1724558931148199191,-0.9794727563858032,0.2018643021583557,0.1415460705757141,-0.0037326731253415,0.0937672853469848,-0.4723271131515503,0.8764137029647827,0.0,0.0,0.0,0.19193748790934784,-0.04034050720845661,2.113708555624628,1.820012965,0.1415460705757141,0.03904612809568447,-0.2624922002820636,0.2765332018033952,23.284377087998944,39.68561672401606,-7.019321339293171,-0.09652483797652284,0.1615333483869642,-0.9964306526757027,-0.035180602761094804,0.06163481117704883,-0.028983577967942153,-286.06480961133354,1107.6713395944528,-423.482605541956,-0.05827984119230485,0.018919206353269446
13890,1724558931156971044,-0.9797728657722472,0.2024508714675903,0.1414021998643875,-0.0023402033839374,0.0944928228855133,-0.4726898968219757,0.8761450052261353,0.0,0.0,0.0,0.5629497409120681,-0.9564496324909753,3.147616985275227,1.828784818,0.1414021998643875,0.20764205473809386,0.300990329928872,-0.07104211735596015,0.4572767800420059,40.670469166776485,-42.78440953518986,-0.09484677502550312,0.16410198723851568,-0.9973149688158492,-0.029927825165273703,0.05890879774582025,0.0053799956685924855,9.55765818474941,-74.13575171253696,-57.471723046012045,-0.07105053615026885,0.03429263003996567
13892,1724558931166845731,-0.9800207614898682,0.2029440850019455,0.1416974514722824,-0.0015429770573973,0.0963838472962379,-0.4749807715415954,0.8747005462646484,0.0,0.0,0.0,0.29340611030003805,-1.3516790852732594,0.6310104940060466,1.838659505,0.1416974514722824,0.003586670002589563,0.44062248045678964,-0.5286571721946851,-11.769000949116235,-4.787021502342745,-14.227001126904339,-0.09575147657638335,0.16793650278302574,-1.003003704915224,-0.02476763372887092,0.042286650495690026,0.027903778104914956,-50.21483668177525,35.6206840021421,-200.04068044660903,-0.05982572807584145,0.03326287419202453
13894,1724558931177690243,-0.980285346508026,0.2033114284276962,0.1419762820005417,-0.0013652986381202,0.0972022488713264,-0.4763968884944916,0.8738396763801575,0.0,0.0,0.0,-0.5240981257089035,-0.06448722445028165,-0.8855254555459693,1.849504017,0.1419762820005417,-0.018100787477553032,0.16329164925557285,-0.30046290874496245,0.7890398904401796,-18.427969531908122,18.28025060380927,-0.09652897915170976,0.16938635222139242,-1.0064660726895303,-0.024315006204204792,0.0315779229295039,0.015096542609565944,-45.70144537315806,80.60250502020364,-69.56792140888648,-0.045408792396925655,0.019732614674717458
13896,1724558931190026806,-0.9805841445922852,0.2036687731742859,0.1420135498046875,-0.001161141321063,0.0973061323165893,-0.4770284295082092,0.8734838366508484,0.0,0.0,0.0,-0.6713329132534702,0.39528118070697893,-0.7575122672520314,1.86184058,0.1420135498046875,0.030772329873171477,0.03623181769700099,-0.11371078843038172,-30.986522067964057,-45.558285935297796,1.6987234037770413,-0.0963957501188366,0.16969615141952793,-1.007926381411797,-0.03872146188903969,0.04373554523727563,0.008318689623688869,53.8845541301627,-78.20296094226106,-39.11433199686964,-0.03739470574753792,0.011910694471072597
13898,1724558931197583247,-0.9809438586235046,0.2040676176548004,0.1421009302139282,-0.0032754035200923,0.0964081063866615,-0.4774290323257446,0.873359203338623,0.0,0.0,0.0,0.04048766228702272,-0.7301159152845349,-1.2821468667212241,1.869397021,0.1421009302139282,-0.3651331531344404,-0.47122225105749693,-0.16307865873220456,0.7129428477194999,-13.426314851176853,-1.7323813282076888,-0.09930374511005867,0.16603204200378172,-1.0088174960381442,-0.04149651927804854,0.04399065816548564,0.0016313994288950084,64.56605267541937,-111.39999622235364,-26.767943641762848,-0.07097854954081992,0.020949560346655266
13900,1724558931206958022,-0.9812618494033812,0.2043777704238891,0.1420007050037384,-0.00220782100223,0.0959398970007896,-0.4780516922473907,0.8730735182762146,0.0,0.0,0.0,0.301111572719426,-1.3379419035999816,-1.0369163906466994,1.878771796,0.1420007050037384,0.2592091013236705,0.02781116999161219,-0.123482447680573,22.1267141157252,19.729528367924267,0.9400876024602489,-0.09707115160424082,0.16617804473963046,-1.0100116167792408,-0.036374768020493775,0.0282615921367384,-0.015007766083925844,-10.00626936063022,-7.2576814954293525,52.815358952397794,-0.04365396827527028,0.007997258184055384
13902,1724558931216963734,-0.981652021408081,0.2046090513467788,0.1418044418096542,-0.0025715762749314,0.0953456237912178,-0.4787041246891022,0.8727800250053406,0.0,0.0,0.0,-0.20275154733691947,-0.7956713552803827,-0.2237900195192044,1.888777508,0.1418044418096542,0.0056876588921362485,-0.1325522576207543,-0.14914223683367256,-22.724561181171993,-6.995671395597671,-2.6681543848388296,-0.09724074259755258,0.16471324464317919,-1.0113868819908853,-0.0359806820704236,0.018503991536659825,-0.01750198290190763,-27.72076240094841,41.39431301555862,38.787773120905705,-0.03652398000380444,-0.004423209986771996
13904,1724558931227495579,-0.981997549533844,0.2047528177499771,0.141643539071083,-0.0038693118840456,0.0953713655471801,-0.4794192314147949,0.8723797798156738,0.0,0.0,0.0,-0.2437589810102101,-0.5016288951715533,-0.2861841121532276,1.899309353,0.141643539071083,-0.2046758884743053,-0.10610940811574392,-0.17839174492032311,-11.23750898256432,3.6848257130492126,-5.6549279722812145,-0.09968769873755524,0.16341642342572144,-1.0131706164327994,-0.040800281621322654,0.0121143282809264,-0.01957633968857664,38.69216885852036,24.047555220262772,21.546558027352937,-0.026072686126285636,-0.008320385641995049
13906,1724558931237199088,-0.9824649095535278,0.2048566341400146,0.1414151489734649,-0.0051256194710731,0.0956610590219497,-0.4804046154022217,0.8717994093894958,0.0,0.0,0.0,0.5124218644139091,-0.30289848339326886,0.1684916679992493,1.909012862,0.1414151489734649,-0.23561171054505795,-0.05985707026583377,-0.25899180705801333,18.261547732504255,19.619076522046896,1.4098582608215446,-0.10237554580068282,0.16258511452286847,-1.0156452928593263,-0.04125359855963495,0.008186131273612673,-0.023151018199816242,59.15633313194874,18.716618390277613,42.231506325552786,-0.030213400284232177,-0.02014161925707828
13908,1724558931247406766,-0.9828118085861206,0.2049132138490677,0.1411829739809036,-0.003652865299955,0.0965474992990493,-0.4811241030693054,0.871312141418457,0.0,0.0,0.0,0.9146932976991926,-0.13078335499588695,0.549910244626113,1.91922054,0.1411829739809036,0.1811235852357574,0.29989511842461014,-0.14026812487990936,16.41914857140391,12.715360924413634,4.670981542096557,-0.10081384647640282,0.16548533364569848,-1.017403710357747,-0.030018906480250962,0.006188703537697293,-0.01566604831076468,-14.549062670553987,7.867798809483701,-24.14871994571663,-0.018521562665389013,-0.01688064891226074
13910,1724558931256869025,-0.9830610752105712,0.2049774378538131,0.141096830368042,-0.0027132977265864,0.0971837267279625,-0.4818310737609863,0.8708540797233582,0.0,0.0,0.0,0.30374785528501924,-0.1352210222558446,-0.2181523845712694,1.928682799,0.141096830368042,0.12240952143952538,0.22261247962451722,-0.15711675547334208,-3.0816337530857068,-8.841487844961078,4.421424979373585,-0.099939568015827,0.16743217765712723,-1.0191177101179876,-0.02299458485359196,0.00552041465486397,-0.012070941723761663,-82.02390086633187,3.683630871852735,-58.53209849364286,-0.017796319878763726,-0.009486208938192252
