seq,stamp,px,py,pz,ox,oy,oz,ow,lx,ly,lz,ax,ay,az
1502,1724811840378766269,-1.742431879043579,0.020732149481773376,0.17786790430545807,-0.08324731886386871,0.13169315457344055,0.26213452219963074,-0.9523718953132629,0.0,0.0,0.0,0.0,0.0,0.0
1504,1724811840385323716,-1.7421144247055054,0.02078946679830551,0.1779496818780899,-0.08354965597391129,0.13183946907520294,0.2626192569732666,-0.9521917104721069,0.0,0.0,0.0,0.0,0.0,0.0
1506,1724811840394167787,-1.7417361736297607,0.020823050290346146,0.17807531356811523,-0.08385057747364044,0.13124552369117737,0.26333531737327576,-0.9520494937896729,0.0,0.0,0.0,0.0,0.0,0.0
1508,1724811840403555855,-1.7414172887802124,0.020919859409332275,0.17817170917987823,-0.08433939516544342,0.13123974204063416,0.26393458247184753,-0.9518411159515381,0.0,0.0,0.0,0.0,0.0,0.0
1510,1724811840414784453,-1.741096019744873,0.02093781903386116,0.17821575701236725,-0.08472190052270889,0.131261944770813,0.26419955492019653,-0.9517305493354797,0.0,0.0,0.0,0.0,0.0,0.0
1512,1724811840424202983,-1.740757703781128,0.020891712978482246,0.17817237973213196,-0.08506119251251221,0.13180585205554962,0.26430052518844604,-0.9515970945358276,0.0,0.0,0.0,0.0,0.0,0.0
1514,1724811840433650041,-1.740474820137024,0.02085987851023674,0.1782141923904419,-0.08517313748598099,0.13149556517601013,0.2647140324115753,-0.9515150189399719,0.0,0.0,0.0,0.0,0.0,0.0
1516,1724811840443908910,-1.7402019500732422,0.020841088145971298,0.17834484577178955,-0.08524933457374573,0.13103638589382172,0.265195369720459,-0.9514375329017639,0.0,0.0,0.0,0.0,0.0,0.0
1518,1724811840482221398,-1.7399258613586426,0.020576564595103264,0.17791800200939178,-0.08416755497455597,0.13324081897735596,0.26442021131515503,-0.9514435529708862,0.0,0.0,0.0,0.0,0.0,0.0
1520,1724811840482745794,-1.739643931388855,0.020555179566144943,0.17801672220230103,-0.0840832069516182,0.13300415873527527,0.2649131715297699,-0.9513469338417053,0.0,0.0,0.0,0.0,0.0,0.0
1522,1724811840483419474,-1.7393609285354614,0.020568866282701492,0.17815859615802765,-0.08432047069072723,0.132874995470047,0.26546791195869446,-0.9511893391609192,0.0,0.0,0.0,0.0,0.0,0.0
1524,1724811840487406327,-1.7390950918197632,0.020555807277560234,0.1781560480594635,-0.08419270813465118,0.13298949599266052,0.26573216915130615,-0.9511108994483948,0.0,0.0,0.0,0.0,0.0,0.0
1526,1724811840498768874,-1.7388195991516113,0.020517248660326004,0.17817357182502747,-0.08424539864063263,0.13309843838214874,0.26580485701560974,-0.9510706067085266,0.0,0.0,0.0,0.0,0.0,0.0
1528,1724811840508147585,-1.7385977506637573,0.020574968308210373,0.17823970317840576,-0.08387148380279541,0.13278719782829285,0.2663476765155792,-0.9509953260421753,0.0,0.0,0.0,0.0,0.0,0.0
1530,1724811840513424297,-1.7383474111557007,0.020609620958566666,0.17831988632678986,-0.08406716585159302,0.13264571130275726,0.26668253540992737,-0.9509038925170898,0.0,0.0,0.0,0.0,0.0,0.0
1532,1724811840525923492,-1.7381187677383423,0.020650731399655342,0.1783653050661087,-0.08370038866996765,0.13265983760356903,0.2668953239917755,-0.9508746862411499,0.0,0.0,0.0,0.0,0.0,0.0
1534,1724811840533492317,-1.7378696203231812,0.020685961470007896,0.17841477692127228,-0.08419499546289444,0.1327410340309143,0.2672678530216217,-0.9507150053977966,0.0,0.0,0.0,0.0,0.0,0.0
1536,1724811840543530130,-1.7376054525375366,0.020754413679242134,0.1785239428281784,-0.08508744090795517,0.13276588916778564,0.26747143268585205,-0.9505748152732849,0.0,0.0,0.0,0.0,0.0,0.0
1538,1724811840556414147,-1.7373418807983398,0.020798295736312866,0.17861557006835938,-0.08517364412546158,0.1326269954442978,0.2680228054523468,-0.9504311680793762,0.0,0.0,0.0,0.0,0.0,0.0
1540,1724811840563767966,-1.7370703220367432,0.020820140838623047,0.1786242127418518,-0.08593244105577469,0.13298963010311127,0.268107533454895,-0.9502882957458496,0.0,0.0,0.0,0.0,0.0,0.0
1542,1724811840573546916,-1.736765742301941,0.02083999291062355,0.17865046858787537,-0.08625701814889908,0.1331205666065216,0.26838740706443787,-0.9501614570617676,0.0,0.0,0.0,0.0,0.0,0.0
1544,1724811840584616051,-1.736484408378601,0.020874667912721634,0.17883266508579254,-0.08678634464740753,0.13324646651744843,0.26855358481407166,-0.9500486850738525,0.0,0.0,0.0,0.0,0.0,0.0
1546,1724811840596151214,-1.736145257949829,0.020892273634672165,0.17887668311595917,-0.08740314841270447,0.1335829794406891,0.26892584562301636,-0.9498395919799805,0.0,0.0,0.0,0.0,0.0,0.0
1548,1724811840604416101,-1.7357650995254517,0.020717166364192963,0.17883214354515076,-0.0866088718175888,0.13421885669231415,0.26824504137039185,-0.9500152468681335,0.0,0.0,0.0,0.0,0.0,0.0
1550,1724811840614086521,-1.7354286909103394,0.020777035504579544,0.17901721596717834,-0.08680513501167297,0.13385887444019318,0.2689730226993561,-0.9498421549797058,0.0,0.0,0.0,0.0,0.0,0.0
1552,1724811840624825169,-1.7350841760635376,0.020842960104346275,0.17914381623268127,-0.08678820729255676,0.13376468420028687,0.2695060670375824,-0.9497058987617493,0.0,0.0,0.0,0.0,0.0,0.0
1554,1724811840639582190,-1.7347756624221802,0.020745236426591873,0.17916077375411987,-0.08617619425058365,0.13438749313354492,0.26933008432388306,-0.9497236609458923,0.0,0.0,0.0,0.0,0.0,0.0
1556,1724811840643911432,-1.7344390153884888,0.020787786692380905,0.17919166386127472,-0.0860251635313034,0.1344282031059265,0.2695383131504059,-0.9496725797653198,0.0,0.0,0.0,0.0,0.0,0.0
1558,1724811840656453004,-1.7341166734695435,0.021321026608347893,0.17969410121440887,-0.08740849792957306,0.13203628361225128,0.2729624807834625,-0.9489033818244934,0.0,0.0,0.0,0.0,0.0,0.0
1560,1724811840663479656,-1.7337579727172852,0.021392954513430595,0.17978818714618683,-0.08741328120231628,0.1319098025560379,0.27338141202926636,-0.9487999677658081,0.0,0.0,0.0,0.0,0.0,0.0
1562,1724811840674208500,-1.7333985567092896,0.021480754017829895,0.1799769550561905,-0.08694124966859818,0.13149918615818024,0.2741667628288269,-0.948673665523529,0.0,0.0,0.0,0.0,0.0,0.0
1564,1724811840684012901,-1.7330286502838135,0.021545875817537308,0.18001368641853333,-0.08630019426345825,0.1315729022026062,0.2745056748390198,-0.9486240148544312,0.0,0.0,0.0,0.0,0.0,0.0
1566,1724811840694466525,-1.7326539754867554,0.02157672867178917,0.18003875017166138,-0.08592644333839417,0.13200020790100098,0.2746342122554779,-0.9485613703727722,0.0,0.0,0.0,0.0,0.0,0.0
1568,1724811840708130402,-1.7322794198989868,0.021622247993946075,0.1800926923751831,-0.086026631295681,0.13234943151474,0.2748526632785797,-0.9484403729438782,0.0,0.0,0.0,0.0,0.0,0.0
1570,1724811840713801391,-1.731905221939087,0.02165387198328972,0.18028169870376587,-0.08734345436096191,0.13218876719474792,0.2755753695964813,-0.9481326937675476,0.0,0.0,0.0,0.0,0.0,0.0
1572,1724811840725433096,-1.7315064668655396,0.021912377327680588,0.18062303960323334,-0.08784257620573044,0.13017594814300537,0.2770402729511261,-0.947938084602356,0.0,0.0,0.0,0.0,0.0,0.0
1574,1724811840734122968,-1.7311493158340454,0.02218087948858738,0.18088380992412567,-0.08817435055971146,0.1283813863992691,0.27829882502555847,-0.9477834105491638,0.0,0.0,0.0,0.0,0.0,0.0
1576,1724811840744404054,-1.7307112216949463,0.022162536159157753,0.1805504411458969,-0.08757511526346207,0.1298254132270813,0.2780287563800812,-0.9477214217185974,0.0,0.0,0.0,0.0,0.0,0.0
1578,1724811840758085891,-1.7302772998809814,0.022187240421772003,0.18030542135238647,-0.08742685616016388,0.12986254692077637,0.27810677886009216,-0.9477072358131409,0.0,0.0,0.0,0.0,0.0,0.0
1580,1724811840764534746,-1.7297354936599731,0.021958427503705025,0.17982539534568787,-0.08727791160345078,0.13029362261295319,0.27700743079185486,-0.9479836821556091,0.0,0.0,0.0,0.0,0.0,0.0
1582,1724811840774881250,-1.7292680740356445,0.021897748112678528,0.1795903444290161,-0.08650700002908707,0.12976787984371185,0.2769196033477783,-0.9481521248817444,0.0,0.0,0.0,0.0,0.0,0.0
1584,1724811840783566325,-1.7287864685058594,0.02184559777379036,0.17946916818618774,-0.08722098916769028,0.12909960746765137,0.2770735025405884,-0.9481329321861267,0.0,0.0,0.0,0.0,0.0,0.0
1586,1724811840793547503,-1.7282814979553223,0.02178955078125,0.17937082052230835,-0.08843390643596649,0.12884917855262756,0.27742746472358704,-0.9479511380195618,0.0,0.0,0.0,0.0,0.0,0.0
1588,1724811840806664691,-1.727719783782959,0.021503731608390808,0.17907823622226715,-0.08911492675542831,0.1296335756778717,0.27632471919059753,-0.9481025338172913,0.0,0.0,0.0,0.0,0.0,0.0
1590,1724811840813222352,-1.7271642684936523,0.021406464278697968,0.17887741327285767,-0.0894738957285881,0.1295555680990219,0.2764973044395447,-0.9480289816856384,0.0,0.0,0.0,0.0,0.0,0.0
1592,1724811840824971295,-1.726582407951355,0.02150493487715721,0.178910493850708,-0.09025871008634567,0.12854987382888794,0.2780132293701172,-0.9476481080055237,0.0,0.0,0.0,0.0,0.0,0.0
1594,1724811840834923102,-1.7261021137237549,0.021494857966899872,0.179035022854805,-0.08880068361759186,0.12725213170051575,0.27870938181877136,-0.9477565884590149,0.0,0.0,0.0,0.0,0.0,0.0
1596,1724811840843377947,-1.7255767583847046,0.021441714838147163,0.17923621833324432,-0.08842270821332932,0.12655287981033325,0.27935364842414856,-0.947695791721344,0.0,0.0,0.0,0.0,0.0,0.0
1598,1724811840854349710,-1.7251380681991577,0.02126813307404518,0.17922177910804749,-0.08818589895963669,0.12695808708667755,0.2792494297027588,-0.9476944208145142,0.0,0.0,0.0,0.0,0.0,0.0
1600,1724811840869029875,-1.7246567010879517,0.021158866584300995,0.17951081693172455,-0.08859802037477493,0.12675721943378448,0.27944254875183105,-0.9476258754730225,0.0,0.0,0.0,0.0,0.0,0.0
1602,1724811840874706067,-1.7241098880767822,0.02093241550028324,0.17966219782829285,-0.09027713537216187,0.12698213756084442,0.2798496186733246,-0.9473171830177307,0.0,0.0,0.0,0.0,0.0,0.0
1604,1724811840884249772,-1.7235641479492188,0.02112855389714241,0.1801002323627472,-0.09065596759319305,0.1247665286064148,0.28269997239112854,-0.9467288851737976,0.0,0.0,0.0,0.0,0.0,0.0
1606,1724811840895933507,-1.7229951620101929,0.020788569003343582,0.17998850345611572,-0.09139250963926315,0.12491953372955322,0.28310754895210266,-0.9465160369873047,0.0,0.0,0.0,0.0,0.0,0.0
1608,1724811840907411752,-1.7224301099777222,0.02051149494946003,0.17974498867988586,-0.09084274619817734,0.12591634690761566,0.2832268178462982,-0.9464012384414673,0.0,0.0,0.0,0.0,0.0,0.0
1610,1724811840915359961,-1.7218559980392456,0.020134471356868744,0.17962954938411713,-0.09093379229307175,0.12614880502223969,0.28362494707107544,-0.9462422728538513,0.0,0.0,0.0,0.0,0.0,0.0
1612,1724811840924437645,-1.7212666273117065,0.01990070939064026,0.17978467047214508,-0.09204377233982086,0.12540429830551147,0.2850615680217743,-0.9458020925521851,0.0,0.0,0.0,0.0,0.0,0.0
1614,1724811840934395405,-1.7206510305404663,0.019653137773275375,0.1797506958246231,-0.09148398786783218,0.12470248341560364,0.28549882769584656,-0.9458173513412476,0.0,0.0,0.0,0.0,0.0,0.0
1616,1724811840944836258,-1.719971776008606,0.019508803263306618,0.1799013912677765,-0.09348849207162857,0.12326264381408691,0.28694888949394226,-0.945371150970459,0.0,0.0,0.0,0.0,0.0,0.0
1618,1724811840958134416,-1.719348669052124,0.01933445781469345,0.1801120638847351,-0.09303541481494904,0.12158793210983276,0.28778716921806335,-0.9453779458999634,0.0,0.0,0.0,0.0,0.0,0.0
1620,1724811840965158208,-1.7187284231185913,0.01860227808356285,0.1794123649597168,-0.09085218608379364,0.12458951771259308,0.28491345047950745,-0.9460696578025818,0.0,0.0,0.0,0.0,0.0,0.0
1622,1724811840975102274,-1.7178722620010376,0.018509209156036377,0.1794753223657608,-0.09098741412162781,0.12366104125976562,0.28548964858055115,-0.9460047483444214,0.0,0.0,0.0,0.0,0.0,0.0
1624,1724811840984008150,-1.717077612876892,0.018464794382452965,0.17942798137664795,-0.09187379479408264,0.12289603054523468,0.28633272647857666,-0.9457639455795288,0.0,0.0,0.0,0.0,0.0,0.0
1626,1724811840993685650,-1.716373324394226,0.018435858190059662,0.17944736778736115,-0.09197846055030823,0.12204031646251678,0.28704890608787537,-0.9456474781036377,0.0,0.0,0.0,0.0,0.0,0.0
1628,1724811841009877083,-1.7156927585601807,0.018404975533485413,0.1793258786201477,-0.0919514000415802,0.1219276636838913,0.2871168553829193,-0.945643961429596,0.0,0.0,0.0,0.0,0.0,0.0
1630,1724811841013339376,-1.7149542570114136,0.018673758953809738,0.17946675419807434,-0.09219130128622055,0.12010708451271057,0.28908663988113403,-0.9452534317970276,0.0,0.0,0.0,0.0,0.0,0.0
1632,1724811841024826373,-1.7143155336380005,0.018800828605890274,0.1795687973499298,-0.09309478104114532,0.12001904845237732,0.2895641326904297,-0.9450299143791199,0.0,0.0,0.0,0.0,0.0,0.0
1634,1724811841033901366,-1.7135752439498901,0.01891649328172207,0.17948180437088013,-0.0943218544125557,0.11971719563007355,0.29034218192100525,-0.9447076916694641,0.0,0.0,0.0,0.0,0.0,0.0
1636,1724811841043754661,-1.7127708196640015,0.01949160359799862,0.17976003885269165,-0.09478142112493515,0.11810161173343658,0.29341769218444824,-0.9439145922660828,0.0,0.0,0.0,0.0,0.0,0.0
1638,1724811841055375162,-1.7121360301971436,0.019765596836805344,0.17968514561653137,-0.09425614029169083,0.11822826415300369,0.2940898537635803,-0.943742036819458,0.0,0.0,0.0,0.0,0.0,0.0
1640,1724811841063339657,-1.71141517162323,0.019990194588899612,0.17945951223373413,-0.09416969865560532,0.11840733885765076,0.2946471571922302,-0.9435544013977051,0.0,0.0,0.0,0.0,0.0,0.0
1642,1724811841172742198,-1.7106109857559204,0.02041628584265709,0.17963220179080963,-0.09388834983110428,0.11690907180309296,0.2960689663887024,-0.9433242082595825,0.0,0.0,0.0,0.0,0.0,0.0
1644,1724811841173275817,-1.7100187540054321,0.020606795325875282,0.17950375378131866,-0.09402192384004593,0.11722410470247269,0.2962435781955719,-0.9432169198989868,0.0,0.0,0.0,0.0,0.0,0.0
1646,1724811841173798588,-1.7093555927276611,0.020906420424580574,0.1794588714838028,-0.0933385044336319,0.11684832721948624,0.2973136603832245,-0.9429947733879089,0.0,0.0,0.0,0.0,0.0,0.0
1648,1724811841174521877,-1.708655834197998,0.021410780027508736,0.17984962463378906,-0.0929650068283081,0.11364475637674332,0.2998921573162079,-0.9426065683364868,0.0,0.0,0.0,0.0,0.0,0.0
1650,1724811841174766897,-1.7079226970672607,0.021599609404802322,0.18001431226730347,-0.09300380945205688,0.113507479429245,0.2998223304748535,-0.9426414966583252,0.0,0.0,0.0,0.0,0.0,0.0
1652,1724811841175011137,-1.707129716873169,0.021869147196412086,0.18003979325294495,-0.09276637434959412,0.11323214322328568,0.2997507154941559,-0.9427207112312317,0.0,0.0,0.0,0.0,0.0,0.0
1654,1724811841175288439,-1.7064135074615479,0.022297821938991547,0.18026255071163177,-0.0920461043715477,0.11180173605680466,0.3012673854827881,-0.942478597164154,0.0,0.0,0.0,0.0,0.0,0.0
1656,1724811841175681350,-1.7058303356170654,0.022473663091659546,0.18027597665786743,-0.09314414858818054,0.11246370524168015,0.30141064524650574,-0.94224613904953,0.0,0.0,0.0,0.0,0.0,0.0
1658,1724811841175957390,-1.705080509185791,0.023100174963474274,0.18068571388721466,-0.09381955116987228,0.11059325933456421,0.3048136830329895,-0.9413052797317505,0.0,0.0,0.0,0.0,0.0,0.0
1660,1724811841176257233,-1.704282283782959,0.023494206368923187,0.18098686635494232,-0.09395725280046463,0.10865094512701035,0.3066178262233734,-0.9409317374229431,0.0,0.0,0.0,0.0,0.0,0.0
1662,1724811841176636039,-1.703539490699768,0.023775778710842133,0.18115387856960297,-0.09385105967521667,0.10766489803791046,0.3075577914714813,-0.9407488703727722,0.0,0.0,0.0,0.0,0.0,0.0
1664,1724811841183594795,-1.703033447265625,0.023785248398780823,0.18114787340164185,-0.09321027994155884,0.10848753899335861,0.3061555325984955,-0.9411754012107849,0.0,0.0,0.0,0.0,0.0,0.0
1666,1724811841193903011,-1.7024027109146118,0.023874349892139435,0.18110255897045135,-0.09439635276794434,0.10848838835954666,0.3057229220867157,-0.9411976933479309,0.0,0.0,0.0,0.0,0.0,0.0
1668,1724811841204960446,-1.7016805410385132,0.024197589606046677,0.1811450570821762,-0.09381647408008575,0.10811890661716461,0.3063184320926666,-0.9411045908927917,0.0,0.0,0.0,0.0,0.0,0.0
1670,1724811841213678022,-1.7010146379470825,0.024517955258488655,0.18123313784599304,-0.0931447222828865,0.10712410509586334,0.3068169355392456,-0.9411227107048035,0.0,0.0,0.0,0.0,0.0,0.0
1672,1724811841225303073,-1.7003813982009888,0.024758610874414444,0.18126511573791504,-0.0923926830291748,0.10622359812259674,0.3066995441913605,-0.9413371086120605,0.0,0.0,0.0,0.0,0.0,0.0
1674,1724811841233805812,-1.699851155281067,0.024838466197252274,0.1812000870704651,-0.09213884174823761,0.10557158291339874,0.3067871332168579,-0.9414068460464478,0.0,0.0,0.0,0.0,0.0,0.0
1676,1724811841243940385,-1.6993006467819214,0.025057855993509293,0.1811288744211197,-0.09169255942106247,0.10456773638725281,0.3068377375602722,-0.9415459036827087,0.0,0.0,0.0,0.0,0.0,0.0
1678,1724811841257583661,-1.6987226009368896,0.025367509573698044,0.18121954798698425,-0.09038794040679932,0.10282690078020096,0.3074626326560974,-0.9416599273681641,0.0,0.0,0.0,0.0,0.0,0.0
1680,1724811841263824126,-1.6980663537979126,0.02582312375307083,0.18152371048927307,-0.08996019512414932,0.10035581141710281,0.30920982360839844,-0.9413954019546509,0.0,0.0,0.0,0.0,0.0,0.0
1682,1724811841274617652,-1.6974070072174072,0.026099607348442078,0.18163812160491943,-0.09032746404409409,0.09925910085439682,0.3097159266471863,-0.9413100481033325,0.0,0.0,0.0,0.0,0.0,0.0
1684,1724811841285736210,-1.696628451347351,0.026356488466262817,0.18167048692703247,-0.09073574841022491,0.09811455011367798,0.3101162910461426,-0.94125896692276,0.0,0.0,0.0,0.0,0.0,0.0
1686,1724811841294039812,-1.6959640979766846,0.026704654097557068,0.18187031149864197,-0.09001892805099487,0.09658176451921463,0.3109939694404602,-0.9411967396736145,0.0,0.0,0.0,0.0,0.0,0.0
1688,1724811841304462317,-1.6953389644622803,0.026978768408298492,0.18190176784992218,-0.08936582505702972,0.09591428190469742,0.3112197816371918,-0.941252589225769,0.0,0.0,0.0,0.0,0.0,0.0
1690,1724811841314152395,-1.6947518587112427,0.027156028896570206,0.1819571852684021,-0.08879866451025009,0.0951019898056984,0.3114813566207886,-0.9413022398948669,0.0,0.0,0.0,0.0,0.0,0.0
1692,1724811841324013668,-1.694106101989746,0.027353616431355476,0.18199819326400757,-0.0882125049829483,0.09398144483566284,0.3116047978401184,-0.9414290189743042,0.0,0.0,0.0,0.0,0.0,0.0
1694,1724811841335121263,-1.6936229467391968,0.027396634221076965,0.18182992935180664,-0.0883760079741478,0.09458671510219574,0.30985918641090393,-0.9419291019439697,0.0,0.0,0.0,0.0,0.0,0.0
1696,1724811841343737176,-1.6930161714553833,0.0277620330452919,0.182022362947464,-0.08856000006198883,0.0930718183517456,0.3110218048095703,-0.9416795372962952,0.0,0.0,0.0,0.0,0.0,0.0
1698,1724811841354062077,-1.692461609840393,0.02806616947054863,0.1823483407497406,-0.08918813616037369,0.09068121761083603,0.3116573691368103,-0.9416433572769165,0.0,0.0,0.0,0.0,0.0,0.0
1700,1724811841364422555,-1.6920194625854492,0.027991939336061478,0.18209761381149292,-0.08793887495994568,0.09169511497020721,0.3099483251571655,-0.9422265291213989,0.0,0.0,0.0,0.0,0.0,0.0
1702,1724811841386751122,-1.691293716430664,0.028368912637233734,0.18236730992794037,-0.08784026652574539,0.08976581692695618,0.31124216318130493,-0.9419950246810913,0.0,0.0,0.0,0.0,0.0,0.0
1704,1724811841387013090,-1.69071626663208,0.02862696722149849,0.1824134737253189,-0.08783373236656189,0.08926605433225632,0.311347097158432,-0.942008376121521,0.0,0.0,0.0,0.0,0.0,0.0
1706,1724811841393725018,-1.690271019935608,0.02883472666144371,0.1824837327003479,-0.08736570179462433,0.08875595778226852,0.3113483786582947,-0.9420996904373169,0.0,0.0,0.0,0.0,0.0,0.0
1708,1724811841407832935,-1.6898536682128906,0.029075276106595993,0.1825793981552124,-0.08689693361520767,0.08854680508375168,0.3111037015914917,-0.9422435760498047,0.0,0.0,0.0,0.0,0.0,0.0
1710,1724811841413446928,-1.6894055604934692,0.029224693775177002,0.1826305389404297,-0.08713650703430176,0.0884457677602768,0.3108908236026764,-0.9423011541366577,0.0,0.0,0.0,0.0,0.0,0.0
1712,1724811841424292139,-1.6888688802719116,0.029606914147734642,0.1828850656747818,-0.08752401173114777,0.08706974983215332,0.3124625086784363,-0.9418735504150391,0.0,0.0,0.0,0.0,0.0,0.0
1714,1724811841433673941,-1.6883913278579712,0.029808711260557175,0.182992622256279,-0.08750246465206146,0.08639422059059143,0.312950998544693,-0.9417755007743835,0.0,0.0,0.0,0.0,0.0,0.0
1716,1724811841443777923,-1.6879115104675293,0.02999463677406311,0.18307489156723022,-0.0876636877655983,0.08624228090047836,0.31347328424453735,-0.9416007399559021,0.0,0.0,0.0,0.0,0.0,0.0
1718,1724811841453967998,-1.687617540359497,0.030036330223083496,0.18299126625061035,-0.08576163649559021,0.08616197109222412,0.3132176697254181,-0.941868245601654,0.0,0.0,0.0,0.0,0.0,0.0
1720,1724811841463595355,-1.6872116327285767,0.030201170593500137,0.18297557532787323,-0.08539727330207825,0.08665869385004044,0.31386712193489075,-0.9416395425796509,0.0,0.0,0.0,0.0,0.0,0.0
1722,1724811841495348382,-1.6867942810058594,0.030374392867088318,0.18307755887508392,-0.08482753485441208,0.08601716160774231,0.3150310814380646,-0.941361129283905,0.0,0.0,0.0,0.0,0.0,0.0
1724,1724811841495608322,-1.6863517761230469,0.030542470514774323,0.18318334221839905,-0.08491580933332443,0.085880808532238,0.31560665369033813,-0.9411727786064148,0.0,0.0,0.0,0.0,0.0,0.0
1726,1724811841495913607,-1.6858627796173096,0.030737172812223434,0.18327105045318604,-0.08484586328268051,0.08560804277658463,0.3162302076816559,-0.9409946799278259,0.0,0.0,0.0,0.0,0.0,0.0
1728,1724811841504428872,-1.6853607892990112,0.030954880639910698,0.18341326713562012,-0.08552543073892593,0.08519993722438812,0.3168873190879822,-0.9407491087913513,0.0,0.0,0.0,0.0,0.0,0.0
1730,1724811841513610918,-1.6847202777862549,0.031149614602327347,0.18360289931297302,-0.08578936010599136,0.08326860517263412,0.31796398758888245,-0.940534770488739,0.0,0.0,0.0,0.0,0.0,0.0
1732,1724811841524749062,-1.6841700077056885,0.03136790543794632,0.18385383486747742,-0.08591895550489426,0.08226397633552551,0.3188312351703644,-0.940317690372467,0.0,0.0,0.0,0.0,0.0,0.0
1734,1724811841535162153,-1.683598518371582,0.03160582482814789,0.18397483229637146,-0.0864427387714386,0.08178501576185226,0.3195107877254486,-0.9400807023048401,0.0,0.0,0.0,0.0,0.0,0.0
1736,1724811841546963108,-1.68302583694458,0.0317627489566803,0.1838797777891159,-0.08653978258371353,0.0814070999622345,0.3201017379760742,-0.9399035573005676,0.0,0.0,0.0,0.0,0.0,0.0
1738,1724811841555155789,-1.6826099157333374,0.031704217195510864,0.183553546667099,-0.08738639205694199,0.082827627658844,0.318666934967041,-0.9401885867118835,0.0,0.0,0.0,0.0,0.0,0.0
1740,1724811841567688387,-1.6820533275604248,0.03193478286266327,0.18348149955272675,-0.08788810670375824,0.08297235518693924,0.31866374611854553,-0.9401301145553589,0.0,0.0,0.0,0.0,0.0,0.0
1742,1724811841576180870,-1.6812214851379395,0.03275680914521217,0.18399332463741302,-0.0884568840265274,0.0800735279917717,0.3227624297142029,-0.9389292001724243,0.0,0.0,0.0,0.0,0.0,0.0
1744,1724811841595864463,-1.6805717945098877,0.033108435571193695,0.1841013878583908,-0.08852430433034897,0.07897816598415375,0.3236561715602875,-0.9387079477310181,0.0,0.0,0.0,0.0,0.0,0.0
1746,1724811841596205990,-1.6800647974014282,0.0333758108317852,0.18415771424770355,-0.08729452639818192,0.07819730788469315,0.32437747716903687,-0.9386395215988159,0.0,0.0,0.0,0.0,0.0,0.0
1748,1724811841605758425,-1.6795955896377563,0.033297955989837646,0.18372532725334167,-0.08501250296831131,0.07896079123020172,0.32329970598220825,-0.9391567707061768,0.0,0.0,0.0,0.0,0.0,0.0
1750,1724811841614263928,-1.6787301301956177,0.033797234296798706,0.18387958407402039,-0.08559463173151016,0.07770279794931412,0.32426804304122925,-0.9388749599456787,0.0,0.0,0.0,0.0,0.0,0.0
1752,1724811841623483864,-1.6781013011932373,0.03416191041469574,0.18401895463466644,-0.08454675227403641,0.0765918493270874,0.32489901781082153,-0.9388430118560791,0.0,0.0,0.0,0.0,0.0,0.0
1754,1724811841634635921,-1.6775070428848267,0.034163303673267365,0.1837698370218277,-0.08383390307426453,0.07680171728134155,0.32398495078086853,-0.9392056465148926,0.0,0.0,0.0,0.0,0.0,0.0
1756,1724811841643673552,-1.6767728328704834,0.034405339509248734,0.18382683396339417,-0.08429262787103653,0.07573295384645462,0.32441940903663635,-0.9391013383865356,0.0,0.0,0.0,0.0,0.0,0.0
1758,1724811841653848403,-1.6760854721069336,0.034759849309921265,0.18395906686782837,-0.08388718962669373,0.07474854588508606,0.3249800205230713,-0.9390226602554321,0.0,0.0,0.0,0.0,0.0,0.0
1760,1724811841664280050,-1.6750423908233643,0.0355510488152504,0.18451598286628723,-0.0847044438123703,0.07116470485925674,0.3294311761856079,-0.9376757740974426,0.0,0.0,0.0,0.0,0.0,0.0
1762,1724811841673949965,-1.6742331981658936,0.035820286720991135,0.1846213936805725,-0.08330140262842178,0.06921826303005219,0.3308861255645752,-0.9374347925186157,0.0,0.0,0.0,0.0,0.0,0.0
1764,1724811841685058137,-1.673569679260254,0.035778678953647614,0.18449990451335907,-0.08241172134876251,0.06921464204788208,0.3301560878753662,-0.9377710819244385,0.0,0.0,0.0,0.0,0.0,0.0
1766,1724811841695543992,-1.6727501153945923,0.03580274432897568,0.18433378636837006,-0.08228340744972229,0.06862860172986984,0.3297811448574066,-0.9379574060440063,0.0,0.0,0.0,0.0,0.0,0.0
1768,1724811841708365594,-1.671990156173706,0.03585346043109894,0.18428200483322144,-0.0810030847787857,0.06774599850177765,0.3294087052345276,-0.9382637739181519,0.0,0.0,0.0,0.0,0.0,0.0
1770,1724811841713580970,-1.6710102558135986,0.03619201108813286,0.18456198275089264,-0.08009938895702362,0.06555429100990295,0.32980653643608093,-0.9383573532104492,0.0,0.0,0.0,0.0,0.0,0.0
1772,1724811841725009749,-1.6699036359786987,0.03650130331516266,0.18479754030704498,-0.07963930070400238,0.06408821046352386,0.3314319849014282,-0.9379249215126038,0.0,0.0,0.0,0.0,0.0,0.0
1774,1724811841733952946,-1.668987512588501,0.03680744022130966,0.185151606798172,-0.07796938717365265,0.06163031980395317,0.33242902159690857,-0.9378770589828491,0.0,0.0,0.0,0.0,0.0,0.0
1776,1724811841743697064,-1.6681227684020996,0.036927103996276855,0.18536405265331268,-0.07803048938512802,0.06078823283314705,0.33282411098480225,-0.9377868175506592,0.0,0.0,0.0,0.0,0.0,0.0
1778,1724811841759365281,-1.6673275232315063,0.03696221485733986,0.18560190498828888,-0.07911106199026108,0.06077125295996666,0.3326173424720764,-0.9377707839012146,0.0,0.0,0.0,0.0,0.0,0.0
1780,1724811841763368189,-1.6667988300323486,0.03692426532506943,0.18596118688583374,-0.07968191057443619,0.06078402325510979,0.3327316343784332,-0.9376810193061829,0.0,0.0,0.0,0.0,0.0,0.0
1782,1724811841793936840,-1.666184663772583,0.03700194135308266,0.18636125326156616,-0.07986683398485184,0.06008736044168472,0.33393943309783936,-0.9372808337211609,0.0,0.0,0.0,0.0,0.0,0.0
1784,1724811841795003510,-1.6657377481460571,0.03674054518342018,0.18662108480930328,-0.08027657866477966,0.06023196876049042,0.3337332606315613,-0.9373099207878113,0.0,0.0,0.0,0.0,0.0,0.0
1786,1724811841795281892,-1.6653385162353516,0.03649430721998215,0.18700440227985382,-0.08107641339302063,0.06020642817020416,0.33418214321136475,-0.937082827091217,0.0,0.0,0.0,0.0,0.0,0.0
1788,1724811841805881405,-1.6651123762130737,0.03625234216451645,0.1874925047159195,-0.08054231107234955,0.05976947396993637,0.33488699793815613,-0.9369052052497864,0.0,0.0,0.0,0.0,0.0,0.0
1790,1724811841813766629,-1.664751410484314,0.03590856492519379,0.18807701766490936,-0.08073177188634872,0.05858783423900604,0.3363400399684906,-0.9364429116249084,0.0,0.0,0.0,0.0,0.0,0.0
1792,1724811841824246236,-1.6645317077636719,0.035459965467453,0.18853597342967987,-0.08089219033718109,0.058156613260507584,0.3371242880821228,-0.9361739158630371,0.0,0.0,0.0,0.0,0.0,0.0
1794,1724811841834487104,-1.66434645652771,0.0349760465323925,0.18881046772003174,-0.08003498613834381,0.058307647705078125,0.33728909492492676,-0.9361787438392639,0.0,0.0,0.0,0.0,0.0,0.0
1796,1724811841843590367,-1.6641857624053955,0.03456699475646019,0.18930213153362274,-0.07875877618789673,0.056160639971494675,0.3382096290588379,-0.9360862374305725,0.0,0.0,0.0,0.0,0.0,0.0
1798,1724811841853765363,-1.663991093635559,0.034038249403238297,0.18946900963783264,-0.07837733626365662,0.05643286183476448,0.33814069628715515,-0.936126708984375,0.0,0.0,0.0,0.0,0.0,0.0
1800,1724811841863819031,-1.6637517213821411,0.03357652947306633,0.18971683084964752,-0.07797973603010178,0.05650313198566437,0.33813542127609253,-0.9361576437950134,0.0,0.0,0.0,0.0,0.0,0.0
1802,1724811841874261188,-1.6635979413986206,0.032890647649765015,0.1896086484193802,-0.0768723264336586,0.05815904587507248,0.3364252746105194,-0.9367637038230896,0.0,0.0,0.0,0.0,0.0,0.0
1804,1724811841884249491,-1.6633148193359375,0.03237459063529968,0.1896243542432785,-0.07684984803199768,0.0592958889901638,0.3365341126918793,-0.9366551637649536,0.0,0.0,0.0,0.0,0.0,0.0
1806,1724811841913496267,-1.6630514860153198,0.03179977089166641,0.18979114294052124,-0.07707749307155609,0.05955315753817558,0.33577147126197815,-0.9368938207626343,0.0,0.0,0.0,0.0,0.0,0.0
1808,1724811841913873184,-1.6627014875411987,0.03137657791376114,0.19000673294067383,-0.07736296206712723,0.060037653893232346,0.336673378944397,-0.9365155696868896,0.0,0.0,0.0,0.0,0.0,0.0
1810,1724811841914420992,-1.6623749732971191,0.030948946252465248,0.19026485085487366,-0.07668333500623703,0.05998345464468002,0.3371856212615967,-0.93639075756073,0.0,0.0,0.0,0.0,0.0,0.0
1812,1724811841924180378,-1.6621673107147217,0.030339866876602173,0.1903551071882248,-0.07549717277288437,0.06059989333152771,0.33632892370224,-0.9367554187774658,0.0,0.0,0.0,0.0,0.0,0.0
1814,1724811841933914871,-1.6618354320526123,0.029823537915945053,0.1905093491077423,-0.07595325261354446,0.0610232800245285,0.33634740114212036,-0.9366844892501831,0.0,0.0,0.0,0.0,0.0,0.0
1816,1724811841944265748,-1.6615744829177856,0.02925492264330387,0.19076764583587646,-0.07489682734012604,0.060204364359378815,0.3360653221607208,-0.9369237422943115,0.0,0.0,0.0,0.0,0.0,0.0
1818,1724811841957813683,-1.6612377166748047,0.0287035945802927,0.1909601241350174,-0.07471824437379837,0.060409385710954666,0.3358377516269684,-0.937006413936615,0.0,0.0,0.0,0.0,0.0,0.0
1820,1724811841963509001,-1.660959005355835,0.02820710837841034,0.1911775767803192,-0.07411529868841171,0.060713283717632294,0.3354455530643463,-0.9371750354766846,0.0,0.0,0.0,0.0,0.0,0.0
1822,1724811841974144341,-1.6606199741363525,0.027689486742019653,0.19131234288215637,-0.07368416339159012,0.061341989785432816,0.3350810706615448,-0.9372985363006592,0.0,0.0,0.0,0.0,0.0,0.0
1824,1724811841984193495,-1.660317301750183,0.02723679505288601,0.19141460955142975,-0.07128292322158813,0.06216266751289368,0.3351835012435913,-0.9373935461044312,0.0,0.0,0.0,0.0,0.0,0.0
1826,1724811841993884233,-1.659927248954773,0.026758605614304543,0.1915334314107895,-0.07043787091970444,0.0626429095864296,0.33516567945480347,-0.9374317526817322,0.0,0.0,0.0,0.0,0.0,0.0
1828,1724811842004437709,-1.6595827341079712,0.026141876354813576,0.19158276915550232,-0.07033534348011017,0.06300722062587738,0.33549004793167114,-0.9372990131378174,0.0,0.0,0.0,0.0,0.0,0.0
1830,1724811842014691200,-1.6592187881469727,0.0257096029818058,0.19174888730049133,-0.06983834505081177,0.06305957585573196,0.3356947898864746,-0.9372593760490417,0.0,0.0,0.0,0.0,0.0,0.0
1832,1724811842025103558,-1.6588423252105713,0.02526974491775036,0.19194072484970093,-0.06908802688121796,0.06299052387475967,0.3357410728931427,-0.9373030066490173,0.0,0.0,0.0,0.0,0.0,0.0
1834,1724811842034334664,-1.6585086584091187,0.024962449446320534,0.1922304481267929,-0.06896313279867172,0.06296447664499283,0.33542439341545105,-0.9374273419380188,0.0,0.0,0.0,0.0,0.0,0.0
1836,1724811842043635764,-1.6580861806869507,0.02442994900047779,0.19230854511260986,-0.06869079172611237,0.06310737878084183,0.33555689454078674,-0.9373903870582581,0.0,0.0,0.0,0.0,0.0,0.0
1838,1724811842055461065,-1.6577173471450806,0.02382083609700203,0.1924397051334381,-0.06854677945375443,0.06345313787460327,0.33382442593574524,-0.9379959106445312,0.0,0.0,0.0,0.0,0.0,0.0
1840,1724811842064082691,-1.6573234796524048,0.02333134226500988,0.19239673018455505,-0.06879184395074844,0.06516166776418686,0.3332166373729706,-0.9380769729614258,0.0,0.0,0.0,0.0,0.0,0.0
1842,1724811842074291418,-1.6569077968597412,0.02281586267054081,0.19262658059597015,-0.06891294568777084,0.06472624838352203,0.33270224928855896,-0.9382807612419128,0.0,0.0,0.0,0.0,0.0,0.0
1844,1724811842085211413,-1.6564449071884155,0.022375429049134254,0.1928020715713501,-0.06858635693788528,0.0651688352227211,0.3322872221469879,-0.9384210705757141,0.0,0.0,0.0,0.0,0.0,0.0
1846,1724811842099488460,-1.6558177471160889,0.022033974528312683,0.19293951988220215,-0.06873644143342972,0.06607912480831146,0.3327382504940033,-0.9381866455078125,0.0,0.0,0.0,0.0,0.0,0.0
1848,1724811842103853387,-1.6552037000656128,0.021887576207518578,0.19339820742607117,-0.06853176653385162,0.06448128074407578,0.3344522714614868,-0.9377032518386841,0.0,0.0,0.0,0.0,0.0,0.0
1850,1724811842114275748,-1.6547778844833374,0.021188419312238693,0.19338977336883545,-0.06796761602163315,0.06605809181928635,0.331767201423645,-0.9385879039764404,0.0,0.0,0.0,0.0,0.0,0.0
1852,1724811842124755961,-1.6541733741760254,0.0206597950309515,0.19350987672805786,-0.06857523322105408,0.067153200507164,0.3302166163921356,-0.9390127062797546,0.0,0.0,0.0,0.0,0.0,0.0
1854,1724811842134557645,-1.6535992622375488,0.020284028723835945,0.19375267624855042,-0.06813889741897583,0.06786023080348969,0.32908427715301514,-0.9393911361694336,0.0,0.0,0.0,0.0,0.0,0.0
1856,1724811842143381784,-1.652925729751587,0.019912296906113625,0.19400663673877716,-0.06821461766958237,0.0682661160826683,0.3289705216884613,-0.93939608335495,0.0,0.0,0.0,0.0,0.0,0.0
1858,1724811842153754839,-1.6522456407546997,0.01957128383219242,0.1942719966173172,-0.06716892868280411,0.06850145012140274,0.3284079432487488,-0.9396510720252991,0.0,0.0,0.0,0.0,0.0,0.0
1860,1724811842163557522,-1.6513136625289917,0.019451607018709183,0.19473937153816223,-0.06695535033941269,0.06791825592517853,0.328424870967865,-0.9397027492523193,0.0,0.0,0.0,0.0,0.0,0.0
1862,1724811842174081994,-1.6504896879196167,0.019158439710736275,0.19500258564949036,-0.06665416806936264,0.06806205213069916,0.3280499577522278,-0.9398446679115295,0.0,0.0,0.0,0.0,0.0,0.0
1864,1724811842184533847,-1.6495908498764038,0.018881477415561676,0.19509154558181763,-0.06647653877735138,0.06938179582357407,0.327915221452713,-0.9398078322410583,0.0,0.0,0.0,0.0,0.0,0.0
1866,1724811842195768872,-1.6487609148025513,0.018525121733546257,0.19514596462249756,-0.06628213822841644,0.07017754763364792,0.32667702436447144,-0.9401935935020447,0.0,0.0,0.0,0.0,0.0,0.0
1868,1724811842204275431,-1.6478826999664307,0.01815781742334366,0.19500410556793213,-0.06571431457996368,0.07148465514183044,0.325833797454834,-0.9404275417327881,0.0,0.0,0.0,0.0,0.0,0.0
1870,1724811842220687799,-1.6470332145690918,0.017590226605534554,0.19450727105140686,-0.06431262940168381,0.07386460155248642,0.3241938650608063,-0.9409071803092957,0.0,0.0,0.0,0.0,0.0,0.0
1872,1724811842226325821,-1.6461483240127563,0.01705322414636612,0.19420944154262543,-0.06431689113378525,0.07500339299440384,0.32317423820495605,-0.9411674737930298,0.0,0.0,0.0,0.0,0.0,0.0
1874,1724811842234130046,-1.6451126337051392,0.016710665076971054,0.19395560026168823,-0.06277848780155182,0.07689322531223297,0.32287436723709106,-0.9412218928337097,0.0,0.0,0.0,0.0,0.0,0.0
1876,1724811842244076985,-1.6440021991729736,0.016389109194278717,0.1941312700510025,-0.05999094992876053,0.0756964311003685,0.3235798478126526,-0.9412583112716675,0.0,0.0,0.0,0.0,0.0,0.0
1878,1724811842258395849,-1.6430073976516724,0.015858681872487068,0.1940097212791443,-0.05799966678023338,0.07619970291852951,0.32320165634155273,-0.9414725303649902,0.0,0.0,0.0,0.0,0.0,0.0
1880,1724811842263921266,-1.6419360637664795,0.01536418218165636,0.1936623901128769,-0.056024808436632156,0.07846131175756454,0.3216206133365631,-0.9419476389884949,0.0,0.0,0.0,0.0,0.0,0.0
1882,1724811842274844236,-1.6406811475753784,0.014814387075603008,0.19367046654224396,-0.05706470087170601,0.0792347714304924,0.32185739278793335,-0.941739559173584,0.0,0.0,0.0,0.0,0.0,0.0
1884,1724811842284577118,-1.6395331621170044,0.01428238395601511,0.19353455305099487,-0.055003225803375244,0.0792207345366478,0.32164135575294495,-0.9419370889663696,0.0,0.0,0.0,0.0,0.0,0.0
1886,1724811842294612788,-1.6385077238082886,0.013533137738704681,0.19305481016635895,-0.05455506592988968,0.0815558210015297,0.3195614516735077,-0.9424718022346497,0.0,0.0,0.0,0.0,0.0,0.0
1888,1724811842326575554,-1.637286901473999,0.012998739257454872,0.19258791208267212,-0.053414683789014816,0.08428966253995895,0.3185855448246002,-0.942626953125,0.0,0.0,0.0,0.0,0.0,0.0
1890,1724811842326865589,-1.6361287832260132,0.012397950515151024,0.1924697309732437,-0.05318320542573929,0.08490496128797531,0.3178732991218567,-0.942825198173523,0.0,0.0,0.0,0.0,0.0,0.0
1892,1724811842327104743,-1.6348140239715576,0.011923316866159439,0.19219033420085907,-0.05142997205257416,0.08607248961925507,0.3164769411087036,-0.9432861804962158,0.0,0.0,0.0,0.0,0.0,0.0
1894,1724811842335020345,-1.633357048034668,0.011558380909264088,0.19197729229927063,-0.05022941902279854,0.08650251477956772,0.3165914714336395,-0.94327312707901,0.0,0.0,0.0,0.0,0.0,0.0
1896,1724811842343897650,-1.6320300102233887,0.01107901893556118,0.19172990322113037,-0.04879016801714897,0.08764868974685669,0.3165561556816101,-0.9432547688484192,0.0,0.0,0.0,0.0,0.0,0.0
1898,1724811842354054398,-1.6309252977371216,0.010081601329147816,0.19084247946739197,-0.047126997262239456,0.09192156046628952,0.31404542922973633,-0.9437716603279114,0.0,0.0,0.0,0.0,0.0,0.0
1900,1724811842363514657,-1.6293305158615112,0.009546753950417042,0.1906052827835083,-0.046901002526283264,0.09203244745731354,0.31368350982666016,-0.9438925385475159,0.0,0.0,0.0,0.0,0.0,0.0
1902,1724811842374438195,-1.6278958320617676,0.00898608099669218,0.190060093998909,-0.04651497304439545,0.09477593749761581,0.31342071294784546,-0.9437273740768433,0.0,0.0,0.0,0.0,0.0,0.0
1904,1724811842385459817,-1.6264628171920776,0.00831521674990654,0.1896161437034607,-0.045598313212394714,0.09593242406845093,0.31247854232788086,-0.9439677000045776,0.0,0.0,0.0,0.0,0.0,0.0
1906,1724811842393683464,-1.6252235174179077,0.007638254202902317,0.18943852186203003,-0.04190319776535034,0.09592792391777039,0.3119503855705261,-0.9443140029907227,0.0,0.0,0.0,0.0,0.0,0.0
1908,1724811842427065305,-1.623901128768921,0.00661715492606163,0.18869513273239136,-0.04140428826212883,0.09889908134937286,0.3094910681247711,-0.9448387026786804,0.0,0.0,0.0,0.0,0.0,0.0
1910,1724811842427451529,-1.6222755908966064,0.006159970071166754,0.18867529928684235,-0.04187890142202377,0.09862752258777618,0.3106735050678253,-0.9444578886032104,0.0,0.0,0.0,0.0,0.0,0.0
1912,1724811842427872271,-1.6208404302597046,0.0055415332317352295,0.18838290870189667,-0.04044676572084427,0.10010600090026855,0.3093833029270172,-0.9447882771492004,0.0,0.0,0.0,0.0,0.0,0.0
1914,1724811842434243151,-1.6197187900543213,0.004727622494101524,0.18795648217201233,-0.03900552913546562,0.1026153415441513,0.30733680725097656,-0.9452475309371948,0.0,0.0,0.0,0.0,0.0,0.0
1916,1724811842443850912,-1.6182841062545776,0.004069487098604441,0.1875602900981903,-0.03683219477534294,0.10349102318286896,0.30629971623420715,-0.9455757141113281,0.0,0.0,0.0,0.0,0.0,0.0
1918,1724811842453698368,-1.6170172691345215,0.0038337581790983677,0.1871812343597412,-0.03607334569096565,0.10587107390165329,0.3059866428375244,-0.9454428553581238,0.0,0.0,0.0,0.0,0.0,0.0
1920,1724811842463898213,-1.6155831813812256,0.00335478107444942,0.18659912049770355,-0.03497638180851936,0.10693852603435516,0.30463770031929016,-0.9457995295524597,0.0,0.0,0.0,0.0,0.0,0.0
1922,1724811842476071350,-1.6145299673080444,0.002950028982013464,0.18561126291751862,-0.03237973526120186,0.11098974943161011,0.30360254645347595,-0.9457581043243408,0.0,0.0,0.0,0.0,0.0,0.0
1924,1724811842484363820,-1.6133888959884644,0.0025483006611466408,0.18432898819446564,-0.030079128220677376,0.11365388333797455,0.3010905981063843,-0.9463205337524414,0.0,0.0,0.0,0.0,0.0,0.0
1926,1724811842494159735,-1.612291932106018,0.0022722631692886353,0.182444766163826,-0.027243761345744133,0.11875393986701965,0.3002377450466156,-0.9460511207580566,0.0,0.0,0.0,0.0,0.0,0.0
1928,1724811842527173660,-1.6112618446350098,0.002088213339447975,0.18017759919166565,-0.02258901484310627,0.12328798323869705,0.29826977849006653,-0.9462162256240845,0.0,0.0,0.0,0.0,0.0,0.0
1930,1724811842527477283,-1.6106270551681519,0.0017957244999706745,0.17732694745063782,-0.02096787467598915,0.13008175790309906,0.29442718625068665,-0.9465473294258118,0.0,0.0,0.0,0.0,0.0,0.0
1932,1724811842527756564,-1.6096652746200562,0.0018465903121978045,0.17405936121940613,-0.01605638675391674,0.1378849297761917,0.29327893257141113,-0.9458950757980347,0.0,0.0,0.0,0.0,0.0,0.0
1934,1724811842533999592,-1.60897696018219,0.0022898761089891195,0.17087985575199127,-0.013609489426016808,0.1430688053369522,0.29213449358940125,-0.9455175995826721,0.0,0.0,0.0,0.0,0.0,0.0
1936,1724811842543767406,-1.608330249786377,0.0023346368689090014,0.16687454283237457,-0.0071468595415353775,0.15038776397705078,0.289837509393692,-0.9451596736907959,0.0,0.0,0.0,0.0,0.0,0.0
1938,1724811842554401265,-1.6077940464019775,0.0028759806882590055,0.1626918762922287,-0.00428384356200695,0.16160885989665985,0.2890000641345978,-0.9435800313949585,0.0,0.0,0.0,0.0,0.0,0.0
1940,1724811842564432861,-1.6074023246765137,0.003303850768133998,0.15895609557628632,0.0007446440868079662,0.16785229742527008,0.2877659201622009,-0.942876398563385,0.0,0.0,0.0,0.0,0.0,0.0
1942,1724811842574998972,-1.6064916849136353,0.003866620361804962,0.15697216987609863,0.004916764330118895,0.16672277450561523,0.2889140248298645,-0.94271320104599,0.0,0.0,0.0,0.0,0.0,0.0
1944,1724811842584388982,-1.6055035591125488,0.004309183452278376,0.15652450919151306,0.0042226603254675865,0.16432379186153412,0.28992465138435364,-0.9428274035453796,0.0,0.0,0.0,0.0,0.0,0.0
1946,1724811842593763131,-1.6050143241882324,0.004822766873985529,0.15649032592773438,0.006547435186803341,0.16181480884552002,0.28935572504997253,-0.9434227347373962,0.0,0.0,0.0,0.0,0.0,0.0
1948,1724811842604290579,-1.604920506477356,0.0054501136764883995,0.15645207464694977,0.008658614940941334,0.1621178388595581,0.28717559576034546,-0.9440196752548218,0.0,0.0,0.0,0.0,0.0,0.0
1950,1724811842614037313,-1.60477614402771,0.006137758493423462,0.15659770369529724,0.011130052618682384,0.16292572021484375,0.28526461124420166,-0.9444339871406555,0.0,0.0,0.0,0.0,0.0,0.0
1952,1724811842625408275,-1.6047214269638062,0.006700935307890177,0.15676966309547424,0.011713512241840363,0.16397526860237122,0.2832441031932831,-0.9448533058166504,0.0,0.0,0.0,0.0,0.0,0.0
1954,1724811842634307218,-1.6046576499938965,0.007129619363695383,0.15673550963401794,0.012615871615707874,0.16573868691921234,0.2809596359729767,-0.9452160000801086,0.0,0.0,0.0,0.0,0.0,0.0
1956,1724811842647108074,-1.6045247316360474,0.007998861372470856,0.15733279287815094,0.014519907534122467,0.16449448466300964,0.28057733178138733,-0.9455195665359497,0.0,0.0,0.0,0.0,0.0,0.0
1958,1724811842659257550,-1.6041326522827148,0.008551820181310177,0.1571687012910843,0.01423764880746603,0.16595543920993805,0.27796319127082825,-0.9460405111312866,0.0,0.0,0.0,0.0,0.0,0.0
1960,1724811842665286089,-1.6038947105407715,0.009221314452588558,0.15730197727680206,0.014124970883131027,0.16543059051036835,0.2770100235939026,-0.9464136362075806,0.0,0.0,0.0,0.0,0.0,0.0
1962,1724811842674616895,-1.6036404371261597,0.009616454131901264,0.15717393159866333,0.014467611908912659,0.1659129410982132,0.2748786211013794,-0.9469452500343323,0.0,0.0,0.0,0.0,0.0,0.0
1964,1724811842684732181,-1.6035699844360352,0.009615683928132057,0.15691938996315002,0.01654830016195774,0.16672605276107788,0.2708962559700012,-0.9479155540466309,0.0,0.0,0.0,0.0,0.0,0.0
1966,1724811842694491795,-1.6034424304962158,0.010151304304599762,0.1571144461631775,0.01845535635948181,0.16513101756572723,0.27140548825263977,-0.9480139017105103,0.0,0.0,0.0,0.0,0.0,0.0
1968,1724811842735217034,-1.6031274795532227,0.010898454114794731,0.1576763093471527,0.01592838391661644,0.16291594505310059,0.2724917232990265,-0.9481313228607178,0.0,0.0,0.0,0.0,0.0,0.0
1970,1724811842735624784,-1.602989673614502,0.011164616793394089,0.15787166357040405,0.016126761212944984,0.16179433465003967,0.2720527946949005,-0.9484459757804871,0.0,0.0,0.0,0.0,0.0,0.0
1972,1724811842735942553,-1.6028629541397095,0.011203330010175705,0.15783925354480743,0.016587145626544952,0.16170726716518402,0.2709808349609375,-0.9487597346305847,0.0,0.0,0.0,0.0,0.0,0.0
1974,1724811842736194872,-1.6027830839157104,0.011099398136138916,0.15779262781143188,0.017320549115538597,0.16152150928974152,0.26967620849609375,-0.9491499066352844,0.0,0.0,0.0,0.0,0.0,0.0
1976,1724811842744819062,-1.6027671098709106,0.010963991284370422,0.15778778493404388,0.017890512943267822,0.1607828438282013,0.26886889338493347,-0.9494937062263489,0.0,0.0,0.0,0.0,0.0,0.0
1978,1724811842753855050,-1.602779507637024,0.010723129846155643,0.15776300430297852,0.018785441294312477,0.16029854118824005,0.26815974712371826,-0.9497588276863098,0.0,0.0,0.0,0.0,0.0,0.0
1980,1724811842763702739,-1.602868914604187,0.010250941850244999,0.15762126445770264,0.01986657828092575,0.1609354019165039,0.2661118805408478,-0.9502050876617432,0.0,0.0,0.0,0.0,0.0,0.0
1982,1724811842774544299,-1.602919340133667,0.009891017340123653,0.15757769346237183,0.020645953714847565,0.16069760918617249,0.26517537236213684,-0.9504904747009277,0.0,0.0,0.0,0.0,0.0,0.0
1984,1724811842784589546,-1.6030458211898804,0.00937935896217823,0.15728969871997833,0.021463952958583832,0.1613515168428421,0.2635650336742401,-0.9508094191551208,0.0,0.0,0.0,0.0,0.0,0.0
1986,1724811842793720705,-1.6031110286712646,0.009011794812977314,0.1572207659482956,0.022065700963139534,0.16101211309432983,0.26284897327423096,-0.9510514140129089,0.0,0.0,0.0,0.0,0.0,0.0
1988,1724811842804225682,-1.603129267692566,0.008679723367094994,0.15715621411800385,0.022129425778985023,0.16068607568740845,0.26210805773735046,-0.9513095021247864,0.0,0.0,0.0,0.0,0.0,0.0
1990,1724811842813650050,-1.603145718574524,0.008311480283737183,0.15710261464118958,0.02214444987475872,0.16013796627521515,0.2617092430591583,-0.9515112638473511,0.0,0.0,0.0,0.0,0.0,0.0
1992,1724811842824158270,-1.6031967401504517,0.008001281879842281,0.15709595382213593,0.022405318915843964,0.159406840801239,0.2613900899887085,-0.9517156481742859,0.0,0.0,0.0,0.0,0.0,0.0
1994,1724811842834344767,-1.6032094955444336,0.007870947010815144,0.15732234716415405,0.023038392886519432,0.1572660356760025,0.2621079683303833,-0.9518592357635498,0.0,0.0,0.0,0.0,0.0,0.0
1996,1724811842843700168,-1.603293538093567,0.007444612216204405,0.1572781801223755,0.02455759234726429,0.15684647858142853,0.2619072496891022,-0.9519457817077637,0.0,0.0,0.0,0.0,0.0,0.0
1998,1724811842854539135,-1.6034317016601562,0.007255928590893745,0.15748795866966248,0.02477303333580494,0.1550067663192749,0.2626841068267822,-0.952027440071106,0.0,0.0,0.0,0.0,0.0,0.0
2000,1724811842865412255,-1.60355544090271,0.006806979421526194,0.15744030475616455,0.025702763348817825,0.15529033541679382,0.26202717423439026,-0.9521376490592957,0.0,0.0,0.0,0.0,0.0,0.0
2002,1724811842874424124,-1.6036834716796875,0.006085308268666267,0.15712852776050568,0.027118969708681107,0.1570522040128708,0.2595117390155792,-0.9524983167648315,0.0,0.0,0.0,0.0,0.0,0.0
2004,1724811842887279921,-1.6039036512374878,0.0053223781287670135,0.15671685338020325,0.0286615788936615,0.1587529182434082,0.2569643259048462,-0.9528617262840271,0.0,0.0,0.0,0.0,0.0,0.0
2006,1724811842894843005,-1.6040352582931519,0.005270525347441435,0.1570953130722046,0.028718052431941032,0.15677884221076965,0.25768759846687317,-0.9529915452003479,0.0,0.0,0.0,0.0,0.0,0.0
2008,1724811842904124196,-1.6041584014892578,0.004942809231579304,0.15709295868873596,0.02944399230182171,0.15633442997932434,0.2571817636489868,-0.9531790018081665,0.0,0.0,0.0,0.0,0.0,0.0
2010,1724811842914744396,-1.6042160987854004,0.0045897820964455605,0.15711410343647003,0.03025292418897152,0.15581899881362915,0.256153404712677,-0.9535149335861206,0.0,0.0,0.0,0.0,0.0,0.0
2012,1724811842924473424,-1.60426664352417,0.004251411650329828,0.1571096032857895,0.031203098595142365,0.1554434448480606,0.2552228271961212,-0.9537950158119202,0.0,0.0,0.0,0.0,0.0,0.0
2014,1724811842934522150,-1.6042646169662476,0.003960497211664915,0.15713775157928467,0.03228035569190979,0.1550702005624771,0.25429272651672363,-0.9540684223175049,0.0,0.0,0.0,0.0,0.0,0.0
2016,1724811842943835223,-1.604140281677246,0.003875267691910267,0.1573331654071808,0.032734621316194534,0.15370403230190277,0.2542364001274109,-0.9542890191078186,0.0,0.0,0.0,0.0,0.0,0.0
2018,1724811842953729260,-1.6040291786193848,0.0036887212190777063,0.15738260746002197,0.03357396647334099,0.15347078442573547,0.2535344660282135,-0.9544840455055237,0.0,0.0,0.0,0.0,0.0,0.0
2020,1724811842963651618,-1.6039061546325684,0.0034714960493147373,0.1573195457458496,0.034855496138334274,0.1536046266555786,0.25230565667152405,-0.9547421932220459,0.0,0.0,0.0,0.0,0.0,0.0
2022,1724811842975134583,-1.6037856340408325,0.0033248490653932095,0.15732905268669128,0.03554379940032959,0.1533617377281189,0.25117695331573486,-0.955053448677063,0.0,0.0,0.0,0.0,0.0,0.0
2024,1724811842984059763,-1.6035966873168945,0.0030518253333866596,0.157108873128891,0.036124251782894135,0.15422619879245758,0.24970611929893494,-0.9552780985832214,0.0,0.0,0.0,0.0,0.0,0.0
2026,1724811842998031851,-1.6034871339797974,0.002896278165280819,0.15711228549480438,0.03717241808772087,0.15420149266719818,0.24848997592926025,-0.9555588960647583,0.0,0.0,0.0,0.0,0.0,0.0
2028,1724811843034995613,-1.6033610105514526,0.0027125170454382896,0.15711930394172668,0.03781675174832344,0.15429973602294922,0.24732711911201477,-0.9558194279670715,0.0,0.0,0.0,0.0,0.0,0.0
2030,1724811843035330295,-1.6032270193099976,0.0025326316244900227,0.15712754428386688,0.03873833641409874,0.15412501990795135,0.2461569905281067,-0.9561127424240112,0.0,0.0,0.0,0.0,0.0,0.0
2032,1724811843035685864,-1.603098750114441,0.0023269113153219223,0.1571064293384552,0.03966938704252243,0.15415002405643463,0.24488437175750732,-0.9563972353935242,0.0,0.0,0.0,0.0,0.0,0.0
2034,1724811843036099701,-1.6029170751571655,0.002151602879166603,0.15715448558330536,0.03992443531751633,0.15415911376476288,0.24384833872318268,-0.9566499590873718,0.0,0.0,0.0,0.0,0.0,0.0
2036,1724811843044074251,-1.6027343273162842,0.0019471063278615475,0.1571199744939804,0.040773291140794754,0.15459035336971283,0.24253150820732117,-0.956879198551178,0.0,0.0,0.0,0.0,0.0,0.0
2038,1724811843055796016,-1.602545976638794,0.0018211724236607552,0.1572633534669876,0.041640788316726685,0.154074564576149,0.24167755246162415,-0.9571411609649658,0.0,0.0,0.0,0.0,0.0,0.0
2040,1724811843063620659,-1.6023815870285034,0.001675417646765709,0.15732596814632416,0.04258450120687485,0.15391620993614197,0.24093669652938843,-0.9573118686676025,0.0,0.0,0.0,0.0,0.0,0.0
2042,1724811843077576616,-1.6022088527679443,0.0016290787607431412,0.15763457119464874,0.042733948677778244,0.1530085951089859,0.2403486967086792,-0.9575983881950378,0.0,0.0,0.0,0.0,0.0,0.0
2044,1724811843084720244,-1.601962685585022,0.0013443664647638798,0.1574528068304062,0.044048771262168884,0.15382020175457,0.23909910023212433,-0.9577215909957886,0.0,0.0,0.0,0.0,0.0,0.0
2046,1724811843094023573,-1.601776123046875,0.0013347319327294827,0.157716765999794,0.044829268008470535,0.1529708206653595,0.23847468197345734,-0.9579771161079407,0.0,0.0,0.0,0.0,0.0,0.0
2048,1724811843104504888,-1.6015077829360962,0.0010797041468322277,0.15761518478393555,0.04565153270959854,0.15340937674045563,0.23745690286159515,-0.9581210017204285,0.0,0.0,0.0,0.0,0.0,0.0
2050,1724811843171778021,-1.601326584815979,0.0010532476007938385,0.15789540112018585,0.04595904424786568,0.15244244039058685,0.23692429065704346,-0.9583923816680908,0.0,0.0,0.0,0.0,0.0,0.0
2052,1724811843172043670,-1.6010618209838867,0.00033652642741799355,0.15744151175022125,0.04778645560145378,0.15546345710754395,0.23309318721294403,-0.9587571024894714,0.0,0.0,0.0,0.0,0.0,0.0
2054,1724811843172381098,-1.6007225513458252,0.0001514386385679245,0.15751492977142334,0.04846568778157234,0.15558192133903503,0.23185282945632935,-0.9590044617652893,0.0,0.0,0.0,0.0,0.0,0.0
2056,1724811843172904209,-1.600407361984253,-0.00012440234422683716,0.1575600504875183,0.048681292682886124,0.15589192509651184,0.230671688914299,-0.959227979183197,0.0,0.0,0.0,0.0,0.0,0.0
2058,1724811843173159871,-1.6001031398773193,-0.00029605813324451447,0.15766632556915283,0.049366455525159836,0.15581661462783813,0.23004257678985596,-0.9593563675880432,0.0,0.0,0.0,0.0,0.0,0.0
2060,1724811843173587188,-1.5997403860092163,-0.0005668927915394306,0.15776792168617249,0.0492633618414402,0.15616701543331146,0.2289671152830124,-0.9595618844032288,0.0,0.0,0.0,0.0,0.0,0.0
2062,1724811843174619501,-1.5993552207946777,-0.0007835309952497482,0.157858744263649,0.04984961077570915,0.15643326938152313,0.22798560559749603,-0.9597219228744507,0.0,0.0,0.0,0.0,0.0,0.0
2064,1724811843183990568,-1.5990447998046875,-0.001061988528817892,0.1578710675239563,0.05070597678422928,0.15696851909160614,0.22670510411262512,-0.9598930478096008,0.0,0.0,0.0,0.0,0.0,0.0
2066,1724811843193935223,-1.598716378211975,-0.0016178698278963566,0.15771602094173431,0.051631126552820206,0.15841835737228394,0.22476939857006073,-0.9600607752799988,0.0,0.0,0.0,0.0,0.0,0.0
2068,1724811843204567829,-1.5983463525772095,-0.0019307616166770458,0.15774036943912506,0.0525934211909771,0.1591140776872635,0.22330302000045776,-0.960235595703125,0.0,0.0,0.0,0.0,0.0,0.0
2070,1724811843213941631,-1.5978920459747314,-0.002047021873295307,0.1578647494316101,0.05276330187916756,0.15882332623004913,0.22315476834774017,-0.9603089690208435,0.0,0.0,0.0,0.0,0.0,0.0
2072,1724811843226033751,-1.5975149869918823,-0.00191060034558177,0.15826942026615143,0.053250256925821304,0.1573641449213028,0.2238067090511322,-0.9603705406188965,0.0,0.0,0.0,0.0,0.0,0.0
2074,1724811843234403358,-1.5970591306686401,-0.002363512758165598,0.1582222580909729,0.05421740189194679,0.15909931063652039,0.2214675098657608,-0.9605727791786194,0.0,0.0,0.0,0.0,0.0,0.0
2076,1724811843245154553,-1.596703052520752,-0.0028216703794896603,0.15813709795475006,0.05539993941783905,0.16030874848365784,0.2188626527786255,-0.9609012007713318,0.0,0.0,0.0,0.0,0.0,0.0
2078,1724811843257277059,-1.5962821245193481,-0.003026322927325964,0.15824273228645325,0.055436257272958755,0.16057921946048737,0.21773311495780945,-0.9611105918884277,0.0,0.0,0.0,0.0,0.0,0.0
2080,1724811843263687796,-1.595940113067627,-0.003174080979079008,0.1582927703857422,0.056397609412670135,0.1612822264432907,0.2164880335330963,-0.9612181186676025,0.0,0.0,0.0,0.0,0.0,0.0
2082,1724811843274926722,-1.5955884456634521,-0.003369060344994068,0.1583690643310547,0.05697494372725487,0.16174165904521942,0.21513575315475464,-0.9614105224609375,0.0,0.0,0.0,0.0,0.0,0.0
2084,1724811843284470222,-1.5952955484390259,-0.003488892689347267,0.15846021473407745,0.05769867077469826,0.16203142702579498,0.2138729989528656,-0.9616003036499023,0.0,0.0,0.0,0.0,0.0,0.0
2086,1724811843293965433,-1.5949374437332153,-0.003490891307592392,0.1586812138557434,0.057872358709573746,0.16210469603538513,0.2133553922176361,-0.9616925120353699,0.0,0.0,0.0,0.0,0.0,0.0
2088,1724811843304497163,-1.5946170091629028,-0.003570836503058672,0.15882869064807892,0.057755328714847565,0.162644624710083,0.21228203177452087,-0.961845874786377,0.0,0.0,0.0,0.0,0.0,0.0
2090,1724811843313690262,-1.5943267345428467,-0.003601034637540579,0.1590987592935562,0.05785280093550682,0.16253000497817993,0.21175339818000793,-0.9619759321212769,0.0,0.0,0.0,0.0,0.0,0.0
2092,1724811843342717311,-1.5940982103347778,-0.0036389874294400215,0.15925264358520508,0.0584302581846714,0.16288690268993378,0.21092310547828674,-0.9620630741119385,0.0,0.0,0.0,0.0,0.0,0.0
2094,1724811843343369906,-1.5938379764556885,-0.0037068985402584076,0.15936632454395294,0.058409012854099274,0.1634286642074585,0.20977705717086792,-0.9622229933738708,0.0,0.0,0.0,0.0,0.0,0.0
2096,1724811843343875987,-1.5936282873153687,-0.0037418860010802746,0.15946580469608307,0.0592280849814415,0.16435235738754272,0.20853771269321442,-0.962285041809082,0.0,0.0,0.0,0.0,0.0,0.0
2098,1724811843354055776,-1.5933605432510376,-0.003627757541835308,0.15972310304641724,0.05897282063961029,0.16433848440647125,0.20811448991298676,-0.962394654750824,0.0,0.0,0.0,0.0,0.0,0.0
2100,1724811843364745115,-1.593216896057129,-0.0033014491200447083,0.16015861928462982,0.05816465616226196,0.16331420838832855,0.2089405655860901,-0.9624391794204712,0.0,0.0,0.0,0.0,0.0,0.0
2102,1724811843374295440,-1.593025803565979,-0.0033680368214845657,0.16017812490463257,0.05887985602021217,0.16450443863868713,0.2074018269777298,-0.9625257849693298,0.0,0.0,0.0,0.0,0.0,0.0
2104,1724811843384182205,-1.5929208993911743,-0.003462783992290497,0.16019444167613983,0.05944763869047165,0.16585363447666168,0.20571526885032654,-0.9626213908195496,0.0,0.0,0.0,0.0,0.0,0.0
2106,1724811843394371799,-1.5928144454956055,-0.0033834450878202915,0.16041596233844757,0.059522904455661774,0.16634036600589752,0.20461329817771912,-0.9627675414085388,0.0,0.0,0.0,0.0,0.0,0.0
2108,1724811843404778837,-1.5927715301513672,-0.0038228430785238743,0.16023778915405273,0.06052042171359062,0.16934509575366974,0.20059555768966675,-0.9630270004272461,0.0,0.0,0.0,0.0,0.0,0.0
2110,1724811843413542223,-1.592699646949768,-0.003834702540189028,0.16037634015083313,0.06092473864555359,0.17014765739440918,0.1987668126821518,-0.9632392525672913,0.0,0.0,0.0,0.0,0.0,0.0
2112,1724811843424307586,-1.5926309823989868,-0.0036243528593331575,0.16063354909420013,0.06043842062354088,0.1704329252243042,0.19869348406791687,-0.9632344841957092,0.0,0.0,0.0,0.0,0.0,0.0
2114,1724811843433866974,-1.5926040410995483,-0.0037074298597872257,0.1607249677181244,0.0615290030837059,0.17146261036396027,0.19631756842136383,-0.9634698629379272,0.0,0.0,0.0,0.0,0.0,0.0
2116,1724811843443964325,-1.5924772024154663,-0.003397497581318021,0.16086332499980927,0.06083483248949051,0.17140093445777893,0.1970820128917694,-0.9633688926696777,0.0,0.0,0.0,0.0,0.0,0.0
2118,1724811843456540453,-1.5923904180526733,-0.0033561508171260357,0.16097299754619598,0.060402996838092804,0.1722123622894287,0.1951816827058792,-0.9636382460594177,0.0,0.0,0.0,0.0,0.0,0.0
2120,1724811843463764308,-1.5923560857772827,-0.0033408121671527624,0.16112039983272552,0.060451120138168335,0.17290519177913666,0.19373908638954163,-0.96380215883255,0.0,0.0,0.0,0.0,0.0,0.0
2122,1724811843515121470,-1.592336893081665,-0.003827163716778159,0.16098593175411224,0.06187272071838379,0.17515528202056885,0.18915407359600067,-0.9642163515090942,0.0,0.0,0.0,0.0,0.0,0.0
2124,1724811843516014962,-1.5923199653625488,-0.003938368521630764,0.16111420094966888,0.06178658828139305,0.17583517730236053,0.18703323602676392,-0.9645118117332458,0.0,0.0,0.0,0.0,0.0,0.0
2126,1724811843516749084,-1.592307448387146,-0.004041162319481373,0.16124765574932098,0.06244232505559921,0.17663438618183136,0.1851172000169754,-0.9646931290626526,0.0,0.0,0.0,0.0,0.0,0.0
2128,1724811843517559457,-1.5922592878341675,-0.004081904888153076,0.16141925752162933,0.06204682216048241,0.17734088003635406,0.18360067903995514,-0.9648789167404175,0.0,0.0,0.0,0.0,0.0,0.0
2130,1724811843518258935,-1.5922054052352905,-0.004074851982295513,0.16145989298820496,0.062473639845848083,0.17800931632518768,0.18191401660442352,-0.9650476574897766,0.0,0.0,0.0,0.0,0.0,0.0
2132,1724811843524927752,-1.5921244621276855,-0.004003395326435566,0.1615862101316452,0.06209045276045799,0.17853465676307678,0.1804674118757248,-0.9652469754219055,0.0,0.0,0.0,0.0,0.0,0.0
2134,1724811843535510509,-1.5920506715774536,-0.003925874829292297,0.16169609129428864,0.06277791410684586,0.178985133767128,0.179012268781662,-0.9653900265693665,0.0,0.0,0.0,0.0,0.0,0.0
2136,1724811843544391723,-1.591948390007019,-0.0034216120839118958,0.16215267777442932,0.061449289321899414,0.17778544127941132,0.18042537569999695,-0.965434193611145,0.0,0.0,0.0,0.0,0.0,0.0
2138,1724811843555147688,-1.5918470621109009,-0.0035476828925311565,0.16212493181228638,0.06215955317020416,0.17913858592510223,0.17788565158843994,-0.9656098484992981,0.0,0.0,0.0,0.0,0.0,0.0
2140,1724811843564419773,-1.5917786359786987,-0.0031990602146834135,0.16247150301933289,0.06192944571375847,0.17833909392356873,0.17859356105327606,-0.965641975402832,0.0,0.0,0.0,0.0,0.0,0.0
2142,1724811843574935625,-1.5916273593902588,-0.0033576819114387035,0.1623999923467636,0.06271969527006149,0.18024799227714539,0.17629824578762054,-0.9656583070755005,0.0,0.0,0.0,0.0,0.0,0.0
2144,1724811843592246702,-1.5914931297302246,-0.003078730311244726,0.16269490122795105,0.06179557740688324,0.17981232702732086,0.17649289965629578,-0.9657635688781738,0.0,0.0,0.0,0.0,0.0,0.0
2146,1724811843594286281,-1.5914605855941772,-0.0029115781653672457,0.16300691664218903,0.06208940967917442,0.17949087917804718,0.17589548230171204,-0.9659134745597839,0.0,0.0,0.0,0.0,0.0,0.0
2148,1724811843604903129,-1.5913619995117188,-0.0028111066203564405,0.16316574811935425,0.06238282471895218,0.17977862060070038,0.17512963712215424,-0.9659801125526428,0.0,0.0,0.0,0.0,0.0,0.0
2150,1724811843615921115,-1.591213345527649,-0.0027922962326556444,0.16325418651103973,0.0616898387670517,0.1807163506746292,0.17395101487636566,-0.9660626649856567,0.0,0.0,0.0,0.0,0.0,0.0
2152,1724811843625114068,-1.5910900831222534,-0.00274914363399148,0.1633114218711853,0.06230326369404793,0.1817293018102646,0.17285938560962677,-0.966029167175293,0.0,0.0,0.0,0.0,0.0,0.0
2154,1724811843634685172,-1.590985894203186,-0.0026984598953276873,0.16338388621807098,0.06181546300649643,0.18250639736652374,0.1718410849571228,-0.9660956859588623,0.0,0.0,0.0,0.0,0.0,0.0
2156,1724811843645122100,-1.5908887386322021,-0.0026205594185739756,0.16348809003829956,0.06222119554877281,0.18293634057044983,0.1710512489080429,-0.9661285281181335,0.0,0.0,0.0,0.0,0.0,0.0
2158,1724811843654490951,-1.5907138586044312,-0.0026734767016023397,0.16326645016670227,0.062027089297771454,0.1846533864736557,0.1696764975786209,-0.966056764125824,0.0,0.0,0.0,0.0,0.0,0.0
2160,1724811843663997023,-1.590613842010498,-0.0025298092514276505,0.1633801907300949,0.06242845952510834,0.18492482602596283,0.16909705102443695,-0.9660805463790894,0.0,0.0,0.0,0.0,0.0,0.0
2162,1724811843674212879,-1.590586543083191,-0.002386030275374651,0.16354934871196747,0.06243283674120903,0.1852743774652481,0.16873525083065033,-0.9660765528678894,0.0,0.0,0.0,0.0,0.0,0.0
2164,1724811843684252794,-1.5905827283859253,-0.0023010338190943003,0.16356590390205383,0.06259087473154068,0.18593676388263702,0.1679900735616684,-0.9660689830780029,0.0,0.0,0.0,0.0,0.0,0.0
2166,1724811843694716252,-1.5906248092651367,-0.002154790097847581,0.16370470821857452,0.06355171650648117,0.18587075173854828,0.16761231422424316,-0.9660845994949341,0.0,0.0,0.0,0.0,0.0,0.0
2168,1724811843707205318,-1.5906565189361572,-0.002036171732470393,0.1637314110994339,0.06346464157104492,0.18657033145427704,0.16705986857414246,-0.9660511016845703,0.0,0.0,0.0,0.0,0.0,0.0
2170,1724811843713804320,-1.5906916856765747,-0.0019182369578629732,0.1637745350599289,0.06374663859605789,0.18702349066734314,0.1664111167192459,-0.9660568833351135,0.0,0.0,0.0,0.0,0.0,0.0
2172,1724811843725197182,-1.5907459259033203,-0.0017880266532301903,0.1638508290052414,0.06414797902107239,0.18755847215652466,0.165701761841774,-0.966048538684845,0.0,0.0,0.0,0.0,0.0,0.0
2174,1724811843733999122,-1.590864896774292,-0.0017261139582842588,0.16398406028747559,0.0644584596157074,0.1882958710193634,0.16496938467025757,-0.966009795665741,0.0,0.0,0.0,0.0,0.0,0.0
2176,1724811843744467953,-1.5909503698349,-0.0016081954818218946,0.16407383978366852,0.0649060532450676,0.18862956762313843,0.16449256241321564,-0.9659960269927979,0.0,0.0,0.0,0.0,0.0,0.0
2178,1724811843753649484,-1.5910269021987915,-0.001464511500671506,0.16413535177707672,0.06525515764951706,0.1889437884092331,0.16409148275852203,-0.9659793376922607,0.0,0.0,0.0,0.0,0.0,0.0
2180,1724811843763897461,-1.5911208391189575,-0.0012888431083410978,0.16426129639148712,0.06574171781539917,0.18910153210163116,0.1640785038471222,-0.965917706489563,0.0,0.0,0.0,0.0,0.0,0.0
2182,1724811843775172276,-1.5911720991134644,-0.0011701819021254778,0.1643024981021881,0.06564296036958694,0.18937847018241882,0.1635812669992447,-0.9659544229507446,0.0,0.0,0.0,0.0,0.0,0.0
2184,1724811843785034916,-1.5912330150604248,-0.0010484596714377403,0.16431495547294617,0.06662656366825104,0.18969157338142395,0.1631152629852295,-0.9659044742584229,0.0,0.0,0.0,0.0,0.0,0.0
2186,1724811843793810280,-1.5912513732910156,-0.0007969141006469727,0.1644696593284607,0.06622135639190674,0.18948109447956085,0.163167804479599,-0.9659647345542908,0.0,0.0,0.0,0.0,0.0,0.0
2188,1724811843804881820,-1.5912542343139648,-0.0005927262827754021,0.16447271406650543,0.0668257623910904,0.18948839604854584,0.16288955509662628,-0.965968668460846,0.0,0.0,0.0,0.0,0.0,0.0
2190,1724811843813602549,-1.5912339687347412,-0.0003856988623738289,0.1645347625017166,0.06689731031656265,0.1894325613975525,0.16258196532726288,-0.9660264849662781,0.0,0.0,0.0,0.0,0.0,0.0
2192,1724811843824048371,-1.5911974906921387,-0.00016637123189866543,0.16449695825576782,0.06763077527284622,0.18961748480796814,0.1622525006532669,-0.9659945964813232,0.0,0.0,0.0,0.0,0.0,0.0
2194,1724811843834636201,-1.5911544561386108,3.0195340514183044e-05,0.16449181735515594,0.06800327450037003,0.18976113200187683,0.16202950477600098,-0.965977668762207,0.0,0.0,0.0,0.0,0.0,0.0
2196,1724811843843977896,-1.5911085605621338,0.00023306068032979965,0.16454629600048065,0.06806542724370956,0.18961821496486664,0.1616397351026535,-0.9660666584968567,0.0,0.0,0.0,0.0,0.0,0.0
2198,1724811843854695191,-1.591091513633728,0.0004565352573990822,0.1645955741405487,0.06856686621904373,0.18936695158481598,0.16144277155399323,-0.9661133885383606,0.0,0.0,0.0,0.0,0.0,0.0
2200,1724811843864657044,-1.5910429954528809,0.00044415518641471863,0.16446062922477722,0.06924024224281311,0.19038009643554688,0.15989983081817627,-0.9661228060722351,0.0,0.0,0.0,0.0,0.0,0.0
2202,1724811843874103770,-1.5910625457763672,0.00080522196367383,0.16462001204490662,0.06925320625305176,0.18968810141086578,0.16070756316184998,-0.9661239385604858,0.0,0.0,0.0,0.0,0.0,0.0
2204,1724811843884274730,-1.5909801721572876,0.0010616225190460682,0.1646488457918167,0.06919782608747482,0.18956808745861053,0.1609441637992859,-0.9661120772361755,0.0,0.0,0.0,0.0,0.0,0.0
2206,1724811843893994287,-1.5909397602081299,0.001028901431709528,0.16455528140068054,0.06959027051925659,0.19090688228607178,0.15959221124649048,-0.9660446047782898,0.0,0.0,0.0,0.0,0.0,0.0
2208,1724811843906365419,-1.5910077095031738,0.0013509239070117474,0.16476966440677643,0.0698976144194603,0.1901748776435852,0.1604643017053604,-0.966022253036499,0.0,0.0,0.0,0.0,0.0,0.0
2210,1724811843913805227,-1.5909993648529053,0.0013100099749863148,0.16473110020160675,0.07007957994937897,0.1914180964231491,0.15919476747512817,-0.9659735560417175,0.0,0.0,0.0,0.0,0.0,0.0
2212,1724811843925028908,-1.5910842418670654,0.0015222723595798016,0.16479045152664185,0.0698014572262764,0.19155700504779816,0.15964539349079132,-0.9658918976783752,0.0,0.0,0.0,0.0,0.0,0.0
2214,1724811843934309176,-1.5911563634872437,0.0016386769711971283,0.16482298076152802,0.07025748491287231,0.19209562242031097,0.15958651900291443,-0.9657616019248962,0.0,0.0,0.0,0.0,0.0,0.0
2216,1724811843944936620,-1.5911916494369507,0.001575686503201723,0.16476653516292572,0.07099559903144836,0.19337834417819977,0.15807083249092102,-0.9657008051872253,0.0,0.0,0.0,0.0,0.0,0.0
2218,1724811843954381172,-1.5913112163543701,0.0018714703619480133,0.1651349812746048,0.07123540341854095,0.19274403154850006,0.15876001119613647,-0.9656968712806702,0.0,0.0,0.0,0.0,0.0,0.0
2220,1724811843964346903,-1.5913869142532349,0.0023119505494832993,0.1654222011566162,0.07132050395011902,0.19175368547439575,0.16024142503738403,-0.9656431674957275,0.0,0.0,0.0,0.0,0.0,0.0
2222,1724811843975195874,-1.591260313987732,0.002195573877543211,0.16505834460258484,0.07281293720006943,0.1941383332014084,0.15857340395450592,-0.9653305411338806,0.0,0.0,0.0,0.0,0.0,0.0
2224,1724811844003086365,-1.5911612510681152,0.002208749298006296,0.16499102115631104,0.0740606039762497,0.19507987797260284,0.15749414265155792,-0.9652225375175476,0.0,0.0,0.0,0.0,0.0,0.0
2226,1724811844004143178,-1.5910485982894897,0.0024243006482720375,0.1650533527135849,0.07477261871099472,0.19541452825069427,0.15809597074985504,-0.9650014638900757,0.0,0.0,0.0,0.0,0.0,0.0
2228,1724811844004529574,-1.5908472537994385,0.0026856716722249985,0.16512177884578705,0.07537668198347092,0.19575268030166626,0.1584084928035736,-0.9648347496986389,0.0,0.0,0.0,0.0,0.0,0.0
2230,1724811844013584887,-1.5905977487564087,0.0029095900245010853,0.16520914435386658,0.07648888230323792,0.19620205461978912,0.15885883569717407,-0.9645817875862122,0.0,0.0,0.0,0.0,0.0,0.0
2232,1724811844025195406,-1.5902918577194214,0.0031162314116954803,0.1652316451072693,0.07718393206596375,0.1969837099313736,0.15937970578670502,-0.9642812013626099,0.0,0.0,0.0,0.0,0.0,0.0
2234,1724811844034545561,-1.5899155139923096,0.003394767642021179,0.16531851887702942,0.07805753499269485,0.19733810424804688,0.16022223234176636,-0.9639987349510193,0.0,0.0,0.0,0.0,0.0,0.0
2236,1724811844044328161,-1.5894527435302734,0.003646472468972206,0.16541166603565216,0.07786296308040619,0.19797779619693756,0.16077277064323425,-0.9637916088104248,0.0,0.0,0.0,0.0,0.0,0.0
2238,1724811844055041678,-1.5890527963638306,0.004233982414007187,0.16596077382564545,0.07853496074676514,0.19668526947498322,0.16327954828739166,-0.9635803699493408,0.0,0.0,0.0,0.0,0.0,0.0
2240,1724811844064524008,-1.5884969234466553,0.004574953578412533,0.16616955399513245,0.0798659697175026,0.19679316878318787,0.16420751810073853,-0.9632911682128906,0.0,0.0,0.0,0.0,0.0,0.0
2242,1724811844075224755,-1.5879309177398682,0.004847344011068344,0.16624712944030762,0.08030629903078079,0.19787438213825226,0.1650124490261078,-0.9628954529762268,0.0,0.0,0.0,0.0,0.0,0.0
2244,1724811844084422277,-1.587337613105774,0.005194305442273617,0.16642464697360992,0.0811469703912735,0.19827347993850708,0.16603003442287445,-0.9625678062438965,0.0,0.0,0.0,0.0,0.0,0.0
2246,1724811844094451267,-1.586696982383728,0.005290782079100609,0.1664297878742218,0.08069808781147003,0.2001178115606308,0.16551737487316132,-0.9623122215270996,0.0,0.0,0.0,0.0,0.0,0.0
2248,1724811844104872408,-1.5861103534698486,0.0053926389664411545,0.16639810800552368,0.08085345476865768,0.20176221430301666,0.16576409339904785,-0.9619131684303284,0.0,0.0,0.0,0.0,0.0,0.0
2250,1724811844170700351,-1.5855616331100464,0.005694371648132801,0.16661681234836578,0.0801922008395195,0.20238251984119415,0.16671693325042725,-0.9616735577583313,0.0,0.0,0.0,0.0,0.0,0.0
2252,1724811844170949453,-1.5849906206130981,0.005798044614493847,0.166478231549263,0.08074682950973511,0.20413489639759064,0.16706082224845886,-0.961197018623352,0.0,0.0,0.0,0.0,0.0,0.0
2254,1724811844171184412,-1.5844535827636719,0.006147407926619053,0.16677014529705048,0.0811203271150589,0.2046794891357422,0.1681203544139862,-0.9608649015426636,0.0,0.0,0.0,0.0,0.0,0.0
2256,1724811844171418231,-1.583876609802246,0.0064594438299536705,0.16700366139411926,0.08125697076320648,0.20572705566883087,0.16951608657836914,-0.9603843092918396,0.0,0.0,0.0,0.0,0.0,0.0
2258,1724811844171657984,-1.5833154916763306,0.006650586612522602,0.16713032126426697,0.08181045204401016,0.20683708786964417,0.17044256627559662,-0.9599347710609436,0.0,0.0,0.0,0.0,0.0,0.0
2260,1724811844172001431,-1.58274507522583,0.0069784196093678474,0.16742432117462158,0.08284497261047363,0.20729835331439972,0.1714828461408615,-0.959561288356781,0.0,0.0,0.0,0.0,0.0,0.0
2262,1724811844174040706,-1.5823087692260742,0.007528624497354031,0.16785581409931183,0.08286357671022415,0.20658104121685028,0.1744789183139801,-0.9591742157936096,0.0,0.0,0.0,0.0,0.0,0.0
2264,1724811844184350177,-1.5817103385925293,0.007852494716644287,0.1681557297706604,0.08225353807210922,0.20688334107398987,0.17582368850708008,-0.9589158892631531,0.0,0.0,0.0,0.0,0.0,0.0
2266,1724811844194151902,-1.5810480117797852,0.008031867444515228,0.16826480627059937,0.08091524988412857,0.20776720345020294,0.1763467937707901,-0.9587425589561462,0.0,0.0,0.0,0.0,0.0,0.0
2268,1724811844212686873,-1.5805822610855103,0.008126742206513882,0.1684306561946869,0.0822228491306305,0.2086925059556961,0.17746272683143616,-0.9582242965698242,0.0,0.0,0.0,0.0,0.0,0.0
2270,1724811844214135370,-1.5798051357269287,0.008078780956566334,0.16837772727012634,0.08125428855419159,0.2109096646308899,0.17713715136051178,-0.9578816294670105,0.0,0.0,0.0,0.0,0.0,0.0
2272,1724811844265005025,-1.579224944114685,0.008258328773081303,0.1684831827878952,0.08185533434152603,0.21153616905212402,0.17806845903396606,-0.9575195908546448,0.0,0.0,0.0,0.0,0.0,0.0
2274,1724811844265346964,-1.5787358283996582,0.008488884195685387,0.16866058111190796,0.0834273248910904,0.21194638311862946,0.17981646955013275,-0.9569664597511292,0.0,0.0,0.0,0.0,0.0,0.0
2276,1724811844265739891,-1.5780458450317383,0.008428116329014301,0.16860979795455933,0.08375359326601028,0.21359366178512573,0.1791846752166748,-0.9566901326179504,0.0,0.0,0.0,0.0,0.0,0.0
2278,1724811844266097221,-1.5774316787719727,0.008838669396936893,0.16889192163944244,0.0822896957397461,0.21389137208461761,0.18161116540431976,-0.9562930464744568,0.0,0.0,0.0,0.0,0.0,0.0
2280,1724811844266415987,-1.5767349004745483,0.008954738266766071,0.16885913908481598,0.08239350467920303,0.21526427567005157,0.18283842504024506,-0.9557420015335083,0.0,0.0,0.0,0.0,0.0,0.0
2282,1724811844276967817,-1.576130747795105,0.009122543036937714,0.16903536021709442,0.08252730965614319,0.21597030758857727,0.18406018614768982,-0.9553366303443909,0.0,0.0,0.0,0.0,0.0,0.0
2284,1724811844283998605,-1.5754884481430054,0.009601784870028496,0.1695387363433838,0.08237215131521225,0.2156336009502411,0.18659113347530365,-0.9549349546432495,0.0,0.0,0.0,0.0,0.0,0.0
2286,1724811844293752292,-1.5748813152313232,0.009883265011012554,0.16975422203540802,0.08275295048952103,0.2158820778131485,0.18830302357673645,-0.9545097351074219,0.0,0.0,0.0,0.0,0.0,0.0
2288,1724811844307599375,-1.5743054151535034,0.010136180557310581,0.16999313235282898,0.08285514265298843,0.21605320274829865,0.18992705643177032,-0.954140305519104,0.0,0.0,0.0,0.0,0.0,0.0
2290,1724811844313844144,-1.573739767074585,0.01033664308488369,0.17014166712760925,0.08314557373523712,0.21643900871276855,0.19109001755714417,-0.953795313835144,0.0,0.0,0.0,0.0,0.0,0.0
2292,1724811844324490931,-1.5731167793273926,0.01044513750821352,0.17017845809459686,0.08267596364021301,0.2176126390695572,0.191660538315773,-0.9534546136856079,0.0,0.0,0.0,0.0,0.0,0.0
2294,1724811844334518779,-1.572567343711853,0.010369466617703438,0.1700334995985031,0.08291729539632797,0.2196817696094513,0.1913658082485199,-0.9530182480812073,0.0,0.0,0.0,0.0,0.0,0.0
2296,1724811844344305938,-1.5720876455307007,0.010415982455015182,0.17001259326934814,0.08493155986070633,0.22056202590465546,0.19200395047664642,-0.9525090456008911,0.0,0.0,0.0,0.0,0.0,0.0
2298,1724811844354932781,-1.5715503692626953,0.010602516122162342,0.17014870047569275,0.08486872166395187,0.22132200002670288,0.19320757687091827,-0.9520949125289917,0.0,0.0,0.0,0.0,0.0,0.0
2300,1724811844363608798,-1.5710011720657349,0.010852870531380177,0.17045839130878448,0.08347462117671967,0.22173355519771576,0.19381169974803925,-0.9519996047019958,0.0,0.0,0.0,0.0,0.0,0.0
2302,1724811844374011289,-1.5704762935638428,0.011176939122378826,0.17068645358085632,0.08350834995508194,0.22196154296398163,0.19510646164417267,-0.951678991317749,0.0,0.0,0.0,0.0,0.0,0.0
2304,1724811844383908467,-1.5699543952941895,0.011458639986813068,0.17084786295890808,0.08349670469760895,0.2222643941640854,0.19613586366176605,-0.951397716999054,0.0,0.0,0.0,0.0,0.0,0.0
2306,1724811844393697884,-1.5694531202316284,0.011676613241434097,0.17096596956253052,0.08375069499015808,0.22265508770942688,0.1966332644224167,-0.9511813521385193,0.0,0.0,0.0,0.0,0.0,0.0
2308,1724811844404564286,-1.5689399242401123,0.011847089976072311,0.17101982235908508,0.08438265323638916,0.22312071919441223,0.19680748879909515,-0.9509803652763367,0.0,0.0,0.0,0.0,0.0,0.0
2310,1724811844413841627,-1.5684078931808472,0.012354066595435143,0.17138612270355225,0.0841687023639679,0.2221590131521225,0.19852471351623535,-0.9508675336837769,0.0,0.0,0.0,0.0,0.0,0.0
2312,1724811844424064604,-1.567821979522705,0.012543264776468277,0.17141962051391602,0.08425866067409515,0.22271676361560822,0.1985732465982437,-0.950718879699707,0.0,0.0,0.0,0.0,0.0,0.0
2314,1724811844433776095,-1.5673748254776,0.012636207044124603,0.171426460146904,0.0850578248500824,0.22369833290576935,0.19855700433254242,-0.950420618057251,0.0,0.0,0.0,0.0,0.0,0.0
2316,1724811844444352594,-1.5668226480484009,0.012547992169857025,0.17129436135292053,0.08507256209850311,0.22536355257034302,0.19690097868442535,-0.9503704309463501,0.0,0.0,0.0,0.0,0.0,0.0
2318,1724811844454393042,-1.5664490461349487,0.012899273075163364,0.1715833693742752,0.08459256589412689,0.2248060554265976,0.1983739733695984,-0.9502390027046204,0.0,0.0,0.0,0.0,0.0,0.0
2320,1724811844463793151,-1.5661249160766602,0.0131223751232028,0.17165358364582062,0.08523803949356079,0.2240973711013794,0.19898520410060883,-0.9502208828926086,0.0,0.0,0.0,0.0,0.0,0.0
2322,1724811844474206582,-1.5657522678375244,0.013189449906349182,0.17166286706924438,0.08550848066806793,0.22451969981193542,0.19890549778938293,-0.9501135945320129,0.0,0.0,0.0,0.0,0.0,0.0
2324,1724811844483989123,-1.5654278993606567,0.013066510669887066,0.171540305018425,0.08599793910980225,0.2257937788963318,0.19798940420150757,-0.949958860874176,0.0,0.0,0.0,0.0,0.0,0.0
2326,1724811844493882282,-1.565094232559204,0.0130545599386096,0.1714494526386261,0.08605845272541046,0.22634410858154297,0.19749689102172852,-0.949924886226654,0.0,0.0,0.0,0.0,0.0,0.0
2328,1724811844506062290,-1.5649113655090332,0.013202743604779243,0.17165327072143555,0.0862879604101181,0.22604964673519135,0.19797968864440918,-0.949873685836792,0.0,0.0,0.0,0.0,0.0,0.0
2330,1724811844518137006,-1.5646791458129883,0.013240430504083633,0.17168936133384705,0.08587551862001419,0.22639402747154236,0.1980472207069397,-0.9498149752616882,0.0,0.0,0.0,0.0,0.0,0.0
2332,1724811844524700796,-1.5644792318344116,0.013245830312371254,0.17169888317584991,0.08550621569156647,0.2267637997865677,0.19809891283512115,-0.9497493505477905,0.0,0.0,0.0,0.0,0.0,0.0
2334,1724811844533865085,-1.5643088817596436,0.013231432996690273,0.1716385930776596,0.0859421044588089,0.22702954709529877,0.19809545576572418,-0.9496471285820007,0.0,0.0,0.0,0.0,0.0,0.0
2336,1724811844543655150,-1.5641733407974243,0.013257461600005627,0.1716640293598175,0.08603189140558243,0.2271810621023178,0.1982256919145584,-0.9495756030082703,0.0,0.0,0.0,0.0,0.0,0.0
2338,1724811844554967791,-1.5640394687652588,0.013294721022248268,0.1716381162405014,0.08564796298742294,0.22735635936260223,0.19824708998203278,-0.9495639204978943,0.0,0.0,0.0,0.0,0.0,0.0
2340,1724811844563791940,-1.5639305114746094,0.013310927897691727,0.17163747549057007,0.08569024503231049,0.22742119431495667,0.1983613222837448,-0.9495207071304321,0.0,0.0,0.0,0.0,0.0,0.0
2342,1724811844575122614,-1.5637282133102417,0.013163396157324314,0.1714484542608261,0.08583033829927444,0.2280309945344925,0.19722166657447815,-0.9495992660522461,0.0,0.0,0.0,0.0,0.0,0.0
2344,1724811844584982479,-1.5635968446731567,0.013166324235498905,0.1714208722114563,0.08578447997570038,0.2282220423221588,0.19696003198623657,-0.9496117234230042,0.0,0.0,0.0,0.0,0.0,0.0
2346,1724811844596287540,-1.563535213470459,0.013288461603224277,0.17156143486499786,0.08567767590284348,0.22785113751888275,0.19792047142982483,-0.9495108127593994,0.0,0.0,0.0,0.0,0.0,0.0
2348,1724811844603929566,-1.5634138584136963,0.013404813595116138,0.17161071300506592,0.08568573743104935,0.2277955412864685,0.19873058795928955,-0.9493542313575745,0.0,0.0,0.0,0.0,0.0,0.0
2350,1724811844618767924,-1.5632022619247437,0.013194204308092594,0.1714038848876953,0.08609636127948761,0.2284528911113739,0.19759324193000793,-0.9493964910507202,0.0,0.0,0.0,0.0,0.0,0.0
2352,1724811844623620638,-1.5629502534866333,0.013245616108179092,0.17144513130187988,0.08516863733530045,0.22782021760940552,0.19873014092445374,-0.9493948817253113,0.0,0.0,0.0,0.0,0.0,0.0
2354,1724811844634551262,-1.562708854675293,0.013085713610053062,0.17133110761642456,0.08455567061901093,0.2270141988992691,0.19946543872356415,-0.9494885802268982,0.0,0.0,0.0,0.0,0.0,0.0
2356,1724811844645554446,-1.5623730421066284,0.012780239805579185,0.17105555534362793,0.08405768871307373,0.2265845686197281,0.19947730004787445,-0.9496328234672546,0.0,0.0,0.0,0.0,0.0,0.0
2358,1724811844654103961,-1.5621079206466675,0.012628675438463688,0.17098088562488556,0.08340977132320404,0.22597625851631165,0.19983312487602234,-0.9497601985931396,0.0,0.0,0.0,0.0,0.0,0.0
2360,1724811844664367251,-1.5618619918823242,0.012465624138712883,0.1709187924861908,0.08339796215295792,0.22555094957351685,0.20056484639644623,-0.9497079849243164,0.0,0.0,0.0,0.0,0.0,0.0
2362,1724811844680664447,-1.561722755432129,0.012420035898685455,0.17099010944366455,0.08312711864709854,0.2249259650707245,0.20212195813655853,-0.9495497941970825,0.0,0.0,0.0,0.0,0.0,0.0
2364,1724811844683908441,-1.5615572929382324,0.012311362661421299,0.17098107933998108,0.08330802619457245,0.22464248538017273,0.20322386920452118,-0.9493658542633057,0.0,0.0,0.0,0.0,0.0,0.0
2366,1724811844694228529,-1.5613816976547241,0.012199919670820236,0.1709926575422287,0.08344345539808273,0.22432123124599457,0.20420533418655396,-0.9492194056510925,0.0,0.0,0.0,0.0,0.0,0.0
2368,1724811844704043037,-1.5612319707870483,0.012077117338776588,0.17098528146743774,0.08375560492277145,0.2239435315132141,0.20513474941253662,-0.9490806460380554,0.0,0.0,0.0,0.0,0.0,0.0
2370,1724811844713880832,-1.561094045639038,0.011921504512429237,0.17097792029380798,0.08407144248485565,0.22364583611488342,0.2062222957611084,-0.9488872289657593,0.0,0.0,0.0,0.0,0.0,0.0
2372,1724811844725695957,-1.5609791278839111,0.011794080957770348,0.17101281881332397,0.08422020077705383,0.22325067222118378,0.20715399086475372,-0.9487641453742981,0.0,0.0,0.0,0.0,0.0,0.0
2374,1724811844733892417,-1.5608229637145996,0.011714470572769642,0.17105025053024292,0.08413161337375641,0.22307366132736206,0.20781823992729187,-0.9486684203147888,0.0,0.0,0.0,0.0,0.0,0.0
2376,1724811844744294980,-1.5606428384780884,0.01155701745301485,0.1709871143102646,0.08435593545436859,0.22274763882160187,0.2080722451210022,-0.9486693739891052,0.0,0.0,0.0,0.0,0.0,0.0
2378,1724811844754395202,-1.5604325532913208,0.01149944681674242,0.1710137575864792,0.08366098999977112,0.2228880524635315,0.20843493938446045,-0.9486182928085327,0.0,0.0,0.0,0.0,0.0,0.0
2380,1724811844764320880,-1.5602545738220215,0.01139359176158905,0.17105308175086975,0.08361449837684631,0.22307635843753815,0.20846210420131683,-0.9485721588134766,0.0,0.0,0.0,0.0,0.0,0.0
2382,1724811844774981397,-1.5600712299346924,0.011288763955235481,0.17103207111358643,0.08367329090833664,0.2234366536140442,0.20836667716503143,-0.9485031366348267,0.0,0.0,0.0,0.0,0.0,0.0
2384,1724811844784371607,-1.559897541999817,0.011278247460722923,0.17108996212482452,0.08371642231941223,0.22349603474140167,0.2085355520248413,-0.9484481811523438,0.0,0.0,0.0,0.0,0.0,0.0
2386,1724811844793960161,-1.5597333908081055,0.011269777081906796,0.17109271883964539,0.08398276567459106,0.22387437522411346,0.2087676227092743,-0.948284387588501,0.0,0.0,0.0,0.0,0.0,0.0
2388,1724811844804661680,-1.5595835447311401,0.01130331214517355,0.17116524279117584,0.08385179191827774,0.2241680920124054,0.20925764739513397,-0.9481185674667358,0.0,0.0,0.0,0.0,0.0,0.0
2390,1724811844813745607,-1.5594265460968018,0.011297021992504597,0.171200230717659,0.08420439064502716,0.2244967669248581,0.2096075415611267,-0.947932243347168,0.0,0.0,0.0,0.0,0.0,0.0
2392,1724811844825144186,-1.559255838394165,0.011285986751317978,0.17125006020069122,0.08412942290306091,0.22470878064632416,0.2098061442375183,-0.9478447437286377,0.0,0.0,0.0,0.0,0.0,0.0
2394,1724811844834029148,-1.5590648651123047,0.011207502335309982,0.1712811291217804,0.08402324467897415,0.22496935725212097,0.21013107895851135,-0.9477202892303467,0.0,0.0,0.0,0.0,0.0,0.0
2396,1724811844844016792,-1.558915376663208,0.01118443813174963,0.1715337038040161,0.08374541252851486,0.22484834492206573,0.2109939157962799,-0.9475818872451782,0.0,0.0,0.0,0.0,0.0,0.0
2398,1724811844854542885,-1.5586737394332886,0.011048032902181149,0.17154760658740997,0.08420415222644806,0.2253849357366562,0.21133080124855042,-0.9473387598991394,0.0,0.0,0.0,0.0,0.0,0.0
2400,1724811844864137074,-1.5583841800689697,0.010937935672700405,0.17164850234985352,0.08401758968830109,0.22572419047355652,0.21196061372756958,-0.9471338391304016,0.0,0.0,0.0,0.0,0.0,0.0
2402,1724811844874133769,-1.5580518245697021,0.01082983985543251,0.1717233657836914,0.08329560607671738,0.22610756754875183,0.2125799059867859,-0.9469672441482544,0.0,0.0,0.0,0.0,0.0,0.0
2404,1724811844884278988,-1.5576958656311035,0.010682595893740654,0.17184144258499146,0.08303522318601608,0.2263978272676468,0.21323467791080475,-0.9467735886573792,0.0,0.0,0.0,0.0,0.0,0.0
2406,1724811844893819936,-1.5573794841766357,0.010592165403068066,0.17208579182624817,0.08375512063503265,0.2259683907032013,0.21459776163101196,-0.9465047717094421,0.0,0.0,0.0,0.0,0.0,0.0
2408,1724811844904534494,-1.5569473505020142,0.010470861569046974,0.1723536252975464,0.08361748605966568,0.22564543783664703,0.21541208028793335,-0.9464089274406433,0.0,0.0,0.0,0.0,0.0,0.0
2410,1724811844914203187,-1.5563805103302002,0.010558144189417362,0.17282205820083618,0.08263669162988663,0.22420531511306763,0.21673177182674408,-0.9465360641479492,0.0,0.0,0.0,0.0,0.0,0.0
2412,1724811844924716852,-1.5558850765228271,0.010769197717308998,0.17348292469978333,0.0818999856710434,0.22225210070610046,0.21858912706375122,-0.9466336369514465,0.0,0.0,0.0,0.0,0.0,0.0
2414,1724811844934451360,-1.5552531480789185,0.01095808669924736,0.1740545779466629,0.08109915256500244,0.22050762176513672,0.22063963115215302,-0.946634829044342,0.0,0.0,0.0,0.0,0.0,0.0
2416,1724811844944696479,-1.5542843341827393,0.010639791376888752,0.17402365803718567,0.07951439172029495,0.22177131474018097,0.21908125281333923,-0.9468360543251038,0.0,0.0,0.0,0.0,0.0,0.0
2418,1724811844954813293,-1.553621768951416,0.010373396798968315,0.17428995668888092,0.08145169168710709,0.22189375758171082,0.21815019845962524,-0.9468576312065125,0.0,0.0,0.0,0.0,0.0,0.0
2420,1724811844964034514,-1.5528459548950195,0.010577977634966373,0.1748502403497696,0.08110406249761581,0.22031410038471222,0.2204069048166275,-0.9467336535453796,0.0,0.0,0.0,0.0,0.0,0.0
2422,1724811844977843387,-1.552059531211853,0.010657062754034996,0.1754736751317978,0.08045995235443115,0.21943961083889008,0.221009761095047,-0.9468512535095215,0.0,0.0,0.0,0.0,0.0,0.0
2424,1724811845014776866,-1.5511751174926758,0.010753770358860493,0.17606185376644135,0.08059949427843094,0.21832847595214844,0.22183232009410858,-0.9469038844108582,0.0,0.0,0.0,0.0,0.0,0.0
2426,1724811845015053309,-1.5501477718353271,0.010858552530407906,0.17659148573875427,0.07955805957317352,0.21739955246448517,0.22247175872325897,-0.9470556378364563,0.0,0.0,0.0,0.0,0.0,0.0
2428,1724811845015465116,-1.5490282773971558,0.010899168439209461,0.1771637350320816,0.07921451330184937,0.21637405455112457,0.22257846593856812,-0.9472941756248474,0.0,0.0,0.0,0.0,0.0,0.0
2430,1724811845016770144,-1.5478007793426514,0.011023875325918198,0.1779720038175583,0.07821294665336609,0.2151564657688141,0.22352619469165802,-0.9474316239356995,0.0,0.0,0.0,0.0,0.0,0.0
2432,1724811845026218733,-1.5465164184570312,0.011288175359368324,0.17869386076927185,0.07714354991912842,0.21190355718135834,0.22489215433597565,-0.9479289650917053,0.0,0.0,0.0,0.0,0.0,0.0
2434,1724811845034027752,-1.5452104806900024,0.011398195289075375,0.1794586479663849,0.07700584083795547,0.20979231595993042,0.22595617175102234,-0.9481567144393921,0.0,0.0,0.0,0.0,0.0,0.0
2436,1724811845044077734,-1.5437800884246826,0.011448333039879799,0.1801985502243042,0.07685043662786484,0.20784318447113037,0.2266293168067932,-0.9484379291534424,0.0,0.0,0.0,0.0,0.0,0.0
2438,1724811845054604237,-1.5423634052276611,0.011304263956844807,0.1807173788547516,0.0766536071896553,0.2069249451160431,0.22566479444503784,-0.9488845467567444,0.0,0.0,0.0,0.0,0.0,0.0
2440,1724811845092550863,-1.540818691253662,0.011516080237925053,0.18167760968208313,0.07614019513130188,0.2044036090373993,0.2272646129131317,-0.9490904808044434,0.0,0.0,0.0,0.0,0.0,0.0
2442,1724811845092838106,-1.5391734838485718,0.011770319193601608,0.18258140981197357,0.07435015588998795,0.20184801518917084,0.22871628403663635,-0.9494304656982422,0.0,0.0,0.0,0.0,0.0,0.0
2444,1724811845093064046,-1.5373409986495972,0.011578173376619816,0.18317225575447083,0.07502379268407822,0.20061470568180084,0.22730278968811035,-0.949978232383728,0.0,0.0,0.0,0.0,0.0,0.0
2446,1724811845094439327,-1.5354726314544678,0.01179482415318489,0.18401934206485748,0.07359723001718521,0.197771355509758,0.22894912958145142,-0.9502906203269958,0.0,0.0,0.0,0.0,0.0,0.0
2448,1724811845104965456,-1.5337347984313965,0.011652739718556404,0.18470709025859833,0.07467512786388397,0.1958504319190979,0.22833585739135742,-0.950751781463623,0.0,0.0,0.0,0.0,0.0,0.0
2450,1724811845113933633,-1.5317356586456299,0.011721496470272541,0.18572276830673218,0.07391730695962906,0.19325418770313263,0.22908836603164673,-0.9511612057685852,0.0,0.0,0.0,0.0,0.0,0.0
2452,1724811845125644901,-1.5296568870544434,0.011972104199230671,0.18679159879684448,0.07222447544336319,0.18920376896858215,0.229914590716362,-0.9519059658050537,0.0,0.0,0.0,0.0,0.0,0.0
2454,1724811845134353920,-1.527517318725586,0.0119926230981946,0.1877935826778412,0.07221860438585281,0.186039537191391,0.23016637563705444,-0.952468991279602,0.0,0.0,0.0,0.0,0.0,0.0
2456,1724811845143843545,-1.525291085243225,0.011976554058492184,0.18869346380233765,0.07161321491003036,0.18435263633728027,0.2300545573234558,-0.952869713306427,0.0,0.0,0.0,0.0,0.0,0.0
2458,1724811845157583732,-1.5230748653411865,0.011848322115838528,0.18969303369522095,0.07083392143249512,0.18129776418209076,0.2294023334980011,-0.9536709785461426,0.0,0.0,0.0,0.0,0.0,0.0
2460,1724811845164392715,-1.5205897092819214,0.012050583027303219,0.19058649241924286,0.0694676861166954,0.17702077329158783,0.23006856441497803,-0.9544141292572021,0.0,0.0,0.0,0.0,0.0,0.0
2462,1724811845177081493,-1.518212914466858,0.012062270194292068,0.1914520412683487,0.06909613311290741,0.1737195998430252,0.2298186719417572,-0.9551076889038086,0.0,0.0,0.0,0.0,0.0,0.0
2464,1724811845184020183,-1.5156023502349854,0.01222821045666933,0.19246937334537506,0.06868519634008408,0.16968096792697906,0.230529323220253,-0.9556918740272522,0.0,0.0,0.0,0.0,0.0,0.0
2466,1724811845194726834,-1.5130696296691895,0.012173769064247608,0.19337467849254608,0.06820662319660187,0.16606761515140533,0.22991785407066345,-0.9565079212188721,0.0,0.0,0.0,0.0,0.0,0.0
2468,1724811845204152556,-1.5102556943893433,0.012283843010663986,0.19438648223876953,0.06787270307540894,0.16193151473999023,0.2299603670835495,-0.957230269908905,0.0,0.0,0.0,0.0,0.0,0.0
2470,1724811845213964801,-1.507412075996399,0.012381317093968391,0.19529764354228973,0.06673138588666916,0.157856747508049,0.22999614477157593,-0.9579823017120361,0.0,0.0,0.0,0.0,0.0,0.0
2472,1724811845225523058,-1.5046250820159912,0.012348831631243229,0.19617822766304016,0.06541690230369568,0.15327109396457672,0.2297651618719101,-0.9588725566864014,0.0,0.0,0.0,0.0,0.0,0.0
2474,1724811845303522180,-1.5015736818313599,0.012579909525811672,0.19733890891075134,0.06390736997127533,0.14803844690322876,0.23042109608650208,-0.9596388339996338,0.0,0.0,0.0,0.0,0.0,0.0
2476,1724811845303880852,-1.4985061883926392,0.01256446074694395,0.1981736719608307,0.06384755671024323,0.14266209304332733,0.23062647879123688,-0.9604074954986572,0.0,0.0,0.0,0.0,0.0,0.0
2478,1724811845304163601,-1.495368480682373,0.012326882220804691,0.19899410009384155,0.06284199655056,0.13872486352920532,0.22994422912597656,-0.9612138271331787,0.0,0.0,0.0,0.0,0.0,0.0
2480,1724811845304485059,-1.4919278621673584,0.01242820918560028,0.20003855228424072,0.05932898074388504,0.13266196846961975,0.2310795783996582,-0.9620203375816345,0.0,0.0,0.0,0.0,0.0,0.0
2482,1724811845304862933,-1.4886044263839722,0.012285326607525349,0.2009487748146057,0.059437595307826996,0.12704789638519287,0.2309744954109192,-0.9627963900566101,0.0,0.0,0.0,0.0,0.0,0.0
2484,1724811845305156732,-1.4851288795471191,0.01195258554071188,0.2015148550271988,0.05865070968866348,0.1217648833990097,0.23052845895290375,-0.9636337757110596,0.0,0.0,0.0,0.0,0.0,0.0
2486,1724811845305633471,-1.4813379049301147,0.011848034337162971,0.20243874192237854,0.05738132447004318,0.11577000468969345,0.23145745694637299,-0.9642261862754822,0.0,0.0,0.0,0.0,0.0,0.0
2488,1724811845305885173,-1.4775381088256836,0.011568764224648476,0.20329716801643372,0.055832162499427795,0.10929658263921738,0.2319224625825882,-0.9649606943130493,0.0,0.0,0.0,0.0,0.0,0.0
2490,1724811845313707973,-1.4735966920852661,0.011140605434775352,0.20393633842468262,0.05305428430438042,0.1029028370976448,0.23163874447345734,-0.9658880829811096,0.0,0.0,0.0,0.0,0.0,0.0
2492,1724811845324469830,-1.4695857763290405,0.010663855820894241,0.20461571216583252,0.05228562280535698,0.0965348482131958,0.23186828196048737,-0.9665321111679077,0.0,0.0,0.0,0.0,0.0,0.0
2494,1724811845335633845,-1.4655637741088867,0.00993802584707737,0.2050757259130478,0.05158323422074318,0.08950437605381012,0.23063234984874725,-0.9675416946411133,0.0,0.0,0.0,0.0,0.0,0.0
2496,1724811845344019157,-1.4617717266082764,0.009794788435101509,0.20592649281024933,0.049191784113645554,0.08568844199180603,0.23222434520721436,-0.967630922794342,0.0,0.0,0.0,0.0,0.0,0.0
2498,1724811845357445040,-1.4577748775482178,0.00913847517222166,0.2066473662853241,0.048009227961301804,0.08137644827365875,0.23197472095489502,-0.9681222438812256,0.0,0.0,0.0,0.0,0.0,0.0
2500,1724811845366287773,-1.4538323879241943,0.008364353328943253,0.20712748169898987,0.047223400324583054,0.07540719956159592,0.23144927620887756,-0.9687698483467102,0.0,0.0,0.0,0.0,0.0,0.0
2502,1724811845374131733,-1.45009446144104,0.007889382541179657,0.20790572464466095,0.04585784673690796,0.07249313592910767,0.23272518813610077,-0.9687522053718567,0.0,0.0,0.0,0.0,0.0,0.0
2504,1724811845384269896,-1.4461774826049805,0.007239407394081354,0.20870281755924225,0.04565878212451935,0.06758518517017365,0.23329488933086395,-0.9689794182777405,0.0,0.0,0.0,0.0,0.0,0.0
2506,1724811845394271019,-1.4426993131637573,0.0063821799121797085,0.20906218886375427,0.045241616666316986,0.06627485901117325,0.23283511400222778,-0.969200074672699,0.0,0.0,0.0,0.0,0.0,0.0
2508,1724811845403929087,-1.4393353462219238,0.005853721406310797,0.20973306894302368,0.045658282935619354,0.061950020492076874,0.23381580412387848,-0.9692304730415344,0.0,0.0,0.0,0.0,0.0,0.0
2510,1724811845419056466,-1.435965657234192,0.004894155077636242,0.2100738286972046,0.044085025787353516,0.061259664595127106,0.23320399224758148,-0.9694945216178894,0.0,0.0,0.0,0.0,0.0,0.0
2512,1724811845424848492,-1.4330878257751465,0.004265441093593836,0.2101668119430542,0.04353538900613785,0.061925895512104034,0.233195960521698,-0.9694790244102478,0.0,0.0,0.0,0.0,0.0,0.0
2514,1724811845434106426,-1.4304819107055664,0.0037769125774502754,0.21087554097175598,0.041552722454071045,0.060068048536777496,0.23396877944469452,-0.9694967865943909,0.0,0.0,0.0,0.0,0.0,0.0
2516,1724811845444690450,-1.4283710718154907,0.002920722123235464,0.21083948016166687,0.042703624814748764,0.06237485259771347,0.23312534391880035,-0.9695042371749878,0.0,0.0,0.0,0.0,0.0,0.0
2518,1724811845458951735,-1.4263609647750854,0.0026241906452924013,0.21155278384685516,0.04263472184538841,0.06199272722005844,0.23444463312625885,-0.9692135453224182,0.0,0.0,0.0,0.0,0.0,0.0
2520,1724811845463769257,-1.4247111082077026,0.0023545832373201847,0.2121821641921997,0.04278499260544777,0.06114497780799866,0.23524051904678345,-0.9690679907798767,0.0,0.0,0.0,0.0,0.0,0.0
2522,1724811845486864079,-1.4232431650161743,0.0021389112807810307,0.21267685294151306,0.04228300228714943,0.05951700359582901,0.23588575422763824,-0.9690344333648682,0.0,0.0,0.0,0.0,0.0,0.0
2524,1724811845487431777,-1.422000765800476,0.0017760255141183734,0.21263930201530457,0.043457385152578354,0.06108059734106064,0.2348284125328064,-0.9691420197486877,0.0,0.0,0.0,0.0,0.0,0.0
2526,1724811845493915943,-1.4208906888961792,0.0015976381255313754,0.2126443088054657,0.043393347412347794,0.06070765107870102,0.2335175722837448,-0.9694850444793701,0.0,0.0,0.0,0.0,0.0,0.0
2528,1724811845506083435,-1.4198558330535889,0.001786143984645605,0.21295863389968872,0.04381806403398514,0.059526436030864716,0.23503348231315613,-0.9691727161407471,0.0,0.0,0.0,0.0,0.0,0.0
2530,1724811845514094114,-1.4190071821212769,0.0019283045548945665,0.21304616332054138,0.044399574398994446,0.059169549494981766,0.23566403985023499,-0.9690150022506714,0.0,0.0,0.0,0.0,0.0,0.0
2532,1724811845528492706,-1.4181562662124634,0.0021470775827765465,0.21296271681785583,0.04366659000515938,0.058982543647289276,0.23549754917621613,-0.9691002368927002,0.0,0.0,0.0,0.0,0.0,0.0
2534,1724811845533842339,-1.417399287223816,0.0022604891564697027,0.21279802918434143,0.04228001460433006,0.06120934337377548,0.23522765934467316,-0.969089150428772,0.0,0.0,0.0,0.0,0.0,0.0
2536,1724811845544318511,-1.416808009147644,0.002499031601473689,0.2128266990184784,0.04213060066103935,0.062075160443782806,0.23563532531261444,-0.9689415097236633,0.0,0.0,0.0,0.0,0.0,0.0
2538,1724811845554096790,-1.4163315296173096,0.0029024474788457155,0.21294933557510376,0.04158368334174156,0.0618647038936615,0.23709377646446228,-0.9686228632926941,0.0,0.0,0.0,0.0,0.0,0.0
2540,1724811845563809540,-1.4160184860229492,0.0031157471239566803,0.21285249292850494,0.04201461747288704,0.06259404122829437,0.23651635646820068,-0.9686985611915588,0.0,0.0,0.0,0.0,0.0,0.0
2542,1724811845578612875,-1.4156203269958496,0.003507613204419613,0.2129673808813095,0.04120631888508797,0.0619221031665802,0.23716618120670319,-0.9686174988746643,0.0,0.0,0.0,0.0,0.0,0.0
2544,1724811845584768583,-1.4152581691741943,0.003961341455578804,0.21315911412239075,0.04169170930981636,0.06068359315395355,0.23796632885932922,-0.9684789776802063,0.0,0.0,0.0,0.0,0.0,0.0
2546,1724811845593956266,-1.414923906326294,0.004292231053113937,0.21315424144268036,0.04229752719402313,0.060236863791942596,0.2378755360841751,-0.9685028195381165,0.0,0.0,0.0,0.0,0.0,0.0
2548,1724811845607991945,-1.4146291017532349,0.004577105399221182,0.2131909430027008,0.043071575462818146,0.05992415174841881,0.23817512392997742,-0.9684144258499146,0.0,0.0,0.0,0.0,0.0,0.0
2550,1724811845618771931,-1.414249062538147,0.004843259230256081,0.2131536453962326,0.04290759563446045,0.059937987476587296,0.23829761147499084,-0.9683908224105835,0.0,0.0,0.0,0.0,0.0,0.0
2552,1724811845623710728,-1.4139056205749512,0.005069387145340443,0.21318167448043823,0.04351229965686798,0.05970986559987068,0.2386014461517334,-0.9683030843734741,0.0,0.0,0.0,0.0,0.0,0.0
2554,1724811845634208469,-1.4135533571243286,0.00535558583214879,0.21333228051662445,0.04302946850657463,0.058375779539346695,0.2392769753932953,-0.9682392477989197,0.0,0.0,0.0,0.0,0.0,0.0
2556,1724811845644298827,-1.41319739818573,0.005516294855624437,0.21329061686992645,0.04368433728814125,0.05869803577661514,0.23960165679454803,-0.968110203742981,0.0,0.0,0.0,0.0,0.0,0.0
2558,1724811845653745160,-1.412852168083191,0.005734303034842014,0.2134190797805786,0.0427214652299881,0.058868978172540665,0.2395603358745575,-0.9681529998779297,0.0,0.0,0.0,0.0,0.0,0.0
2560,1724811845664103252,-1.4124523401260376,0.005989172030240297,0.2134627401828766,0.04315963387489319,0.05835028737783432,0.24012623727321625,-0.968024730682373,0.0,0.0,0.0,0.0,0.0,0.0
2562,1724811845679652238,-1.412072777748108,0.006259430665522814,0.21351048350334167,0.043085478246212006,0.0583113357424736,0.24010813236236572,-0.9680348634719849,0.0,0.0,0.0,0.0,0.0,0.0
2564,1724811845764055678,-1.4116867780685425,0.006518789567053318,0.21354129910469055,0.0427081473171711,0.05840376392006874,0.24039936065673828,-0.9679737687110901,0.0,0.0,0.0,0.0,0.0,0.0
2566,1724811845764436055,-1.4113097190856934,0.006683469749987125,0.21333657205104828,0.043332502245903015,0.059478700160980225,0.24025779962539673,-0.9679157137870789,0.0,0.0,0.0,0.0,0.0,0.0
2568,1724811845764688856,-1.4109135866165161,0.006880628410726786,0.2131916880607605,0.04365641623735428,0.06092686206102371,0.2397145926952362,-0.9679457545280457,0.0,0.0,0.0,0.0,0.0,0.0
2570,1724811845764943078,-1.410309076309204,0.007422057446092367,0.21346956491470337,0.041898906230926514,0.060009900480508804,0.2412002682685852,-0.9677116274833679,0.0,0.0,0.0,0.0,0.0,0.0
2572,1724811845765196269,-1.4098179340362549,0.007732591591775417,0.21351462602615356,0.042430579662323,0.06030457094311714,0.24115018546581268,-0.9676826000213623,0.0,0.0,0.0,0.0,0.0,0.0
2574,1724811845765449569,-1.409365177154541,0.008114442229270935,0.2135814130306244,0.04326260834932327,0.05982045829296112,0.24108630418777466,-0.9676917195320129,0.0,0.0,0.0,0.0,0.0,0.0
2576,1724811845765702765,-1.4089101552963257,0.0084844920784235,0.2136070281267166,0.04324634000658989,0.059718936681747437,0.24104565382003784,-0.9677088260650635,0.0,0.0,0.0,0.0,0.0,0.0
2578,1724811845765956044,-1.4084476232528687,0.008945751935243607,0.21370425820350647,0.04249835014343262,0.059288542717695236,0.2412770539522171,-0.9677107930183411,0.0,0.0,0.0,0.0,0.0,0.0
2580,1724811845766209405,-1.4080196619033813,0.009452479891479015,0.21379965543746948,0.0419292189180851,0.059086840599775314,0.24137860536575317,-0.9677226543426514,0.0,0.0,0.0,0.0,0.0,0.0
2582,1724811845775736735,-1.407629132270813,0.009996358305215836,0.21386854350566864,0.04142199829220772,0.058353979140520096,0.24115996062755585,-0.9678434729576111,0.0,0.0,0.0,0.0,0.0,0.0
2584,1724811845784178378,-1.4073030948638916,0.010408082976937294,0.21381692588329315,0.04259636253118515,0.05845002457499504,0.24037571251392365,-0.9679818153381348,0.0,0.0,0.0,0.0,0.0,0.0
2586,1724811845794956779,-1.4069409370422363,0.01088334247469902,0.21382427215576172,0.04097943380475044,0.058964021503925323,0.239768847823143,-0.9681709408760071,0.0,0.0,0.0,0.0,0.0,0.0
2588,1724811845807458562,-1.406661033630371,0.01141957938671112,0.21389053761959076,0.041221681982278824,0.05801917612552643,0.23951271176338196,-0.9682811498641968,0.0,0.0,0.0,0.0,0.0,0.0
2590,1724811845813723265,-1.4063713550567627,0.011977122165262699,0.21388033032417297,0.04118631035089493,0.05695280060172081,0.2389312982559204,-0.9684895277023315,0.0,0.0,0.0,0.0,0.0,0.0
2592,1724811845826741902,-1.406031608581543,0.012582200579345226,0.21396180987358093,0.04058947414159775,0.05691509693861008,0.23869937658309937,-0.9685741066932678,0.0,0.0,0.0,0.0,0.0,0.0
2594,1724811845834100855,-1.405808448791504,0.013161610811948776,0.21408811211585999,0.0402534157037735,0.05688962712883949,0.2387675940990448,-0.9685728549957275,0.0,0.0,0.0,0.0,0.0,0.0
2596,1724811845843759977,-1.4056264162063599,0.013724377378821373,0.21416109800338745,0.04036685824394226,0.056653596460819244,0.238301619887352,-0.968696653842926,0.0,0.0,0.0,0.0,0.0,0.0
2598,1724811845854177639,-1.4054579734802246,0.014309260994195938,0.21427220106124878,0.04071667417883873,0.0561581589281559,0.2381702959537506,-0.9687432050704956,0.0,0.0,0.0,0.0,0.0,0.0
2600,1724811845863688889,-1.4052802324295044,0.01486111618578434,0.21429717540740967,0.04025104269385338,0.0562119260430336,0.23779024183750153,-0.9688528776168823,0.0,0.0,0.0,0.0,0.0,0.0
2602,1724811845874095584,-1.4052013158798218,0.015339427627623081,0.21434885263442993,0.041164644062519073,0.057583168148994446,0.2375563234090805,-0.9687913060188293,0.0,0.0,0.0,0.0,0.0,0.0
2604,1724811845914022400,-1.4049707651138306,0.015910554677248,0.21453750133514404,0.03981902450323105,0.056086115539073944,0.23762385547161102,-0.9689189195632935,0.0,0.0,0.0,0.0,0.0,0.0
2606,1724811845914410709,-1.4047460556030273,0.016394641250371933,0.21437278389930725,0.03933391347527504,0.05615116283297539,0.23706573247909546,-0.9690715670585632,0.0,0.0,0.0,0.0,0.0,0.0
2608,1724811845914841869,-1.4045624732971191,0.016894958913326263,0.21442469954490662,0.03898374363780022,0.055587854236364365,0.23705624043941498,-0.9691205620765686,0.0,0.0,0.0,0.0,0.0,0.0
2610,1724811845915303863,-1.4043724536895752,0.017324298620224,0.2143983393907547,0.03978518396615982,0.05661153420805931,0.237082377076149,-0.969022274017334,0.0,0.0,0.0,0.0,0.0,0.0
2612,1724811845926119776,-1.4040756225585938,0.017756767570972443,0.21447904407978058,0.039903249591588974,0.05680742859840393,0.23726370930671692,-0.9689616560935974,0.0,0.0,0.0,0.0,0.0,0.0
2614,1724811845934015297,-1.403718113899231,0.018237780779600143,0.2146356701850891,0.03951799497008324,0.05531001091003418,0.23745910823345184,-0.9690161347389221,0.0,0.0,0.0,0.0,0.0,0.0
2616,1724811845944180428,-1.4033554792404175,0.018665356561541557,0.21471695601940155,0.038997262716293335,0.05513066053390503,0.23774217069149017,-0.9689781069755554,0.0,0.0,0.0,0.0,0.0,0.0
2618,1724811845955197495,-1.4030389785766602,0.018929380923509598,0.21448563039302826,0.03954644128680229,0.05715002864599228,0.23750512301921844,-0.9688969850540161,0.0,0.0,0.0,0.0,0.0,0.0
2620,1724811845964048267,-1.402571678161621,0.01928774267435074,0.21452829241752625,0.039819180965423584,0.05777426436543465,0.2377346307039261,-0.9687924385070801,0.0,0.0,0.0,0.0,0.0,0.0
2622,1724811846006185263,-1.4019991159439087,0.019745655357837677,0.21478156745433807,0.040055569261312485,0.057120393961668015,0.2387637495994568,-0.9685683846473694,0.0,0.0,0.0,0.0,0.0,0.0
2624,1724811846006702744,-1.4014841318130493,0.020162753760814667,0.21478989720344543,0.039192426949739456,0.056993212550878525,0.23889867961406708,-0.9685779809951782,0.0,0.0,0.0,0.0,0.0,0.0
2626,1724811846006935598,-1.400975227355957,0.020628925412893295,0.2149253785610199,0.039184924215078354,0.05525845289230347,0.23926697671413422,-0.9685878157615662,0.0,0.0,0.0,0.0,0.0,0.0
2628,1724811846007250610,-1.4004517793655396,0.02097681351006031,0.2149360328912735,0.03895394876599312,0.054952505975961685,0.23930484056472778,-0.9686051607131958,0.0,0.0,0.0,0.0,0.0,0.0
2630,1724811846013847106,-1.3998663425445557,0.021349523216485977,0.21502827107906342,0.03767843171954155,0.054680872708559036,0.24007678031921387,-0.9684799909591675,0.0,0.0,0.0,0.0,0.0,0.0
2632,1724811846025312176,-1.3993583917617798,0.021578431129455566,0.2148849219083786,0.039282895624637604,0.056237492710351944,0.24000650644302368,-0.9683445692062378,0.0,0.0,0.0,0.0,0.0,0.0
2634,1724811846035009382,-1.3988981246948242,0.021936053410172462,0.21500755846500397,0.03949056193232536,0.05628833547234535,0.24066701531410217,-0.9681692123413086,0.0,0.0,0.0,0.0,0.0,0.0
2636,1724811846043698139,-1.3983194828033447,0.022176094353199005,0.21479956805706024,0.041021186858415604,0.05700458586215973,0.24065086245536804,-0.9680676460266113,0.0,0.0,0.0,0.0,0.0,0.0
2638,1724811846059811294,-1.397719383239746,0.02247464656829834,0.21469390392303467,0.041011374443769455,0.05701882764697075,0.2404724657535553,-0.968111515045166,0.0,0.0,0.0,0.0,0.0,0.0
2640,1724811846086483597,-1.3970599174499512,0.022850245237350464,0.21481917798519135,0.03910454362630844,0.05562322214245796,0.24057826399803162,-0.9682453870773315,0.0,0.0,0.0,0.0,0.0,0.0
2642,1724811846090913797,-1.3963671922683716,0.023181885480880737,0.2150564044713974,0.037389036267995834,0.054533232003450394,0.24143153429031372,-0.9681627154350281,0.0,0.0,0.0,0.0,0.0,0.0
2644,1724811846092354855,-1.3957185745239258,0.02342991903424263,0.2150661051273346,0.03774981200695038,0.054604317992925644,0.24171306192874908,-0.9680744409561157,0.0,0.0,0.0,0.0,0.0,0.0
2646,1724811846095643820,-1.394992709159851,0.02370450273156166,0.21519580483436584,0.03770046681165695,0.054361406713724136,0.242147758603096,-0.9679813981056213,0.0,0.0,0.0,0.0,0.0,0.0
2648,1724811846104224392,-1.3943431377410889,0.023883678019046783,0.21521225571632385,0.037040434777736664,0.05454987660050392,0.24271537363529205,-0.9678540825843811,0.0,0.0,0.0,0.0,0.0,0.0
2650,1724811846114446764,-1.3937426805496216,0.02402772195637226,0.215132936835289,0.0371173620223999,0.0562601201236248,0.24294811487197876,-0.967694878578186,0.0,0.0,0.0,0.0,0.0,0.0
2652,1724811846124686937,-1.3931108713150024,0.02426132932305336,0.21514776349067688,0.03702183812856674,0.056287139654159546,0.2431102991104126,-0.9676562547683716,0.0,0.0,0.0,0.0,0.0,0.0
2654,1724811846134609247,-1.392482042312622,0.02456163428723812,0.21529428660869598,0.036707814782857895,0.054534584283828735,0.2435150444507599,-0.9676668047904968,0.0,0.0,0.0,0.0,0.0,0.0
2656,1724811846143807601,-1.3918646574020386,0.02480670064687729,0.21536290645599365,0.03706298768520355,0.05385151505470276,0.24419811367988586,-0.9675192832946777,0.0,0.0,0.0,0.0,0.0,0.0
2658,1724811846157964486,-1.391236662864685,0.02502056397497654,0.21538950502872467,0.0375526063144207,0.05355234444141388,0.2447398155927658,-0.967380166053772,0.0,0.0,0.0,0.0,0.0,0.0
2660,1724811846164305487,-1.390629529953003,0.025157436728477478,0.2151440978050232,0.03751832991838455,0.05523636192083359,0.24481187760829926,-0.9672686457633972,0.0,0.0,0.0,0.0,0.0,0.0
2662,1724811846194959195,-1.389986276626587,0.02535768412053585,0.21510228514671326,0.0362483449280262,0.055272117257118225,0.24553938210010529,-0.9671306014060974,0.0,0.0,0.0,0.0,0.0,0.0
2664,1724811846196076952,-1.3894237279891968,0.025495857000350952,0.21500134468078613,0.036916084587574005,0.05536109209060669,0.24567477405071259,-0.9670658707618713,0.0,0.0,0.0,0.0,0.0,0.0
2666,1724811846196398319,-1.388814926147461,0.025713641196489334,0.21501778066158295,0.03610949590802193,0.05516848713159561,0.24619372189044952,-0.9669752717018127,0.0,0.0,0.0,0.0,0.0,0.0
2668,1724811846204309516,-1.3882508277893066,0.02591012232005596,0.2149875909090042,0.0363319031894207,0.05541093647480011,0.2463885098695755,-0.9669034481048584,0.0,0.0,0.0,0.0,0.0,0.0
2670,1724811846275467234,-1.3876389265060425,0.02602062001824379,0.21494407951831818,0.035352665930986404,0.056242141872644424,0.24639499187469482,-0.9668902158737183,0.0,0.0,0.0,0.0,0.0,0.0
2672,1724811846275861064,-1.3870956897735596,0.026276618242263794,0.21509242057800293,0.03595663607120514,0.055519137531518936,0.24702182412147522,-0.9667497277259827,0.0,0.0,0.0,0.0,0.0,0.0
2674,1724811846276114100,-1.3866266012191772,0.02644479274749756,0.2151240110397339,0.035697296261787415,0.05524340644478798,0.2472558170557022,-0.9667152762413025,0.0,0.0,0.0,0.0,0.0,0.0
2676,1724811846276405800,-1.3862123489379883,0.026623275130987167,0.21517036855220795,0.03573193773627281,0.05484068766236305,0.2475530356168747,-0.9666609168052673,0.0,0.0,0.0,0.0,0.0,0.0
2678,1724811846276668819,-1.385841727256775,0.026760656386613846,0.21509578824043274,0.03585615009069443,0.054807115346193314,0.24767416715621948,-0.9666271805763245,0.0,0.0,0.0,0.0,0.0,0.0
2680,1724811846276944399,-1.385528802871704,0.026873460039496422,0.21503813564777374,0.036099813878536224,0.05458563193678856,0.24766531586647034,-0.9666328430175781,0.0,0.0,0.0,0.0,0.0,0.0
2682,1724811846277194879,-1.3852993249893188,0.026958316564559937,0.21507368981838226,0.036702755838632584,0.05411294847726822,0.2477962225675583,-0.9666032195091248,0.0,0.0,0.0,0.0,0.0,0.0
2684,1724811846284506933,-1.3850338459014893,0.027086496353149414,0.21525384485721588,0.037090692669153214,0.0529043972492218,0.2480168342590332,-0.9665987491607666,0.0,0.0,0.0,0.0,0.0,0.0
2686,1724811846294821169,-1.384823203086853,0.0271565243601799,0.21529120206832886,0.03743656352162361,0.0526115745306015,0.2481587827205658,-0.9665648937225342,0.0,0.0,0.0,0.0,0.0,0.0
2688,1724811846305167473,-1.3846473693847656,0.02721039019525051,0.2153390496969223,0.03753012791275978,0.05238790437579155,0.2484664022922516,-0.9664945006370544,0.0,0.0,0.0,0.0,0.0,0.0
2690,1724811846314457867,-1.3845134973526,0.027256503701210022,0.21535784006118774,0.0376480333507061,0.05250284820795059,0.24849259853363037,-0.9664769172668457,0.0,0.0,0.0,0.0,0.0,0.0
2692,1724811846324626022,-1.384394884109497,0.02726433053612709,0.21535857021808624,0.03772950917482376,0.05281746760010719,0.24861891567707062,-0.9664240479469299,0.0,0.0,0.0,0.0,0.0,0.0
2694,1724811846335191827,-1.3842990398406982,0.027314919978380203,0.21539205312728882,0.03793098405003548,0.0527619868516922,0.24876637756824493,-0.966381311416626,0.0,0.0,0.0,0.0,0.0,0.0
2696,1724811846344666749,-1.3841925859451294,0.02732216753065586,0.21536146104335785,0.03772473707795143,0.0529518760740757,0.2485397756099701,-0.9664372801780701,0.0,0.0,0.0,0.0,0.0,0.0
2698,1724811846354709296,-1.3841477632522583,0.02729875035583973,0.21519868075847626,0.037938784807920456,0.05345857888460159,0.24808022379875183,-0.9665189981460571,0.0,0.0,0.0,0.0,0.0,0.0
2700,1724811846366288273,-1.384036660194397,0.02733049914240837,0.21519367396831512,0.037197522819042206,0.053554192185401917,0.24801185727119446,-0.9665601253509521,0.0,0.0,0.0,0.0,0.0,0.0
2702,1724811846374283502,-1.383927822113037,0.027388520538806915,0.21529442071914673,0.03650199994444847,0.05318787321448326,0.2482863813638687,-0.9665364027023315,0.0,0.0,0.0,0.0,0.0,0.0
2704,1724811846471372837,-1.3838672637939453,0.0274044182151556,0.2153080850839615,0.03628552705049515,0.053133152425289154,0.24821136891841888,-0.966566801071167,0.0,0.0,0.0,0.0,0.0,0.0
2706,1724811846471823480,-1.383798360824585,0.027447786182165146,0.21533410251140594,0.03638983890414238,0.053139928728342056,0.24835453927516937,-0.9665257930755615,0.0,0.0,0.0,0.0,0.0,0.0
2708,1724811846472347745,-1.3837417364120483,0.027479534968733788,0.2153799831867218,0.03632176294922829,0.052977126091718674,0.24851229786872864,-0.9664966464042664,0.0,0.0,0.0,0.0,0.0,0.0
2710,1724811846472686215,-1.3836864233016968,0.027495896443724632,0.2153826206922531,0.036697857081890106,0.052925676107406616,0.24848182499408722,-0.9664931893348694,0.0,0.0,0.0,0.0,0.0,0.0
2712,1724811846472911663,-1.3836112022399902,0.027494672685861588,0.21537639200687408,0.036394935101270676,0.05311926454305649,0.24834072589874268,-0.9665302634239197,0.0,0.0,0.0,0.0,0.0,0.0
2714,1724811846473360664,-1.383548378944397,0.027532918378710747,0.21540603041648865,0.03645513206720352,0.053088877350091934,0.2482944279909134,-0.9665415287017822,0.0,0.0,0.0,0.0,0.0,0.0
2716,1724811846473610427,-1.3834542036056519,0.02756783366203308,0.21546690165996552,0.03662119060754776,0.053112152963876724,0.2481970340013504,-0.9665589928627014,0.0,0.0,0.0,0.0,0.0,0.0
2718,1724811846473849397,-1.3833544254302979,0.027613632380962372,0.21549677848815918,0.036594144999980927,0.05297703295946121,0.24818308651447296,-0.966571033000946,0.0,0.0,0.0,0.0,0.0,0.0
2720,1724811846474087935,-1.3832377195358276,0.02765626460313797,0.21558167040348053,0.03669300302863121,0.052763931453228,0.24826903641223907,-0.9665569067001343,0.0,0.0,0.0,0.0,0.0,0.0
2722,1724811846475286169,-1.3831336498260498,0.02768794447183609,0.2156408727169037,0.03699926286935806,0.05253633111715317,0.24825447797775269,-0.9665613174438477,0.0,0.0,0.0,0.0,0.0,0.0
2724,1724811846484428712,-1.3830360174179077,0.027689475566148758,0.21566589176654816,0.037410762161016464,0.05249486118555069,0.24814359843730927,-0.9665761590003967,0.0,0.0,0.0,0.0,0.0,0.0
2726,1724811846494416045,-1.382933497428894,0.0276993066072464,0.21579895913600922,0.0370488166809082,0.05199815332889557,0.24837175011634827,-0.9665583372116089,0.0,0.0,0.0,0.0,0.0,0.0
2728,1724811846514270550,-1.3828610181808472,0.02767227031290531,0.21586953103542328,0.0368725061416626,0.05173008516430855,0.24854028224945068,-0.9665361642837524,0.0,0.0,0.0,0.0,0.0,0.0
2730,1724811846514510330,-1.38279128074646,0.027594687417149544,0.21597056090831757,0.03721446171402931,0.05156451091170311,0.2481968104839325,-0.966620147228241,0.0,0.0,0.0,0.0,0.0,0.0
2732,1724811846526127015,-1.382765769958496,0.027401631698012352,0.21594759821891785,0.03806762397289276,0.05262451246380806,0.24798184633255005,-0.9665850400924683,0.0,0.0,0.0,0.0,0.0,0.0
2734,1724811846535238567,-1.3827153444290161,0.02717466652393341,0.21605424582958221,0.03798045217990875,0.05248360335826874,0.24763226509094238,-0.9666856527328491,0.0,0.0,0.0,0.0,0.0,0.0
2736,1724811846543887708,-1.3826675415039062,0.02690361998975277,0.21612517535686493,0.038482915610075,0.05215238034725189,0.2468937337398529,-0.9668726325035095,0.0,0.0,0.0,0.0,0.0,0.0
2738,1724811846555614293,-1.3825937509536743,0.026575077325105667,0.2163180261850357,0.03813927248120308,0.05079569295048714,0.24670130014419556,-0.9670076370239258,0.0,0.0,0.0,0.0,0.0,0.0
2740,1724811846563964282,-1.3826295137405396,0.025982782244682312,0.21616865694522858,0.0398673340678215,0.051585398614406586,0.24553996324539185,-0.9671916961669922,0.0,0.0,0.0,0.0,0.0,0.0
2742,1724811846671797272,-1.3825492858886719,0.02543753571808338,0.21620289981365204,0.04141683503985405,0.05164022371172905,0.2445298731327057,-0.9673794507980347,0.0,0.0,0.0,0.0,0.0,0.0
2744,1724811846672074915,-1.38241446018219,0.02492271363735199,0.21624398231506348,0.04235101491212845,0.052435822784900665,0.2439727634191513,-0.9674369692802429,0.0,0.0,0.0,0.0,0.0,0.0
2746,1724811846672422435,-1.382237434387207,0.024538293480873108,0.21648766100406647,0.04199300706386566,0.05178971588611603,0.2435380071401596,-0.9675968289375305,0.0,0.0,0.0,0.0,0.0,0.0
2748,1724811846672728418,-1.3821074962615967,0.024059422314167023,0.21662883460521698,0.041991036385297775,0.051904987543821335,0.24299293756484985,-0.967727780342102,0.0,0.0,0.0,0.0,0.0,0.0
2750,1724811846673005743,-1.382003903388977,0.023593224585056305,0.216868594288826,0.04193103313446045,0.05052914097905159,0.24257902801036835,-0.9679070711135864,0.0,0.0,0.0,0.0,0.0,0.0
2752,1724811846674323029,-1.3818907737731934,0.02314162440598011,0.21707850694656372,0.042475685477256775,0.05051061138510704,0.24214904010295868,-0.9679918885231018,0.0,0.0,0.0,0.0,0.0,0.0
2754,1724811846674892284,-1.381766676902771,0.022676387801766396,0.21728362143039703,0.042052797973155975,0.050470851361751556,0.241166353225708,-0.9682577848434448,0.0,0.0,0.0,0.0,0.0,0.0
2756,1724811846675127330,-1.381656289100647,0.02222679927945137,0.21743571758270264,0.041388243436813354,0.05044341832399368,0.24048373103141785,-0.9684575796127319,0.0,0.0,0.0,0.0,0.0,0.0
2758,1724811846675783014,-1.3815758228302002,0.02169770374894142,0.21755865216255188,0.041734885424375534,0.05157645046710968,0.23961712419986725,-0.9685978889465332,0.0,0.0,0.0,0.0,0.0,0.0
2760,1724811846676247058,-1.381462812423706,0.021292999386787415,0.2177647352218628,0.04161698743700981,0.05121675506234169,0.23926323652267456,-0.9687095284461975,0.0,0.0,0.0,0.0,0.0,0.0
