seq,stamp,px,py,pz,ox,oy,oz,ow,lx,ly,lz,ax,ay,az,timestamp,lyap_z,wx,wy,wz,aa_x,aa_y,aa_z,roll,pitch,yaw,vx,vy,vz,jx,jy,jz,forward_velocity,forward_velocity_1
4272,1724812530762675132,-1.1122783422470093,-0.4542860090732574,0.173648789525032,-0.0781613662838935,-0.0640125349164009,-0.2976289391517639,0.949320912361145,0.0,0.0,0.0,-2.2850785823330333,-0.22713199758979785,-0.7971688375427848,0.0,0.173648789525032,0.0,0.0,0.0,40.99529242278084,-58.11712522624191,28.75708493297154,-0.1121227171976838,-0.1688644355046865,-0.5981243500893535,0.07348587789246436,0.013089396317280191,0.05545901131312157,4.089033991216392,5.686263652890377,-29.808659356350393,0.0,0.0
4274,1724812530768080325,-1.111881136894226,-0.454215258359909,0.1739485561847686,-0.0778723806142807,-0.0649638548493385,-0.2971252799034118,0.9494378566741944,0.0,0.0,0.0,-2.2629765644269484,-0.19639664509704036,-0.9582903944351144,0.005405193,0.1739485561847686,0.22158746763656803,-0.3141342784530062,0.15543759418010325,21.993318743233647,-27.657417760031006,12.184853989236338,-0.11110043519512686,-0.17045826672779305,-0.5970854296256629,0.06113458713478792,0.0118617040338318,0.051150159892617175,49.7044721170854,21.4917282095906,-5.007647722395891,0.06204552029206797,0.06313304203207104
4276,1724812530779241972,-1.111483454704285,-0.4541111588478088,0.1744201630353927,-0.0775539949536323,-0.0646316856145858,-0.2976287603378296,0.9493288993835448,0.0,0.0,0.0,-0.656818844109051,0.40778094846724944,-0.4425543276546544,0.01656684,0.1744201630353927,0.029099420349243833,0.07921831056660202,-0.09052680142640322,-17.057535022195747,10.116784943202676,-7.087969760817126,-0.11058638423688935,-0.16969126114297334,-0.5982036144998064,0.036385463073472124,0.010378002176071988,0.03674042754353124,123.26268809578428,31.525685734519627,49.747298154147366,0.030978006913616962,0.031148882342297894
4278,1724812530789942127,-1.111086368560791,-0.4539893269538879,0.1747567504644394,-0.0784307420253753,-0.0647526532411575,-0.2977180480957031,0.949220597743988,0.0,0.0,0.0,0.4504217799495289,0.5132435718745718,0.12607427908352786,0.027266995,0.1747567504644394,-0.15149087672501096,-0.07025287074493498,-0.013030281006323755,7.292515928426422,16.95570474705132,-11.209758900714347,-0.11219790977084407,-0.1704538094210442,-0.598259391641112,0.045364787213273416,0.02028778140077847,0.04070820844801126,2.894862042317863,-42.86778102907704,-32.90791980643038,0.029236699454851387,0.03437363814878297
4280,1724812530798368258,-1.110649347305298,-0.4537593126296997,0.1751611530780792,-0.0777381807565689,-0.0638057440519332,-0.2987097799777984,0.9490300416946412,0.0,0.0,0.0,-0.1926001050624555,-0.19780990375334895,-0.7221873992768606,0.035693126,0.1751611530780792,0.0703332865329996,0.27781598775454225,-0.2299234831109002,11.874901918157356,11.664706332030693,-8.245353974394796,-0.11123132503054105,-0.1683434483554147,-0.6004773326659735,0.04658055818177331,0.02187274948138196,0.0401465752997483,-40.38377031138321,-56.08295591610032,-77.34600995837843,0.03502229528484153,0.054351445311734685
4282,1724812530808549688,-1.11024010181427,-0.4536033570766449,0.1754733622074127,-0.0775926262140274,-0.0637111589312553,-0.2991945743560791,0.9488956928253174,0.0,0.0,0.0,-0.16175149694356428,-0.42061087927899865,-1.222735171543369,0.045874556,0.1754733622074127,0.013456936851460799,0.03189286570487535,-0.09864038566447482,1.623864315023079,-13.719424363255524,11.035215160628928,-0.1109187016367941,-0.1681320928263108,-0.601526364980843,0.04047511334247389,0.015111130413309581,0.024729046677698818,26.375740277519697,3.0625726426787336,7.5140519326166775,0.029258007624395878,0.03923766450222113
4284,1724812530818388824,-1.1098392009735107,-0.4534566402435303,0.1756602376699447,-0.0771384611725807,-0.0638764426112175,-0.2991984784603119,0.9489203691482544,0.0,0.0,0.0,0.3197435125156318,-0.1532858878225718,-0.6098999081777992,0.055713692,0.1756602376699447,0.0979909613266109,-0.0038780171174545913,-0.007740871086289274,8.48738935382353,-6.969380398019593,4.991590846851821,-0.10994241640961191,-0.16817840738048817,-0.6015988719807842,0.04304745088169426,0.013287985203170649,0.015470492502362987,32.765804333664036,26.06270801468703,69.48829936858586,0.02797686666901814,0.04030639700887065
4286,1724812530828863945,-1.1093626022338867,-0.453335553407669,0.1757830083370208,-0.0763930976390838,-0.0647354871034622,-0.2991040349006653,0.9489521384239196,0.0,0.0,0.0,0.4826277880692409,0.10738028595600713,0.19832587711713257,0.066188813,0.1757830083370208,0.18573509480606357,-0.11406247319119582,-0.0028165411660884,-8.138895256074935,-8.64768166747798,0.47156542954623465,-0.10801394556284413,-0.16936931843932315,-0.6014967038759313,0.04704702317128806,0.012039272320528482,0.012774134056485309,6.214468001978926,24.44270165148079,69.09261183319202,0.032503925625523816,0.04274793990645888
4288,1724812530839074498,-1.108866810798645,-0.4532078504562378,0.1759239286184311,-0.0769734010100364,-0.0655305460095405,-0.2990428805351257,0.9488699436187744,0.0,0.0,0.0,0.4531711640936358,0.35255859097986975,0.8235404508406808,0.076399366,0.1759239286184311,-0.06173907645188714,-0.183738651761668,0.0020130108195973,-3.4560470568155868,2.410675630964172,-4.941422913452015,-0.10868273677634538,-0.1712321677754712,-0.6012701194692853,0.0529782626352997,0.01539083713430145,0.01933489809136013,-35.671847521117726,2.8236384607201206,-8.468237436450707,0.03483532151162472,0.045598167403096114
4290,1724812530849023437,-1.1082968711853027,-0.4530267715454101,0.1761699318885803,-0.0765482112765312,-0.066056877374649,-0.2994518578052521,0.9487388730049132,0.0,0.0,0.0,-0.21956327044859014,0.17524784701374407,0.06361252445399357,0.086348305,0.1761699318885803,0.10532901071323243,-0.07023438530051201,-0.09963643435620329,-2.8144193667628543,11.089069653980957,-6.758033471530994,-0.10747706979452055,-0.17203378260322763,-0.6021938279782493,0.05624869517831854,0.0191341159319407,0.02928280374847958,-49.82026070826856,-10.947642381790327,-86.0229850995571,0.040587767664033006,0.05507277261178666
4292,1724812530858495786,-1.1077734231948853,-0.4528371095657348,0.1764883995056152,-0.0769025385379791,-0.0658222287893295,-0.3000892400741577,0.9485251903533936,0.0,0.0,0.0,-0.5309612492071287,0.13354564891864829,-0.8381679849740908,0.095820654,0.1764883995056152,-0.09815738601667102,0.03192271347945054,-0.13245485792561212,-11.641664596752683,-3.114473251435677,6.701385368412565,-0.10818458989286278,-0.17186821082260767,-0.6034929871004756,0.049224157878818176,0.01898137743131656,0.02144140635362568,8.736539261655238,3.094364503401355,-19.75907452701989,0.039382988988669654,0.053783886684728825
4294,1724812530868598458,-1.107341170310974,-0.4526565670967102,0.1765737831592559,-0.077669508755207,-0.0663538202643394,-0.2998529970645904,0.9485003352165222,0.0,0.0,0.0,0.005656683470956381,0.24558546197068887,-0.22490141634875882,0.105923326,0.1765737831592559,-0.10973870501217091,-0.14930527732163526,0.04478550658744713,8.556246130542663,-7.4539315489778755,9.843021162881833,-0.10940019681277383,-0.1733185374921011,-0.6028701398598855,0.046129471929148735,0.021943233856816846,0.012862168309304423,28.216333870991583,-5.662240623787786,49.0014929885855,0.02619172592774046,0.04439461121169676
4296,1724812530878760465,-1.1068382263183594,-0.4523919522762298,0.1767495721578598,-0.0775032341480255,-0.0670122057199478,-0.2994621098041534,0.94859117269516,0.0,0.0,0.0,0.03787012675951029,0.016808320028389945,0.15343879735837007,0.116085333,0.1767495721578598,0.07638698499274629,-0.11788094493797188,0.06609425824320127,4.474147283976147,2.9799442089171455,-2.9088355341995853,-0.10876414082233918,-0.17443621677285098,-0.6020598909774587,0.049375920163953424,0.023952423884917806,0.01695815499411424,44.61469504288688,37.922128847824496,68.40344255112507,0.028650042546104666,0.05383953685386695
4298,1724812530888868839,-1.1063402891159058,-0.4521708190441131,0.1769175678491592,-0.0777173489332199,-0.0674171149730682,-0.299498587846756,0.9485333561897278,0.0,0.0,0.0,0.9055796737813924,1.007815935808207,1.158327490984491,0.126193707,0.1769175678491592,-0.017565210035472907,-0.08888864892536025,-0.01364216926054598,0.35112541873809366,2.691442668497679,-3.1554626140949877,-0.10893470303209936,-0.17534436962643052,-0.6020998786684374,0.046927240122577984,0.022303298928314064,0.015999137329028912,41.04473330803455,65.5895494832637,67.32835841715824,0.030673991001846864,0.0512817038392616
4300,1724812530902200461,-1.1057556867599487,-0.4518659710884094,0.177119955420494,-0.076850838959217,-0.0680704787373542,-0.2992250025272369,0.9486436247825624,0.0,0.0,0.0,0.6651407197012063,1.31169585940025,1.491816487174785,0.139525329,0.177119955420494,0.15671150205329973,-0.056114274155233575,0.027503748152103494,-34.110340885376324,44.73606070813053,-59.7685675541235,-0.10692450327402403,-0.1760486105754947,-0.6016477893168557,0.07918186172889818,0.05632772294909216,0.05347613519750638,-220.38596656060952,-191.99756092126046,-217.6318959750586,0.025508379479329903,0.04755052754911099
4302,1724812530908309011,-1.105173110961914,-0.4514282345771789,0.1775538027286529,-0.0769696235656738,-0.0670509338378906,-0.3008292913436889,0.9481992125511168,0.0,0.0,0.0,-1.2474651195865867,-0.4623188739514237,-0.5167521221493914,0.145633879,0.1775538027286529,-0.18371487353148389,0.33549075738578915,-0.5135225227610929,-28.576264388384523,37.52946481502475,-42.89436871549064,-0.10745586668585258,-0.17434664041629142,-0.6050379194275181,0.07833482413591497,0.060868302259507345,0.05889627829413424,-203.98779147715894,-224.20085496942983,-262.4381590983524,0.0494296400411736,0.1131302821444748
4304,1724812530918589529,-1.104662537574768,-0.4509891867637634,0.1779494732618332,-0.0765461027622222,-0.0658295750617981,-0.3017355501651764,0.9480310678482056,0.0,0.0,0.0,-1.4566718261305764,-1.6215938632190559,-2.0663523808188433,0.155914397,0.1779494732618332,-0.007693374501887156,0.26146134541038146,-0.1642498350489012,8.276998291578469,-16.908488869699156,22.298002403109475,-0.10719105644291055,-0.1718550089952495,-0.6070345014142678,0.04632596048059412,0.03525575398246161,0.02929106205147658,43.042604060581866,-24.216667935831943,-37.30102256615943,0.02276963885413287,0.062027769928886825
4306,1724812530929677447,-1.1041887998580933,-0.4506873786449432,0.1781642735004425,-0.0767098739743232,-0.0660386383533477,-0.3020232915878296,0.9479116797447203,0.0,0.0,0.0,-0.22132614302853693,-0.8311896796398901,-1.123456010355957,0.167002315,0.1781642735004425,-0.021691891916000225,-0.04210851413811746,-0.0566442562380407,11.046593022137733,-9.099329109447774,4.446941926677562,-0.10733171190028053,-0.17238646689683085,-0.607617614582743,0.04998860906678715,0.027677040967439837,0.016106595055711992,-1.7738907429836814,36.836399971072325,45.277068808629664,0.0225715947097329,0.04889171444491277
4308,1724812530938083054,-1.103722333908081,-0.4504518210887909,0.178278848528862,-0.0761019140481948,-0.0662539526820182,-0.3021912276744842,0.9478920698165894,0.0,0.0,0.0,-0.9574885100394195,-0.7410712396323981,-0.996239794212911,0.175407922,0.178278848528862,0.14959721801323736,-0.002116103174783483,-0.052768780111780995,2.6368641541434994,-6.251174452415409,4.497700905661333,-0.10599776751838508,-0.1724513528463197,-0.608063289866127,0.04461298869596675,0.01974935126634847,0.007081459467763729,-40.43284964344907,42.924470857858125,29.55219470205303,0.03143897387457641,0.060123974887916605
4310,1724812530948961319,-1.1033902168273926,-0.4503534734249115,0.1782636791467666,-0.0768594890832901,-0.0672750547528266,-0.3018503785133362,0.9478676915168762,0.0,0.0,0.0,-0.7335772414721844,0.17923939585853443,-0.4717891784302059,0.186286187,0.1782636791467666,-0.07148270625404339,-0.22510602887212544,0.05298746207011698,-6.367534771092178,-11.359384291706558,5.114048829215684,-0.10692156297308852,-0.17482502604763997,-0.6072172884869766,0.029720830679082155,0.014532609118194983,-0.002665333862212904,56.31014248346452,66.9540868284407,73.18266268602316,0.019368090846906147,0.03007052675148842
4312,1724812530958890648,-1.103102445602417,-0.4501594007015228,0.1782256960868835,-0.0773010775446891,-0.0684393048286438,-0.3014637231826782,0.9478713870048524,0.0,0.0,0.0,0.14934260341374617,0.6841127804602645,0.4811891836468044,0.196215516,0.1782256960868835,-0.008226501021145177,-0.25506621705119725,0.06200576132671873,0.837896792304571,9.603542376765278,1.0381468422287363,-0.1071602578128327,-0.1772773578472455,-0.6063205908781465,0.02819569032759972,0.022283115366583672,-0.003505298742368268,69.24108583518398,51.288833048879354,91.65689976485861,0.011804718220516857,0.03513764630625741
4314,1724812530970249855,-1.1027923822402954,-0.4498707056045532,0.1781900376081466,-0.07767965644598,-0.0681881979107856,-0.3010926842689514,0.9479765892028807,0.0,0.0,0.0,0.6801339157992747,1.2724590674805887,1.4662107777755078,0.207574723,0.1781900376081466,-0.07060666225104321,0.018030750715713677,0.07548631312873923,-4.921784687558395,13.637702317970534,-9.56368922440554,-0.10811098379276811,-0.17698165538103972,-0.605477029132973,0.03382883558278138,0.02880067231590644,0.009312982829845495,9.872997257296902,45.9160363496272,30.47495579322615,0.007301375098182442,0.03712982701212568
4316,1724812530980273009,-1.1023955345153809,-0.4495520889759063,0.1783935129642486,-0.0780914202332496,-0.0677618309855461,-0.3017047345638275,0.9477787017822266,0.0,0.0,0.0,0.45313912647318944,1.680690562161617,1.274258994451034,0.217597877,0.1783935129642486,-0.1148989282428911,0.06270622392387065,-0.1154515512250326,-11.495319952560791,10.065271482762462,-10.868466766552164,-0.10904501543709848,-0.17648223590315085,-0.6067147762610321,0.042275243401412865,0.047734115067303406,0.026996290632480324,-45.6349553705744,-60.09439588120989,-75.04307239250289,0.017742504992355246,0.048886539689110206
4318,1724812530989413394,-1.1019867658615112,-0.4489828646183014,0.1786960810422897,-0.0789764299988746,-0.0665568187832832,-0.3024975657463074,0.9475379586219788,0.0,0.0,0.0,-0.15559456298570362,0.29100621821603845,0.1224542849562722,0.226738262,0.1786960810422897,-0.2789543244055947,0.20145177254078503,-0.14660014073628297,-12.670950597987503,6.19176490971094,-0.4231904019813584,-0.11132245882697174,-0.17479938183156665,-0.6082730236362736,0.04317006429386083,0.06136018431676149,0.034559289627855705,-29.476625779538935,-137.08651266435373,-112.16314946881371,0.00685215222962272,0.06990162155691801
4320,1724812530998636701,-1.1016030311584473,-0.4484254419803619,0.1790283918380737,-0.0802096202969551,-0.0653534233570098,-0.3032034337520599,0.9472925066947936,0.0,0.0,0.0,-0.08197622552176731,-0.8342330992401419,-0.7831632505279559,0.235961569,0.1790283918380737,-0.34670515696870513,0.17491258136846222,-0.12272566485532453,9.48525616872707,-3.3178294951667677,4.85682916881013,-0.11429052337822412,-0.17332378568851897,-0.609599422534005,0.03937572193618166,0.0528781900522759,0.029127557621849043,6.032630732465043,-58.82231003089049,-46.52039795154616,0.0057296670033586605,0.06624213512809722
4322,1724812531009440746,-1.101205825805664,-0.4479497969150543,0.1792557388544082,-0.0801360383629798,-0.0646371468901634,-0.3034847974777221,0.9472577571868896,0.0,0.0,0.0,-0.041467160304223594,-0.6701998923618864,-0.6318828835134742,0.246765614,0.1792557388544082,-0.031219639884083848,0.13349272482816754,-0.041544900440958904,28.41162433232823,-2.8666583645370123,5.202046855681534,-0.11452135403269341,-0.17194218459956973,-0.6102191725698974,0.04265896184007545,0.04494580671520154,0.018207863175932815,-16.980254083629326,7.543982550769819,30.317548351045374,0.0084291656855107,0.05390014838662187
4324,1724812531018729835,-1.1007624864578247,-0.4475249350070953,0.1794022321701049,-0.0789749100804328,-0.064456433057785,-0.3035106956958771,0.9473593235015868,0.0,0.0,0.0,-0.36475719787117344,-0.6611292463620712,-0.21995691509000592,0.256054703,0.1794022321701049,0.2263965835768955,0.11458770577644455,-0.011686567832717466,6.668234059488181,-6.3636115188797095,1.9136027776478137,-0.11237881046394703,-0.17089691375809854,-0.6104509700611636,0.039515554333895864,0.03923144063704598,0.015363727318704612,7.9664331457784705,12.73424703121584,17.333319333621983,0.015382629378009102,0.06413519424988627
4326,1724812531031522622,-1.1004016399383545,-0.4471376836299896,0.1795916110277176,-0.0794144347310066,-0.0646072253584861,-0.3035747408866882,0.9472917914390564,0.0,0.0,0.0,0.490672165678943,-0.29107417577237693,-0.47411040673141297,0.26884749,0.1795916110277176,-0.05942132275923404,-0.04307893770684013,-0.010122755751726952,4.269671829656283,-2.7009748591592397,2.783240320848333,-0.11312745075966761,-0.17145908598844956,-0.6105186334885412,0.03438489309858994,0.02996403855800267,0.014068950699432037,45.54434282904765,48.309988701267955,8.539077531426837,0.008198642002837016,0.03939529257566262
4328,1724812531041632070,-1.1000046730041504,-0.4468372166156769,0.1797279715538025,-0.0784770995378494,-0.0648615956306457,-0.3033250272274017,0.9474325180053712,0.0,0.0,0.0,0.780745894112945,0.35216404864689643,-0.16085081073748264,0.278956938,0.1797279715538025,0.19634293606159842,0.0064987725285802714,0.03927285310148514,-4.7256980578471675,-15.968876088527596,12.924639259337924,-0.11120955582251066,-0.1713493631919706,-0.6101257107327084,0.04646931305570945,0.030483449592502154,0.00629688504466408,-45.006026377451796,56.25881539857057,107.66476083942422,0.01723077652388686,0.04808056453583668
4330,1724812531049101256,-1.099617838859558,-0.4466053247451782,0.179735317826271,-0.0787953734397888,-0.0656100809574127,-0.3026216626167297,0.9475794434547424,0.0,0.0,0.0,0.03787943067180799,0.7317080709388641,1.0664626663756476,0.286426124,0.179735317826271,-0.00464764919113651,-0.2279627186359062,0.18016995847520992,-12.725880397564023,0.5930946918107871,2.286926219715604,-0.11150964948235663,-0.17289195237288874,-0.6085761702705932,0.05001281698989146,0.03477370450075412,0.008450370470320046,-68.83223727559303,24.069775495509223,114.00722610152721,0.024543373782933062,0.05991008723558271
4332,1724812531059083583,-1.09914231300354,-0.4462084770202636,0.1799192875623703,-0.0782081261277198,-0.0647361800074577,-0.3027689754962921,0.9476410746574402,0.0,0.0,0.0,-0.24065321227505576,0.6151755771017131,1.5333357629786402,0.296408451,0.1799192875623703,0.05754032429129581,0.2046527899345672,-0.018154025887110844,-17.338063797847887,16.1573435271903,-16.719214026884213,-0.11086463230519572,-0.1708817421607344,-0.6089889609944161,0.04456707703067053,0.0441765913383243,0.029477450977573483,-4.114828602605631,-43.59448840587214,-46.71653742980926,0.019227653422449975,0.06033075872098059
4334,1724812531069661573,-1.0987052917480469,-0.4456916153430938,0.1803549379110336,-0.0799946263432502,-0.0638221949338913,-0.303731620311737,0.9472458958625792,0.0,0.0,0.0,-0.01753826936830638,-0.2037708744429243,-0.008739963208264312,0.306986441,0.1803549379110336,-0.3900384571267244,0.0708900724804138,-0.15971983086224595,-8.954059238931963,-9.813856872602392,1.28881591157152,-0.11468672018180845,-0.17032679011107588,-0.6107781957726727,0.0454389648906357,0.04702099538708637,0.03927312663500082,3.5416726719474667,-52.85080836029418,-116.41481715943141,0.012718798423638657,0.05899153402644335
4336,1724812531078991453,-1.0982474088668823,-0.4452680647373199,0.1807056218385696,-0.0808625072240829,-0.0635385438799858,-0.3039108514785766,0.947133719921112,0.0,0.0,0.0,-0.12892025873491986,-0.4946830047219677,-0.8532163753295974,0.316316321,0.1807056218385696,-0.19907282744534074,0.0026286824510870126,-0.026959991947674827,17.820551626799617,-1.588194376845904,8.568138899768096,-0.11650057195242533,-0.17033141941161875,-0.6110345217532599,0.04445273590410892,0.04123022551040023,0.03149921953885482,-5.173033889340797,-19.278259029146106,-48.033936036902276,0.020318291691719198,0.06353968772867473
4338,1724812531089369044,-1.0978394746780396,-0.4448882937431335,0.1809622347354889,-0.0809986442327499,-0.0632126107811927,-0.3039641976356506,0.9471268653869628,0.0,0.0,0.0,-0.10451385372284117,-0.5573556119261243,-0.8613577314751311,0.326693912,0.1809622347354889,-0.04469984777318583,0.05226779335908497,-0.003392578614465725,8.04908758444146,-5.547966090234057,7.040253561469081,-0.11694761613098789,-0.16979682522359008,-0.6111341913871161,0.042846898822631374,0.03755086162207277,0.02241415145722847,12.53544569366443,0.2540707353094689,29.529980280007788,0.01521335335257357,0.05143361725006881
4340,1724812531098263177,-1.0974314212799072,-0.444547027349472,0.1811439543962478,-0.081233911216259,-0.0634635612368583,-0.3035413026809692,0.9472254514694214,0.0,0.0,0.0,0.08460499219462037,-0.5071237619453017,-0.36763488065078875,0.335588045,0.1811439543962478,-0.025146935294616514,-0.07582901956551792,0.09557918817891888,11.301682018093198,-3.9398140536621695,6.262550397471899,-0.11732978570272279,-0.17036725172325712,-0.6101974723670859,0.042300205546617065,0.031047725639709256,0.014860547265517887,11.31632746049534,21.60185686512993,57.43971736562212,0.01885035517539466,0.0580661675717692
4342,1724812531109306596,-1.0970133543014526,-0.4443045556545257,0.181231677532196,-0.0800536200404167,-0.0636696070432663,-0.3029604852199554,0.947498083114624,0.0,0.0,0.0,0.07318185890383955,-0.04980135994779311,0.29314174372055524,0.346631464,0.181231677532196,0.22448716901120025,0.024125751293038702,0.09802700747066893,9.924447572951959,20.355156369531528,-6.149029772500171,-0.11503015197998825,-0.16997714998328148,-0.6091378666795539,0.045237481728698015,0.02851950606586584,0.01740495197706693,-11.660308718983455,21.906772613640296,21.041011431669517,0.019562659402154528,0.04285636088687475
4344,1724812531118976958,-1.0965133905410769,-0.443973183631897,0.1814801096916198,-0.0786086395382881,-0.0625367313623428,-0.303087443113327,0.9476539492607116,0.0,0.0,0.0,-0.1295581004333033,-0.0031197307521950712,0.16811251133449767,0.356301826,0.1814801096916198,0.21308281530152212,0.3166907103105942,-0.015383419731321856,-12.952982309540532,3.0601468950473016,-2.8156611241559593,-0.1128852071206955,-0.16695143063908832,-0.6096410838877528,0.04431259832001189,0.029554812008068865,0.020771036396873832,-13.318517260091248,-8.426756676070784,-17.26330995402342,0.0267192554902603,0.05999803315860835
4346,1724812531129810997,-1.096122980117798,-0.4437101781368255,0.1816454380750656,-0.0789574012160301,-0.0622934997081756,-0.3027998507022857,0.9477328658103944,0.0,0.0,0.0,-0.18103933866538124,-0.25528978207466935,-0.07152620840606594,0.367135865,0.1816454380750656,-0.07015614941943239,0.019775097244546506,0.062282815142278285,-18.110959747652387,-15.138003040676326,2.1269043740376454,-0.11375407737911832,-0.16666224530882656,-0.6089857207102951,0.042497284042653405,0.028183682881234517,0.020407943026340192,56.828542801448634,9.676818017437995,-2.36876652005891,0.01798511417151871,0.042247527023586494
4348,1724812531139017220,-1.0956811904907229,-0.4434201419353485,0.1818735897541046,-0.0797617584466934,-0.0621384941041469,-0.3026559948921203,0.9477216005325316,0.0,0.0,0.0,0.8238791330563606,0.09158442089547314,0.06117265190423088,0.376342088,0.1818735897541046,-0.17405175875171297,-0.02361784600201759,0.04242148411094822,-5.8977244658913595,-4.143001224327806,-2.0754085808552714,-0.11542591419412306,-0.1668335841096076,-0.6085670309392437,0.040725119901793505,0.024826357470594473,0.019452088806265255,92.97619136120244,36.79296553356009,10.281319002880075,0.025180715968949594,0.05548903404558889
4350,1724812531157822340,-1.0951943397521973,-0.4432097971439361,0.1820346415042877,-0.0806872323155403,-0.0626210272312164,-0.3025834262371063,0.947634756565094,0.0,0.0,0.0,1.950786646095926,0.7494754120731573,0.09576664493442255,0.395147208,0.1820346415042877,-0.0780072185877633,-0.07961574708477522,0.006541930743559411,40.164932607281855,-2.7925436080309733,21.57541157826669,-0.1169428979624457,-0.16830644192740038,-0.6082671775314412,0.09525962243236563,0.04407479611442966,0.026940468828868802,-447.6844882037202,-163.31416082508227,-88.83207310138887,0.01607857274552956,0.026874962771539574
4352,1724812531162712764,-1.0946402549743652,-0.442952424287796,0.1821897625923156,-0.0804000794887542,-0.0629291981458664,-0.302211195230484,0.9477574825286864,0.0,0.0,0.0,-0.8841559633627805,-0.3013954333650206,-0.45397559265196485,0.400037632,0.1821897625923156,0.16300235589689907,-0.09303686032150302,0.1419208717810968,6.727831212776046,14.005935237700282,8.913290738507875,-0.11627200289224486,-0.16867758056354212,-0.6075141964552104,0.10359261537168152,0.04739145114307064,0.02702416301357502,-475.839368123971,-189.46094804241275,-104.81949962078536,0.06741672324617007,0.12014492130282646
4354,1724812531168671641,-1.0940934419631958,-0.4427080452442169,0.182316705584526,-0.0806091874837875,-0.0625033900141716,-0.3020919263362884,0.947805881500244,0.0,0.0,0.0,-2.9655704016190634,-1.24578362737731,-1.0234548998175952,0.405996509,0.182316705584526,-0.10588266021662682,0.1120427710527962,0.05875560245251643,-27.77463625843059,26.115504849718327,-13.667185679903067,-0.11694882853531409,-0.16797371835297498,-0.6072402213769446,0.07953247868849189,0.03848290677938415,0.020898508674562777,-145.85135862862265,-89.50267850831241,-69.65799131612698,0.05478865249644716,0.09671028847163364
4356,1724812531179949293,-1.093457579612732,-0.442328006029129,0.1825437545776367,-0.0804478377103805,-0.0612346529960632,-0.3026898503303528,0.9477116465568542,0.0,0.0,0.0,-0.2681282970905965,-0.7828305553295272,-1.2560090592155233,0.417274161,0.1825437545776367,-0.04882495477245095,0.22940360912388652,-0.08920235196063345,11.88604457565415,-7.756598104278527,17.240799863155946,-0.117280421507714,-0.16552185458844906,-0.6085599340373818,0.06897111629481856,0.029752715127230545,0.009453095368083808,119.91175651205793,38.68613495763366,30.755154679097785,0.029943578226941426,0.0639374577046311
4358,1724812531188380934,-1.0927966833114624,-0.4421020150184631,0.1825561374425888,-0.0800712406635284,-0.0610733591020107,-0.3016929924488067,0.9480717182159424,0.0,0.0,0.0,-0.0089537250771059,-0.4715474430091854,-0.6728266082869553,0.425705802,0.1825561374425888,0.09442826504781049,0.04950543024344159,0.24755295355432613,15.408947164313632,-27.760994146521043,24.690129112670277,-0.11682169697468513,-0.16486353046981028,-0.6065077228201488,0.0709235776457362,0.023097222980862142,-0.002657190356766037,33.54467648195252,54.17749634705745,114.09139864386673,0.048700121478187246,0.07902515416923693
4360,1724812531198595849,-1.0921645164489746,-0.4419119358062744,0.1824779361486435,-0.0795265212655067,-0.0628222823143005,-0.2999851703643799,0.9485450983047484,0.0,0.0,0.0,0.36843179467371856,0.2954577817708124,1.0485753885001365,0.435920717,0.1824779361486435,0.23226380162097,-0.31358129375457194,0.3110445811264603,7.634990588215223,1.8522673229325484,-9.540011622629672,-0.11504095302824527,-0.16767771881809196,-0.6029319249207462,0.06785563029264097,0.022213288300829248,-8.192611776181025e-05,19.567781250804423,53.53147499777475,103.77948403293684,0.03857813418018587,0.06158250947219601
4362,1724812531208383720,-1.0914443731307983,-0.4416607022285461,0.1825481653213501,-0.0782967433333396,-0.0629084259271621,-0.2996044456958771,0.9487619996070862,0.0,0.0,0.0,0.3969874851975832,0.6172565089814201,1.4571892221067964,0.445708588,0.1825481653213501,0.2520484862504071,0.05528323108573237,0.06990152075921004,-4.659597001808892,24.970791957827664,-26.686159804170607,-0.11267839207977708,-0.1670623830445414,-0.6023048789488957,0.07773398960670619,0.028687767079965454,0.017651205014708182,-36.016579522465705,3.6494116397406327,-33.857483975647305,0.04663775652748067,0.07410944668366426
4364,1724812531218235366,-1.0906373262405396,-0.441348135471344,0.1828259378671646,-0.0773181840777397,-0.0623782724142074,-0.3006252646446228,0.9485543370246888,0.0,0.0,0.0,-0.3438986461131539,0.36339030177175236,0.373955993226996,0.455560234,0.1828259378671646,0.13989663647239134,0.17520590639196149,-0.21332093923287088,-4.571857037306299,11.720306759855807,-14.731066465194406,-0.11091726126279482,-0.1655815560751274,-0.604617822579972,0.0755739249007803,0.0343302489472741,0.028491195397897684,-42.29651242301543,-59.0773011401178,-130.28097850412487,0.05333405093843318,0.08285024512298551
4366,1724812531228980322,-1.089899659156799,-0.4409487545490265,0.1831355392932891,-0.0759012997150421,-0.0612321943044662,-0.3017468750476837,0.9483873844146729,0.0,0.0,0.0,-0.4127176419192726,-0.6617426276659792,-1.264118338797687,0.46630519,0.1831355392932891,0.17060640925038584,0.2958365324698229,-0.20732866758020613,-3.4231119255976417,-9.081967028028918,13.825051966337544,-0.10865971331054743,-0.16266605669459644,-0.6072154391355958,0.07041806682611451,0.035781376895165806,0.02399684922666978,8.463860340949992,-61.018772269739856,-71.11753553538179,0.039374076185485454,0.07522825010843849
4368,1724812531238415235,-1.089220643043518,-0.4406226575374603,0.1833220422267913,-0.0754651948809623,-0.0611557029187679,-0.3015891313552856,0.9484771490097046,0.0,0.0,0.0,-0.20968129209720576,-0.9525655261083372,-1.2612952993561868,0.475740103,0.1833220422267913,0.08627266158692445,0.0418997542296801,0.033024248031993796,-9.367938899609474,-32.38390698923387,21.89793587429684,-0.10788947467575834,-0.16223933573812618,-0.6069446809300217,0.0670801919311188,0.022936773756722317,0.005062534954232589,39.00061121468938,40.020225829595226,67.35308300864362,0.042076806679494365,0.07703722179309398
4370,1724812531248225400,-1.08861243724823,-0.4405162334442138,0.1832217127084732,-0.0760655403137207,-0.0626051798462867,-0.3004855215549469,0.9486849308013916,0.0,0.0,0.0,0.35123256757889676,0.16267604231514454,0.08342196034935317,0.485550268,0.1832217127084732,-0.010009028493126584,-0.3315806591383258,0.21136094963427812,-6.339926168487818,-9.402087093005193,-1.2182097248662893,-0.10838627005639272,-0.16524943032322628,-0.6044995844943108,0.066493030603894,0.017762105628261082,0.00029378041007355193,19.5014043797058,74.25884264378055,80.95826474774039,0.04255180778286572,0.057351448609215025
4372,1724812531259043435,-1.0878394842147827,-0.4402416050434112,0.1833503991365432,-0.0763932690024375,-0.0630269199609756,-0.3006309270858764,0.9485846161842346,0.0,0.0,0.0,0.11275264087236003,0.49571127541049465,0.28980297376775,0.496368303,0.1833503991365432,-0.037145025880185346,-0.09129127089179395,-0.03321296377796349,-22.203268694530855,2.0234058917482916,2.340690571724764,-0.10874625673818437,-0.16627014441546545,-0.6047532540389304,0.07519669401126094,0.027755126127662066,0.00799036687414123,-17.073652223631385,-4.761026461747065,-11.750974419126141,0.045701817222878936,0.07181493292351557
4374,1724812531268301592,-1.087113618850708,-0.4399658739566803,0.1833934336900711,-0.0785218998789787,-0.0634270012378692,-0.2998469173908233,0.9486322402954102,0.0,0.0,0.0,-0.005931598715941178,0.16999313152426232,-0.06324957067268011,0.50562646,0.1833934336900711,-0.3987527582443806,-0.23251597068709284,0.18613085685080838,-3.3172395246337008,-0.6878661345974417,6.3063291994998725,-0.11276727390660235,-0.1682191426196458,-0.602775001624162,0.07075931601938379,0.028953163928990833,0.007332544039652333,4.568713037093439,-28.145761644726065,-16.135707480110824,0.04780583324454858,0.08057297548590095
4376,1724812531280688752,-1.0863637924194336,-0.4396209716796875,0.1835287511348724,-0.0776156708598136,-0.0637196078896522,-0.2999274432659149,0.948661744594574,0.0,0.0,0.0,0.33884720145634617,-0.06204073863431114,0.10147105726437766,0.51801362,0.1835287511348724,0.1525167166747358,0.00037914875753860595,-0.023895402573545124,11.604183161172287,25.342855435782756,12.15139436253866,-0.11082797599451902,-0.16824749529522065,-0.6030738839920247,0.07853119540357056,0.031731615829514226,0.006678398409279751,-71.71438820398252,-33.41942210993274,29.57494832606704,0.03541048087243547,0.06445837315967225
4378,1724812531288484102,-1.0856633186340332,-0.4393545389175415,0.1835599839687347,-0.0770981013774871,-0.0628997683525085,-0.2991866767406463,0.9489925503730774,0.0,0.0,0.0,-0.7085422584850627,-0.39460962420055457,0.41186919633024077,0.52580897,0.1835599839687347,0.08158275298471357,0.23002621327474435,0.21361649361888996,-10.799879375440991,11.254729660010923,5.7221205384113505,-0.11043803012340057,-0.16628148149060906,-0.6015962411466416,0.07975700996011881,0.029843284913980028,0.008226246757573108,-40.83434732413169,-11.321247928085779,47.810707094319284,0.05464640551800139,0.09250632805009244
4380,1724812531298752538,-1.0849809646606443,-0.4391067326068878,0.1837015300989151,-0.0771802216768264,-0.062359981238842,-0.2995465993881225,0.9489079117774964,0.0,0.0,0.0,0.1372021376950987,-0.08693625109680858,1.0109156149221568,0.536077406,0.1837015300989151,-0.052314333198614,0.09935500497097743,-0.062347321809104995,-6.5345827770368965,-7.669115454266065,-15.375371840061629,-0.11084987410965834,-0.16533817643861276,-0.6023555543864239,0.060770593331398004,0.02373026717473259,0.015340737002715876,80.49050194568159,9.39349068257998,-6.85422315236834,0.042791528856823524,0.066967036232576
4382,1724812531311714465,-1.0842862129211426,-0.4388057291507721,0.1839258372783661,-0.0771780535578727,-0.061828888952732,-0.3000521957874298,0.9487832188606262,0.0,0.0,0.0,1.149868155206402,-0.3017359824821111,-0.14460987874722608,0.549039333,0.1839258372783661,-0.030579149531931582,0.08268111972152145,-0.0734861639275805,-25.10640792233211,0.32852939444530094,-27.894556445439502,-0.1110690270972552,-0.16437857413098172,-0.6034356695112794,0.0950472461049543,0.030921570903373663,0.03364831551475689,-166.7479611983511,-67.345644945045,-162.90520678244647,0.03336982241653552,0.05575311681597235
4384,1724812531318165674,-1.083539962768555,-0.4385815262794494,0.1841953843832016,-0.0778754651546478,-0.0613685436546802,-0.3011710941791534,0.9484014511108398,0.0,0.0,0.0,-0.7120986397454954,-0.899221925153251,-1.4323658099938192,0.555490542,0.1841953843832016,-0.27854139384131305,0.0899856559872557,-0.340244295617193,-16.157351647835966,-4.306814062756434,-14.693034845395122,-0.1124937597215935,-0.16404650328896964,-0.6057122526706356,0.09766661674745336,0.0262248404982941,0.027716128715504773,-195.297666595281,-47.467882682248565,-125.54093084510194,0.08112246980789503,0.11110204620253192
4386,1724812531329144038,-1.0828042030334473,-0.4384529590606689,0.1842368692159652,-0.0781783014535904,-0.0616111233830452,-0.3011776506900787,0.9483587741851808,0.0,0.0,0.0,-1.112601833796497,-0.5768613398823195,-1.4267199946653686,0.566468906,0.1842368692159652,-0.03969229515669746,-0.05891168034479614,-0.0035301521108834664,6.021130779474211,-12.370107417482492,18.357583356996415,-0.11293520518378898,-0.16469352754746971,-0.6056776034491527,0.06895958108562894,0.01315473225857744,0.0024103678882223534,26.76705125872335,41.43720102518088,56.538693671783804,0.048394411243709454,0.06089099332320453
4388,1724812531338819798,-1.082120418548584,-0.438313364982605,0.1842485219240188,-0.0789747238159179,-0.0621892586350441,-0.3008312284946441,0.9483649134635924,0.0,0.0,0.0,-0.3142479117125814,-0.07296185259773813,-0.4019049659487112,0.576144666,0.1842485219240188,-0.11561867994008143,-0.16843094618447677,0.06909067328673654,3.325646328711729,-10.667146123154893,12.605191282452198,-0.11419564056043435,-0.16623694283266552,-0.6048168718090605,0.07100525557905257,0.012806378654246942,-0.0039040222424056026,123.69361002603065,69.15827587288754,121.72336639746655,0.04944095760376197,0.06562103091077302
4390,1724812531348338464,-1.0814414024353027,-0.4382066428661346,0.1841635257005691,-0.0793292522430419,-0.0633207112550735,-0.2996565699577331,0.9486323595046996,0.0,0.0,0.0,1.248791879687761,0.7452693844059762,0.9047638976571654,0.585663332,0.1841635257005691,0.020659739788962187,-0.26386454800694825,0.23682998535287542,15.920190684496351,3.536828572933124,5.722703394405043,-0.11442574569994368,-0.16847507967104672,-0.6022550651576276,0.06309159142065823,0.011765789230221202,-0.005382092851150766,85.76789687514525,38.39718900119421,75.35053713477593,0.050193315915080305,0.06508733836942675
4392,1724812531363934123,-1.0806680917739868,-0.4380089938640594,0.1841702312231063,-0.0767252221703529,-0.0630112737417221,-0.2994248867034912,0.9489402770996094,0.0,0.0,0.0,0.5820708871082267,0.12873777921730234,0.4976038535136045,0.601258991,0.1841702312231063,0.30991180676753316,0.13785572765600596,0.022020252259602694,-69.10272820635174,-0.08344400270291885,-52.33283997520455,-0.10960951893002453,-0.16630022038343206,-0.6021527163697008,0.13572076364076224,0.04522557368355251,0.03581497447726889,-505.0307058994508,-228.64881785041706,-251.02249533524707,0.03329193940858229,0.047592922139338766
4394,1724812531368508862,-1.079931616783142,-0.4377584159374237,0.1843815594911575,-0.0768847987055778,-0.0627505481243133,-0.3000448644161224,0.948748767375946,0.0,0.0,0.0,-2.348659205179738,-1.1710515161924417,-0.9525783772335379,0.60583373,0.1843815594911575,-0.12383462814751532,0.10279603263529616,-0.2691324021175056,-60.78972787335621,-7.400617519383716,-37.833252466587204,-0.10996217968529196,-0.16596767708440435,-0.6034458180452266,0.13291531216318475,0.04310822801154757,0.03521433238585736,-468.1868289276044,-200.4167334424212,-238.05180724768877,0.10770843817963396,0.1590774812437112
4396,1724812531378882818,-1.0792131423950195,-0.4375856518745422,0.1844885647296905,-0.0765909180045127,-0.0626852065324783,-0.3003106117248535,0.9486927390098572,0.0,0.0,0.0,-3.1488725848424384,-1.2810046549440495,-1.564943283713658,0.616207686,0.1844885647296905,0.04592848184323088,0.03221264240434007,-0.054435522001131456,-4.171816320569455,-9.494664787116497,10.599543333192582,-0.10938564262817156,-0.16569731106804764,-0.6040519911112961,0.0677255584180827,0.014299253086310415,0.006011961782245834,130.64881470595867,69.76176699807583,47.85371058591054,0.04859295895602716,0.06511796386965275
4398,1724812531388428048,-1.0785801410675049,-0.4374698400497436,0.1845081597566604,-0.0774849206209182,-0.0628222450613975,-0.3005224764347076,0.9485439658164978,0.0,0.0,0.0,-0.07687976076621128,0.0906721690155553,-0.16944852484055853,0.625752916,0.1845081597566604,-0.1742556491437329,-0.08204828918702335,-0.04193253566000051,0.21807124994155203,6.960749811374225,0.12300232355261986,-0.11099669282638776,-0.1665197432867921,-0.6043680347251617,0.06520359351620897,0.015211080335038929,0.0020528329109072985,191.24859515174393,83.69328251033974,97.15982566745166,0.0473552192605548,0.06070032121498474
4400,1724812531399185795,-1.077892184257507,-0.4372688829898834,0.1845302432775497,-0.0765434950590133,-0.061889074742794,-0.3008581697940826,0.9485753178596495,0.0,0.0,0.0,0.3972522840438639,0.2634499424786524,0.28121778052528706,0.636510663,0.1845302432775497,0.11041069863699245,0.22236131693284894,-0.05499920309426525,6.715152787322842,4.806533834508425,-2.9678094981001166,-0.10966682051630486,-0.1642073238430937,-0.6052312562170155,0.06664781133227393,0.01612764713928172,0.0032043652120865573,1.3943662556227556,-14.637978012805306,-11.565069200429821,0.04173346387145065,0.06257575156918319
4402,1724812531408257565,-1.0772669315338137,-0.4371421039104461,0.1845681220293045,-0.0763117894530296,-0.0615786612033844,-0.3012925684452057,0.9484763145446776,0.0,0.0,0.0,0.08340496034593281,-0.10418860474297342,-0.2326476393999809,0.645582433,0.1845681220293045,0.020268851428524727,0.08626416097552952,-0.09533436210572045,-8.783390313019122,-3.466027515070415,-5.513724660427823,-0.10932666235433132,-0.16352395363233121,-0.6061892884942317,0.07226357309265552,0.0198812157593089,0.007087955847099536,-59.34759963286726,-43.82090229080964,-35.76010640365925,0.048710725862565064,0.0637098589038668
4404,1724812531418129014,-1.0765177011489868,-0.4368824064731598,0.1846693754196167,-0.0762540847063064,-0.0607351958751678,-0.302129864692688,0.9482690691947936,0.0,0.0,0.0,-0.7683136817603047,-0.5721617357102229,-0.3613200274320035,0.655453882,0.1846693754196167,-0.05404942984260143,0.17596739466840378,-0.16122945583155718,-6.073698879121554,-14.70738495673573,11.384596702859385,-0.10956930223918279,-0.16197116925727237,-0.6079849020825382,0.06733334455475415,0.013289077058836085,-0.002306073087812166,-32.12694242555446,7.742669551631106,38.47961342001209,0.04830566180014369,0.07609161368056805
4406,1724812531428872141,-1.075894474983215,-0.4368918538093567,0.1844977140426635,-0.0772535279393196,-0.0618241131305694,-0.301178902387619,0.9484203457832336,0.0,0.0,0.0,-0.4803001752485758,0.15581322912047957,0.6543663958271646,0.666197009,0.1844977140426635,-0.10228946220019197,-0.2602361766552941,0.1722292414406502,-14.52395467382113,-3.5762421403273192,-3.1571849029003483,-0.11102184845824713,-0.1645462826799364,-0.6058092457559147,0.05593567999861904,0.008260434403727146,0.0007140657141615492,21.084508733116305,33.44898342134578,17.80467063660241,0.04492042031015102,0.047663320071828594
4408,1724812531438480934,-1.0753748416900637,-0.4367339313030243,0.1846480369567871,-0.0786690041422844,-0.061298094689846,-0.3019772469997406,0.9480841755867004,0.0,0.0,0.0,-0.32690190092777627,0.18232428054052774,0.16594177446653807,0.675805802,0.1846480369567871,-0.3280785355171607,0.023617229720874797,-0.15199959093240722,-4.385594213528305,4.359905069622252,-8.645266834077736,-0.11392911189216819,-0.1644846978724265,-0.6073061857497745,0.05631060828117995,0.015119493107029314,0.010209477529183886,458.63170050315097,36.525474992623714,-108.91655345613364,0.037118968113919626,0.052303834485038475
4410,1724812531448421264,-1.0747921466827393,-0.4365971684455871,0.1846936345100402,-0.0797884762287139,-0.0619319900870323,-0.3018603324890136,0.947986662387848,0.0,0.0,0.0,8.784132305252971,0.8926301375695296,-1.5140361716985815,0.685746132,0.1846936345100402,-0.17513229696036178,-0.191988840456616,0.020150561703831484,13.013294678861687,-15.295998827272928,13.182430818236252,-0.11573971379834846,-0.16635761248051892,-0.6068827574841682,0.049298215859536754,0.01146620559053435,0.0034034576770216596,2668.8317938868868,558.0611442824982,265.3616753521087,0.040508242013624025,0.05517935858837549
4412,1724812531481597376,-1.0741887092590332,-0.4364705681800842,0.1846754848957061,-0.0798422843217849,-0.0617674700915813,-0.3018852174282074,0.9479848742485046,0.0,0.0,0.0,291.3464969716747,73.28673292396644,55.385518333598384,0.718922244,0.1846754848957061,-0.006170419355271185,0.008535962313478623,-0.00046244820694641515,14296.866281602961,-874.9421895869118,1016.5862139715023,-0.11593636159099145,-0.1660780721179181,-0.6069313242948948,1.3914662774768658,0.18061196236180876,-0.13865695434998315,-318544.484049739,-46689.78114277817,23748.10262258553,0.012497891899635093,0.016994324687521458
4414,1724812531482032524,-1.0735753774642944,-0.4363909661769867,0.184614360332489,-0.0785742774605751,-0.0622510202229023,-0.3017014265060425,0.948117733001709,0.0,0.0,0.0,150.8657870944994,52.69083003629402,65.84521193846774,0.719357392,0.184614360332489,6.296653129681875,-0.3772216415320992,0.44770875605710464,-181.48300797797856,730.0130479571285,315.53095741782266,-0.11323199662585393,-0.16621888126659673,-0.6067160941210686,1.5196770897555325,0.21289172472302198,-0.1142155023864575,-347367.6729132158,-53938.653292589384,18180.038231804763,1.0158567484466963,1.258327649204703
4416,1724812531482368866,-1.0730355978012085,-0.4363115727901459,0.184582769870758,-0.0781771540641784,-0.0623230710625648,-0.30162113904953,0.948171317577362,0.0,0.0,0.0,27.65348515215884,32.831144021264535,70.43725649768007,0.719693734,0.184582769870758,2.4229261930695563,0.28855856270177827,0.36811236731259855,-10985.784097763451,1883.7081771386445,-228.78071084670214,-0.11243585289749597,-0.16610848653829702,-0.6066023734644057,1.5330431514954377,0.22502700992076585,-0.08955323117091663,-349969.4819430497,-56598.32617023192,12555.152056151566,1.1521378216879017,1.444368589118634
4418,1724812531489098576,-1.0723880529403689,-0.4362814128398895,0.1845685839653015,-0.0779185444116592,-0.0621800161898136,-0.3019845187664032,0.9480863213539124,0.0,0.0,0.0,-124.51442357741459,-18.46139459192541,7.115897660996417,0.726423444,0.1845685839653015,0.051344316034022834,0.07036066385627546,-0.11148076442671276,-188.547392802799,0.7692290314725199,-37.1093510457676,-0.11195660114471577,-0.16572195105585155,-0.6074120135415219,0.09174202222774852,0.008480995308243422,-0.004367899633438199,-7325.054325830579,-3515.218015685407,-5728.622293034544,0.07505737679282874,0.08068692371269308
4420,1724812531498257242,-1.0716036558151243,-0.4361538887023926,0.1845004111528396,-0.0756389647722244,-0.0605639852583408,-0.3021653592586517,0.9483178853988647,0.0,0.0,0.0,-1.0689377152899167,0.5296557386309901,0.5255228827206371,0.73558211,0.1845004111528396,0.3668701140575662,0.4911248134628806,-0.025625819600930817,15.656439231963983,19.67242286672487,7.511332083106322,-0.1084764439705343,-0.1612770052497811,-0.6081498781067842,0.06884892374891294,0.010362407703057741,-0.00827545436732624,8366.703862411796,1275.9841585383128,-452.91663684770793,0.06033010105717583,0.07799962711904368
4422,1724812531513082381,-1.070986032485962,-0.4360857307910919,0.1843577623367309,-0.0742759406566619,-0.0598011724650859,-0.3018955886363983,0.9485599398612976,0.0,0.0,0.0,0.2974082382947678,0.3064837145738446,0.21016748501929872,0.750407249,0.1843577623367309,0.14795566884642705,0.15237662175216363,0.041027200782986994,-21.287831275252294,57.347553377492176,-46.32194873685608,-0.10634153716917671,-0.15896581987816624,-0.6077826433691892,0.08733429246808555,0.02599535994004043,0.022365254622137343,-116.51680281468592,-91.11169325990122,-171.27273710061223,0.029653190738347813,0.037102663207271916
4424,1724812531518689133,-1.070399522781372,-0.4358946084976196,0.1845509856939315,-0.0736367776989936,-0.0581691190600395,-0.302894651889801,0.9483927488327026,0.0,0.0,0.0,-0.7983658560873284,-0.3656327642598002,-1.0681830333533782,0.756014001,0.1845509856939315,0.014771913737715215,0.643962529631221,-0.32644426076302746,-17.695821711684655,40.322913662287974,-29.808405951314597,-0.10590945573701811,-0.15556946654342538,-0.610012607829475,0.08698846987091358,0.026127644455796073,0.019606736516262657,-135.53395633020966,-89.60214955000585,-146.34010081298845,0.07075270092904076,0.10231664024046984
4426,1724812531530036806,-1.069817066192627,-0.4357809424400329,0.1844322830438614,-0.0739165917038917,-0.0579483024775981,-0.3020766079425812,0.9486454725265504,0.0,0.0,0.0,-0.9605440613888616,-0.6871062770415921,-0.8532830276645225,0.767361674,0.1844322830438614,-0.04689297636827617,0.01394634377448574,0.15596366916833618,-16.53442302056616,-32.04295236423329,9.756114428879517,-0.10671466604792092,-0.15522433012717585,-0.6082484130306961,0.06100948111001969,0.013039238197425362,-0.0057478061626898835,57.11006593142726,8.267682244092299,73.01685348323677,0.034343881309847286,0.04812571059667832
4428,1724812531539273839,-1.0691807270050049,-0.4356377720832824,0.1844146251678466,-0.0753039568662643,-0.0580156706273555,-0.3021169304847717,0.9485192894935608,0.0,0.0,0.0,0.1038514649700133,-0.3355646763475214,0.2277946461135838,0.776598707,0.1844146251678466,-0.28308461828916875,-0.10551670437092282,-0.0002063233115200311,-10.111262997466403,-6.305404396757206,-9.46268895934793,-0.1093457074124504,-0.1561934849660565,-0.6081438449723846,0.06212828016384009,0.010198462095987182,-0.003245499140293262,143.25633942718179,65.08431569940984,84.25915910383776,0.04680524402847838,0.06499252447385602
4430,1724812531551926148,-1.0685118436813354,-0.435600608587265,0.1843504458665847,-0.076300598680973,-0.058160450309515,-0.302081286907196,0.9484422206878662,0.0,0.0,0.0,2.402058015276139,0.956280067504403,0.7258107256405529,0.789251016,0.1843504458665847,-0.14310894442423433,-0.07043520482826159,0.009080269882697306,14.853935978556889,-2.7296854115650673,9.041940814510495,-0.11118990717677943,-0.1570666269080618,-0.607929063560438,0.06314295336137832,0.005467152546245302,-0.0011103915417560728,35.06538497445767,53.22420627132379,-3.1177333926936264,0.04040988881039482,0.04489534222617539
4432,1724812531562693229,-1.0677378177642822,-0.4355185627937317,0.1843747943639755,-0.0763387754559516,-0.0589363947510719,-0.3010710179805755,0.9487124085426332,0.0,0.0,0.0,1.4365524750476517,1.0814805239201188,0.3030133363188632,0.800018097,0.1843747943639755,0.05155771021237922,-0.1502432897504255,0.18255936815571905,20.25690457375007,45.73389569524865,-30.21714595145253,-0.11097407318614842,-0.15845643070977364,-0.6057693601512418,0.1102807578401439,0.027952056898541855,0.011808661357740391,-337.33312780602455,-117.38027164970919,-108.48069225554255,0.05442871528113648,0.06262901014093593
4434,1724812531568168587,-1.0670270919799805,-0.4353089034557342,0.1844660341739654,-0.0756784304976463,-0.0584541633725166,-0.301386147737503,0.9486950039863586,0.0,0.0,0.0,-1.1000475992560867,0.07957444161276617,-0.4836722088487211,0.805493455,0.1844660341739654,0.168533385233815,0.24814467999859266,-0.11188781313749566,18.85072706188172,46.46475525260233,-33.64251855003473,-0.10993054244439875,-0.15717353115146573,-0.6065374688682598,0.1099564396521906,0.03107018890004376,0.010970597934213622,-320.27582880391844,-119.35585840798034,-91.94498394516816,0.08638643422178183,0.12648377201749222
4436,1724812531579787701,-1.0662388801574707,-0.4351259469985962,0.1844531297683715,-0.0736370682716369,-0.0582571364939212,-0.301371306180954,0.9488725066184998,0.0,0.0,0.0,-1.295476842118358,0.26163418528353,-0.27644349507399946,0.817112569,0.1844531297683715,0.32559275080386685,0.13966801512762014,-0.006341015512878896,-6.050832504240674,5.663072089468564,4.7677555180456,-0.10610831669163281,-0.15556812577534315,-0.6067887807517475,0.07151187667059844,0.019915246087009564,-0.0028010004175076375,50.137532725897856,39.986571018241975,58.32862343130235,0.04601178895037844,0.06426863879931854
4438,1724812531589167202,-1.0655403137207031,-0.4349075853824615,0.1844140589237213,-0.072668544948101,-0.0570624023675918,-0.3014184236526489,0.9490048289299012,0.0,0.0,0.0,-0.3182403307956063,0.8208107771232642,0.5772493704879285,0.82649207,0.1844140589237213,0.1206770952164471,0.30635186577837303,0.0056981703656572985,-20.67094301364125,11.280591587691164,-7.466976404932163,-0.10493766574760487,-0.15270505976789545,-0.6070413085788019,0.07460448940195619,0.03161933054513355,0.0014872260843663554,82.4517531493428,-0.05073882276264463,34.86813728454827,0.04670051964686112,0.07424040090835796
4440,1724812531598527744,-1.0648407936096191,-0.4345337152481079,0.1844807863235473,-0.072408452630043,-0.0554643347859382,-0.3022021353244781,0.9488701820373536,0.0,0.0,0.0,0.25049593979138596,0.26294352776097396,0.37911379304024134,0.835852612,0.1844807863235473,-0.0618261656363756,0.3513126441074391,-0.1459410067866322,-10.04831384932803,-2.0467908657143825,-8.228130002263072,-0.10525693693769912,-0.14957802741176196,-0.608764455112348,0.06557258373046082,0.035313450944995495,0.008012129847133842,32.629211651681416,-67.29762061455668,-66.90352428261127,0.039098069425541386,0.08340991508859494
4442,1724812531612464580,-1.0641169548034668,-0.4341375827789306,0.1846107840538025,-0.0720295310020446,-0.0543056428432464,-0.3029246926307678,0.9487356543540956,0.0,0.0,0.0,0.12154032510387047,-0.8347480875427244,-1.502360631297314,0.849789448,0.1846107840538025,-0.005801725276338007,0.18064601287002394,-0.09519882149436511,50.23815752376174,33.431084711245546,3.383693850968754,-0.10510103577053548,-0.1472136021102622,-0.6103658294307716,0.09428352907823978,0.036245122855788736,0.00669815348073044,-250.17937706598286,-76.64083378204758,-63.543422234203376,0.027351957683534357,0.0581046956598602
4444,1724812531618571876,-1.0634278059005735,-0.4338952898979187,0.1846446543931961,-0.0703174248337745,-0.0532459244132041,-0.3031830787658691,0.9488415718078612,0.0,0.0,0.0,-2.0511692654674603,-1.297139762343988,-1.6992000404503118,0.855896744,0.1846446543931961,0.42471124554398465,0.5070640887474788,-0.07522187606718189,35.567230550241675,6.494145443256863,10.634197620954614,-0.102393076431004,-0.14418102417573217,-0.6111517429795941,0.08983772051144001,0.028734129115182583,-0.006245642516388372,-244.09463466306107,-34.9197052296666,30.978199515121716,0.06972430227570696,0.11425455217927138
4446,1724812531628624812,-1.0629053115844729,-0.4337874352931976,0.184386745095253,-0.0696956366300582,-0.0544788837432861,-0.3023234605789184,0.9490917921066284,0.0,0.0,0.0,-2.657295029129692,-0.9731784899886262,-0.34182630961738747,0.86594968,0.184386745095253,0.20434963761634356,-0.20461491705885726,0.15352685414463005,-20.631457035883113,-28.61315440091297,11.567221321825873,-0.10059364907994592,-0.14607106817655385,-0.6093894430541691,0.04732125729790937,0.014580403210651127,-0.016374280634384064,78.23388506444996,6.774718245757853,34.84316533761081,0.032355440198556094,0.04997510182898252
4448,1724812531638667663,-1.0624767541885376,-0.43360236287117,0.184315413236618,-0.0697950720787048,-0.0547668971121311,-0.3015460968017578,0.9493151307106018,0.0,0.0,0.0,-0.4817904690108694,-1.1604833819453935,-0.9969796054048445,0.875992531,0.184315413236618,0.010079900067709358,-0.06879011125982598,0.15745607241716175,-0.34743411557571235,14.687169975389548,-3.7262040728480166,-0.10073452752940566,-0.1465994923241554,-0.6077289066448928,0.03640559501413776,0.009168577137002032,-0.013128331740894339,136.18295594112456,-15.33848520140986,-58.45868757831068,0.02320910919533737,0.045787506324617706
4450,1724812531650948822,-1.0621237754821775,-0.4336288273334503,0.1840636879205703,-0.0678757652640342,-0.0545322075486183,-0.3012122809886932,0.9495737552642822,0.0,0.0,0.0,-0.017369296746976737,-1.2991157751889344,-1.6131393055958494,0.88827369,0.1840636879205703,0.2911109698130837,0.12904632173229302,0.0498567477333268,6.7441134342944835,43.64875040842219,3.0120247142285184,-0.09722580975252411,-0.14496190498933373,-0.6072713661379286,0.0395765161389221,-0.014419047408658514,-0.04519944058167269,-51.75110746550301,69.38610054700283,165.1738796738684,0.02161104977426624,0.023391167414348144
4452,1724812531657942889,-1.0618038177490234,-0.4337785243988037,0.1836491674184799,-0.0664151683449745,-0.0529861971735954,-0.3008972108364105,0.949864387512207,0.0,0.0,0.0,-0.7360729271131288,-0.4924915936573948,0.3998366579325825,0.895267757,0.1836491674184799,0.27399667376394055,0.5440221826439953,0.1178174052312643,0.5355684747997138,19.43337096570948,4.761124583260237,-0.09537488373341009,-0.14109536764210345,-0.6068123016041305,0.03835744058520163,-0.02102958234826957,-0.05250565256995898,-74.99317159852498,80.89098283436753,219.68663904577608,0.0409557706892098,0.02841802617417376
4454,1724812531668250716,-1.0615206956863403,-0.4339896142482757,0.1832106709480285,-0.064635545015335,-0.052781905978918,-0.300406813621521,0.9501537084579468,0.0,0.0,0.0,-1.0872806468214677,-0.18186283807166903,1.6293940340226756,0.905575584,0.1832106709480285,0.3248269021535073,0.1382042655215185,0.09160791643384958,-9.883432148568762,-17.574758987979337,-8.6380698380506,-0.09214059399304149,-0.13958863602453592,-0.6059975350788919,0.02223590119812968,-0.019229279264852295,-0.026440398931924847,13.04136932922156,4.295775383598652,-10.934144503834599,0.027988177606471074,0.013140845915500349
4456,1724812531679072065,-1.0613394975662231,-0.4341835081577301,0.1831074506044387,-0.0640423670411109,-0.051881618797779,-0.3008264601230621,0.950110673904419,0.0,0.0,0.0,-0.4109267933745001,-0.4289247082317309,0.03173621228808621,0.916396933,0.1831074506044387,0.04957358727527434,0.1956241395719223,-0.07111406613401561,-15.148139543681108,-3.7421138910848066,1.4609261120470967,-0.09147019962728035,-0.13755117880520987,-0.606967194915801,0.015885914089615483,-0.025247473487670646,-0.019024517802792573,70.75951683274124,-82.14131462408075,-85.27382985068049,0.02243917361046122,0.003835066542650597
4458,1724812531688423706,-1.0611978769302368,-0.4344788491725921,0.1828528791666031,-0.063977412879467,-0.0514575652778148,-0.3005177080631256,0.9502358436584472,0.0,0.0,0.0,0.3175258463499292,-1.6763998692483424,-0.26170377960884766,0.925748574,0.1828528791666031,-0.00894348981416132,0.0875051775102743,0.07587769159899979,-5.6014693063161465,-10.283640642961775,13.634807462915623,-0.09164101455577657,-0.13667142236298732,-0.6063294534140162,0.013464415569026666,-0.028230520753708133,-0.02400954347779999,899.5144962964725,475.62021666527755,1094.016828499754,0.02644868462817906,-0.004301273334252215
4460,1724812531755519591,-1.0611029863357544,-0.4347597360610962,0.182788461446762,-0.0660282224416732,-0.050384048372507,-0.3010541498661041,0.949983298778534,0.0,0.0,0.0,456.19658478324845,323.41490918067484,614.904939403587,0.992844459,0.182788461446762,-0.06900944079128711,0.012671849159150997,-0.01226393948057715,-14412.219666286552,7853.588442284144,-4702.019302431948,-0.09614799982840647,-0.13590210150680826,-0.6072368778621525,0.3122775908464064,-0.7941656263553796,0.08906350548892306,43057.16771764541,-1114100.684418378,-1543699.3062116515,0.0033873475314108586,-0.0012179632597763832
4462,1724812531755898062,-1.0609841346740725,-0.4350619912147522,0.1828223615884781,-0.0668384879827499,-0.0495504513382911,-0.3014682829380035,0.9498390555381776,0.0,0.0,0.0,472.5698899378715,-100.62868332233211,27.344364517726376,0.99322293,0.1828223615884781,-5.554382785220608,3.0017960106538997,-1.8018772336986282,-7403.059344985824,14494.908616120418,-11196.318344961343,-0.0981427026047103,-0.13483748834344175,-0.6080330055078521,0.48589917651906944,-0.671047646266743,0.32309633079319156,-258238.55761315627,-1943141.956195587,-3057825.798037583,0.7195247402871112,-0.21206757264602114
4464,1724812531756148047,-1.060834288597107,-0.4352086782455444,0.1829416900873184,-0.0672527700662612,-0.048446949571371,-0.3022440671920776,0.949620246887207,0.0,0.0,0.0,358.2309017366322,-722.2327611356977,-985.6299313534969,0.993472915,0.1829416900873184,-6.23427313750783,7.714593650327421,-5.668738505786051,7391.82562743553,4657.865244718911,5226.9920249692295,-0.09948552554697937,-0.13305818352022283,-0.6096479973542923,0.6063173438924423,-0.766532536392333,0.23234384241681028,-767367.6795768073,-555031.1440242582,-3063017.255169187,0.8834276636976609,0.12191742584064669
4466,1724812531756395739,-1.0606824159622192,-0.4354426562786102,0.1829391121864318,-0.0672814399003982,-0.0477358512580394,-0.3022174537181854,0.9496626853942872,0.0,0.0,0.0,92.08371340110966,-385.67230926600223,-1501.5641884346385,0.993720607,0.1829391121864318,-1.9218000789690852,5.38470564219996,0.7050028099668353,25623.086028284502,11520.995517742995,12707.961485198182,-0.09996699321195399,-0.13171367300251452,-0.6096066561895843,0.6647460965782557,-1.0289329574015937,-0.16458687612123413,-1180798.2740698238,2586753.117720302,-7044.68507895479,1.0331453394765684,-0.04942358644017411
4468,1724812531756636992,-1.0605099201202393,-0.4357106983661651,0.182863175868988,-0.0660994797945022,-0.0464570894837379,-0.3022061586380005,0.9498127102851868,0.0,0.0,0.0,-217.76350380894826,526.9390302235452,-1015.4606372855362,0.99396186,0.182863175868988,6.189621283887372,13.081726907283786,0.710305930776128,6686.039684362144,5295.3598445429925,5665.107359225835,-0.09845513630615736,-0.1285562171035107,-0.609749967513557,0.653169116267236,-0.9636683446830148,-0.5031216356850905,-978470.2536755505,2429717.871879844,1931365.1445690126,1.1719623670400652,-0.0481321780848733
4470,1724812531756912414,-1.060349464416504,-0.4359297752380371,0.1826653778553009,-0.0659257397055625,-0.0455945059657096,-0.301735907793045,0.9500160217285156,0.0,0.0,0.0,-391.08576154201273,770.6872899825396,-509.7898401762688,0.994237282,0.1826653778553009,-0.4383980982096013,6.1735085481678,4.0449714461348805,-22111.433556755826,-23203.898530708502,11021.420763823284,-0.09869669457725345,-0.12675449674020556,-0.6088008682433053,0.5398093262489496,-0.7379129133511722,-0.6608736477811679,-571418.3186483704,797766.927193588,1704823.3775549624,0.8345306631890677,0.046917077265825516
4472,1724812531760050612,-1.0601848363876345,-0.4361891150474548,0.182639941573143,-0.0656287372112274,-0.0448495000600814,-0.3020888864994049,0.949959933757782,0.0,0.0,0.0,-114.73438648486996,155.06513408305895,150.3090385285878,0.99737548,0.182639941573143,0.023944036783954317,0.5213800677172344,-0.2018265244721764,113.15790429304172,-1319.4102466261452,-968.5456830084631,-0.09852134345042705,-0.1251886210229956,-0.6095986341183403,0.045527055916203096,-0.07085874573830075,-0.008896284529348542,67742.63592117994,-147331.90631453294,147042.51770213427,0.08860580836282363,-0.004874119338531958
4474,1724812531768267989,-1.059959888458252,-0.4365178942680359,0.1825498193502426,-0.0647433623671531,-0.0449199005961418,-0.3016024827957153,0.9501718282699584,0.0,0.0,0.0,4.747900667198092,-4.744151229082569,-3.4434688440783816,1.005592857,0.1825498193502426,0.21857563063470642,0.04336311070968623,0.11725057520717266,16.48061848644374,-44.25679171608434,28.37929217206683,-0.09684130335317916,-0.12474000810153375,-0.608667155054454,0.023018588000820017,-0.03375131536632825,-0.009834535154382706,10875.209186132872,-14566.0300253853,-14050.191849115521,0.04361853867676721,-0.00037266313293355405
4476,1724812531793436961,-1.0597163438796997,-0.4368848800659179,0.1823896169662475,-0.063817597925663,-0.0451689846813678,-0.3012500703334808,0.950334370136261,0.0,0.0,0.0,-4.068040853243929,4.9734239691943,2.2025122678589923,1.030761829,0.1823896169662475,0.07796214403745201,0.002147498921858424,0.025917914812314848,5586.821954671512,26544.620184579737,1179.3220060622866,-0.09495979764281223,-0.12462372857781426,-0.6080178929897055,0.71969319694972,-0.8670002324479356,-0.35315789317519375,-1891.8348395321718,1995.4756239496019,1120.531613698009,0.015354026061875659,-0.0002504173894209409
4478,1724812531793735591,-1.059498906135559,-0.4371468126773834,0.1822829246520996,-0.0632086172699928,-0.044106263667345,-0.3012601435184479,0.9504218101501464,0.0,0.0,0.0,-4.638461635096938,5.575035292851017,2.5403121116135727,1.031060459,0.1822829246520996,1.7661700681343306,8.023227364697323,0.38229033194768497,5575.133012025007,26488.95361046146,1176.909847474286,-0.09441836598291839,-0.12222769588426523,-0.6081316634121264,0.7183658671258488,-0.8653800933607767,-0.3524440203917275,-1880.9169610087329,1982.8579810176327,1114.3242901985625,1.0469476353698326,0.1022983477610088
4480,1724812531815376801,-1.0592461824417114,-0.4374720752239227,0.1822282671928405,-0.0629766508936882,-0.0441057570278644,-0.3006670475006103,0.9506250023841858,0.0,0.0,0.0,0.4640439518892663,-1.249029980501632,0.24411333921167966,1.052701669,0.1822282671928405,0.02396502066891627,0.0038664211551077917,0.05680883520656991,802.0919467507356,1150.0149144832842,1146.9001147708884,-0.094048991254881,-0.1220287077467012,-0.6069064314379321,0.3141548163639527,-0.5098036002798381,-0.06250626709544349,1624.7806823793653,-1700.828536129411,-252.82263434771596,0.017721820124870422,0.0009620573104876902
4482,1724812531815906926,-1.0590757131576538,-0.4377487599849701,0.1821943521499633,-0.0628180652856826,-0.0439715534448623,-0.3005009293556213,0.9506943225860596,0.0,0.0,0.0,1.3434183941052908,-2.1686738114955215,0.10818044149691769,1.053231794,0.1821943521499633,0.46063539586799496,0.6332642433514426,0.6798981987506865,805.2191767296537,1160.5770394073998,1148.8924062844483,-0.09384489685891165,-0.12166068758214475,-0.6065767322648686,0.31464939395471836,-0.5106953288359488,-0.06254766603173137,1147.060480094036,-1440.4203089518405,-492.9913339049443,0.5498093437810929,-0.035915049007205664
4484,1724812531839481797,-1.058907389640808,-0.4380167722702026,0.1822167783975601,-0.0621400810778141,-0.0439742505550384,-0.3003335297107696,0.950791597366333,0.0,0.0,0.0,-508.1203943580722,272.4628901036899,-259.53508697113585,1.076806665,0.1822167783975601,0.05589321419966091,0.01653730012789065,0.013437664856300633,-18039.11980102741,4772.558721885339,-6492.686093870465,-0.09256128127599106,-0.12124302015268706,-0.606295473890276,0.776653785948838,-1.0719272409899077,0.13528853261743734,-203438.24891081546,312135.6897405137,-22342.470087335678,0.012369900920850267,-0.0007745678576895238
4486,1724812531839728057,-1.0587141513824463,-0.4382834732532501,0.182250440120697,-0.0626058205962181,-0.0436816066503524,-0.3005542755126953,0.9507048726081848,0.0,0.0,0.0,-558.686831256927,350.1023960241505,-265.06628613685774,1.077052925,0.182250440120697,-4.432780087780471,1.2041718337772924,-1.6020802738006623,-14603.050796708043,8868.025354014366,-730.2050061461978,-0.09360175044288681,-0.12098445714469222,-0.6067190644517474,0.6501665568112003,-1.0040684067816983,0.07068620703086026,-162620.78258711495,290479.2866152304,-1310.6477861162275,1.2694169845817225,0.008885387030729537
4488,1724812531839971451,-1.0585882663726809,-0.4385088682174682,0.1822517663240432,-0.0632684081792831,-0.0429225713014602,-0.3006686270236969,0.9506593942642212,0.0,0.0,0.0,-587.9917390099214,414.83853401011766,-260.2973781745253,1.077296319,0.1822517663240432,-7.115202756774747,4.335748430384625,-0.3773332815685008,-10690.948417575222,12493.8594894043,4892.942230598747,-0.0953104276291466,-0.11994252167110346,-0.6069113900808814,0.5033472908491916,-0.9009230062559834,0.005513336721852835,-115217.28308940344,257382.10855056156,19901.96179061792,0.9468026435891899,-0.112870725223345
4490,1724812531848462933,-1.058419942855835,-0.438715249300003,0.182317703962326,-0.0637376233935356,-0.0423485562205314,-0.3007640540599823,0.9506235122680664,0.0,0.0,0.0,-30.652905848596898,55.46462363410441,0.12072415136157622,1.085787801,0.182317703962326,-0.14721066315224057,0.09635818671723495,-0.010610693186298537,458.33998235476986,-265.3404749239074,19.36442294805489,-0.09654026150236984,-0.11913666720108806,-0.6070805474369778,0.020735391299091077,-0.027098375738130898,0.008058727192221227,36967.54566678687,-25347.677701454842,16576.20743347886,0.03085493639950161,0.0018086049078643474
4492,1724812531858340029,-1.0582046508789062,-0.4390150010585785,0.1824006736278534,-0.0624522715806961,-0.0419368110597133,-0.3012062311172485,0.9505870938301086,0.0,0.0,0.0,5.123591005793978,0.1144401780555711,1.9457828415573468,1.095664897,0.1824006736278534,0.21808044112605016,0.16293114890069074,-0.09304078846257431,27.47802702661543,4.436336629118315,-5.841865478400912,-0.09425922858776614,-0.11762223894678371,-0.6081561828617016,0.018772806761704786,-0.024314183022231983,0.007194244215797285,10453.091243978452,-1475.1639028869195,4397.682846425214,0.03597088240240207,-0.0001260843268009233
4494,1724812531891310202,-1.0579185485839844,-0.4391525685787201,0.1825051456689834,-0.060948371887207,-0.041461806744337,-0.3013675808906555,0.9506544470787048,0.0,0.0,0.0,1101.54700585901,405.8688047737447,610.5931451502788,1.12863507,0.1825051456689834,0.07788574526789074,0.05565140168924716,-0.010099640837354013,-1355.1617847253128,5378.594650188855,-1761.46374988694,-0.09163248308997114,-0.1158262370612323,-0.6086615134705454,0.7734478714351098,-0.03896921548584942,0.2951243771949521,-262782.0977594056,-31624.950523762498,-120821.52167546912,0.009807443736501104,0.004526251274252931
4496,1724812531891764243,-1.0575625896453855,-0.4391704797744751,0.1826409697532653,-0.0608852468430995,-0.040889486670494,-0.3015848398208618,0.950614333152771,0.0,0.0,0.0,980.3821225425195,391.2350882798579,554.8643289918766,1.129089111,0.1826409697532653,-0.5458601249656185,2.5314050819936176,-0.8209060708936333,1174.4688762876553,26437.49378166343,-3451.9337690177317,-0.09182515320512748,-0.114715838327899,-0.609141082916152,1.280339917072979,0.1478524254146123,0.576121961517515,-374906.35941416794,-72972.82597957156,-183071.57878722996,0.6954109388093772,0.6036617228738914
4498,1724812531892028206,-1.0571484565734863,-0.4391027092933655,0.1828355491161346,-0.0603482499718666,-0.0393144004046916,-0.3019352555274963,0.9506037831306458,0.0,0.0,0.0,864.8399111822271,365.7206195197719,497.28175077455523,1.129353074,0.1828355491161346,0.15520451282401365,12.730219443079841,-1.987778062359253,2566.6008990252526,37293.48259573841,-4264.359476470005,-0.09168989220971992,-0.11141774272412375,-0.6099768099177165,1.518251191929311,0.24801967509742573,0.7127616301965796,-427349.51331278274,-95107.80680217282,-213260.87005763114,1.2137964692965262,1.3983622795645256
4500,1724812531899679163,-1.0567656755447388,-0.4391394853591919,0.1828812360763549,-0.0603456161916255,-0.0390882976353168,-0.3018350005149841,0.95064514875412,0.0,0.0,0.0,-104.73116827093078,-17.89026669118402,-50.93974065416443,1.137004031,0.1828812360763549,-0.01550836249514474,0.055236339501668105,0.03171731202261023,-15.257408169955234,-907.999120384593,147.72789721497864,-0.09183121016833654,-0.11097468156976076,-0.6097726672031595,0.0484215908102712,-0.003983707806035852,0.0011791790144322079,-63740.21532991979,-26405.455305980446,-36489.6010854214,0.04415870852224052,0.03775420972534301
4502,1724812531908815927,-1.0563408136367798,-0.4391669034957886,0.1828397214412689,-0.0608039647340774,-0.0392635241150856,-0.3013367652893066,0.9507668018341064,0.0,0.0,0.0,0.12869768803394033,-0.19192927066815224,-0.6541428284365398,1.146140795,0.1828397214412689,-0.0779315164191804,-0.07228706692557821,0.11332370455063259,-0.9452701587302853,-4.475230629576935,1.7981856661486013,-0.09266523517131121,-0.1115369693222813,-0.6086740527925404,0.04492399336134412,-0.003260808422215433,-0.0052590022187466445,5971.679981907037,1011.8680870328815,2868.700779118,0.039111513177765615,0.03635098964802793
4504,1724812531918624137,-1.0559167861938477,-0.4392016232013702,0.1827806085348129,-0.0609564632177352,-0.039285808801651,-0.3010762929916382,0.950838565826416,0.0,0.0,0.0,0.7378746312615627,-0.008518408296143934,-0.2607558795192295,1.155949005,0.1827806085348129,-0.02522064772846355,-0.016345690214956146,0.05585242838845328,19.964514067575145,-3.630426787963417,6.680341323617058,-0.09297537985355259,-0.11164581186056724,-0.6081101592648324,0.051571897126621025,-0.007997167049243359,-0.011143228008206663,32.0591097896291,43.94911541121843,65.86745823580014,0.03659908096609733,0.03344610964534221
4506,1724812531929553067,-1.0552515983581543,-0.4393433034420013,0.1825965195894241,-0.0593700483441352,-0.0406833477318286,-0.299476146697998,0.9513854384422302,0.0,0.0,0.0,0.7223090840406861,0.7792780441153876,0.7727970205375286,1.166877935,0.1825965195894241,0.3706472171504772,-0.1696885108485299,0.2815680153625677,-0.5351763806077718,5.434716435426171,-1.2193245417393186,-0.08928965967378281,-0.11321260367115502,-0.604856475088699,0.060367773964756566,-0.0023134162030231664,-0.009862664514839636,0.5520474590929823,31.04836414102438,73.6320091085585,0.055167616156997265,0.04300105272028799
4508,1724812531939208588,-1.0546729564666748,-0.439274787902832,0.182560846209526,-0.0590772852301597,-0.04051024466753,-0.2990976870059967,0.9515300393104552,0.0,0.0,0.0,0.744498182510076,0.7290157954322415,1.3051380755387287,1.176533456,0.182560846209526,0.05192310029895507,0.0488377543140367,0.08321293166044912,-10.506490646455264,4.714988637969754,-13.75078358186926,-0.08887431865916413,-0.11267142802388454,-0.6040932258719532,0.06663814303150417,0.007422135040727085,0.0031918943427307056,-40.38818580146938,-24.019093442844635,-4.476705512010234,0.044589071953324746,0.05323682636902323
4510,1724812531948715165,-1.0539766550064087,-0.4392011761665344,0.1826556473970413,-0.058449886739254,-0.0410718731582164,-0.2989727854728699,0.9515839219093324,0.0,0.0,0.0,-0.038995640892987904,0.32458292642274933,0.7046341072358139,1.186040033,0.1826556473970413,0.16266913370920283,-0.07404326259475681,0.016066386147594414,-0.2954048575553325,-2.927608007216872,-10.23293689516137,-0.08735218388584941,-0.11335914633264631,-0.6038777234736874,0.07460581324408366,0.011738606263140383,0.01516038014283616,284.6113799736726,67.41108032479416,-97.41288073649682,0.05666257419402211,0.06391533107870355
4512,1724812531958842023,-1.053206443786621,-0.4390392005443573,0.1828651428222656,-0.0582697391510009,-0.0411344803869724,-0.2995541989803314,0.95140939950943,0.0,0.0,0.0,6.802571669325235,2.193381022787127,-0.6512812460906796,1.196166891,0.1828651428222656,0.030821573638264117,0.004166896734304336,-0.12175535156745283,-10.343830589144815,6.181114048832655,-10.061822832706312,-0.08689975797424332,-0.11342439884419672,-0.6051176787705831,0.06474890743477868,0.013628959789464545,0.01631616052980156,5419.852603468524,3105.348910686413,2262.9665126197137,0.05545058901461983,0.07044599317090905
4514,1724812531998893967,-1.052404284477234,-0.4388680756092071,0.1828262507915496,-0.0574859753251075,-0.0411907620728015,-0.2988201975822449,0.9516854882240297,0.0,0.0,0.0,975.3999160893095,589.2433985507793,469.6625995582862,1.236218835,0.1828262507915496,0.040388554910698427,0.007481260632443076,0.037227662470790304,-4198.136028490059,704.7056229919077,1989.5469985548532,-0.08544809373768714,-0.112997555792492,-0.6036486263750663,1.5689590762999615,0.41935424734617754,-0.13101492397595393,1324693.1232526547,153883.12171244482,-1619888.6203979359,0.013863923936489086,0.018876373574386856
4516,1724812531999407103,-1.051589012145996,-0.4386501610279083,0.182758167386055,-0.0579915083944797,-0.0409195236861705,-0.2985867261886596,0.95173978805542,0.0,0.0,0.0,1663.697426373592,669.121663786558,-372.28719939419796,1.236731971,0.182758167386055,-2.1414270323364377,0.3737234004104512,1.071189388843842,1713.2881877818443,12702.285345966247,-7768.048997388963,-0.0866071477739716,-0.11275926414285732,-0.6031140597095082,2.0756374360264545,0.7255234418281589,0.11309769171020889,374256.53510697535,-366971.8137412797,-1940961.5705429818,1.0459086244381721,1.5493055609590773
4518,1724812531999859222,-1.0504566431045532,-0.438202291727066,0.1829072088003158,-0.0569802373647689,-0.0387270860373973,-0.3000825941562652,0.9514220952987672,0.0,0.0,0.0,1447.6549823186324,295.0096861166362,-1369.4073370073081,1.23718409,0.1829072088003158,1.0094705538475115,10.892398031220596,-6.338038724897381,-26544.196970126162,-44042.82872284806,30383.585192784405,-0.0857871822074206,-0.10809957585986449,-0.606413043120619,3.097228713691493,1.0569105686370222,-0.3930332409983066,-1394332.2379452302,-926085.203139911,-1059187.4663400296,1.5202905674941116,2.6029919430318227
4520,1724812532000122263,-1.049551248550415,-0.4379141330718994,0.1826932281255722,-0.0588479749858379,-0.0395983979105949,-0.2989532649517059,0.9516279697418212,0.0,0.0,0.0,940.6326024046984,36.31862136932605,-1472.5993533421074,1.237447131,0.1826932281255722,-11.10150060086178,-10.993247801368542,8.811801758805826,-44792.90010651909,-80969.89074745122,56045.20064367503,-0.08898876705183163,-0.11077790859286035,-0.603836152064644,3.3537700501650685,1.067487293745431,-0.7914938954062498,-1879507.9411826741,-957659.8021746472,-377783.75891254836,2.1078413659189077,3.477093116484702
4522,1724812532009793574,-1.0484994649887085,-0.4375473856925964,0.182859256863594,-0.0595427118241786,-0.0405459590256214,-0.3000117838382721,0.9512116312980652,0.0,0.0,0.0,-156.59625106878286,-50.23184405941603,36.93454093250477,1.247118442,0.182859256863594,-0.09187396502635019,-0.21995242394867973,-0.23989167612726212,574.0176750107408,521.1839451955776,-401.6909404025314,-0.08963887582956269,-0.11310359669107348,-0.6059705828160786,0.12705381052180087,0.035215447068882355,-0.019100771692780683,-43810.38119308279,-1132.2528662235522,71266.2582336532,0.06929545004176871,0.10993402015250361
4524,1724812532018405573,-1.0472649335861206,-0.4372648596763611,0.182416632771492,-0.0578252412378788,-0.0422557368874549,-0.2982189655303955,0.9518067836761476,0.0,0.0,0.0,0.1699371906628695,-0.03689020662789755,0.23879363734914866,1.255730441,0.182416632771492,0.5236322086399968,-0.2772219120670308,0.39769188345937084,33.680995135206224,21.115818045552412,21.392540667715686,-0.08554442375734025,-0.11518227878875444,-0.602326258281234,0.13612925956599753,0.03592899227539448,-0.030237133131938876,10209.279143545245,3279.5019795233143,-2362.512280195199,0.09297033456676963,0.13848643134553235
4526,1724812532029380030,-1.0458719730377195,-0.4368268847465515,0.1823807060718536,-0.0553348511457443,-0.0410949438810348,-0.2987837791442871,0.9518285989761353,0.0,0.0,0.0,0.41593857116486,0.3062890806921592,0.8618647750804062,1.266704898,0.1823807060718536,0.36477331929031015,0.3428168737737315,-0.1037313875076472,-40.55963454873678,-6.33669683365456,-13.286713299657679,-0.08137638475290514,-0.11152806097525869,-0.6037837678589053,0.1256332146163217,0.03384951015891602,-0.006192686535044345,65.37894540394348,33.389851024886404,-32.5116389439679,0.08095460053593595,0.12686534978864994
4528,1724812532039444878,-1.0446194410324097,-0.4365421235561371,0.1822914332151413,-0.0571614652872085,-0.0420919582247734,-0.2984628081321716,0.9517777562141418,0.0,0.0,0.0,1.470544545889977,0.6619136759734654,-0.2895288877957603,1.276769746,0.1822914332151413,-0.28422783068219,-0.3009682224338153,0.06164293023365871,-33.30013655736015,-17.098432978565846,-3.214454339932421,-0.08433572170775146,-0.11449551596175785,-0.6029091573701657,0.14248718682657824,0.04150856007752424,-0.009786410514578847,-7.905672205886351,-35.926901351434815,-53.94314549224566,0.08488248985468046,0.11845225675994653
4530,1724812532048439851,-1.043192744255066,-0.4360625147819519,0.1821960359811782,-0.0586682818830013,-0.0420109629631042,-0.2990413308143616,0.9515080451965332,0.0,0.0,0.0,0.4935640319031913,-0.23409627238094965,-0.2887639526961511,1.285764719,0.1821960359811782,-0.333096457622398,-0.07802640091861807,-0.12519638670013764,13.936799435945131,4.651525922840424,-2.505440615561981,-0.08720937999042629,-0.11529126099271984,-0.6039781090059892,0.15407482647208326,0.04666615736425328,-0.011847868811635465,-99.55239470212665,-63.590206500006744,17.078890223140945,0.09838251457928802,0.16076463610596106
4532,1724812532058365570,-1.0417131185531616,-0.4356721937656402,0.1820648312568664,-0.0589710995554924,-0.0432139448821544,-0.2987278699874878,0.9515339136123656,0.0,0.0,0.0,-0.3953147285876124,-0.4707329798802413,0.06688609370523646,1.295690438,0.1820648312568664,0.017388021787743922,-0.2523757573771555,0.049999602813163006,45.40511213876745,25.651880405145015,-0.01781632449453774,-0.08712018409469963,-0.11774355879325976,-0.6032607742603645,0.15026995288125278,0.03549840655330172,-0.015366679881305245,-27.62792776978154,32.85158528701654,47.19017810015251,0.09819943658856428,0.14508519071291429
4534,1724812532068946187,-1.040109634399414,-0.4353397488594055,0.1818780153989792,-0.0550569668412208,-0.0416772738099098,-0.2994956970214844,0.9515955448150636,0.0,0.0,0.0,0.010801578482248608,0.5162744662341539,0.6943025133613596,1.306271055,0.1818780153989792,0.6116537756521934,0.5064729400469061,-0.1494673585330563,-17.0611196619844,4.125471705070604,-4.890180162617948,-0.08041434968926796,-0.1125358467139426,-0.6052984618611468,0.14595216091669272,0.037898555502760445,-0.009906122555717545,83.39685312839254,32.509530290292545,-25.715776685279348,0.10408748633073787,0.14270734719735237
4536,1724812532079646771,-1.038608431816101,-0.4348641037940979,0.1818558871746063,-0.0571853779256343,-0.0420308336615562,-0.2997808456420898,0.9513646364212036,0.0,0.0,0.0,1.3903320376158863,0.20644422182155964,-0.5008900121303849,1.316971639,0.1818558871746063,-0.36336225839203884,-0.18089109064202472,-0.050700370901039064,-5.9065166833412945,-22.3915060790308,11.145564874537053,-0.08425904478221015,-0.11450954530430256,-0.6056824059168939,0.15060089837877655,0.046555185154279144,-0.0005480870410785599,61.33846406398046,-22.913375583422557,-66.3414333918729,0.08920317485844369,0.1402430928059529
4538,1724812532089539685,-1.0370242595672607,-0.434384286403656,0.1818643659353256,-0.0555478371679782,-0.0426318347454071,-0.2993377149105072,0.951574444770813,0.0,0.0,0.0,1.379023979177104,0.03501769525575593,-0.7423949038856117,1.326864553,0.1818643659353256,0.35756706355980594,-0.019688840524802943,0.07708138461427506,21.396357591039877,-13.036595853233802,7.855238874860387,-0.08081096986049646,-0.11464080065910066,-0.6049012866003408,0.17309814003953505,0.043086542770517156,-0.01808326983251618,-111.86373148733105,7.316602777202926,62.05513968693145,0.10355073055725282,0.15867230181146064
4540,1724812532098392854,-1.035389065742493,-0.4340457320213318,0.1815542131662368,-0.0554686337709426,-0.0443379022181034,-0.2987719178199768,0.951678991317749,0.0,0.0,0.0,-0.48853144319649733,0.29504633146185055,0.4920423033881851,1.335717722,0.1815542131662368,0.13915617559018012,-0.3674872664767754,0.1065263370509291,-26.77741968893006,4.260670897966288,-16.378939385532092,-0.07971921511207439,-0.11780815648442616,-0.6036923016330353,0.17821563999436307,0.04645184365704225,-0.016494608354062024,-135.2726068617378,-10.969353017049777,7.433942683503801,0.12532463327412077,0.17473061567540354
4542,1724812532108545825,-1.0336551666259766,-0.4334785044193268,0.1816025972366333,-0.0558858700096607,-0.043297603726387,-0.3002554178237915,0.9512354135513306,0.0,0.0,0.0,-0.9808195410379135,-0.28603531241908,-0.969443718000056,1.345870693,0.1816025972366333,-0.1572479364047998,0.18280208991386857,-0.28920422438354465,5.6446841016128495,10.042209512552999,5.225246194969686,-0.08095422218655518,-0.11619377728070612,-0.6067891512068982,0.16083683714206387,0.04845683105254395,-0.007859162988490098,27.328559777932966,-17.416184157035485,-71.32685382603312,0.10825433395602513,0.17129603944886593
4544,1724812532118798898,-1.032109022140503,-0.4330584108829498,0.1813912987709045,-0.0549244694411754,-0.0444722771644592,-0.2990649044513702,0.9516122341156006,0.0,0.0,0.0,0.08438977378138901,-0.05233837229712712,-0.9488461716525399,1.356123766,0.1813912987709045,0.26135104131381665,-0.17144961171620676,0.2220459969850138,3.326057298629384,-10.596187465283666,21.256006812357345,-0.07855772639412856,-0.11776470357462615,-0.6043631583157133,0.15834803906788153,0.04051771600671117,-0.03664328252051696,54.8502266000105,55.83626428313427,98.69500066176296,0.09768476254047663,0.1478153914756971
4546,1724812532128631480,-1.0304808616638184,-0.4326643049716949,0.1808798015117645,-0.0553114786744117,-0.0445739477872848,-0.298309713602066,0.9518219828605652,0.0,0.0,0.0,0.16128048126536587,0.8082535553514316,0.9332660941691042,1.365956348,0.1808798015117645,-0.05955123703358148,-0.04976156624872424,0.16130133804750285,-34.27756190013968,-3.1605613391112612,-21.143749292182306,-0.07933517811136803,-0.11812736417775639,-0.6027320718196025,0.16226239471589565,0.046810861043510954,-0.02844829094813761,-51.415326291798316,7.275751288108406,57.240331348609885,0.10676481480888285,0.16111577307111832
4548,1724812532138719806,-1.0288783311843872,-0.4321224093437195,0.180836796760559,-0.0576573088765144,-0.0451601035892963,-0.2993293702602386,0.9513348937034608,0.0,0.0,0.0,-0.9705423905344075,0.05102111853781999,0.121911506275173,1.376044674,0.180836796760559,-0.42233935127858097,-0.2424609757133002,-0.20691109315256892,27.339014526134957,18.206556290309713,-4.277781831878766,-0.08337007258175096,-0.12073492684196459,-0.6046272747528175,0.16143818681374,0.05670602418111059,-0.018000057197252062,22.1808370545068,-26.2477182990307,-23.84731946092029,0.0989109619136045,0.16082772707491141
4550,1724812532148265300,-1.0273139476776123,-0.4315541088581085,0.1805409044027328,-0.0554200373589992,-0.0445161424577236,-0.2991174757480621,0.9515649080276488,0.0,0.0,0.0,0.4548168344953156,0.24134230225130926,0.40528022268938124,1.385590168,0.1805409044027328,0.41034422448351415,0.2682886757798887,0.043272006332414174,46.9365417010613,21.509966720307826,14.819953537243574,-0.07947755083891123,-0.11814888610003094,-0.6044225109247081,0.14414596327173967,0.048794926172295305,-0.02508935136045576,98.91599864014323,18.040961756651214,6.200084160957601,0.09665965357224376,0.16969482159019075
4552,1724812532161400949,-1.0257773399353027,-0.4311073124408722,0.180318146944046,-0.0536179952323436,-0.0452629029750824,-0.2988192141056061,0.9517266154289246,0.0,0.0,0.0,0.8429857085416828,0.4440250798713885,0.06218642370183103,1.398725817,0.180318146944046,0.2984806398890263,-0.02754335055060058,0.032062269973251366,-64.95787325772186,7.301039608603633,-64.57546459805356,-0.07561005367851842,-0.11847697161834703,-0.6039714298017667,0.19108750296926758,0.0713087171287512,0.0009849960275687408,-224.3531149712153,-127.42415170904758,-159.02070441045828,0.07442352183318962,0.11603919917883414
4554,1724812532168456639,-1.0241482257843018,-0.4304628372192383,0.180393099784851,-0.0546220652759075,-0.0445345677435398,-0.3011366724967956,0.9509731531143188,0.0,0.0,0.0,-1.7022500785055392,-0.9964427218927818,-1.5634970965641897,1.405781507,0.180393099784851,-0.3737507681916693,0.13699416635864528,-0.6650623391386193,-37.4372644626506,1.9231079480760176,-31.58052076309685,-0.07768285338688638,-0.11787253322849146,-0.6087575469296893,0.18668660541961657,0.06962875111792144,-0.005863526199036961,-207.7166395776108,-111.43062482903989,-115.50729546605353,0.13747975709007296,0.2403107413519215
4556,1724812532180241170,-1.0228183269500732,-0.4300696551799774,0.1799995005130767,-0.0533482730388641,-0.0464815385639667,-0.2993642687797546,0.9515116810798644,0.0,0.0,0.0,-1.1382716505318822,-0.4844950497381664,-0.6631488851247669,1.417566038,0.1799995005130767,0.32347409964432455,-0.2614886694721307,0.28590081642814674,36.8758501724507,13.553086135461161,14.800049968692637,-0.07430151506754601,-0.12068936598651264,-0.6051383333823076,0.1453983229803555,0.042959910846651184,-0.035957681921553686,29.980240110511772,91.4502620265875,196.60600046106674,0.06927311528814714,0.11319691797707196
4558,1724812532188316370,-1.0214641094207764,-0.4296696484088897,0.1796949803829193,-0.0513098575174808,-0.0466516762971878,-0.2991372048854828,0.9516868591308594,0.0,0.0,0.0,-0.9950978585502375,0.5196324584516647,1.5896304354325423,1.425641238,0.1796949803829193,0.49792180088201315,0.11005790820781801,0.040784315677833055,-11.405668221021687,24.986721133827594,-17.8069389615675,-0.07031262334301451,-0.11977915676307208,-0.6048721421354185,0.1492949259397207,0.04888895540738858,-0.030851513638500805,-0.09309874806307761,44.98563176067098,161.88673662070613,0.10448521788676948,0.16758999586380788
4560,1724812532198568647,-1.0201730728149414,-0.4291768372058868,0.179467961192131,-0.0514104440808296,-0.0461197718977928,-0.2990680634975433,0.9517291188240052,0.0,0.0,0.0,-1.2280438395375501,-0.05215433698323846,1.725282103698202,1.435893515,0.179467961192131,-0.048661464250830476,0.09257281959319673,0.021541920404646774,-59.751544619445326,-0.11965301166092335,-29.825151329961667,-0.0708299041787861,-0.11881687156266355,-0.6047176990188992,0.1198595436185741,0.051423121817464335,-0.002093640451766632,55.366412003210044,-58.96318549594804,-130.68015758222063,0.07310440390524972,0.13171944262337437
4562,1724812532208783970,-1.0190104246139526,-0.428617388010025,0.1796506494283676,-0.0546341985464096,-0.0446389578282833,-0.3020228147506714,0.950686514377594,0.0,0.0,0.0,0.13235880377440612,-0.6869669849234841,-1.0744617136743575,1.446108838,0.1796506494283676,-0.7245739374857137,0.10749190390308516,-0.5676030742726836,42.85226565478482,-3.3447619154355435,8.017510595922111,-0.07753368904780185,-0.1181515626914873,-0.6106228338008896,0.1240385992066777,0.04784356469249573,0.004540528019248313,0.7850383489062196,-44.70123013810744,-181.17632200656402,0.06352238089958633,0.12338587525797894
4564,1724812532218363419,-1.0177303552627563,-0.4282212555408478,0.1795742809772491,-0.0515791587531566,-0.045428093522787,-0.3014352321624756,0.9510061144828796,0.0,0.0,0.0,-1.049380455896122,-0.958496384558511,-1.975526026935259,1.455688287,0.1795742809772491,0.6652600344736915,0.03228485617299597,0.09930545637133631,59.75565891074949,-2.558958835155193,40.99818139278203,-0.07127054034279191,-0.11777240928748053,-0.6096905634526156,0.12282054326192338,0.038239460590830276,-0.021238239359268718,-85.86394447185924,11.815379378174525,47.77905335728789,0.08433999015922133,0.1331349920947898
4566,1724812532229085472,-1.01654314994812,-0.427848607301712,0.1791873574256897,-0.0500788129866123,-0.0454810820519924,-0.3003886640071869,0.951414942741394,0.0,0.0,0.0,-1.520007107632896,-0.34984894365370933,0.23899263158238493,1.46641034,0.1791873574256897,0.2819313094442361,0.0683555364864167,0.19541724040413894,-48.368088327307774,-14.211036378482984,-6.6739517713361085,-0.06848801555491382,-0.1168950133457178,-0.6076375800919208,0.1005014316839663,0.028491381494951895,-0.03383298286399139,47.20432241896185,82.46347679632493,172.0164381262269,0.06636903328879748,0.11234658699090178
4568,1724812532239169341,-1.0156266689300537,-0.4276207089424133,0.1788675636053085,-0.0520012415945529,-0.046152226626873,-0.3004984855651855,0.9512447714805604,0.0,0.0,0.0,-0.18006478054190467,0.725408895451189,1.6461863179004257,1.476494209,0.1788675636053085,-0.3254583850269295,-0.2416240390036093,-0.0201865731109267,-17.993651664398264,-7.950968684163436,-14.586537272159516,-0.07176605887869217,-0.1193397881651456,-0.607670113646133,0.09049991699683346,0.03026788753020071,-0.0180164177914115,101.79023409723389,34.645122614632385,1.1596718791901495,0.05749711514744593,0.08890720557117644
4570,1724812532248470008,-1.014788269996643,-0.4272734224796295,0.1788174957036972,-0.0527251958847045,-0.0465246774256229,-0.3009288907051086,0.9510506391525269,0.0,0.0,0.0,0.49995695539135454,0.43011143962656595,0.46982763525650095,1.485794876,0.1788174957036972,-0.13046292485823416,-0.12008108241869123,-0.0975656715899723,8.423835640447814,14.919043293311105,-9.071337078028867,-0.07288010305947733,-0.12051926089111047,-0.6085003685886979,0.09578878253317669,0.04172618134362338,-0.0020393849240143425,23.65425598045311,-79.91166379188448,-146.50802478551628,0.05158985698753367,0.09528920663256998
4572,1724812532258778221,-1.013736367225647,-0.4267931878566742,0.1788346767425537,-0.0535084269940853,-0.0460200943052768,-0.3019670248031616,0.9507023692131042,0.0,0.0,0.0,0.17870140484127628,-0.943875969771223,-1.2692139328045544,1.496103089,0.1788346767425537,-0.18691843885419998,0.054853330501570895,-0.1996619133581582,22.230417847237277,5.085060646261522,7.3487939955133985,-0.07455372073650646,-0.12010694888175118,-0.6106098723561358,0.10015758300848177,0.03699851662225839,-0.011454696127476183,-48.352476418748516,-62.25575049619141,-37.964182346505694,0.05668345383600637,0.10988934960490417
4574,1724812532270316789,-1.01260507106781,-0.4264901280403137,0.1785330325365066,-0.0512620732188224,-0.0469505749642849,-0.3012480139732361,0.9510087370872498,0.0,0.0,0.0,-0.6012063809592512,-0.7447487132123356,-0.018654252054102427,1.507641657,0.1785330325365066,0.42744828330474527,-0.039980604334130226,0.10797047362523927,-2.564600396803676,-24.542896432763925,16.68942189229432,-0.06977579654713541,-0.12047724792912509,-0.60932477640303,0.09905367791914443,0.019840223453623906,-0.03069548362178054,-49.71087985163682,55.01897596336034,104.32054556104615,0.061752548289843376,0.09652011639123612
4576,1724812532278953322,-1.0117430686950684,-0.4263603091239929,0.178238496184349,-0.0515821985900402,-0.0484349131584167,-0.300388753414154,0.9511886835098268,0.0,0.0,0.0,-0.9149496371039407,-0.025471170611225946,0.8560662975870639,1.51627819,0.178238496184349,0.04452692117034591,-0.35747090028010403,0.18764766338407102,-30.431505166319752,-1.2857831627377125,-9.955202540552483,-0.06961573506366185,-0.12344418512974677,-0.607479286496532,0.09059336504836324,0.018206619828713855,-0.020197697948315607,11.721413100416779,45.95673035792366,33.39493892505173,0.06861456019915671,0.09207869687052937
4578,1724812532289513419,-1.010905385017395,-0.4261270463466644,0.1782047599554062,-0.05189049243927,-0.0478885620832443,-0.3012665808200836,0.9509220123291016,0.0,0.0,0.0,-0.1707593178419211,-0.022125349899275726,0.3321637402508454,1.526838287,0.1782047599554062,-0.09727871229919195,0.08701416795171199,-0.1651443812818107,-9.391538590895406,22.485887194533223,-6.16126488987666,-0.07041992332884164,-0.12264958826763919,-0.6092970892367173,0.08176612700314223,0.020051081857701547,-0.01579871266664945,34.95777282929378,-1.8935520203416618,-7.340643632816445,0.05162488427540914,0.07751920973915724
4580,1724812532298744707,-1.0101308822631836,-0.4259583950042724,0.1779572069644928,-0.0523648522794246,-0.0470799356698989,-0.3013419806957245,0.9509124159812928,0.0,0.0,0.0,-0.13464210930468035,-0.05744241494265434,0.6055129606022491,1.536069575,0.1779572069644928,-0.1513981752744368,0.13638072400258494,-0.0021479184537452766,15.763403503891226,11.26627376892347,-1.0617773508172785,-0.07180411778547487,-0.12139519034921785,-0.609407049336441,0.08555731619153306,0.018258813070520574,-0.013413519388983275,-27.288160772570336,6.585865518384821,-3.3574033384318387,0.054662835242987845,0.08040558640791488
4582,1724812532309125926,-1.0092233419418335,-0.4257689714431762,0.1779744327068328,-0.0504971481859684,-0.0459653511643409,-0.3025076389312744,0.9506978392601012,0.0,0.0,0.0,-0.7821750787309489,0.13247680364673564,0.18577087673494824,1.546450794,0.1779744327068328,0.2647158327434145,0.3224336484865541,-0.23170038099267573,-1.0687427178766127,-19.60496076618682,3.9241302577575325,-0.06873888962308498,-0.11822508248074484,-0.6120605013341968,0.07779315492044248,0.01925848719525547,-0.003075005779939133,-5.084432916786012,-5.233086656917248,-68.90826006658801,0.06083707379774574,0.08153761287370237
4584,1724812532318959851,-1.0085480213165283,-0.4255701601505279,0.1779000908136367,-0.0514391213655471,-0.0467890761792659,-0.3022508919239044,0.9506887793540956,0.0,0.0,0.0,-0.2984816628264051,-0.13815584512830303,-0.7571301829807782,1.556284719,0.1779000908136367,-0.1291457460037192,-0.21994251690208666,0.049431025396685827,-18.442035289369542,-16.456730884872755,14.75026167751122,-0.07008499669825992,-0.12034905022298927,-0.6114209750400581,0.06978205760348999,0.020898292026362952,-0.008794766131735798,34.68109185586262,-37.35258086920621,-53.12326426060431,0.04339582270737375,0.0679779100285754
4586,1724812532328747324,-1.0078542232513428,-0.4253589808940887,0.1778019815683365,-0.0519198961555957,-0.0466464459896087,-0.3019980490207672,0.9507501125335692,0.0,0.0,0.0,-0.10033917240572521,-0.5995217518992981,-0.8605449536684628,1.566072192,0.1778019815683365,-0.0991455280879416,-0.00405701904396623,0.05900291097918526,14.689020790842386,7.002415735090991,3.6137042826526447,-0.0711253978996649,-0.1203479443959263,-0.610838025372586,0.07188868760815126,0.016575936420895943,-0.017914692791947573,3.755948916436063,-15.066957122198833,45.631157908627344,0.04415855815246915,0.07071733683614075
4588,1724812532338853125,-1.0071172714233398,-0.4252436459064483,0.1775386035442352,-0.0512672662734985,-0.047308649867773,-0.3013429045677185,0.950960636138916,0.0,0.0,0.0,-0.23443178747181692,-0.41713642354924413,0.18698305032208706,1.576177993,0.1775386035442352,0.17058771237999595,-0.09038221008740059,0.12302477743521499,7.903752698426203,-6.283199145683037,2.8463002098774477,-0.06955975607139117,-0.12117168254842108,-0.6095240435534064,0.06758180199000918,0.008869678422428251,-0.025867722695476658,2.7312888378841382,39.52060732181109,93.25116239030748,0.049717289518492996,0.06748926932305649
4590,1724812532348816006,-1.0064964294433594,-0.4251802563667297,0.1772827953100204,-0.0511841885745525,-0.0479955859482288,-0.3007392883300781,0.9511216878890992,0.0,0.0,0.0,-0.050066952258215114,0.1875103027840752,1.0138360894756075,1.586140874,0.1772827953100204,0.06480452539321625,-0.13079367513752949,0.11711460867501021,1.8102571053875103,-2.394442090918456,-2.2107980350963863,-0.06906760984528441,-0.12239080861087277,-0.6082603601564807,0.06712952900309688,0.00810652109769805,-0.01443861747559172,-16.957191388698078,36.16100862205634,6.31972234643202,0.04401295039718961,0.05598116599826421
4592,1724812532359883722,-1.0056942701339722,-0.4250690937042236,0.1772611588239669,-0.0501804202795028,-0.049090776592493,-0.300254076719284,0.9512725472450256,0.0,0.0,0.0,-0.6737566463029858,0.2861450094016062,0.141073013746167,1.59720859,0.1772611588239669,0.23764293902553063,-0.13686321384346511,0.07275787156859403,2.303933728515062,14.127420935630893,-9.090051568058636,-0.06654956029489249,-0.12384752487519343,-0.6073473819901212,0.06651797008348836,0.013429087807825368,-0.004857101558414456,181.0185611358507,58.856550498293686,-122.18673786150597,0.05313049914953458,0.0649707236684999
4594,1724812532371738268,-1.0049813985824585,-0.4248669147491455,0.1771667301654815,-0.0492244437336921,-0.0480677522718906,-0.3008515834808349,0.9511860609054564,0.0,0.0,0.0,4.48610668867152,1.618025207856698,-1.857570925680739,1.609063136,0.1771667301654815,0.09592185633834958,0.21695445195811075,-0.09953202691473008,-9.462153719079735,11.845932770468796,-5.8242542848199825,-0.06524651956201194,-0.12135893180240494,-0.6087043909837846,0.05067759564201424,0.014348224677323884,-0.012385783879896195,77.17948484254092,-17.07979293799046,-33.441843855765455,0.03832644746810127,0.05930544251379109
4596,1724812532386926690,-1.0043957233428955,-0.4247016608715057,0.1768925935029983,-0.0491060689091682,-0.0477398000657558,-0.3010024130344391,0.951160967350006,0.0,0.0,0.0,-1.3099542709201728,-1.1601154876319733,0.26460973073038474,1.624251558,0.1768925935029983,0.0007171631919758782,0.04658484345360507,-0.018509250226987784,-501.43643255028746,-33.13016988703376,67.98462857576438,-0.06519590286744659,-0.12067120590931145,-0.6090334293954809,0.2321164675428804,0.0689012533413802,-0.06438873447048366,-1716.8824908888175,-532.1036423491529,488.32310532479386,0.023045717527550535,0.03878416201246582
4598,1724812532389188528,-1.0038055181503296,-0.4245262742042541,0.1767313480377197,-0.0505252629518508,-0.0473268814384937,-0.3009020686149597,0.9511389136314392,0.0,0.0,0.0,-5.643023559450825,-2.481265918347177,1.4865361498651684,1.626513396,0.1767313480377197,-1.3002381519703496,-0.03573121555195069,0.1563633850095714,-450.5450479270938,-31.33382837378818,61.29686440517481,-0.0681802720862724,-0.12072825111158537,-0.6086724151414257,0.22468860925721046,0.06467669046367597,-0.06254784586508766,-1621.7261061847453,-480.5640592601609,456.0511055598868,0.15991968635541823,0.26152551420084075
4600,1724812532399580966,-1.0032014846801758,-0.4244684278964996,0.1764987409114837,-0.0508745536208152,-0.0478622838854789,-0.300737202167511,0.9511457681655884,0.0,0.0,0.0,-8.458059508238499,-2.5314276380012113,2.206187940517415,1.636905834,0.1764987409114837,-0.03136343976825265,-0.11976976018614705,0.02855016809032978,51.947400443461085,-5.812970321234543,-7.039684459020495,-0.06855269425232416,-0.12194980261465173,-0.6082886839732049,0.053400084801964454,0.009595217987520499,-0.014980283448568166,256.22500115636814,152.21985669419374,-26.456453469228148,0.04146257819332445,0.05190703805271647
4602,1724812532410927600,-1.0026540756225586,-0.424309641122818,0.1764204651117324,-0.0528250560164451,-0.0481778606772422,-0.3007009625434875,0.9510349035263062,0.0,0.0,0.0,0.9791602628576941,1.1413179796136137,0.7203717654839126,1.648252468,0.1764204651117324,-0.3109665995817311,-0.15756180605340456,0.013824137547348521,-5.25383992231499,-6.890286964581346,4.075772357410305,-0.07211594272415946,-0.12372214233459279,-0.6080043717533624,0.056834121869684395,0.015172178922359336,-0.019319778770233498,346.4367486706965,122.71164833734666,-32.11593873021174,0.030511510106594104,0.04778390566338231
4604,1724812532419152661,-1.0021353960037231,-0.4241778254508972,0.1761875003576278,-0.0540650486946105,-0.0487864427268505,-0.3003863096237182,0.9510337114334106,0.0,0.0,0.0,0.9352381472885716,0.952367114418611,1.045477560642147,1.656477529,0.1761875003576278,-0.23858273556684786,-0.23545813296855914,0.07938646518104982,21.379356450808167,23.35924279130746,-14.655088791810943,-0.07417765501780486,-0.1256059214411675,-0.6072055127377597,0.06892131901710741,0.028433927868661613,-0.006819375503832603,-44.451469590625344,-79.87061081588081,-54.398969945733995,0.03876014888044681,0.06232995094537708
4606,1724812532429761168,-1.0013240575790403,-0.4237064123153686,0.1764093935489654,-0.052420750260353,-0.0468239523470401,-0.3024210333824157,0.9505794048309326,0.0,0.0,0.0,-0.07147264711268297,-0.6734552183389609,-0.8167577671187367,1.667086036,0.1764093935489654,0.16033339226129553,0.46154707428707376,-0.38566703216079556,10.738639897869131,5.568419857120786,2.3772549164714825,-0.07192670545392083,-0.12102124388685397,-0.6116772245314724,0.07153191328723807,0.029506703586672955,-0.002218321361416642,-62.01220061718736,-67.44817582009773,-82.32959933486256,0.039349221094562514,0.08672370852844583
4608,1724812532439095145,-1.0006970167160034,-0.4235536158084869,0.1761986911296844,-0.0522193163633346,-0.0467891357839107,-0.3023458123207092,0.9506160616874696,0.0,0.0,0.0,-0.3802279557384809,-0.5983081549484544,-0.8197092934982594,1.676420013,0.1761986911296844,0.03993868428662331,0.019667292851909626,0.016066586765299092,2.5530054807257354,-9.628333970151072,25.679900908737213,-0.07157048612284705,-0.12082737496061037,-0.61153972250794,0.06825682436468838,0.01685939971693884,-0.02011150589781252,-14.850544366191784,9.522420974025902,1.0854801472166855,0.0425514252627291,0.0653874378028397
4610,1724812532448590095,-1.000038504600525,-0.423388808965683,0.1760315150022506,-0.0508566908538341,-0.0457524694502353,-0.3019542396068573,0.9508647918701172,0.0,0.0,0.0,-0.3451733953869267,-0.4936804186824232,-0.7958641798339579,1.685914963,0.1760315150022506,0.21342120592737993,0.29250201313896507,0.09222076524513284,11.35978984997136,14.213633102008316,3.093740873605473,-0.06962534868819481,-0.1179952264035505,-0.6108572859647796,0.06436309834577969,0.018486909424879627,-0.01729625495526399,16.59432969000656,4.218185658687592,-12.393403130484295,0.044457583438499045,0.06745585279140051
4612,1724812532460373885,-0.999353051185608,-0.4231544435024261,0.1758322417736053,-0.0490519292652606,-0.0447861105203628,-0.3016442060470581,0.9511041045188904,0.0,0.0,0.0,0.03906042959562228,-0.543436301305557,-1.1598780899294168,1.697698753,0.1758322417736053,0.24621000998940137,0.24763067902965855,0.056626091113982056,-12.436964418912604,-64.92916764711313,19.670832579553057,-0.06677871718291607,-0.1150385338149954,-0.6103873715249936,0.06124492291837669,0.00294298183602848,-0.04264969174906952,38.00995776042062,96.79904687270093,136.9439288970393,0.034084574854162455,0.059789914357417887
4614,1724812532468738323,-0.9988225102424622,-0.4232304394245147,0.1753226816654205,-0.0497427731752395,-0.0473970286548137,-0.3000823259353637,0.951435685157776,0.0,0.0,0.0,0.38907142076664636,0.8660273366404234,0.9820666218755598,1.706063191,0.1753226816654205,0.05181915502362441,-0.6583603208218493,0.3558875332956931,-10.628715991617526,-32.66787813465532,14.044606733196641,-0.0667398811238484,-0.12033450799478186,-0.6070265712850015,0.06337465564731559,0.0030027506703973472,-0.04646356085784564,42.407627797528704,114.37511004996678,209.90132297010132,0.049551967600565024,0.050164659171022766
4616,1724812532479102325,-0.9981663823127748,-0.4230440855026245,0.1750267744064331,-0.049326155334711,-0.0476265512406826,-0.2989537417888641,0.951801061630249,0.0,0.0,0.0,0.8358075229803301,1.356276783579618,2.5645091035408956,1.716427193,0.1750267744064331,0.10361385999331801,-0.02550703371271296,0.22235710003370115,-8.209263605705338,34.06692538394184,-23.415502798333446,-0.06594631259962272,-0.12044548975998655,-0.6046926392812415,0.06913359173896794,0.023007652000352152,-0.017818866583098725,-17.776856648100335,-39.88478430528269,-2.2613391896072983,0.03812616991606643,0.0637686792497837
4618,1724812532488579317,-0.9974607229232788,-0.4227824807167053,0.1749509125947952,-0.0496155843138694,-0.047236256301403,-0.2993980944156647,0.9516658186912536,0.0,0.0,0.0,0.13974399032014384,0.22272772706571886,1.2003169360168633,1.725904185,0.1749509125947952,-0.08863422898203956,0.06340288420263478,-0.09081582672699291,-13.365467974351258,7.662594358587822,-30.01150166800223,-0.06667779304997262,-0.11990297940769948,-0.6055977869993067,0.07948220012772111,0.030887261802792665,0.004757374725860686,-18.802053524494124,-102.2006469221318,-210.44139744080306,0.044220391520723344,0.07712048254363915
4620,1724812532498846259,-0.9965888261795044,-0.4224288463592529,0.1751417070627212,-0.0500652939081192,-0.046499665826559,-0.3012489378452301,0.9510942697525024,0.0,0.0,0.0,0.5545139138189068,-0.6329136232006038,-1.6998635200924563,1.736171127,0.1751417070627212,-0.1488839973754415,0.12295357815316363,-0.3651946463376272,-1.0460206275516044,-2.599697315602337,-2.611567378819608,-0.06774740209322623,-0.11889528578534946,-0.609450951533876,0.07032556278835145,0.02640337747478938,0.00393500636558386,51.64810446382781,-17.99519607034052,-135.29707778227922,0.051768988645609235,0.08795657304441429
4622,1724812532512605004,-0.9958903789520264,-0.4222138226032257,0.1749257594347,-0.0507060214877128,-0.0467734932899475,-0.3009649217128753,0.9511368870735168,0.0,0.0,0.0,1.4725469637768551,0.32432006514461253,-0.8476512424605955,1.749929872,0.1749257594347,-0.07436169403229718,-0.06769394942428027,0.04347037532734137,18.12161779459211,-65.10832520834558,74.71887755491679,-0.06884970735504256,-0.11978369718311718,-0.6087860347361771,0.10462332038474642,0.01407802892847343,-0.04931839404495619,-248.77844464761634,64.83629816202384,279.85614365903723,0.03059657400488749,0.051284369597797336
4624,1724812532517996623,-0.9952124953269958,-0.4221411943435669,0.1745888143777847,-0.0510730966925621,-0.048091422766447,-0.2994976341724396,0.9515146017074584,0.0,0.0,0.0,-0.5353661647727743,0.6638854853766358,1.1216416123686201,1.755321491,0.1745888143777847,0.05018690835809514,-0.5270184635109479,0.5414375860616689,25.447520973583416,-31.470516764798894,48.625567188416234,-0.06895734144391119,-0.12241745486810265,-0.6056551691372355,0.11040714253991624,0.018404556492717106,-0.04750188705986247,438.4941687438504,151.13938666103016,101.13856075400113,0.08734934112538376,0.11414339972444976
4626,1724812532529575958,-0.9943150877952576,-0.4218053817749023,0.1744116097688675,-0.0480853170156478,-0.0463363118469715,-0.2994219064712524,0.9517810940742492,0.0,0.0,0.0,24.70809674771783,4.6063571741511335,-4.275291539366366,1.766900826,0.1744116097688675,0.40322123239122915,0.4445497018666031,0.016895999801939444,16.796899258091855,49.8148569914888,-29.85022956416616,-0.0642705244655358,-0.11726823666909415,-0.6058035935838892,0.06421683535939238,0.022645923969953685,-0.01499907125241462,-1917.2457136344076,-302.2082197973385,469.37129777075654,0.0450806227905825,0.08083961188000836
4628,1724812532552622729,-0.9934444427490234,-0.421574980020523,0.1740798950195312,-0.0462256781756877,-0.0465588122606277,-0.298937976360321,0.9520145058631896,0.0,0.0,0.0,-207.4242994198221,-31.83896670751301,49.45226974837601,1.789947597,0.1740798950195312,0.16229933504580066,0.028862214868253445,0.03762924751040192,-11074.449512007872,-15533.633740437968,3100.8857152723504,-0.0606268296851453,-0.11655024045313275,-0.6049739513670305,1.9500195424520825,0.32330307126414937,-0.4383997990508419,-26052.153611766873,-4331.428357973171,5951.335578235899,0.023540742596963066,0.03747309559665924
4630,1724812532553047738,-0.992600679397583,-0.4214351177215576,0.1738902479410171,-0.0476014614105224,-0.0476053729653358,-0.2986384332180023,0.9519889950752258,0.0,0.0,0.0,-218.62194430332974,-33.70141680281249,52.01001399061151,1.790372606,0.1738902479410171,-4.631157165281905,-6.694677831126034,1.3798302073832134,-10461.401283772328,-14662.680691369453,2926.462788577251,-0.06268525753785646,-0.11935400611560498,-0.6042080199586691,1.8595953118072686,0.3094194347093868,-0.4168505610284332,-24168.928540361827,-4042.305754620699,5504.260182551739,1.383414517045877,1.8385360474667094
4632,1724812532558859744,-0.9917823076248168,-0.4211994409561157,0.1738016903400421,-0.0489166527986526,-0.0470439977943897,-0.2987633049488067,0.9519110321998596,0.0,0.0,0.0,-185.99290208499724,-30.1853212313066,43.16163579359321,1.796184612,0.1738016903400421,-0.49186172262639355,0.04951437229488038,-0.0181784978821267,443.311738120398,700.22021696345,-150.18272639171423,-0.06552912229502197,-0.11907358447219722,-0.604332761367972,0.12293213735159014,0.031307115919375406,-0.010688755188920318,12758.129387939587,2137.1394622971297,-3518.5538874227886,0.09035918389851617,0.13921756999646384
4634,1724812532568189628,-0.9909030795097352,-0.4210457801818847,0.1737700849771499,-0.0510338023304939,-0.0478996150195598,-0.2990694642066955,0.9516609907150269,0.0,0.0,0.0,40.03585108522294,12.701312620059285,-19.562106525705737,1.805514496,0.1737700849771499,-0.38292975864763784,-0.30949682378154164,-0.06610893520290188,13.489774848279959,-23.54534679082806,-0.772168747863395,-0.06905079104665096,-0.12199608106743437,-0.604757020920102,0.0772502897665941,0.0142666232867521,-0.008206633567060972,12720.411035606345,1855.0393993126363,-2549.791814882816,0.06724094375038848,0.08660860977807242
4636,1724812532590916277,-0.990087866783142,-0.4208435118198395,0.1733167916536331,-0.0509199425578117,-0.0480826757848262,-0.2973369657993316,0.9522006511688232,0.0,0.0,0.0,-307.8367154288153,-96.91739828881828,153.51133234519148,1.828241145,0.1733167916536331,0.02408016427922818,-0.017840400606785302,0.15799522290750292,42296.62215331669,19911.90002651561,36378.65826508587,-0.06894644330638643,-0.1221530278565834,-0.6011199131327749,3.4745658470169474,1.1071785883839311,-1.5504701168933934,-41471.37424609088,-13294.350425842567,18591.788933810196,0.021935534787303267,0.0356675829855298
4638,1724812532591192773,-0.989115595817566,-0.420533686876297,0.1728829443454742,-0.0491988025605678,-0.0477661192417144,-0.2959354221820831,0.9527435302734376,0.0,0.0,0.0,-319.39139933269917,-100.6217285325812,158.68881089142087,1.828517641,0.1728829443454742,11.861148112561395,5.5546586603379975,10.33888949765451,41106.35486191302,19353.757910748944,35349.17534541911,-0.0660019019399911,-0.12042794011974975,-0.5983509625177141,3.3879118414568943,1.0798935277736819,-1.507280172953873,-40113.26091687818,-12867.172466280392,17914.71149342553,2.06932488985045,3.618702968342168
4640,1724812532598123601,-0.9879574179649352,-0.420110821723938,0.1731747537851333,-0.046434462070465,-0.0462635532021522,-0.2972271144390106,0.9525543451309204,0.0,0.0,0.0,-306.15796371050726,-97.68234729438986,142.02189820876117,1.835448469,0.1731747537851333,0.6111934081474681,0.6648958581100066,-0.3880504301863295,-1070.4384519713144,-477.2356260310355,-994.0270968777696,-0.06141218760672967,-0.1160002355351096,-0.6013493714558908,0.13346344150980016,0.04543356709122648,0.024155142292888954,9537.366675957304,2910.02871949606,-5487.322984206138,0.1074514621390206,0.1691260931746216
4642,1724812532611014441,-0.987043559551239,-0.41989865899086,0.173055812716484,-0.0460852459073066,-0.0464515537023544,-0.2967533469200134,0.95270973443985,0.0,0.0,0.0,-0.32392648332690577,-0.5669845305560894,-2.622159797078511,1.848339309,0.173055812716484,0.06479947118836192,-0.01397805871359056,0.0733217605790309,-65.27216356093122,-83.88257280103625,38.714761975275195,-0.0606881241211234,-0.11612239449275126,-0.6003883642848689,0.10459307135575102,0.022730971518534204,-0.03768424780806079,9514.969702573757,3007.5551829262677,-4033.5431285598406,0.047795466822870954,0.06804126150888593
4644,1724812532618518564,-0.9861114621162416,-0.4197006821632385,0.1726487129926681,-0.0488954596221447,-0.0485891252756118,-0.2953616082668304,0.9528955221176147,0.0,0.0,0.0,9.003400002858834,2.23035972169505,-1.4943215443102684,1.855843432,0.1726487129926681,-0.5249849848498302,-0.7798203902368616,0.3766154578139864,-67.11114826395057,-86.81636295224938,34.22133007044619,-0.06500874283643555,-0.12178522560245689,-0.5971775687815979,0.11053065873894319,0.02369276115414576,-0.04786007895017602,4796.240329948283,-1473.515121987839,-1955.82055688236,0.08063707040442615,0.12038545663740602
4646,1724812532668760190,-0.9851601123809814,-0.4194150567054748,0.1723936200141906,-0.049835629761219,-0.0486881956458091,-0.2950996458530426,0.9529228806495668,0.0,0.0,0.0,1445.21913695074,-692.8523592819947,-808.2088845695457,1.906085058,0.1723936200141906,-0.03393823675786726,-0.015269144432008816,0.011884226216757261,28376.504172683457,31261.109043618177,3141.35922608623,-0.06679319049887678,-0.12251137776097383,-0.5965263676418444,3.325263958090545,0.8428804002851393,-0.16945475683206723,780875.8072813712,2041905.5224006765,-1469387.754571398,0.011757532539451212,0.019094496962574276
4648,1724812532669154223,-0.9838396310806274,-0.4190803468227386,0.1723263412714004,-0.0470172837376594,-0.0470009222626686,-0.2948755919933319,0.9532202482223512,0.0,0.0,0.0,1755.2347791985012,118.0786663498236,-1391.6873875510669,1.906479091,0.1723263412714004,11.235002713134733,12.399198805745897,1.2594136220493266,-25983.220331146622,-50067.87279536099,5085.319524854167,-0.0623879246628855,-0.1176038629263907,-0.596345322650602,3.8989964252027676,0.567682193389146,-0.49040586196809954,548894.970344217,5190164.6718382435,3752532.2880405886,2.259798209542588,3.2454512108180733
4650,1724812532669406591,-0.9827671051025392,-0.4189826250076294,0.1721509099006652,-0.0480320528149604,-0.0484440550208091,-0.2944768667221069,0.953220546245575,0.0,0.0,0.0,1855.3083812662462,1934.1736864062113,401.22017172891947,1.906731459,0.1721509099006652,-4.144735764060496,-13.42156668185105,2.8530065772238844,-4984.321108759297,-25612.975898004748,4883.800857805228,-0.0635455680623185,-0.12093899226784652,-0.5954068076221706,4.39032001681403,0.729455453078458,-0.934912424995332,-1085547.02124508,4568976.032746599,8737475.475251425,3.1933878912904796,3.7565606779435137
4652,1724812532669656272,-0.9816362261772156,-0.4187159538269043,0.1718582510948181,-0.0470828935503959,-0.0488352626562118,-0.2939778864383697,0.9534019231796264,0.0,0.0,0.0,1218.1593089417674,2425.972147832481,2986.223678509526,1.90698114,0.1718582510948181,8.433515134498318,-0.8697668051164026,3.7189689277379125,-11603.425640458838,45136.41571522505,-21956.02306295947,-0.0615542310271593,-0.12109768463871515,-0.5944595463855613,4.830941488603003,1.5318197531299802,-0.3005334209187822,-2433951.7679813863,-707561.7817178331,5855500.077076694,2.9894340323711903,4.405135538998234
4654,1724812532669902845,-0.980371594429016,-0.4182253181934356,0.171996384859085,-0.0478278174996376,-0.0474769473075866,-0.2950139045715332,0.9531134963035583,0.0,0.0,0.0,646.721771284461,1599.5816476833602,3334.8193554266827,1.907227713,0.171996384859085,-9.520107965499136,9.009280227267508,-7.885703871379014,-70879.83659124188,38992.005077517686,-45808.72902628064,-0.06365078910344389,-0.11900225786554071,-0.5965543027279269,4.998212831709269,1.9382189969933632,0.5442612400331855,-2259986.669280116,-3268868.186572386,1367103.9711133926,3.1694987245749213,5.306100801962119
4656,1724812532679079442,-0.979114592075348,-0.4180615544319153,0.1715424805879593,-0.0470423065125942,-0.0465369597077369,-0.2933140695095062,0.9537234306335448,0.0,0.0,0.0,-443.8520118396932,-175.4690418598956,-54.72224226590121,1.91640431,0.1715424805879593,0.12668018845288553,0.23435919656621754,0.39398891309393325,888.7137179511595,-809.7322816322503,762.1273564987,-0.06289928610497171,-0.11662733158455363,-0.5930578619563741,0.11936361840636289,0.016021243398544938,-0.04283534692971347,-97667.05256526693,-162888.3186734967,-313072.35022879305,0.09715438522720221,0.12590454791253508
4658,1724812532729445388,-0.9779722690582277,-0.4177590012550354,0.1712172180414199,-0.0484298653900623,-0.0474440082907676,-0.292307585477829,0.9539182186126708,0.0,0.0,0.0,490.8020272397307,63.9314320920131,-260.83483456305134,1.966770256,0.1712172180414199,-0.039760806599192254,-0.052033035073960655,0.041255834747000744,-5907.876444864701,-3307.0881234242393,1595.8894417245315,-0.065167285024294,-0.11910967919893777,-0.5908008095856385,2.0380913733697525,0.5766731453819602,-0.2404741068775138,4129134.4477215004,934992.6597242786,-921830.9224487091,0.01461275783673238,0.022481869681502186
4660,1724812532730096089,-0.9766291379928588,-0.4173789620399475,0.1710587739944458,-0.0498797670006752,-0.047745257616043,-0.2919935286045074,0.9539246559143066,0.0,0.0,0.0,3212.1903628245955,680.1523419181411,-868.3862980674969,1.967420957,0.1710587739944458,-3.9336599270876,-2.231712505163409,1.0931777421670497,3398.4549437285496,-1575.1289250500404,3447.8895836481884,-0.06782398490410381,-0.1205113811450937,-0.5899887317980154,2.3612625128137097,0.6187172652137747,-0.41235936841562193,2342933.3846329534,705584.9954011973,-931982.2134282284,1.350890849001594,2.045971690377578
4662,1724812532730614143,-0.9752833247184752,-0.4170441329479217,0.1707755029201507,-0.0496805757284164,-0.0483988039195537,-0.2910442948341369,0.9541921019554138,0.0,0.0,0.0,3667.3387402263925,946.1079991910724,-1350.5000239898905,1.967939011,0.1707755029201507,1.696758694032469,-2.3157803989963925,3.6346822342277694,70618.34825656364,28149.095061965392,25089.891184986525,-0.06718333110414802,-0.12158132406577783,-0.5880146253195191,5.145367879198602,1.2249502800007122,-1.1114444210928696,-9802505.57299299,-1940433.453021808,1504078.2532514133,1.7233561439703735,2.542329220166319
4664,1724812532730851493,-0.9737850427627563,-0.416690468788147,0.1704502999782562,-0.0466649420559406,-0.0483480431139469,-0.2896087169647217,0.9547836184501648,0.0,0.0,0.0,179.21579164810828,218.71038353606582,-728.7488741335908,1.968176361,0.1704502999782562,24.955444041437765,7.444085875469164,11.784649918469636,5568.930240912283,33688.3499117704,-10626.04696652984,-0.061584672095199626,-0.11963818569127978,-0.5853175094019218,5.830204895222778,1.4251391511504607,-1.4321003975374538,-12974323.224647487,-2838200.0779112885,2637649.5898517356,4.2432774270005815,6.144351124750818
4666,1724812532731106347,-0.972431182861328,-0.4163450300693512,0.1700683683156967,-0.0459967143833637,-0.0467042885720729,-0.2900774478912353,0.9547554850578308,0.0,0.0,0.0,-2656.1759296000955,-442.6451044019627,-51.581496865095424,1.968431215,0.1700683683156967,1.0829111972140988,13.99599437552135,-3.227621113475213,-90429.91223270453,24746.68367240118,-56846.06876036908,-0.061185525885389044,-0.11612840870013282,-0.5863645257617011,5.135349095169698,1.3099236678245254,-1.4475511063105677,-10728798.644899903,-2503407.6567349415,2565773.1767473193,3.476511179403389,5.245384090571106
4668,1724812532738199940,-0.9709399938583374,-0.416039377450943,0.1698850393295288,-0.0476767644286155,-0.0475127659738063,-0.2896580696105957,0.9547605514526368,0.0,0.0,0.0,-425.6274702164315,-109.31079568690241,121.17250611585733,1.975524808,0.1698850393295288,-0.3805394904242591,-0.36040868539669285,0.12494418516148956,-111.450532884169,-1223.016420665641,288.4772075707317,-0.06400809307744668,-0.11862456263069368,-0.5853128441884274,0.17567939057579451,0.0336728414944929,-0.02773223994998464,205943.34600679672,32464.80316406471,10399.646600587637,0.14729615206179972,0.19965094266591377
