seq,stamp,px,py,pz,ox,oy,oz,ow,lx,ly,lz,ax,ay,az,timestamp,lyap_z,wx,wy,wz,aa_x,aa_y,aa_z,roll,pitch,yaw,vx,vy,vz,jx,jy,jz,forward_velocity,forward_velocity_1
1012,1724559181488100496,-1.4384915828704834,0.2089230269193649,0.1573651582002639,-0.0006747528095729,0.0488428249955177,-0.3860763907432556,0.921172559261322,0.0,0.0,0.0,0.17753283030576292,0.17307388610049598,0.12000376150474869,0.0,0.1573651582002639,0.0,0.0,0.0,2.37506789405998,5.022966062154938,0.13180759834274852,-0.03912407760065484,0.08958410326469135,-0.7955031556495094,0.004081342756479916,-0.0014256956381208166,-0.004264756573699819,2.1959643561345668,10.788935005390968,14.554346938835229,0.0,0.0
1014,1724559181497768460,-1.438452124595642,0.2089092433452606,0.1573239266872406,-0.0004815730790141,0.0490162186324596,-0.3860763013362884,0.9211635589599608,0.0,0.0,0.0,0.1987633346461551,0.27738092133095565,0.26071466375291785,0.009667964,0.1573239266872406,0.022962070897327696,0.0485618550621357,0.0012743111157041524,-2.876025904565856,-9.640948321264672,3.5783494183861415,-0.038902625288605885,0.09005372928664945,-0.795509248726923,0.005797723768694141,0.00024757646203887873,-0.003104564527607323,-12.26013745668728,2.032603509505652,13.846894729709241,0.004242715563712971,0.0014443329374387282
1016,1724559181506497356,-1.4383879899978638,0.2089245915412902,0.157305970788002,-0.000898506201338,0.0484819523990154,-0.3858266472816467,0.9212960600852966,0.0,0.0,0.0,-0.02218326828610795,0.22611429418167442,0.37600730756130674,0.01839686,0.157305970788002,-0.043526548196028726,-0.15115989779309444,0.05967169011089745,0.32045663964819115,-3.304034996692698,2.438164653376295,-0.03923128376376459,0.08875561189021632,-0.7949348820005202,0.007700026730930176,0.003490853748758127,0.00028013511625779586,-28.405877126283702,-15.94428224316262,1.7787251679542742,0.00405750829383237,0.006190037419528887
1018,1724559181514876167,-1.4383206367492676,0.20896777510643,0.157327115535736,-0.0008349990239366,0.0483623743057251,-0.3856540620326996,0.9213746786117554,0.0,0.0,0.0,-0.2850733503455521,0.011520871440711011,0.2989866423980175,0.026775671,0.157327115535736,0.022998178753265656,-0.021394613975575547,0.04590311027543741,3.434341975143645,9.622547848310436,-2.675124693898823,-0.03900379575052514,0.08859153167552179,-0.7945420311255983,0.00558296882367415,0.004215665659593526,0.0033361208453488445,-21.004932604024752,-24.202581854379876,-16.26771024992966,0.0017234105959268145,0.009498597315133703
1020,1724559181529089933,-1.4383004903793335,0.2090050727128982,0.1573941260576248,-0.0011532928328961,0.0482927113771438,-0.3857525587081909,0.9213367700576782,0.0,0.0,0.0,-0.3335738679144983,-0.2985183436208247,-0.10284178688514861,0.040989437,0.1573941260576248,-0.03681926170324882,-0.02603410897129933,-0.017000919164732144,2.387650878992409,2.411441098902124,0.8068855048800402,-0.03954725070960232,0.08821228824145023,-0.7947698702508923,0.0007496416838819187,0.002571383862925103,0.006000685166473119,-1.2640181655691265,-16.35921875323947,-24.090574654299196,-0.0012918984629339712,0.0032775941005834443
1022,1724559181536600397,-1.4382975101470947,0.2090241760015487,0.1574442982673645,-0.0011220290325582,0.0482923723757267,-0.385719895362854,0.9213504791259766,0.0,0.0,0.0,-0.33454212544114303,-0.39974201737877224,-0.267185737951788,0.048499901,0.1574442982673645,0.007289474671164344,0.002942038740603174,0.009824072649559819,9.06636039576134,1.6985469854144286,2.5145533369178947,-0.03948605758597349,0.0882372783332926,-0.7946967034567999,-0.0017299702966937502,-0.00039620871093148935,0.004076223867555129,5.793029281945968,-5.436642930818611,-14.31805534290969,-0.0021199527392075884,0.0026847360405341096
1024,1724559181544749336,-1.4383304119110107,0.2089949548244476,0.1574544906616211,-0.000710824271664,0.0481118485331535,-0.3856626749038696,0.921384334564209,0.0,0.0,0.0,-0.23497502367212325,-0.37294846769443596,-0.31698465734790715,0.05664884,0.1574544906616211,0.10940565789200475,-0.002310738600439751,0.02096820551409116,5.438877486655796,0.3655339642843327,-1.1945203426272122,-0.038579352400674116,0.08822513841063843,-0.7945246256054005,-0.004494929474134324,-0.0036944801533183025,0.0018021412066744347,13.888472543787575,11.684544249052408,6.470342178737569,-0.0003793203811962663,-0.005254425130700273
1026,1724559181557231251,-1.4383952617645264,0.2089467644691467,0.1574875265359878,-0.0004320452862884,0.048135295510292,-0.3859220743179321,0.9212746024131776,0.0,0.0,0.0,-0.02969069970854643,-0.06657047465672372,0.004319948060080847,0.069130755,0.1574875265359878,0.041695869752640634,0.021564340193704918,-0.04292561075812103,-2.769054439842457,-2.595127285457117,1.6467972393979065,-0.03810724343318701,0.08847355583485307,-0.7950724001254991,-0.005433239251487976,-0.007741610305728841,-0.0028794162794003597,10.115278165420658,37.60871209446918,41.498924737551846,-0.0011121827513592474,-0.006133401381084847
1028,1724559181563878009,-1.438432216644287,0.2088815718889236,0.1574488282203674,-0.0003481715393718,0.0480577163398265,-0.3859518766403198,0.9212661981582642,0.0,0.0,0.0,0.015133777983639185,0.22964151739178792,0.3359258315360143,0.075777513,0.1574488282203674,0.032689976018296985,-0.011640433362719709,-0.00803271017828674,-0.18685541690829344,-4.565246854546091,3.954824915673015,-0.037894430626449475,0.08839421126852672,-0.7951230045240589,-0.005469600884147496,-0.00727207569528332,-0.001507872179770331,6.050985214510723,26.59941095590427,25.90552716249531,0.00361139837436932,-0.011369432698938475
1030,1724559181573707570,-1.4384846687316897,0.2088469564914703,0.1574967205524444,-0.0002240873291157,0.0477394424378871,-0.3859086632728576,0.9213009476661682,0.0,0.0,0.0,0.0645410828637879,0.22994785391042208,0.24191859552318185,0.085607074,0.1574967205524444,0.04783293199102768,-0.050258497090847634,0.012019874011416524,-0.737395788575733,2.418238453268933,-2.088883881193401,-0.037412180024770716,0.08790500012625457,-0.7949858893342777,-0.005021328233233646,-0.002703499362390893,0.003677735472185084,1.0319441159380665,-15.110503353304221,-16.20956298044176,-0.001646028142327358,-0.005797045776665961
1032,1724559181585882329,-1.438541054725647,0.2088263779878616,0.1575234830379486,-4.487753540161066e-05,0.0481487661600112,-0.3863343894481659,0.921101212501526,0.0,0.0,0.0,0.016870401133756763,-0.18234750106535152,-0.05564474058890209,0.097781833,0.1575234830379486,0.004505018037716361,0.0748925855977274,-0.07567367194085955,4.127020979326819,0.3474147614799814,1.1579094780923223,-0.037441900204472495,0.08878168466780204,-0.7959443892582083,-0.003950002780598538,-0.0034450776332271005,0.0023158255610056244,0.6564764701039079,-14.483502902625446,-6.1430533366646,-0.0022193307007129736,-0.004235308365818826
1034,1724559181594713248,-1.438571572303772,0.2087847143411636,0.1575446873903274,0.0003438342828303,0.0480532459914684,-0.386401891708374,0.9210777878761292,0.0,0.0,0.0,0.0519535958670192,-0.18610392544402127,0.0073135439405310615,0.106612752,0.1575446873903274,0.09018195102539879,0.014340499794071605,-0.011893313560031458,5.92361436742814,-6.499043793571559,5.5360791382261,-0.03665527543028765,0.0889043415804531,-0.7960544251189132,-0.0042566125320320225,-0.005833231473483025,0.002184538642248768,7.136735255748657,6.324884164941602,21.309985413557733,0.0007370633678262401,-0.005554390223561884
1036,1724559181603935500,-1.438618540763855,0.208720177412033,0.1575627475976944,0.0007343053584918,0.0476810075342655,-0.3863286077976227,0.9211277365684508,0.0,0.0,0.0,0.14824230046013098,-0.06276303013596896,0.340412723751059,0.115835004,0.1575627475976944,0.10842236251326913,-0.04214953391168715,0.02292104848089396,1.4446656195463832,-2.8670277011223106,1.7047903006227507,-0.03563534405313749,0.08852353601732944,-0.795828366350671,-0.0029427360801932423,-0.0067373813673228256,0.002465602608971551,2.272793404561806,9.825623778139429,23.650361122602064,0.0012573879117018692,-0.008359686868322192
1038,1724559181615142604,-1.438622236251831,0.208648219704628,0.1575972884893417,0.0012789814500138,0.04727254062891,-0.386288583278656,0.9211649298667908,0.0,0.0,0.0,0.06247097239442112,-0.0009757777025233283,0.43565161492348686,0.127042108,0.1575972884893417,0.11735109901636123,-0.029904293486435824,0.013831793475116518,-2.8549872500607836,0.5927363560452514,-4.142281736711695,-0.034305412459968605,0.0881940120933884,-0.795661010955053,-0.001202729136636549,-0.0069603305785239655,0.010501706579852055,-8.084614660128707,1.5881828901254207,-38.191181907514206,0.004067336289922744,-0.004534705881113995
1040,1724559181624472007,-1.4386402368545532,0.2085790932178497,0.1577528864145279,0.0014848279533907,0.0470390617847442,-0.3865202665328979,0.921079397201538,0.0,0.0,0.0,-0.016303376690398705,-0.016642020790099632,-0.28325226298851935,0.136371511,0.1577528864145279,0.0623556389463007,-0.02825675793836596,-0.05068476051999583,-7.085862735133856,1.9181116078950613,-4.801088351690005,-0.03376460139169281,0.08791445755173485,-0.7961264454668362,-0.0013405343606507358,-0.006822512770476408,0.012380616386357346,-2.933208494018047,-1.2032774567903495,-36.307032140648474,0.0024660165535361485,-0.005195171915808585
1042,1724559181633938921,-1.4386472702026367,0.2085201442241668,0.1578288078308105,0.0014095915248617,0.0470980815589427,-0.3868471682071686,0.9209392070770264,0.0,0.0,0.0,0.008864121203200029,-0.023461099234230315,-0.23549689922191724,0.145838425,0.1578288078308105,-0.016166991021949347,0.006631625219845175,-0.07582521750877658,-3.799096619226229,1.0109961719370426,1.27386528536166,-0.033981086053951226,0.08795288523489558,-0.7968487244905531,-0.0015095970980922857,-0.007281842609897282,0.005043335851984132,0.7719635456255705,-11.37637754805921,20.917197130435518,0.0032142339119761577,-0.004267941613982752
1044,1724559181645946343,-1.4386770725250244,0.2084166407585144,0.1578440368175506,0.0013953247107565,0.046961173415184,-0.3868530392646789,0.920943796634674,0.0,0.0,0.0,-0.010597484301028734,-0.32235074578928063,0.2574017785395536,0.157845847,0.1578440368175506,0.006678153793859365,-0.021957684029889225,-0.0006846406637786215,3.7321180537579686,0.7162595508323293,-2.9492447050273047,-0.03390083695326538,0.08768910983831424,-0.7968480469697952,-0.0009961880202240536,-0.007181918358684314,0.010432770365676802,-7.5468398683390046,-22.29301394402522,-22.93747349958227,0.00430170154086431,-0.007763015476560522
1046,1724559181655594578,-1.4386751651763916,0.208358496427536,0.1580157428979873,0.0016419412568211,0.0468955375254154,-0.3873123824596405,0.9207536578178406,0.0,0.0,0.0,-0.12935325244159115,-0.5172895691952547,-0.4599681672649816,0.167494082,0.1580157428979873,0.056870095413879794,0.008964459074364942,-0.10051829362255563,2.6443263742151584,-0.44159940815091636,-3.074477122244489,-0.03343763711263668,0.08774290655904542,-0.7978239980857497,-0.0015120746702308452,-0.012855598363286092,0.011432089066557793,0.7148030021690803,22.13967077507983,-41.30663173342727,0.0028753313557350006,-0.0026474413630916045
1048,1724559181663659871,-1.4386988878250122,0.2082087695598602,0.1580650359392166,0.0018238740740343,0.0467296093702316,-0.387607216835022,0.9206376075744628,0.0,0.0,0.0,-0.03578397768417671,-0.053239080470078526,-0.5703214370176646,0.175559375,0.1580650359392166,0.060952106817316894,-0.019182436427224874,-0.07628073630808925,2.3860558223574686,-1.242126283657694,4.396713425753038,-0.032999621360345906,0.0875678356845565,-0.7984360066196001,-0.0030669588990974717,-0.016550594694552778,0.003922868892027864,10.099476437418662,23.997502643604165,16.797525907540063,0.010666868190985881,-0.014779827530302275
1050,1724559181675119925,-1.438736081123352,0.2080518901348114,0.1580743491649627,0.0024573570117354,0.0464823357760906,-0.3876560032367706,0.9206281304359436,0.0,0.0,0.0,0.05549850989978827,-0.3243690333625201,0.11850660792941142,0.187019429,0.1580743491649627,0.11890874169174061,0.003184465098702546,-0.0032346439822986133,1.9843395878677688,4.767866866894307,0.7113212107892402,-0.03164027871276048,0.08760311602831518,-0.7984744084435543,-0.000920453408234323,-0.010567505730085358,0.003261010099715911,-7.644072950046171,-22.4647561317993,26.798222352801,0.007440787675149882,-0.011962154320595683
1052,1724559181689282314,-1.4387084245681765,0.2079568654298782,0.158163383603096,0.0033641604240983,0.0470102615654468,-0.3882858157157898,0.9203330278396606,0.0,0.0,0.0,-0.32595382046803806,-0.6216273464661075,-0.08493284667522816,0.201181818,0.158163383603096,0.0932293917712683,0.11999677496210676,-0.0922680967947315,43.34972985118858,-32.13771951934224,13.296381679452956,-0.03044040918537802,0.08926118938199112,-0.7998386334437281,-0.0024413017498261524,-0.029975889220395402,0.008024242776880186,-10.145218172880547,79.74912144523856,-9.78112787522172,0.0055882340219082175,-0.002914627804648634
1054,1724559181694120367,-1.4387274980545044,0.2077733874320984,0.1582050770521164,0.0041092913597822,0.0464279279112815,-0.3883195519447326,0.9203453063964844,0.0,0.0,0.0,-0.3472891235075612,-0.06930241732102282,-0.12467889050602216,0.206019871,0.1582050770521164,0.37760030740183925,-0.10223444605835813,0.004426114282435883,35.580841955588916,-33.06826385367421,14.898712938791217,-0.028610343759799893,0.08876741761255398,-0.799802453402952,-0.004379518838824481,-0.031745799560998655,0.006917095329411094,3.405025202262717,90.51790264430207,3.316572825215937,0.023592244456377656,-0.029149053947605745
1056,1724559181706320097,-1.4387943744659424,0.2075761556625366,0.1582371443510055,0.0044079693034291,0.0455780886113643,-0.3881832957267761,0.9204438924789428,0.0,0.0,0.0,-0.06533773620422978,0.3076064387443229,0.27053824762953427,0.218219601,0.1582371443510055,0.09806198119579085,-0.10986806374363947,0.02968015019356897,1.8615107932763486,3.4398815080429523,-2.0035296104608973,-0.02737872913351744,0.08743771950493652,-0.7994014512475845,-0.006975753902295878,-0.02346913414626073,0.008600410132192593,12.544303698228575,-39.46112891225344,-4.684743251197151,0.00750990222105852,-0.015154798470974328
1058,1724559181713498615,-1.4388507604599,0.2073768377304077,0.1583241075277328,0.0050267530605196,0.0450523905456066,-0.3882258832454681,0.92044860124588,0.0,0.0,0.0,-0.01992267140968501,-0.27284654244243967,0.08028315239497455,0.225398119,0.1583241075277328,0.2160733564512081,-0.06800189031131611,-0.0019088382751550293,9.711379921337787,4.423174805122436,-3.4346507739403265,-0.02582770283276119,0.08694936860460149,-0.7994021146397747,-0.006821862045942595,-0.022827319029880222,0.011102395360645723,7.628052431132632,-61.336695226002014,-23.504849519547214,0.013324059403017258,-0.024354157264073917
1060,1724559181734017769,-1.4389301538467407,0.2071980983018875,0.1584925651550293,0.0049766623415052,0.0444051697850227,-0.3883870840072632,0.9204123616218568,0.0,0.0,0.0,0.21293599529054924,-0.38635559777666684,-0.22614528900651104,0.245917273,0.1584925651550293,0.02072274193155312,-0.05988137640923238,-0.01573646393565617,6.345738877623957,-25.306256534070883,19.305497179964803,-0.02542770316833744,0.08571278935615251,-0.7996945673705899,-0.009656541763845894,-0.04967290053117601,-0.002983983238815213,64.4147902034455,61.43704182915339,178.5372039366406,0.002834509543509633,-0.008279021020085355
1062,1724559181743525114,-1.4390474557876587,0.2065453976392746,0.1584148854017257,0.0049272943288087,0.0423102341592311,-0.3873082995414734,0.9209657311439514,0.0,0.0,0.0,1.059114345759565,0.4927544885600178,2.3235349622519395,0.255424618,0.1584148854017257,0.15094634077193606,-0.41369746587128176,0.2558194164941655,6.591910344966438,-13.985152783051216,11.79395592423373,-0.023780299466125684,0.08184064481426057,-0.7971574810698746,-0.0060855140677134045,-0.04928474855625442,-0.003106105072998133,38.806410594680294,46.75606302954506,134.70221782813883,0.04102324697577671,-0.058202644103448276
1064,1724559181758770855,-1.438987374305725,0.2062675058841705,0.1584913432598114,0.005307147745043,0.0416655763983726,-0.3871552646160126,0.9210573434829712,0.0,0.0,0.0,0.4235661669129529,0.08807287977566158,1.1139455057400038,0.270670359,0.1584913432598114,0.077738030032752,-0.058994760142574744,0.02566884046849134,42.213148642376495,188.38124503932082,-118.42078178215625,-0.022561509737911743,0.08095053296258613,-0.7967440268352421,0.02677163822949069,-0.030723747012203262,0.08943699903231916,-181.77491034013644,-24.65150564444923,-533.3552070781977,0.015331781173756718,-0.009897522024779542
1066,1724559181763412341,-1.438830852508545,0.2061072438955307,0.1590257585048675,0.006911567877978,0.0436096861958503,-0.3886056244373321,0.920345664024353,0.0,0.0,0.0,-0.6180945081985184,-0.02367262423170391,-2.003173968325783,0.275311845,0.1590257585048675,0.34010559047725936,1.0486949945016484,-0.6699852596974358,37.009743693486136,142.92134655662272,-90.3215500222973,-0.021251551210163134,0.08574876384909252,-0.7999708560412744,0.026290727716407503,-0.03191086066821658,0.08760394435466434,-168.81534521202656,-15.823557576910144,-508.1069795344713,0.03822533140992107,0.007313974341880967
1068,1724559181774369150,-1.438735008239746,0.2058252990245819,0.1592734307050705,0.008392428047955,0.0438005328178405,-0.3892584443092346,0.9200483560562134,0.0,0.0,0.0,-1.029459599071324,0.016384207248382188,-3.3422425388678865,0.286268654,0.1592734307050705,0.24081159025643017,0.13864783997567295,-0.11921257168451443,-11.042310843254889,-62.5523897766346,23.644122817283588,-0.018728894349542686,0.08724148824299782,-0.8013121548816837,0.0062113179313172395,-0.026167275609907392,0.024058407247784075,39.463519860702924,-12.851208133399558,57.49015840832587,0.022505989968413697,-0.010713145001257769
1070,1724559181783819926,-1.4386969804763794,0.2055744528770446,0.1595126539468765,0.0083672413602471,0.0423429943621158,-0.3897845447063446,0.9198940992355348,0.0,0.0,0.0,-0.028750693656542148,-0.2396313758195836,-1.334017690822254,0.29571943,0.1595126539468765,0.12031271255475157,-0.28536677194442933,-0.11278533725648081,-4.8522837518081205,-32.35947866220821,8.163747628873836,-0.017679373547281753,0.08452559803119959,-0.8023325926312834,0.0030290970062480937,-0.03015203867086491,0.012503703340355443,89.36145735987975,26.292711941120125,202.52146067678262,0.019664946586354624,-0.014459454308087845
1072,1724559181793716564,-1.4386773109436035,0.2052386403083801,0.1595036536455154,0.0081602865830063,0.0398769117891788,-0.3896279335021972,0.9200724959373474,0.0,0.0,0.0,0.6843702043749296,0.573805144114466,0.566922290274051,0.305616068,0.1595036536455154,0.15414129907790605,-0.47600933316712,0.04556561994055349,2.940886542179184,-2.01304517368248,7.6319309358932905,-0.0161101991311816,0.07982299187440337,-0.801800327081647,0.005936163693974095,-0.03063739911610064,-0.0018530648672552275,29.662975622794097,56.59227403229694,159.6089492990448,0.025756443642046014,-0.023033580182436852
1074,1724559181804515009,-1.4385666847229004,0.2049466222524643,0.1594725251197815,0.0084426132962107,0.038033340126276,-0.3895330727100372,0.9201880693435668,0.0,0.0,0.0,0.5051810840325635,0.8832724557404041,1.9078704035778604,0.316414513,0.1594725251197815,0.18027451052636623,-0.2944964440275454,0.0293767896740921,9.243936498597916,37.25058964329587,-24.26675320736969,-0.014134873236076937,0.07664803399052099,-0.8014338053524164,0.01792883593529382,-0.017102533502477257,0.0280409628209366,-43.20223890557531,-74.44752315628453,-51.80368038788682,0.02669591247636293,-0.012480640074460033
1076,1724559181813776762,-1.4383395910263062,0.2048671841621399,0.1599778831005096,0.0101243713870644,0.0383777059614658,-0.3911831974983215,0.9194566011428832,0.0,0.0,0.0,-0.10631658833330154,-0.625289889510305,0.03011048512169001,0.325676266,0.1599778831005096,0.32009644595104475,0.21289070073593486,-0.3762356152250236,4.182603265720705,26.682607668859788,-17.96761826281996,-0.011443143263463698,0.0785750674377113,-0.8049540631801286,0.017798465683746656,-0.011862149791806331,0.038875646578404144,-37.65471758113739,-106.04911779269541,-144.9321628955243,0.01882338704809568,0.014185133574201652
1078,1724559181827829182,-1.4382327795028689,0.2046304494142532,0.160189688205719,0.0110166063532233,0.0379085652530193,-0.3917275071144104,0.919234037399292,0.0,0.0,0.0,-0.030593673855045633,-0.9038228148078149,-0.7739381181961618,0.339728686,0.160189688205719,0.14617182865409623,-0.011285814266545813,-0.07807062135899746,24.69716841842384,-33.43600484184853,22.15261838534734,-0.009475226627530234,0.07840500822229697,-0.8060528038382481,0.014337796234855205,-0.04604449297284674,0.014998712593865093,62.30564096806666,50.24350421442961,48.89296087573342,0.01618425536137405,-0.005979869651606004
1080,1724559181834214747,-1.438121676445007,0.2042517066001892,0.1602852493524551,0.0118875764310359,0.036582950502634,-0.3915925323963165,0.9193344712257384,0.0,0.0,0.0,0.5324173246172826,-0.37968582699897846,-0.15383085852110695,0.346114251,0.1602852493524551,0.41145363481706027,-0.27552381053408287,0.06609816028286186,26.101527197072716,-26.0958049648876,15.562926355052323,-0.006813961968154481,0.07664913862267243,-0.8056151922913725,0.014768255039012246,-0.047380235278280836,0.012741288401556083,51.29984400083346,74.41913493427157,80.04073366940115,0.05352429117088561,-0.029873312421918517
1082,1724559181851037839,-1.4379898309707642,0.2039834707975387,0.1604010313749313,0.0130553133785724,0.0357471033930778,-0.3915152251720428,0.9193843007087708,0.0,0.0,0.0,-0.2386636256323662,0.5326666609060879,0.4361350088332969,0.362937343,0.1604010313749313,0.16613257983423144,-0.03709780651558801,0.01702891584371839,144.21888474669993,-66.82712781873448,-78.86737039853787,-0.00399692639339486,0.07602657751095145,-0.8053243182563063,0.04433482663938548,-0.06132469349677194,0.019003851203763134,-253.89563181289546,250.83243516687102,-56.56757575135578,0.016355436239746772,-0.005696884730206058
1084,1724559181854298184,-1.4378222227096558,0.2037548571825027,0.160470649600029,0.0139472093433141,0.0348241738975048,-0.3919961154460907,0.9192017912864684,0.0,0.0,0.0,-1.1979165068539974,1.4746909154248282,0.19380376969474994,0.366197688,0.160470649600029,0.7366761794693646,-0.30615780198975984,-0.28809610935862984,121.55187579341603,-57.86949292241804,-68.02531033759303,-0.0016659694858756641,0.07502575497513213,-0.8062635846526418,0.04229540414654309,-0.058727703658064456,0.02046616195604445,-214.04150992606387,204.29214645300593,-36.526222901505264,0.08434733984737088,-0.013981335834666654
1086,1724559181864772170,-1.4376858472824097,0.2035230547189712,0.1606551706790924,0.0147702516987919,0.0340021401643753,-0.3927167057991028,0.91891211271286,0.0,0.0,0.0,-0.7419913300951517,0.7664100351198182,1.083148208304338,0.376671674,0.1606551706790924,0.2115546476924427,-0.08267108267629064,-0.1404993232145792,-31.89901535274304,12.363045563616769,12.275925895050634,0.00043991857378601845,0.07415896090751883,-0.8077387815171768,0.010488512682272244,-0.020463273070710386,0.013925543246103622,50.66665190855311,-42.15957309182647,38.18455951910147,0.023619718866798277,-0.006124712291523346
1088,1724559181881335562,-1.4375784397125244,0.2032278031110763,0.1607891321182251,0.0156314317137002,0.0326173491775989,-0.392659068107605,0.9189726114273072,0.0,0.0,0.0,0.28416977238456553,0.7350663921823433,0.4917351124402707,0.393235066,0.1607891321182251,0.160875974603233,-0.11296082291927373,0.015269638454190545,345.8042792493933,-44.07912014455726,-207.61898112431433,0.003122880165378818,0.07228748762341516,-0.8074884184170644,0.058305453342086366,-0.0833850070863491,0.07659375379659394,-320.9276795006913,461.9986485573836,-435.54475496980797,0.016733354913670166,-0.008025832896280746
1090,1724559181883707867,-1.437422513961792,0.2030077129602432,0.1609941124916076,0.0167008843272924,0.0318625457584857,-0.3933061063289642,0.918703556060791,0.0,0.0,0.0,-0.607262143469217,1.988686784223391,-0.6773651962654206,0.395607371,0.1609941124916076,1.0997645416169124,-0.23188558256542083,-0.5510050908561844,323.8167029754017,-38.52751895404947,-198.50573744086614,0.005637387609445153,0.07174311645483772,-0.8088013860505616,0.05809524561515289,-0.08010069494491301,0.07664182649903628,-209.0553750373126,375.68933539843914,-336.15808711116574,0.10601186883160706,-0.01796092153323379
1092,1724559181896788185,-1.4372130632400513,0.2028740495443344,0.1612924337387085,0.017785781994462,0.0321209691464901,-0.3948176503181457,0.918025553226471,0.0,0.0,0.0,8.681695027076024,-4.113803981264089,6.223727987574781,0.408687689,0.1612924337387085,0.14595130404340773,0.10098686251859357,-0.2484758842096787,-46.4775301271324,13.226829508557255,17.21237748771524,0.007311336341486707,0.07308506797424429,-0.8120513741932466,0.012745911095102258,-0.01050866700580766,0.0174674466361453,-805.9050364461839,547.7123886154851,-720.2230187177545,0.016718013659875026,0.004592985261083857
1094,1724559181917981074,-1.4370551109313965,0.2026413828134536,0.1614792793989181,0.0182660520076751,0.0314759984612464,-0.3956927955150604,0.9176616072654724,0.0,0.0,0.0,-60.45442343597347,42.32016008155779,-51.88612872538897,0.429880578,0.1614792793989181,0.06890325622324815,-0.03834827207392448,-0.08684043939817537,5440.255200927133,-5143.131519853725,-8647.590041787565,0.008637121212917834,0.0722870596230744,-0.813903098127777,0.6138852041663085,-0.42163277672705135,0.5184081143383992,-8804.28758815545,5869.59432486177,-7381.258220610878,0.012427902764350695,-0.002499216075425514
1096,1724559181918327730,-1.4368388652801514,0.2024928927421569,0.1616618782281875,0.0184378772974014,0.0310554113239049,-0.3962078094482422,0.9174502491950988,0.0,0.0,0.0,-63.53790776244047,44.3757488728095,-54.47119251584753,0.430227234,0.1616618782281875,1.9856689452682932,-1.85037157416183,-3.133657229813131,5214.266700798198,-4931.1583414952065,-8289.831615104289,0.009246737172810628,0.0716553548746533,-0.8149979118660919,0.5924246805361886,-0.4066122712878897,0.49999323531286644,-8377.204035613575,5571.23599495927,-7016.849094169408,0.6999599324427597,0.1371689881381515
1098,1724559181924430774,-1.4365949630737305,0.2023469656705856,0.1618391126394271,0.0181443486362695,0.0307119227945804,-0.3964217901229858,0.9173752069473268,0.0,0.0,0.0,-59.03517635878373,39.854328116470796,-49.9869412186546,0.436330278,0.1618391126394271,-0.04102091608745986,-0.14191176279098663,-0.07498926828065261,-209.71999334797013,175.3794347573153,323.2050703730517,0.008963171107174551,0.07079346134235516,-0.8154645981447304,0.0294419864678801,-0.02339184978026143,0.02253036348354609,2507.757415587028,-1879.477467532145,2182.1156502114586,0.0426381003731901,0.011128924420741088
1100,1724559181934961746,-1.4364761114120483,0.2021100521087646,0.1619580835103988,0.0176264904439449,0.0298157781362533,-0.3959781527519226,0.9176064729690552,0.0,0.0,0.0,-0.463017714590109,-0.6290059209157698,-0.7064777549815004,0.44686125,0.1619580835103988,-0.026140060899376795,-0.19493818350184985,0.09477118649729097,2.5511527961245553,2.0524562159611888,7.157250918675591,0.008756356233651631,0.06873181506292007,-0.8144824506475679,0.011238036604027002,-0.02049288345196576,0.009402327239391717,3305.4043083669876,-2271.6619252454507,2777.748627460534,0.023275648047309614,-0.008185114254976245
1102,1724559181950139032,-1.4363065958023071,0.2018428593873977,0.162059336900711,0.0178627949208021,0.0296412371098995,-0.3959366381168365,0.9176255464553832,0.0,0.0,0.0,0.34653336248805466,-0.7092823053498121,-0.14751457792587042,0.462038536,0.162059336900711,0.03747375663568643,-0.008753277610502822,0.007348998938062057,28.87831263544728,-17.062582565569336,-10.508169095499364,0.009332695251181322,0.06859797011411686,-0.8143719580389932,0.03189372583671002,-0.049819453244765555,0.01049457981492452,-96.47169740426114,169.11612495395661,-51.73578152514829,0.019964023842586075,-0.004894920868472216
1104,1724559181955031150,-1.4361178874969482,0.2015483379364013,0.1621167063713073,0.0182135347276926,0.029121845960617,-0.3960740566253662,0.9175758957862854,0.0,0.0,0.0,-0.361652667634515,0.3930707603608383,-0.5402683943389921,0.466930654,0.1621167063713073,0.2176782926292853,-0.13847532646238855,-0.051545409829557375,21.85716679622322,-14.60003609599311,-10.626676859331285,0.010379906365848462,0.06792304051661852,-0.8146312839917518,0.031989373818198885,-0.05136084096154914,0.009426825278050721,-99.93343257931767,173.68018070665997,-52.706811000939865,0.06930529130154062,-0.016959468127157245
1106,1724559181965093459,-1.4359322786331177,0.2012145370244979,0.162163957953453,0.0187064595520496,0.0287004821002483,-0.3966928124427795,0.9173119068145752,0.0,0.0,0.0,-0.43944474513290244,1.0716690465283933,-0.4998884817086212,0.476992963,0.162163957953453,0.12760783129640405,-0.03875461809696517,-0.1292516857227647,-0.49010426962948905,6.538787091658411,2.6518370499959913,0.011575421395266293,0.0675473781294932,-0.8159390364949665,0.020460695318618605,-0.032749437854191044,-0.002673987860424276,22.963472073839966,-6.833688227747793,49.130080319787524,0.036400486652684506,-0.011390991767450705
1108,1724559181974386102,-1.435724854469299,0.2009138464927673,0.162075862288475,0.0195255614817142,0.0283116605132818,-0.3967857360839844,0.9172667264938354,0.0,0.0,0.0,0.03736223240314207,0.37076373176965394,0.3438478884244519,0.486285606,0.162075862288475,0.19566592604319266,-0.006925994799091085,-0.01557803855005603,-4.267952814762703,4.695164452891442,-1.065245942384787,0.013383833044742251,0.0674848284860697,-0.8160849178678682,0.02243831621299819,-0.029467019144933104,-0.0012888111537900926,17.01895911890565,-40.41359287981031,41.862877182710974,0.039414427093764214,-0.0086780773225513
1110,1724559181984733717,-1.4354913234710691,0.200642243027687,0.1621569097042083,0.0196998994797468,0.0285601336508989,-0.3976358771324157,0.9168870449066162,0.0,0.0,0.0,-0.18164751123209355,0.3560028793119998,0.21320205770633938,0.496633221,0.1621569097042083,0.017937708134419708,0.05629140769765453,-0.1798238751490486,-9.53049765957528,0.6698379676531553,-4.226570919408223,0.013443655705245323,0.06809221333137716,-0.817941911385643,0.02080328827581468,-0.025428442146859354,0.004513590689824376,28.452065186939244,-41.28653327674044,4.325689200016967,0.033971797708096434,-0.0034864200304896304
1112,1724559181996201165,-1.4352751970291138,0.2003610581159591,0.162166491150856,0.0197055246680974,0.0285288579761981,-0.3980594575405121,0.9167041182518004,0.0,0.0,0.0,0.7751851297605176,-0.6240083902443199,0.47823284540111183,0.508100669,0.162166491150856,0.0058068966077810796,-0.005155386970368878,-0.08028583268387166,0.7094686721997898,-3.6362005434492968,5.308267382066993,0.013447432177747668,0.06804548251538294,-0.8188654825208307,0.01841985984947314,-0.021781742300579943,0.0025416998814193903,31.243209816559837,-40.47811536831504,0.8713185081969144,0.030654271160887765,-0.005048377824793896
1114,1724559182009208535,-1.435041904449463,0.200118139386177,0.1622247248888015,0.0198692921549081,0.0282690078020095,-0.3984341025352478,0.916545867919922,0.0,0.0,0.0,0.4114758050131213,-0.48685170492892116,0.16143182353408347,0.521108039,0.1622247248888015,0.04111034723227077,-0.02704380713198635,-0.06098682015348601,6.181805602455421,-5.553370306300519,-20.96474600673949,0.01392792101099177,0.06770460524696971,-0.819665351716126,0.04300665734265863,-0.043796985967500035,0.01835518403166958,-200.509716720906,185.16561662557885,-120.62764157320919,0.025528336740816695,-0.0012875362703426813
1116,1724559182013854288,-1.4348005056381226,0.1998729854822158,0.1623330265283584,0.0199625119566917,0.0280819032341241,-0.3988582789897918,0.9163651466369628,0.0,0.0,0.0,-0.8063501567541038,0.663129321294831,-0.5587179657991588,0.525753792,0.1623330265283584,0.07558340539903759,-0.05926584777311602,-0.195632368849297,4.932758485802847,-5.589992651321998,-14.292354383698326,0.014217300055011779,0.0674420954626285,-0.8205801687446898,0.04246460350696424,-0.044058222105059386,0.017355763842878957,-41.917415343580956,28.405856074623642,10.43546018886643,0.07229071400144547,-0.0024586323875937875
1118,1724559182024259426,-1.4345799684524536,0.1996175646781921,0.162374809384346,0.0201122760772705,0.0275287330150604,-0.3988867402076721,0.9163662195205688,0.0,0.0,0.0,3.889609177405216,-4.147969112426579,3.4055445152119748,0.53615893,0.162374809384346,0.06893766706293167,-0.08606700565333615,-0.0019998986911062395,-0.7300117583047085,-1.1220949687501123,13.595034807565565,0.01493233301900108,0.06654694876676376,-0.8206140382740434,0.01800194536887112,-0.020393941741259747,0.0035349809424665146,-773.3440816869914,-188.91492162064526,-133.81311692017852,0.03206954656705269,-0.003416383037191452
1120,1724559182054782401,-1.4343163967132568,0.1993669867515564,0.1624396741390228,0.0206951908767223,0.0274431575089693,-0.3994032740592956,0.9161307215690612,0.0,0.0,0.0,-129.36799033649186,14.57096449063988,-46.77318797415364,0.566681905,0.1624396741390228,0.03847949212378385,0.009841292991749037,-0.03600587157578854,6159.467410372188,7262.202859828688,-14052.220699400146,0.01603374059267244,0.0668643054488224,-0.8217106114028537,0.6954956460517678,-0.7220363536055174,0.531336711410745,-108655.38196052826,121185.81763645017,-88282.66039410136,0.011723642754195176,-7.823089929403137e-05
1122,1724559182055156165,-1.4340533018112185,0.1990938484668731,0.1626406908035278,0.0212791133671998,0.0277591198682785,-0.4003209173679352,0.9157073497772216,0.0,0.0,0.0,-170.4567797695762,60.41770465794741,-80.16660183831175,0.567055669,0.1626406908035278,2.3688622855810206,2.7574150215400053,-5.35253010321303,172.2091159063516,4102.885144371176,-9733.579746488722,0.01678526480188077,0.06792763469360072,-0.8236987216201149,0.6464488597682703,-0.7164183522934024,0.5135613601144939,-99618.54737078158,120089.86285446592,-85017.94556365866,0.9756141756275541,-0.0412463720587207
1124,1724559182055582375,-1.4338057041168213,0.1987954825162887,0.1628477871417999,0.021387118846178,0.0284065529704093,-0.4017322361469269,0.915066659450531,0.0,0.0,0.0,-207.9024916302033,110.35097694936931,-114.2997765378749,0.567481879,0.1628477871417999,-0.5043021665823229,2.927427746027576,-7.318530224403202,-6417.433586204855,363.13711013041905,-4353.293403864609,0.01635753031130981,0.0692268492681761,-0.8268041237152569,0.5547307234575021,-0.6686090376149727,0.4635451262841328,-82715.79072845109,111202.10010205832,-75808.49236830244,0.8727084440433364,-0.10614792560135819
1126,1724559182064122035,-1.4335510730743408,0.1984644830226898,0.1629809588193893,0.0215705391019582,0.027912002056837,-0.4021434485912323,0.914896845817566,0.0,0.0,0.0,-34.51887521544183,41.163479690333546,-29.896455791236868,0.576021539,0.1629809588193893,0.0894255175408467,-0.08965978794450058,-0.10040658570917282,35.36918152417973,-197.08065064511715,471.9932449760875,0.017061188153024164,0.06847560735131891,-0.827676182117748,0.027033868696832997,-0.03802697939183908,0.009563006220517423,12723.172984843744,-6206.118956412726,6732.470742736042,0.04753454033364378,-0.007915211894294054
1128,1724559182074825294,-1.4332990646362305,0.198067307472229,0.1630024015903473,0.0213876832276582,0.0273914262652397,-0.4024297297000885,0.9147909879684448,0.0,0.0,0.0,-0.027583844114711598,0.16977208789600517,-0.11071382002842589,0.586724798,0.1630024015903473,0.009777577319713312,-0.10333824024586283,-0.055751710219690116,-10.369156680174385,-2.7638843012803846,3.066162471652401,0.01712396331384402,0.06737991210178731,-0.8282931490786699,0.023461342170762123,-0.035821242492527716,0.0016761959550954941,1585.015309519603,-1872.0030932706431,1390.9812614597474,0.04302685002472295,-0.011415837678069526
1130,1724559182085139799,-1.4330579042434692,0.1977106183767318,0.1630164384841919,0.0204826742410659,0.026965657249093,-0.4025935530662536,0.9147523045539856,0.0,0.0,0.0,0.04464151102495939,0.323432970262413,0.40140869938478685,0.597039303,0.1630164384841919,-0.12627600657773688,-0.1466161273165637,-0.03511846067093455,-2.3200757174279545,8.069023683132313,-3.0401769599599864,0.015795661947732294,0.06587381077221921,-0.8286811340761385,0.02622037200812599,-0.03443103202687503,0.006758056291673142,109.3887246138224,-166.53587371198873,101.1208706629557,0.041110508353578205,-0.009696719291682485
1132,1724559182093796003,-1.4328103065490725,0.1974136680364608,0.1631141453981399,0.0202259011566638,0.0271405838429927,-0.4029727280139923,0.914585828781128,0.0,0.0,0.0,1.7353201904525362,-2.436161222685478,1.6506372796688566,0.605695507,0.1631141453981399,-0.06739062964908848,0.012329175285739721,-0.0980522754757204,5.9498063001410415,15.514507914860141,-5.900512945176487,0.015156386214011781,0.06599365161111255,-0.829529928022131,0.024987909990465518,-0.03026087321061044,0.009569612742268307,3071.8943753694894,-1884.0774318161507,1855.1953640873294,0.043776027038341964,-0.005675979554568913
1134,1724559182142626418,-1.4325860738754272,0.1970499753952026,0.163108229637146,0.0198145918548107,0.0269381664693355,-0.4031694233417511,0.914514183998108,0.0,0.0,0.0,944.1105212947025,-525.6027233269228,563.5137935590005,0.654525922,0.163108229637146,-0.011788614580741067,-0.014454448191275933,-0.008840176919143097,-10629.680903941524,-2550.677169087986,-20464.201623624922,0.014551681409233297,0.06529433133697642,-0.8299730644704907,0.6269491575576467,-0.9529788821971579,0.4553810034377648,-1215624.1152630975,1260018.61314571,-831499.0638600981,0.008584790458141868,-0.0024116938075227938
1136,1724559182142941368,-1.432387351989746,0.1967479139566421,0.1632525771856308,0.0192478373646736,0.0270545687526464,-0.4040928483009338,0.9141152501106262,0.0,0.0,0.0,558.7410987382561,-126.17851067050537,299.92069246294443,0.654840872,0.1632525771856308,-3.381201930994331,-0.8229705225011784,-6.4956149162442225,3461.359800234225,6910.676875268411,-12116.15035271384,0.013353017410600885,0.06506371045060218,-0.8320267029460939,0.9261895785921297,-1.1195467769252332,0.6339858415450976,-1840180.2041673777,1211774.2951264812,-1478011.214358665,1.1017228220516493,-0.27002299659861134
1138,1724559182143251195,-1.4320104122161863,0.1963521391153335,0.1635025441646576,0.0197632331401109,0.0275474935770034,-0.4051737189292907,0.9136108756065368,0.0,0.0,0.0,-199.32553603013753,232.0595703773672,-353.39858725055484,0.655150699,0.1635025441646576,2.00688996795199,4.2068577537308265,-7.664912232673664,4237.341640237839,790.8322854468711,4795.411732445104,0.013819660822627769,0.06639924486573454,-0.8343885810987043,0.9800152032921687,-1.035904743134779,0.6454797020474814,-1339218.9368814123,23883.68258758908,-1350753.587035868,1.7061100037930086,-0.10410437062378591
1140,1724559182143602641,-1.431760311126709,0.1960843503475189,0.16366508603096,0.0193512327969074,0.0274124126881361,-0.4055825173854828,0.9134423732757568,0.0,0.0,0.0,-228.46845065181947,-210.9716480759314,-525.9725137566757,0.655502145,0.16366508603096,-1.7475529356520325,-1.6718383065040545,-2.5633262192610604,-4378.898111912526,-8586.880234451053,7509.844361107922,0.013145326740877995,0.06582388517870164,-0.8352993062481724,0.7612431332836422,-0.9694590194234252,0.36560563337076246,545601.7285804076,-1192883.7328764652,169566.40938880458,1.0097898598555002,-0.07304375490678915
1142,1724559182143923523,-1.4315015077590942,0.1957124769687652,0.1637540161609649,0.0190172679722309,0.0272049214690923,-0.4059064090251922,0.913311779499054,0.0,0.0,0.0,130.74797521683445,-573.9086635869262,-278.0199520993405,0.655823027,0.1637540161609649,-1.305757314023603,-2.0423045099902355,-2.2061846503376534,1371.4452053592488,-1149.8668689183876,1108.7138616331335,0.012679347030310003,0.06517774993711543,-0.8360172665001696,0.8033709684340312,-1.1543568321031357,0.27604468570259566,1115058.3110752054,-1126586.3991765422,769700.51588604,1.3795836028465773,-0.3113925021775448
1144,1724559182224871357,-1.431132435798645,0.1952487677335739,0.1636756360530853,0.0199133530259132,0.0265336502343416,-0.4050839245319366,0.913677453994751,0.0,0.0,0.0,389.37138894967563,-401.69940563931436,328.75114298776685,0.736770861,0.1636756360530853,0.026227967394823793,-0.00602017337592509,0.023144734571514107,1654.288169626628,-1000.0142968383093,1095.9943558166444,0.014923796999515274,0.06466461092340824,-0.8341466158064226,0.3672840425783761,-0.4642730748589088,0.002994173846133208,498104.3320516867,-1003984.4120886443,-225634.4120699402,0.007353567423561535,-0.0012211604154120123
1146,1724559182225628402,-1.4308518171310425,0.1948940455913543,0.1636779308319091,0.0202500820159912,0.0260629095137119,-0.4048050045967102,0.9138071537017822,0.0,0.0,0.0,769.9627810492614,-1168.8841369746435,156.28515877195474,0.737527906,0.1636779308319091,1.2901945454556463,-0.7703342808891869,0.8604265215964468,2294.4742064329967,235.58175224718468,-5436.032204757135,0.015941931893505738,0.06407144355639986,-0.8335029006135419,0.6648506284905125,-0.7712820232715103,0.25422504953456837,176582.9659699041,-326163.74860510207,-251378.3687412583,0.5946554308246719,-0.09836510065104621
1148,1724559182225993410,-1.430557370185852,0.194559246301651,0.1638149321079254,0.0205780714750289,0.0258284136652946,-0.4051967263221741,0.913632869720459,0.0,0.0,0.0,777.0185081292752,-1166.99226294355,60.38312115866654,0.737892914,0.1638149321079254,2.237665365170253,-0.46520765986955054,-2.275085604122101,8302.380883035374,-4242.701182629101,-6146.42621239353,0.01670531333580263,0.06391521816161207,-0.8343377131787986,1.0122229960966251,-1.3322742131654195,0.28037179961097536,-1112319.1591715897,2321867.2717009857,474554.8862903797,1.1948960316429456,-0.12792577695282326
1150,1724559182226254778,-1.430254340171814,0.1941333562135696,0.1638704389333725,0.0210866015404462,0.0252462308853864,-0.4056307077407837,0.9134450554847716,0.0,0.0,0.0,274.4995194452915,-126.55042193437339,322.40524441745697,0.738154282,0.1638704389333725,5.4756683749749815,-2.5246102280715847,-3.4241887193504152,890.0015790244424,-11655.889186022712,-1637.3392438245196,0.01807876826413074,0.06327104200851642,-0.8352460004430349,1.182621124958132,-1.5680525605429807,0.29404847155274183,655336.64479429,1582363.3627103001,1979180.7259724564,1.9687357065391644,-0.42668106933774197
1152,1724559182226529438,-1.4299228191375732,0.1937204003334045,0.1639747768640518,0.0209974534809589,0.0242663361132144,-0.4060445725917816,0.9132897257804872,0.0,0.0,0.0,1198.5731205908196,-384.18126778067654,1147.9036225412187,0.738428942,0.1639747768640518,2.4012776448568185,-6.816039748244129,-3.0775307765640556,-6647.848799779654,1276.7945018863938,-5293.790494536141,0.01868339754001002,0.06141479482923927,-0.8361271856860942,1.149073212291114,-1.3789675034592506,0.46055235599891375,3952447.2143673464,-2533641.499065937,2071535.5136890446,1.8978620268037893,-0.29869640554014465
1154,1724559182226808953,-1.4296181201934814,0.1933703869581222,0.164126455783844,0.0211163070052862,0.0239701811224222,-0.4068751633167267,0.9129250645637512,0.0,0.0,0.0,2470.6070911089782,-1546.2618232190503,1461.249214390118,0.738708457,0.164126455783844,1.836124572468847,-1.6514804593570918,-6.422095723659653,7767.112367390405,18021.761700961422,-22264.762251723587,0.01908610951562078,0.06098715927167328,-0.8379340181045655,1.859777884173127,-1.7914633515136984,0.9354942141132483,1943331.1200674018,-2061044.0348822777,32480.273898847867,1.6238413409261752,-0.18918575296102053
1156,1724559182227085501,-1.4288932085037231,0.1927274167537689,0.1644926518201828,0.0220867246389389,0.0240451823920011,-0.4088304340839386,0.9120262265205384,0.0,0.0,0.0,2294.5786147907575,-1542.625875979564,1172.3898910297607,0.738985005,0.1644926518201828,6.66250171072883,3.2078813439055684,-15.39735040871986,16753.731627595283,16885.64497330216,-31136.979688764506,0.02066766579553681,0.06195875888143961,-0.8421817638994913,2.5233115494004297,-2.2383703287237493,1.2745032720023373,-625998.8186367768,22103.250332180007,-1011778.0946209944,3.391346374086105,0.03988679395566036
1158,1724559182234080973,-1.4285787343978882,0.1923960447311401,0.1646199524402618,0.0228668004274368,0.0235680006444454,-0.4090314209461212,0.911929190158844,0.0,0.0,0.0,-222.70827835826577,196.74335378637355,-112.00226576369118,0.745980477,0.1646199524402618,0.26117236404753885,-0.03384744584016841,-0.05537303584235949,-578.7733506222351,-294.6934684777119,1376.5349812487636,0.02247038698547979,0.06173037311701568,-0.8425746955786635,0.036260356391203175,-0.042366660404694834,0.01415283642320908,-218108.63122103212,149350.8887938694,-111295.37377897765,0.06402650935248905,-0.0050858128330525
1160,1724559182245784810,-1.428324580192566,0.191998153924942,0.1647063940763473,0.0228326469659805,0.0224290043115615,-0.4087158441543579,0.9121003746986388,0.0,0.0,0.0,-0.04310288448667432,0.4787689760201461,1.292603888678741,0.757684314,0.1647063940763473,0.07235025458839796,-0.17933812443523037,0.06545610926261736,-10.501944241690607,17.47988346640147,-32.01767790546641,0.0233607721835056,0.05961443979920424,-0.8418557539130793,0.030391817390949427,-0.0341332246447017,0.03803674519073752,7824.731545889034,-6906.048880316907,3870.177645380873,0.0393108624111638,-0.010779130321180469
1162,1724559182253980063,-1.428025722503662,0.1917176395654678,0.1651940047740936,0.0230887178331613,0.0229456089437007,-0.4103482961654663,0.9113478064537048,0.0,0.0,0.0,-0.18974602582412015,0.4816885396060764,-0.33067635887920055,0.765879567,0.1651940047740936,0.018599848921354977,0.1355569267087132,-0.43991288447691457,-2.766537385647876,19.214125740401084,-24.282270404275657,0.02329748613134945,0.060809162098230035,-0.8454405639931317,0.032668620004486115,-0.03149910032338621,0.04433708514874812,-1.3295661348367416,-40.89498865398977,-129.80767389766626,0.046096686196615194,-0.00012876598852176458
1164,1724559182264805534,-1.4277263879776,0.1914156824350357,0.1654571592807769,0.0234322734177112,0.0232110545039176,-0.411174476146698,0.910959780216217,0.0,0.0,0.0,0.03272484140221965,-0.5509051739648456,-0.7596839832250857,0.776705038,0.1654571592807769,0.04287845324983249,0.06885958858214206,-0.16819756380087011,0.461837735765372,-6.171286055120606,13.62256215211782,0.023651186231890577,0.06159712435193715,-0.8472466579718653,0.023928414142368126,-0.02399279087360906,0.025035317280332592,27.847130311142827,-68.67590316456977,-10.680552271925375,0.03764037141001552,-0.002094755177555851
1166,1724559182277505782,-1.4274779558181765,0.1911690831184387,0.165785938501358,0.0235109943896532,0.0231218542903661,-0.4121403396129608,0.9105234742164612,0.0,0.0,0.0,0.49510513690979385,-1.0251400926721672,-0.4639994529889351,0.789405286,0.165785938501358,0.022209147635028337,-0.009668316243435794,-0.16619255014102308,2.4006035762168585,-7.1527623295514635,-16.48868769702032,0.023803006287156928,0.06152444759124729,-0.8493637104055164,0.03686125350824909,-0.04952910104906039,0.03063418210354385,-18.003561856012148,95.70024327299899,-32.782025256555144,0.02585504053356806,-0.0011107081652820788
1168,1724559182283711598,-1.427196741104126,0.1907704025506973,0.1659904420375824,0.0235545523464679,0.0229210071265697,-0.4130490720272064,0.9101155400276184,0.0,0.0,0.0,0.2183835337767892,-0.0278097655325803,-0.8374462364888039,0.795611102,0.1659904420375824,0.049321564597594854,-0.056997202002286154,-0.31899723511285283,3.4761786814199436,-5.674089806330613,-8.395733168935466,0.02398695611840971,0.06121813182488275,-0.8513549671502443,0.0383472098530504,-0.05290234490671342,0.025010836512183054,-24.493366810507474,121.92217995048404,-18.742726956998542,0.07602018820398593,-0.0178316735605523
1170,1724559182296581377,-1.426889181137085,0.1903922408819198,0.166100338101387,0.0237596780061721,0.0222771223634481,-0.4130357205867767,0.9101322293281556,0.0,0.0,0.0,0.4395502765945265,0.5060948008858603,0.027203680853059797,0.808480881,0.166100338101387,0.07023351636273953,-0.07791130117902174,0.006047183495927178,9.359367627529476,6.309946225664398,-3.537930739667871,0.024894084985287356,0.06021382519459439,-0.8513015341792732,0.04059561362956288,-0.0394949991448339,0.016066534914180863,-20.049079502931434,18.286042302532493,39.8668315384141,0.03726695470552436,-0.006223859072166637
1172,1724559182304963225,-1.426457762718201,0.1900060027837753,0.1662760972976684,0.0245026182383298,0.0220344364643096,-0.4137410819530487,0.9097980260849,0.0,0.0,0.0,0.06824343636765717,0.5327231086824065,0.2122357318382666,0.816862729,0.1662760972976684,0.1909043871693811,0.018294419878856997,-0.18079384901443854,6.644065675362028,5.082982234301375,-10.420670384069727,0.02640298225516284,0.06040598218555961,-0.852815281215834,0.04572563686559761,-0.03817720758509324,0.0202369373389093,-51.67911305655825,10.010788383678765,-7.640071494790888,0.06717447525950704,-0.0005264114759061418
1174,1724559182315613460,-1.4260485172271729,0.1897063553333282,0.1664817184209823,0.0252155624330043,0.0216378159821033,-0.4143964052200317,0.9094897508621216,0.0,0.0,0.0,-0.5820238123466077,0.7318200482793613,-0.2712570030886893,0.827512964,0.1664817184209823,0.15675271718273334,-0.014109490422155908,-0.13113896080961862,-6.173499733377033,-4.032980740022727,1.6745081662415622,0.027987829153223998,0.0602937452839193,-0.8542180514845686,0.03909351379951431,-0.027422074691759946,0.01863625487774101,365.0893128608133,-302.73714465378634,77.27008349573103,0.0452063364440052,0.004310556009904457
1176,1724559182325539642,-1.4256542921066284,0.1894407570362091,0.1666605025529861,0.0253771506249904,0.0212299413979053,-0.4150531589984894,0.9091953039169312,0.0,0.0,0.0,6.984345741896515,-5.246878356995692,1.6305799530617824,0.837439146,0.1666605025529861,0.06802614110388853,-0.06330438333036231,-0.14215886498080055,-7.084299366799844,-3.2027873291103592,-0.2141614090871985,0.028577266705329795,0.05970552533017784,-0.8556488722600378,0.03369274190951188,-0.02273004306257187,0.01482465092641938,2188.322907805533,-1096.927564598656,3379.2611608788266,0.0450872818039788,0.006088835385024798
1178,1724559182358705280,-1.4252042770385742,0.1891331821680069,0.1667990386486053,0.0261113084852695,0.0213589072227478,-0.4158094525337219,0.9088258743286132,0.0,0.0,0.0,237.58872549619628,-96.43704557959836,466.943509400493,0.870604784,0.1667990386486053,0.03855775930717273,0.024761776328579843,-0.04996967675321333,6487.050949678646,-4181.630845637984,-2778.849633320803,0.029757756492993923,0.06057475053220506,-0.8572844795917326,1.0995892049277245,-0.830554410802506,0.2921469020271843,-399228.46088746865,281683.45305654895,-171756.61680268217,0.015610309584904237,0.0019162746856395808
1180,1724559182359059309,-1.4248108863830566,0.1888360381126403,0.166903555393219,0.0263786651194095,0.0209533255547285,-0.4159931242465973,0.9087435603141784,0.0,0.0,0.0,94.71526862627888,4.361968655305645,405.43457850358993,0.870958813,0.166903555393219,2.3596805448985005,-1.4714696803579288,-1.0442751115177942,11489.149548481906,-152.32942753310067,-4031.8394066115375,0.030569886801492405,0.06006519693032453,-0.8576704582973476,1.1844789221509018,-0.8649683188829158,0.4591914758403277,-430128.5733922031,294286.6708114911,-232459.75136043882,1.3415549281351478,0.09488235273407428
1182,1724559182359384247,-1.4244041442871094,0.1885473281145095,0.1671016663312912,0.0274654906243085,0.0204085614532232,-0.4164212942123413,0.9085276126861572,0.0,0.0,0.0,-52.97231806107439,102.8401336573892,312.3870863783095,0.871283751,0.1671016663312912,7.564100192483819,-0.3059578321237472,-2.719205935384185,14795.420132902233,3348.605516058137,-4765.081791689417,0.032974482849297375,0.059993896072713195,-0.8585583175617146,1.1719912353201067,-0.8332594391232488,0.5711283893269763,-425154.96141794726,282520.67031941586,-272890.1992368864,1.4513326811702412,0.1519536852985658
1184,1724559182363775577,-1.423991084098816,0.1881669908761978,0.1673212945461273,0.0277984887361526,0.0209009796380996,-0.4174591600894928,0.9080299139022828,0.0,0.0,0.0,-177.86017793555214,124.10569916740069,-86.90494450999545,0.875675081,0.1673212945461273,0.060271240175107314,0.25855257671415843,-0.5269067339399786,-1209.0445283589659,87.131126297616,364.57818104986427,0.03310112104877484,0.06120510288990924,-0.8608376339158594,0.07640186353545886,-0.06974756454297282,0.03792145415942194,-15317.808049117668,72.34776011377434,-62044.56410024114,0.12369804714241045,-0.003829990249689694
1186,1724559182374427207,-1.4236335754394531,0.187859758734703,0.1674127876758575,0.0284961424767971,0.0212744958698749,-0.4180449545383453,0.907729983329773,0.0,0.0,0.0,-1.9956340553998695,1.6283685737529852,-1.5462995250295357,0.886326711,0.1674127876758575,0.093533851277869,0.11648742939503504,-0.12259704626901494,2.793474582181429,-17.419185790416194,19.962356571915915,0.03401916178516108,0.06248899340622977,-0.8621034373263329,0.03255424836171983,-0.033510981998984946,0.004063799890710484,7824.24587038675,-5448.484428261489,3828.3630864946713,0.04312141298780014,3.4640359408034706e-06
1188,1724559182383766209,-1.4233378171920776,0.1875085830688476,0.1674136817455291,0.0288280379027128,0.0207199081778526,-0.418421059846878,0.907559096813202,0.0,0.0,0.0,-0.04980661162076139,0.28295515491396106,-0.0630546402049764,0.895665713,0.1674136817455291,0.1169257857079946,-0.07961250980845894,-0.08351551776948307,-2.305026908343126,-8.519286110370878,1.3135489727026952,0.03506104659775181,0.06177287755522629,-0.8629102523994511,0.03128308799475832,-0.032826171896655154,0.0029886927268814034,133.94192348389225,-84.27945453663999,93.08086764761285,0.049061056773374113,-0.008049661255493163
1190,1724559182394999109,-1.4229916334152222,0.1872043907642364,0.1674863398075103,0.028932524845004,0.0206418931484222,-0.4189733266830444,0.907302737236023,0.0,0.0,0.0,0.44936467387607326,0.1439928769357166,0.09428499300461443,0.906898613,0.1674863398075103,0.02604927810547705,-0.006711131568841305,-0.10755317984505727,-10.482644807924835,0.23821357711374525,-1.5897719920977265,0.03527883337435505,0.061740020948792364,-0.8641226137594233,0.03188969084450832,-0.026815519346326866,0.0029838563827571107,12.05664864694746,-14.444083576525122,13.517871923847455,0.040129776321479224,-0.0005626761252861293
1192,1724559182405622062,-1.4226421117782593,0.1869221925735473,0.1674830317497253,0.0282434727996587,0.020580668002367,-0.419544517993927,0.9070618748664856,0.0,0.0,0.0,0.2521314581655574,-0.030272338693806633,0.23297050841315256,0.917521566,0.1674830317497253,-0.10934207789925296,-0.06698670733034914,-0.11891425834631521,4.046829075654964,-0.5696038710863061,1.3219082178171853,0.034038161167024614,0.06107262534025273,-0.8654121800999283,0.040635130567892475,-0.02921493667168029,0.004936965742542654,-30.058100097577828,-9.636351678488774,-1.4921426670275864,0.041498639211240924,0.0010379226010789405
1194,1724559182414192634,-1.4222403764724731,0.1866534799337387,0.1675616353750229,0.0283308159559965,0.0203749984502792,-0.4199064373970032,0.9068962335586548,0.0,0.0,0.0,-0.0849434001695959,-0.06606092028624544,0.11959076603766214,0.926092138,0.1675616353750229,0.04145347803898434,-0.03657247594359062,-0.09104895030474298,4.994239513402585,0.3263916730298604,3.56178752572953,0.03434520613468417,0.06078602925364989,-0.8662041477461709,0.038846857823529035,-0.028121878511973897,0.007273258914131553,-14.652085061860259,-4.350537074668093,-18.097278978093808,0.053590957517666904,0.006510578824033442
1196,1724559182425926409,-1.421913504600525,0.1863754093647003,0.1676164865493774,0.0275726914405822,0.0201848912984132,-0.4201436340808868,0.9068139791488647,0.0,0.0,0.0,0.13955856225643304,-0.11991697148769243,-0.17096549432676766,0.937825913,0.1676164865493774,-0.10236259586059859,-0.08450696668297603,-0.044267566149347286,5.558618059623933,2.5381630412201983,-1.2970222015247659,0.033110745588948255,0.05981252197452407,-0.8667577058217677,0.039837471766404065,-0.03200705257830094,0.006218585640819896,-8.434568320133295,26.07639313050877,-4.761828694132072,0.03575177451157984,-2.1437427117829628e-05
1198,1724559182433581324,-1.4215487241744995,0.1860889047384262,0.167671799659729,0.027616199105978,0.0200354401022195,-0.4204289317131042,0.9066837430000304,0.0,0.0,0.0,-0.06267786755282145,0.23284077099388534,-0.10753538351572231,0.945480828,0.167671799659729,0.029156167170458283,-0.03200103105879392,-0.08058372973652615,11.723652228016354,4.3579055771105075,0.23010901802496087,0.033296597844785766,0.05958817135003071,-0.8673834902216404,0.041181118450950294,-0.031870320664832086,0.0045049412239661635,-3.27737788901805,19.05932935481484,18.78428235526141,0.05883119735503973,0.0022873253252043047
1200,1724559182446188969,-1.4211639165878296,0.1858024895191192,0.1676720976829528,0.027906347066164,0.0196965802460908,-0.4202956259250641,0.906744122505188,0.0,0.0,0.0,0.37653640678604683,-0.08799680037912316,0.3472807936329633,0.958088473,0.1676720976829528,0.06364402444865833,-0.028995178170383887,0.02560712092504037,-6.3578514847554874,-5.598259891797635,3.297020363628253,0.03411745747729513,0.05921194193811026,-0.8670726503178365,0.03544461722177061,-0.02447075708398927,0.005564670751134315,9.473462333004363,-4.5730663134135625,11.821753243177257,0.037003835734596154,0.00237478816478366
1202,1724559182456423133,-1.4207602739334106,0.1855374872684478,0.1677750796079635,0.0272610522806644,0.0192343611270189,-0.4202291965484619,0.9068045020103456,0.0,0.0,0.0,0.2627804295612659,0.03861919741826414,0.266785553307487,0.968322637,0.1677750796079635,-0.07696612699263106,-0.13477691266925373,0.016767453666249415,3.5397044555370636,-2.1638155478258128,-9.347239191550882,0.03333709853769148,0.057827614907946204,-0.8669474997116976,0.04620616297702895,-0.030978131491904648,0.01130555375805109,-77.69267786559385,56.53836076688329,-15.557327066084856,0.04460746793569663,0.005840420265635754
1204,1724559182463635467,-1.420392632484436,0.1852882206439972,0.1678629368543625,0.0272085908800363,0.0188324991613626,-0.4205489754676819,0.9066662192344666,0.0,0.0,0.0,-0.6359616140494062,0.670880124285586,0.1154844487244664,0.975534971,0.1678629368543625,0.036388324188990975,-0.10884514801056668,-0.09376751128562981,7.790970688983309,3.1106051863376827,-7.033844356142186,0.03355916019164855,0.05706563887431834,-0.8676507683065615,0.04409239375053886,-0.027271443689810937,0.011734519815744804,-77.16814201635668,48.45315570333403,-9.874218599943777,0.05853314858523384,0.006652796108588922
1206,1724559182474183919,-1.4200336933135986,0.1851130127906799,0.167979821562767,0.0270016510039567,0.0184471029788255,-0.4207519888877868,0.9065861105918884,0.0,0.0,0.0,-0.7180185213310593,0.577054544972021,0.18263434195750394,0.986083423,0.167979821562767,-0.0037056682806284294,-0.08351350809457422,-0.04003736768353587,-11.476751508047007,2.7641016470105795,-3.2745194234764003,0.03349446552996834,0.056199349765323696,-0.8681030816611693,0.03209405682622446,-0.017773428328702323,0.0138167731163783,27.03815120978507,-10.297211922997615,2.387358010189071,0.033989127570822085,0.009387260798901757
1208,1724559182483809617,-1.4197417497634888,0.1849317103624344,0.1681368499994278,0.0260876044631004,0.0185992829501628,-0.4213755428791046,0.9063202142715454,0.0,0.0,0.0,-0.15193485711334676,0.4656177180099768,0.1706685658074536,0.995709121,0.1681368499994278,-0.18159919823956758,-0.05372173989444746,-0.14506011189994816,-7.903329688559376,2.3927888703205817,-4.279820979268134,0.03166732538194375,0.05572800964527046,-0.8695178416374276,0.028866772880142832,-0.015059191031562946,0.015445068815107987,44.10139128393805,-4.95468407244962,-1.9798752730373437,0.0329976097011145,0.0053247730418091894
1210,1724559182495018096,-1.419437289237976,0.1848122030496597,0.1682986319065094,0.0253202114254236,0.0187436640262603,-0.4219076931476593,0.906091332435608,0.0,0.0,0.0,0.1504098714419444,0.49651470669848646,0.13886123351613133,1.0069176,0.1682986319065094,-0.13212745180469218,-0.03606745531119798,-0.10648782407342461,7.2825051227784625,3.572351598136242,0.6458219194035335,0.03011934622429669,0.0553608011425834,-0.8707250857584868,0.02955672001809262,-0.007443549963714879,0.01737767581118188,95.59833958565801,-15.930546599509608,45.0611595240719,0.024817091985674146,0.00949352791246581
1212,1724559182506610760,-1.4190659523010254,0.1847645044326782,0.1685353815555572,0.0253075491636991,0.0189494974911212,-0.4225977957248688,0.9057657122612,0.0,0.0,0.0,2.081448610071541,0.08777834487355521,1.2355493794362729,1.018510264,0.1685353815555572,-0.013307737620686152,0.029292901923239544,-0.13251944580746924,2.5708100997067684,1.4786433341454461,0.131867786915552,0.02988024473074333,0.05574630802521371,-0.8722527696938218,0.03236573272216248,-0.0038810619550346814,0.018585033329771683,56.627081037388024,-20.004370872042387,31.451750259837123,0.02257598022766687,0.017678298727340058
1214,1724559182518752071,-1.4186687469482422,0.1847203522920608,0.1687376648187637,0.0248430334031581,0.0191384796053171,-0.4231429994106293,0.9055200219154358,0.0,0.0,0.0,1.370896410597668,0.03886547247536609,0.8144022490962062,1.030651575,0.1687376648187637,-0.07973714160087772,-0.0056454986954500965,-0.1006876469429271,8.64756438076457,61.430182184178,-50.94249447646947,0.028843848411656048,0.05571368248657776,-0.8734786289934598,0.08102360043059775,-0.005606806827763933,0.047973031192892535,-323.91694556463256,12.650207436229435,-225.4273617547657,0.022831480402922797,0.018412878055454933
1216,1724559182523666179,-1.4181745052337646,0.1846888810396194,0.1690356880426406,0.0252420734614133,0.02011957205832,-0.424134224653244,0.9050238728523254,0.0,0.0,0.0,-0.7487206388831629,0.13420333124293649,-0.6727449051402228,1.035565683,0.1690356880426406,-0.009160258231418939,0.42413409049722767,-0.45756120895178665,13.520827512351689,53.33257324961335,-43.08964810871482,0.028674470085012036,0.05786172179356766,-0.8756698385625388,0.08251600521928992,-0.005055810362032176,0.04878065152518207,-328.07381209936136,10.717461744183318,-235.67936058374386,0.06571234299563844,0.06029636342249079
1218,1724559182535309433,-1.4177119731903076,0.1846672147512436,0.1692763119935989,0.0261400006711483,0.0203782320022583,-0.4248948693275451,0.9046356678009032,0.0,0.0,0.0,-1.7199583753120078,0.019441140343998464,-1.5699065829978,1.047208937,0.1692763119935989,0.12505816189944854,0.1036729690633842,-0.14454994103864116,-4.445121048102173,-23.97789768579638,13.31469618955768,0.030034116606506775,0.05911768442576327,-0.8773194635570477,0.044765416188568,-0.00288418438939253,0.01785487210460701,316.801166428991,-27.068805542718017,146.21852377839645,0.02555616200835447,0.0242190415431423
1220,1724559182543719549,-1.4173048734664917,0.1846367418766021,0.1694093942642212,0.0259579643607139,0.0201167818158864,-0.4253398776054382,0.9044376611709596,0.0,0.0,0.0,3.375604198604452,-0.3127711551084029,1.0161378892480455,1.055619053,0.1694093942642212,-0.009356189881385157,-0.0764462582727563,-0.11499903970985499,-12.434855286571592,-15.678446294376837,3.856405366947043,0.029897378893782453,0.05850403308792864,-0.8783072180880083,0.03954806291780599,-0.003735608743578922,0.011250216296602389,339.8504599875881,-16.48263366650533,199.27934395005502,0.032710884777088244,0.02828699091194186
1222,1724559182562658064,-1.4169336557388306,0.1845612078905105,0.1694273948669433,0.0246333330869674,0.0193985756486654,-0.4255874156951904,0.9043739438056946,0.0,0.0,0.0,-1.5337408127257106,0.3567614328855111,0.1752275157578822,1.074557568,0.1694273948669433,-0.09355866022658857,-0.12864102666385313,-0.02735045018233735,382.3647327787612,92.39109548539673,-292.1320209144795,0.028091766874852417,0.056083802172424334,-0.878896564738503,0.2738936896987525,-0.018680307702439336,0.10732149554482362,-1259.1327655502346,85.51239797186861,-471.05760872800846,0.015499016834419002,0.009425363412596846
1224,1724559182564010746,-1.4165385961532593,0.1845345199108123,0.1695828437805175,0.0249109994620084,0.0192767679691314,-0.4258693158626556,0.9042362570762634,0.0,0.0,0.0,-3.3335532953195286,0.4772786788775131,-0.5031850411266479,1.07591025,0.1695828437805175,0.4610310405467532,0.005527402844735539,-0.4511837138962397,374.384066580818,91.10553188251815,-286.267659861907,0.028681150526461318,0.056108600946860536,-0.8795074141237526,0.27047532456157164,-0.018087013675538,0.10708534276021608,-1221.1564541436876,79.47830020457634,-463.1839401803046,0.19463373968972583,0.1722557131559449
1226,1724559182579467679,-1.4161696434020996,0.1845450848340988,0.1698544323444366,0.0245617721229791,0.0193365681916475,-0.4265397787094116,0.9039284586906432,0.0,0.0,0.0,-2.8871177800454912,0.0072190354889902775,-0.8894795803974391,1.091367183,0.1698544323444366,-0.04149066048439057,-0.013640509424038789,-0.09646937858383375,-41.32724593214465,-4.712767455871106,-60.66594097146295,0.027955903841702504,0.05594006514722308,-0.8810062511255546,0.07650972759000751,-0.0038791525533667937,0.04126814904430631,344.7472038556446,-38.482982750059556,41.84313363915095,0.01365753190885582,0.01594012946462113
1228,1724559182583635273,-1.415791630744934,0.1845237910747528,0.1700530499219894,0.0240896120667457,0.0194879733026027,-0.4273673295974731,0.9035468697547911,0.0,0.0,0.0,-1.0954166488016073,-0.16223292234955888,-0.6399926219808092,1.095534777,0.1700530499219894,-0.22363249382860081,-0.03718363793164872,-0.4432573767732888,-29.551941471355974,-5.274967887169247,-53.60680660382691,0.026920340366387192,0.055835829055869195,-0.8828598995864386,0.07533412628846747,-0.00487384169039462,0.041346454781952424,308.34672409124784,-31.195025643034413,18.345992681839114,0.05878301660166692,0.05424784195431138
1230,1724559182594791776,-1.4154101610183716,0.1844764500856399,0.1703258454799652,0.0232116486877203,0.0193928573280572,-0.4281564950942993,0.9031983017921448,0.0,0.0,0.0,-1.2859790536745233,-0.22760079114523846,-1.675260806932737,1.10669128,0.1703258454799652,-0.13066020771950415,-0.08486035693577623,-0.15718778432957967,8.265043060388946,-8.19619613920363,22.457465481557897,0.025364066376073583,0.05493525509230288,-0.8846405597933122,0.03882239248055441,-0.004400889172750055,0.014531482458206568,63.446624440354384,-9.822255921714152,22.18123904280499,0.023566128637189623,0.018715480562661292
1232,1724559182604115392,-1.4150121212005615,0.1844341903924942,0.1703840345144271,0.022603265941143,0.0186901669949293,-0.4280568361282348,0.903275728225708,0.0,0.0,0.0,-0.06696906781703782,-0.35005949609265274,-0.5725733224629737,1.116014896,0.1703840345144271,-0.05413322484858472,-0.19184402508380655,0.02738739147419735,4.517675726600842,-5.8158136888526535,8.93101227988924,0.024870724192741556,0.05314072088567953,-0.8844298327031553,0.04231254505837967,-0.008626699521959935,0.004586547338526259,146.3685841800878,-19.76327973135446,114.88908875222248,0.03018648533920359,0.023597847067159484
1234,1724559182613919143,-1.41460120677948,0.1843074113130569,0.1704119443893432,0.0219917260110378,0.0179466977715492,-0.4280603528022766,0.9033042192459106,0.0,0.0,0.0,1.529056384630425,-0.6121498589565011,0.5189365276688573,1.125818647,0.1704119443893432,-0.047883785515878595,-0.19052779738143372,0.0029364880477549737,3.6762455648616217,1.1014933838778953,-1.417948222526264,0.024400382142479835,0.051272689706971325,-0.8844470664432637,0.037106768430348325,-0.010994975990213263,0.0040663150597284314,79.41547962054989,-3.318003156474261,51.72043162931907,0.036371173599424794,0.016554656266048583
1236,1724559182629922618,-1.4141329526901243,0.1841820478439331,0.1705088764429092,0.0221401639282703,0.016568711027503,-0.4280385076999664,0.903337299823761,0.0,0.0,0.0,0.6217268268600691,-0.05354296899465805,-0.2107403894221065,1.141822122,0.1705088764429092,0.0903336984363893,-0.1476322021773631,0.008355876992026895,-16.19927930915786,-39.90369890686341,-75.73239964601314,0.02584976378830827,0.04890744975661076,-0.8843726876785032,0.11539344081347735,-0.03047249611298497,0.027313945207232848,-581.432311307515,174.18967443080385,-156.36007513989145,0.024277783511710845,0.012524676241492323
1238,1724559182633989913,-1.4135745763778689,0.1840347051620483,0.1706419438123703,0.0218170452862977,0.0159365702420473,-0.4287491738796234,0.9030195474624634,0.0,0.0,0.0,-2.285553218742992,0.798916869388492,-0.9612015659212538,1.145889417,0.1706419438123703,-0.0012266684191934636,-0.3539517493691742,-0.3783052240598058,-16.336900588230456,-31.218555922018588,-59.901856012401254,0.025768777375782922,0.0475080181917123,-0.8859499657087566,0.11350813042406571,-0.02948751522171289,0.024737333430312702,-543.4623544454411,166.82497435870778,-128.77876702232942,0.11321426574004341,0.058994916100220764
1240,1724559182643641201,-1.413023591041565,0.1839044392108917,0.1706979572772979,0.0212978105992078,0.0150801390409469,-0.4294279813766479,0.902724027633667,0.0,0.0,0.0,-3.6068934931049292,1.4296328212275198,-0.9277251465191105,1.155540705,0.1706979572772979,-0.017493969584412218,-0.20848938715404552,-0.15112394179980548,0.1092791741244406,11.846139001994588,14.927042941284203,0.025529654836901658,0.04553389220493479,-0.8874612313171547,0.049722425998098174,-0.009026594992882053,0.007955516081923797,42.44153042909883,-1.885726458733811,29.3986007738812,0.04619956049619456,0.025586470219134756
1242,1724559182657318437,-1.4124863147735596,0.1838676333427429,0.170848473906517,0.0210819728672504,0.0143687119707465,-0.43014857172966,0.9023975133895874,0.0,0.0,0.0,0.4498480104680782,0.10063138847203829,-0.023043361953397734,1.169217941,0.170848473906517,0.01878821498558628,-0.10898871502645616,-0.11388435535992328,-3.2383663526832978,-8.334668563391471,2.4847083786671806,0.025715092024964067,0.04408361798432489,-0.8890580640893759,0.058579324905139174,-0.0028546419657189404,0.01098783391448599,28.745374508826657,-39.8873154697938,51.88443317650754,0.02633210151768893,0.022724615993262934
1244,1724559182665044427,-1.4119495153427124,0.1838448643684387,0.1709332913160324,0.0205639991909265,0.0135876955464482,-0.4304999411106109,0.9022539854049684,0.0,0.0,0.0,-0.4970743208731738,0.042453554992869194,0.3155782029385191,1.176943931,0.1709332913160324,-0.03194166174146794,-0.24150643833408095,-0.09572636276673896,-5.721968092081366,-6.076658577831224,-1.219773065265989,0.025434319784418142,0.04223726313020838,-0.889845836571508,0.061191959259119244,-0.0036073852737725787,0.009741655313285413,134.97496490921748,-30.6022509880232,138.24565828280313,0.045524868735062375,0.04148442436985117
1246,1724559182675607052,-1.411422848701477,0.183797225356102,0.1710183322429657,0.0198389925062656,0.0130928764119744,-0.4312728941440582,0.9019083380699158,0.0,0.0,0.0,4.647658944385431,-0.6139649159750773,3.1392636696747775,1.187506556,0.1710183322429657,-0.08019029747257239,-0.1457528457148188,-0.16016413006487584,-1.0956127314229884,9.887509561432099,-8.062436663872973,0.02451549608970935,0.040740457371227556,-0.8915770072697144,0.043880118887599906,-0.0011389414365874373,0.019961421687082925,206.19149656175756,-48.3843313067522,44.99219020236791,0.03447454983521866,0.027837612921774467
1248,1724559182691429807,-1.4108703136444092,0.18385910987854,0.1716164797544479,0.0197986457496881,0.0134126003831624,-0.4336499273777008,0.900763988494873,0.0,0.0,0.0,1.2526915755831283,-1.0533681546438878,-1.4187286132696784,1.203329311,0.1716164797544479,-0.015225213757496029,0.0301826244627471,-0.3342356375989739,-142.18537692022676,-148.1719029537712,-600.5120621197611,0.02405794735824209,0.04134631678880214,-0.8968567831826755,0.2664271226908568,-0.030945158420834673,0.12110827800887591,-1392.4016143977842,150.29184633519083,-765.9071264638528,0.017158064610472104,0.025095916623835698
1250,1724559182693480738,-1.4102623462677002,0.1837863773107528,0.1718870103359222,0.0193150267004966,0.0133093558251857,-0.4352420568466186,0.900007963180542,0.0,0.0,0.0,-1.916144612147272,-0.6977939333930436,-3.1165805615132447,1.205380242,0.1718870103359222,-0.34572762798166073,-0.3160536237600735,-1.7225598519829355,-139.78183463035157,-147.01309588485051,-582.1939447896535,0.02320314564208329,0.040781779807014265,-0.9004071815482732,0.2655902859750636,-0.03288479356498786,0.11612202985598641,-1370.4104566221185,161.80843634761877,-720.1088370768548,0.2064064113562235,0.15715982480052798
1252,1724559182708408559,-1.4096490144729614,0.1835756301879882,0.1719054579734802,0.0180986765772104,0.0127375237643718,-0.4360619783401489,0.8996444940567017,0.0,0.0,0.0,-3.3958763892881585,0.4612261413207501,-2.160431618639452,1.220308063,0.1719054579734802,-0.11092126465286939,-0.14135477689320575,-0.12075128814803981,9.251797322261767,-23.94883945348223,52.96706924866282,0.02147378778254566,0.03871244437013223,-0.9022577861833551,0.07312497345714064,-0.016361902158386954,-0.004869083521985118,273.3364812036994,14.29831126455818,319.4567107284792,0.036470425796835654,0.014373467967090691
1254,1724559182715159886,-1.4090574979782104,0.1834583133459091,0.1718539446592331,0.0172881595790386,0.0115827256813645,-0.4358683228492737,0.8997698426246643,0.0,0.0,0.0,-0.413220980551817,0.36434710040543766,0.7761761552935142,1.22705939,0.1718539446592331,-0.06823812642852321,-0.41189979543055305,0.07093632944407723,8.951385297317836,-13.905526200832014,11.710066403612629,0.021028757837394513,0.03592202184979875,-0.9018377277743987,0.0791968837777901,-0.01521935992234269,-0.0013035654126625218,1421.1572365137795,-340.9455581727809,216.7408558846097,0.06819781528274772,0.0406202339429345
1256,1724559182724998840,-1.408398985862732,0.1833395063877105,0.1719318330287933,0.0171677451580762,0.0106958393007516,-0.4361210167407989,0.8996607065200806,0.0,0.0,0.0,27.612326708555422,-7.673150158263441,-0.22039915421737677,1.236898344,0.1719318330287933,0.05753336403347302,-0.17351091784386313,-0.05305389329122976,6.988121506752814,19.432652217109474,-10.130849024958904,0.02157523953974766,0.034226363617721606,-0.9023963549666184,0.056310484354316515,-0.008836879046774992,0.009889974683072289,815.9469830421302,-239.08654928567896,-38.55777138962489,0.05065405021061107,0.03200746712585103
1258,1724559182744190652,-1.4077157974243164,0.1832911372184753,0.1721955239772796,0.0170167200267314,0.0109988078474998,-0.4374525845050812,0.8990132808685303,0.0,0.0,0.0,-32.81499234605553,9.369263013668387,1.3879694532370337,1.256090156,0.1721955239772796,-0.025286330816164576,0.019880187204376933,-0.15497564860977894,-5154.382536327259,-11813.747466153749,-3695.330682054044,0.020987753879359132,0.03467111082647053,-0.9053636854832664,1.7069995069873585,-0.4676305358053696,-0.04518002924959319,-12227.132868872839,3387.4525473485846,393.38848715942777,0.023470052032428034,0.020048796923462838
1260,1724559182744612594,-1.406980037689209,0.1830895096063614,0.1721759140491485,0.0161179713904857,0.0102500729262828,-0.4377968609333038,0.8988710641860962,0.0,0.0,0.0,-38.05835130710711,10.821757934773213,1.5568284656901208,1.256512098,0.1721759140491485,-2.2479119973987522,-5.074521111424223,-1.748421762125179,-5101.174250065492,-11693.339594132714,-3657.063660590501,0.020012989944201184,0.03254552760505823,-0.9061455558178299,1.69205118916364,-0.463368571230304,-0.04455489217281722,-12069.244274147919,3342.0809107461005,386.9024012833673,1.452394814417036,0.6984925188585805
1262,1724559182757995652,-1.4062787294387815,0.1830379515886306,0.1723948568105697,0.0165808834135532,0.0091968961060047,-0.4378816485404968,0.8988327383995056,0.0,0.0,0.0,-47.83630199166214,12.963710952098584,1.0923805835490872,1.269895156,0.1723948568105697,0.13130968151127267,-0.11133217845305006,-0.010651090343672813,72.43899895671734,138.64626593529573,50.90517150500423,0.021764792004929027,0.031058865014445342,-0.9063192812039524,0.06593584882629955,-0.012520516811470372,0.00822553008030269,3053.6967252800337,-863.9789153292215,-131.49340642283514,0.034821737605425174,0.029297606626437583
1264,1724559182766671224,-1.405630588531494,0.1828805804252624,0.172420471906662,0.0168254859745502,0.0080439252778887,-0.4379540979862213,0.8988039493560791,0.0,0.0,0.0,-0.06094751592397296,-0.29087786257445997,-0.592737053774683,1.278570728,0.172420471906662,0.1673354136079805,-0.21443138505569512,-0.012992634553810082,-3.3310853716815423,-2.7199060342093997,-4.3179882196365345,0.023211865884735748,0.029201554683059842,-0.9064738690539723,0.06523998342383663,-0.016604950795483298,0.0016662037792958273,3118.5147919365554,-837.090920148348,-48.56979312827484,0.06022983854916881,0.03175375427345625
1266,1724559182777708332,-1.4050434827804563,0.1827188581228256,0.1724207997322082,0.0166668724268674,0.0074189673177897,-0.4385485351085663,0.8985223174095154,0.0,0.0,0.0,0.8222539046760176,0.16870838854395642,0.9165749936056952,1.289607836,0.1724207997322082,0.025488673079438157,-0.11577605348304225,-0.11749181986118483,-11.428021375629175,-2.754871922841488,-4.695431117398053,0.023455272823538327,0.027954321037078057,-0.9078005352380663,0.06483776902629756,-0.017289071496952246,-0.0025824867394188544,0.15375885158180935,38.678390240748705,104.92007610752202,0.04427010133379855,0.02117572412226477
1268,1724559182785822564,-1.4044479131698608,0.182562842965126,0.1723842620849609,0.0160790011286735,0.0067742583341896,-0.4390240311622619,0.8983059525489807,0.0,0.0,0.0,0.34706098064652835,0.4648860538406513,1.5780493543230805,1.297722068,0.1723842620849609,-0.058747515637283886,-0.20788543756003466,-0.12712143904397136,5.1549552390961875,8.285075923765119,-5.775660825216616,0.022949545839770134,0.026291877951597122,-0.9088713668263517,0.07663219233754148,-0.014543962020500345,0.012618908341162083,-85.16298829597702,5.483715078517934,-44.775478578677955,0.06037745273898719,0.029936483166820096
1270,1724559182794162827,-1.4037810564041138,0.1824816912412643,0.1726362854242324,0.0165669377893209,0.0066843535751104,-0.4398291409015655,0.8979038000106812,0.0,0.0,0.0,-0.5912524347758317,0.24472311477572212,0.12192839605890116,1.306062331,0.1726362854242324,0.11743202557441777,0.02955131372791698,-0.21463076453711163,7.1965920963769685,13.877923714131258,-3.573227422186922,0.023881790887589027,0.02658018671635538,-0.9106557604583105,0.07004131477153663,-0.009581588134103036,0.02324813114372315,-54.2903419427398,-22.624406756888167,-135.3528383888205,0.05589419363520436,0.0412490136785862
1272,1724559182804927014,-1.4031648635864258,0.1823806166648864,0.1727897077798843,0.0165118351578712,0.0065801469609141,-0.4405896961688995,0.89753258228302,0.0,0.0,0.0,-0.3669054916625627,0.05360915723272475,-0.7899389516425306,1.316826518,0.1727897077798843,0.0014102327931824487,-0.023768070766378525,-0.15696861822984184,-0.2001189541299473,5.528459126607673,6.454535844742367,0.023852080307808055,0.026364735703410472,-0.9123515432287228,0.06644152598553887,-0.011813452761735732,0.008549141683150907,136.0269440967437,3.0226890033470575,-20.902554944963924,0.04206372557363568,0.02754773870586082
1274,1724559182813958029,-1.4024951457977295,0.1822555661201477,0.1728236973285675,0.017042426392436,0.0068561076186597,-0.440950334072113,0.8973435759544373,0.0,0.0,0.0,1.7343015333515908,0.23833475708701535,-0.49522395653919415,1.325857533,0.1728236973285675,0.07975435547148417,0.10557962939731466,-0.09036055371756109,3.9173046677561074,6.840702738355612,5.628838304450825,0.024551056715230286,0.027337700488170465,-0.9131447105460887,0.0628818781466336,-0.009352107713919366,0.005776509459193502,93.75207890753596,8.57377164834122,0.45890561977978805,0.056164382767194626,0.03434119794055659
1276,1724559182830920249,-1.4017877578735352,0.1822401285171508,0.1729858070611953,0.0169359426945447,0.0067560235038399,-0.4413369297981262,0.8971562385559082,0.0,0.0,0.0,-1.1010688829422364,0.0052572452111883106,-1.5124872872341888,1.342819753,0.1729858070611953,-0.005373956080523356,-0.016751107282647445,-0.05052877126078264,54.58871922955211,24.61245544448689,-35.01922916645279,0.024436394794866038,0.027074638832593,-0.9140087576088775,0.16010955980431163,-0.006399271295293829,-0.008619779198184574,-812.8101143851184,14.044041271458077,76.00026916092372,0.02591574949550209,0.024706023468313045
1278,1724559182834437260,-1.4011383056640625,0.182213619351387,0.1729422360658645,0.017368733882904,0.0067301918752491,-0.4416538178920746,0.8969921469688416,0.0,0.0,0.0,-4.430560157160446,0.07491197425953884,-1.1460381750863249,1.346336764,0.1729422360658645,0.2300827125127217,0.09301849530251304,-0.2009412977265171,41.306264776457965,13.625697545475948,-25.693616739399655,0.025226562687653317,0.027419229346953938,-0.9147073122287988,0.15125419674480867,-0.0065038944755206884,-0.014423248034270308,-699.0224079859502,18.019641195809022,125.32443007895938,0.11891450896601465,0.10667126446275556
1280,1724559182843632568,-1.4005506038665771,0.1821786612272262,0.1727606952190399,0.0169256888329982,0.0059024076908826,-0.4417799711227417,0.8969442844390869,0.0,0.0,0.0,-4.904213966456446,0.19768346106596824,0.5143785462625373,1.355532072,0.1727606952190399,-0.006554111751871028,-0.2044645918187578,-0.026731315842338864,-7.725892509323284,-12.614993051295016,8.184909999289196,0.02515853048783005,0.025545900755483283,-0.9150004477969972,0.06453008792833259,-0.003298894721325496,-0.012842760888454485,201.45490921024196,15.884335606480231,132.9008808274166,0.04247736667733198,0.03603350255189943
1282,1724559182853885048,-1.3998819589614868,0.182150587439537,0.1727079004049301,0.0172308813780546,0.0051387017592787,-0.4420954585075378,0.896787703037262,0.0,0.0,0.0,0.052893661412600324,0.38949021562918323,1.3320024297959754,1.365784552,0.1727079004049301,0.12009642088601172,-0.1081863803953505,-0.0658224183804655,2.7400239397388617,5.387855125119109,-4.633225224729746,0.0263722327695832,0.024454475211433572,-0.9157038450129208,0.06600022716258991,-0.002996702716448141,-0.00365393495816857,231.6762035395162,4.0113192575000145,17.059068135502933,0.04201764117466641,0.037580239879020504
1284,1724559182864700758,-1.3991591930389404,0.182115226984024,0.172685444355011,0.0171930864453315,0.0045910724438726,-0.4427129924297333,0.8964868187904358,0.0,0.0,0.0,-0.31468074145269975,0.2651843565082076,0.8012249372903009,1.376600262,0.172685444355011,0.040046973486053114,-0.09558516331191566,-0.1252944962107859,-7.213244496582101,5.915109158251859,-12.357840703717606,0.02677225823668867,0.023457028434865773,-0.9170865402472352,0.06553971695221605,0.005323641309983529,0.01572445534001332,65.13060123194889,-64.7459100261405,-130.06666930228363,0.043271131356981136,0.03804669117759435
1286,1724559182874749569,-1.398512601852417,0.1822489500045776,0.1730096489191055,0.0170658733695745,0.004723344463855,-0.4441231787204742,0.8957907557487488,0.0,0.0,0.0,1.2651784901803365,-0.8826188744777587,-1.2619551329488832,1.386649073,0.1730096489191055,-0.03068256491395795,0.008202256369154937,-0.31351525718090656,-6.135916192034635,-0.10250442801075454,-3.1407704197172603,0.026389834938732783,0.023623153573112083,-0.9202345178739063,0.05983711867657604,0.0032820158948521083,0.014528552381208648,94.06791566833502,-41.3254711761451,-90.129108305015,0.027610279415386428,0.04933317150355366
1288,1724559182888088721,-1.397794246673584,0.1821152120828628,0.1728894263505935,0.0159596838057041,0.0039557083509862,-0.4446140825748443,0.8955713510513306,0.0,0.0,0.0,1.4017651942058862,-0.14308236522162732,-0.4246046865014621,1.399988225,0.1728894263505935,-0.09654682008080838,-0.17786245154305821,-0.07936252319579065,7.430143805974053,-45.41316426547667,51.99766507356239,0.025076848416831863,0.021278644214980942,-0.9213541697301174,0.109164344422652,-0.020522268428507573,-0.022542848893703393,-297.60424089011474,116.90573210316865,197.96657360244933,0.04073474505639418,0.0246383237286466
1290,1724559182893821597,-1.3970321416854858,0.1819716989994049,0.1727268546819687,0.0152455503121018,0.0026477938517928,-0.4438574016094208,0.8959639072418213,0.0,0.0,0.0,-1.0628484610222637,0.6785643834807519,1.043409630606599,1.405721101,0.1727268546819687,-0.023478119687699455,-0.5157345151184949,0.3035986834674236,11.321762029843374,-21.983997232952667,36.16918359420414,0.024975208199471254,0.01827937409299613,-0.919687933921961,0.11154305534073927,-0.01729820589723463,-0.01917579259097746,-323.71410983614777,84.65939494524375,169.94960319433346,0.10098163090240164,0.060891467972610566
1292,1724559182904428509,-1.3962688446044922,0.1819400191307068,0.1727036535739898,0.0155171593651175,0.002366364467889,-0.4434510469436645,0.8961611390113831,0.0,0.0,0.0,-2.4124059300170186,0.4252985927666227,1.1559650852086931,1.416328013,0.1727036535739898,0.06866910429852557,-0.023743387416703687,0.0861007624880361,-2.274804963147678,23.19243111242397,-19.55640810304793,0.0257200205790816,0.01800446159301646,-0.918781075645479,0.0712685061179883,-0.007820663600469402,0.0008421516007981467,53.868209978446785,-29.674991790364416,-33.77332497482384,0.0460718762384278,0.04130558987440486
1294,1724559182914691713,-1.3955442905426023,0.1818117499351501,0.1727423816919326,0.0151872150599956,0.0024456521496176,-0.4439351856708526,0.895926833152771,0.0,0.0,0.0,-0.061088037640725235,0.06316462903698213,0.36857293383143763,1.426591217,0.1727423816919326,-0.06354001337805175,-0.016021821859547737,-0.10518753784413679,-7.092743712858567,-0.3752213056347009,-9.769664012922869,0.025048461959138527,0.01786747971997122,-0.9198646148050227,0.060259485979976546,-0.008105523430594452,0.005443888203087166,326.55443773505976,-17.13897424453502,-59.267226401268246,0.052643390049951166,0.03279302307458347
1296,1724559182932735400,-1.394784927368164,0.1818048357963562,0.1728935986757278,0.0148890186101198,0.0020038574002683,-0.4439440667629242,0.8959285616874695,0.0,0.0,0.0,8.922602675492001,0.32954205430574746,-0.14718313695307794,1.444634904,0.1728935986757278,-0.007874055727094185,-0.05856173114507048,-0.0001340196424632696,3.2375644673825263,-13.659858906957677,-8.095284439204619,0.024905886596596004,0.016811200943210973,-0.9198934648363403,0.09124712261839818,-0.0040815871313668595,0.009562865607033899,-325.87410316561414,-21.613790971445866,-47.14755921585612,0.02565964043100899,0.025110182282359013
1298,1724559182939616260,-1.3940280675888062,0.1817670464515686,0.1729625016450882,0.0146557074040174,0.0014243369223549,-0.4442380666732788,0.89578777551651,0.0,0.0,0.0,4.518781586933041,0.08536891407483183,-0.5203099391114808,1.451515764,0.1729625016450882,0.01480332581795895,-0.18221016809815982,-0.09235564545893604,34.77068934978723,-26.94119726803363,37.22629849538198,0.02499695183791893,0.015573682983814785,-0.9205601180300804,0.17154868042325688,-0.0015345186314661419,0.007564917263970017,-1316.0941593422895,-57.50722927583428,-26.423259131567214,0.07079484259720951,0.06210401458950932
1300,1724559182943832795,-1.3931456804275513,0.1817708015441894,0.1729880720376968,0.0148159647360444,0.0005885221180506,-0.4438793957233429,0.8959639072418213,0.0,0.0,0.0,-2.777480477981038,-0.2140124647413839,-0.5598842069127274,1.455732299,0.1729880720376968,0.24274201846779137,-0.31898920386745216,0.19542832547032335,32.759452310704326,-17.52190053220459,46.72917139885584,0.026032240981807616,0.014208070124895392,-0.9197706485692582,0.17212382430961526,-0.0019104359723387532,0.004776862328717435,-1293.4098480741495,-52.31227201499847,10.078865222109847,0.12600984589728811,0.12743934485434558
1302,1724559182953862133,-1.3923054933547974,0.1816848218441009,0.1730052679777145,0.0147912483662366,-0.000187309939065,-0.4432126879692077,0.8962944746017456,0.0,0.0,0.0,-5.325069479232358,-0.2928226856874952,0.005532505558827339,1.465761637,0.1730052679777145,0.06320274435308264,-0.1388736198101644,0.15066962118964275,-11.762055786032601,20.652966878553023,-9.928987921522566,0.026686009522663735,0.012775915720018514,-0.9182966220934726,0.0747553615134251,-0.007035422980138151,0.0015789988472780792,125.76218615488386,0.3243940930235363,40.89318993095242,0.05764986905436289,0.04402654005759805
1304,1724559182965155407,-1.3915759325027466,0.1816249191761016,0.1730213761329651,0.0151559058576822,0.0004451300483196,-0.4433585405349731,0.896216094493866,0.0,0.0,0.0,0.924615605533341,-0.18510823368312757,0.27045991910800127,1.477054911,0.1730213761329651,0.008441677395642673,0.12862545799976283,-0.0309722031009457,-7.505315868515374,9.053903602379979,-15.620254571538158,0.026777142438673737,0.014237347015018196,-0.9186073939013596,0.07035803902250848,-0.007567904806998982,0.005766499305401851,273.3383236295706,6.872175271265448,-18.938617366428378,0.04339924888972709,0.034971009823627386
1306,1724559182975241690,-1.3908144235610962,0.1815281957387924,0.1731186360120773,0.0149403885006904,0.0010614349739626,-0.4441845118999481,0.8958101272583008,0.0,0.0,0.0,1.1587162271820013,-0.1398074209797584,-0.30248923610467654,1.487141194,0.1731186360120773,-0.09118794514476537,0.08813024512354788,-0.184344314874189,16.95665944642067,-8.285458950352714,4.942946555725082,0.025830402656906375,0.015174849139758419,-0.9204429381255336,0.09152078728848778,-0.0106777236714386,0.007590578213459764,-92.44914130111923,36.950823422988904,0.07347329313034745,0.053192096465435976,0.03796577029697591
1308,1724559182983751313,-1.3899205923080444,0.1814295202493667,0.1731684952974319,0.0158524774014949,0.0005471245385706,-0.4441771507263183,0.8957985639572144,0.0,0.0,0.0,-0.4583554846813751,0.40767057107128646,0.1064890342563738,1.495650817,0.1731684952974319,0.2457622742661246,-0.013036178190158421,0.002376155890916679,9.058872931359897,-16.765661474659936,14.518805720282629,0.027922007952648084,0.015063412897902797,-0.92042570614621,0.0946362818736759,-0.010657597721074552,0.0015464304941570362,-127.6573361724057,22.510068472940294,52.464946885369045,0.07273044831566722,0.054286446876191774
1310,1724559182993752474,-1.3890963792800903,0.1813339591026306,0.1731332689523697,0.0152227627113461,-0.000473804277135,-0.4439254105091095,0.8959343433380127,0.0,0.0,0.0,-1.001957112772041,0.14116593485589407,0.6829677403610542,1.505651978,0.1731332689523697,-0.02258026553105706,-0.2380393688251079,0.0603246647417334,-14.759096609001698,-0.7910436527525468,-9.890004504476318,0.027703625129144295,0.012666886054554778,-0.9198888281996982,0.08036126934447907,-0.001816404985852671,0.012211761522157971,-14.575847995149886,-50.97441882367278,-27.388112623424064,0.057575311839719055,0.042380119530976736
1312,1724559183003620891,-1.3883233070373535,0.1813913881778717,0.1734069883823394,0.0149236405268311,-0.0005009457236155,-0.4447678029537201,0.8955214023590088,0.0,0.0,0.0,-0.7584619315877066,-0.5987539418182204,-0.41527676181541767,1.515520395,0.1734069883823394,-0.05067845973609024,-0.03447849560454241,-0.18999773158057173,4.027180810089159,12.585713633206652,-13.535211751347411,0.027179916409827684,0.01237821048055245,-0.9217724809773524,0.07461563347212063,-0.007656781042729044,0.015217834830830945,19.320558642778654,-18.9183681951956,-76.80401324684345,0.04236537757133262,0.051587183286906355
1314,1724559183015060115,-1.387519121170044,0.1811251044273376,0.1734150648117065,0.0153747256845235,-0.0006904280162416,-0.4457297027111053,0.8950352668762207,0.0,0.0,0.0,-0.6084392104749659,-0.07180339271851605,-0.8365842868632964,1.526959619,0.1734150648117065,0.08654522153118621,0.0028575596428379725,-0.1879528600610052,8.936855469500927,6.358106390000708,4.507260952946537,0.02814323487272187,0.01247035217727711,-0.9239209627645598,0.06360250014426327,-0.014597939496496792,0.0009215724089113309,609.1584267726857,-45.10255815073302,-47.40344541161082,0.06093169909009106,0.023783289377597626
1316,1724559183030138244,-1.386693239212036,0.1810775101184845,0.173433244228363,0.0169962961226701,-0.0001446895184926,-0.4459388554096222,0.8949021100997925,0.0,0.0,0.0,20.422658097753406,-2.563788800683928,-1.7614809523119224,1.542037748,0.173433244228363,0.16049918601085872,0.16022275850839804,-0.03396457598491904,-7.347273774092045,-6.311280051865655,3.9283848199488776,0.030557234609843116,0.014900203108735667,-0.9243621605377829,0.061470195097115266,-0.005048040637309015,-0.0034808908492944823,527.9373104232475,-77.4560577957742,3.0240480467098436,0.035490222125329464,0.0304508990375025
1318,1724559183042126200,-1.3858925104141235,0.1809989660978317,0.1733468472957611,0.0165577754378318,-0.000424005993409,-0.4461973011493683,0.8947813510894775,0.0,0.0,0.0,18.48931843751467,-2.6553509783832325,-1.111766226388248,1.554025704,0.1733468472957611,-0.04435450973523394,-0.07506273929366802,-0.04676760205308781,110.51535415309453,-952.3415214808283,458.38685424470873,0.03001701410879962,0.01401774318535047,-0.9249497770736473,0.502294288388839,-0.06625496838857714,-0.03860343194698146,1442.3445386092717,-428.0416529629208,-156.04864250181265,0.04553073568335338,0.03507829666705975
1320,1724559183043729703,-1.3849936723709106,0.180879920721054,0.1732782125473022,0.0160277169197797,-0.0017846521222963,-0.4456562101840973,0.8950590491294861,0.0,0.0,0.0,21.146072258536616,-3.4318868417541797,-1.4070850307637341,1.555629207,0.1732782125473022,0.16022610199791593,-1.8021973809078013,0.7868026963401692,119.31533527795584,-1005.7647447836554,485.50168337089485,0.030288682349955364,0.011091192492471482,-0.9237758960038169,0.5280205744648185,-0.06998727120616244,-0.0399962096354331,834.2838462009712,-315.52174495660637,-103.0505994152915,0.3975898487703544,0.27940807519105465
1322,1724559183067993527,-1.384123921394348,0.180743470788002,0.1733382791280746,0.0161626823246479,-0.0020395999308675,-0.446111798286438,0.8948289752006531,0.0,0.0,0.0,-260.6174620470774,50.87071997668613,25.876236231006033,1.579893031,0.1733382791280746,0.01955961884965117,-0.014487230977242044,-0.04174665657423157,3255.841867005554,-25595.39006919104,1593.2067332903302,0.030752082331967606,0.010770748571512287,-0.9247989795319559,2.9144257111365732,-0.5587041888187514,-0.27185034079434445,-30825.947774891276,6035.33493630364,2978.5636053855706,0.02604113198062153,0.01704344243863463
1324,1724559183068271669,-1.3833041191101074,0.1805863082408905,0.1732617914676666,0.0158313252031803,-0.0029964842833578,-0.4460769295692444,0.8948495984077454,0.0,0.0,0.0,-269.25271314097455,52.56150753771357,26.710611557934516,1.580171173,0.1732617914676666,0.9355454242915153,-7.215483679313468,0.4065797200568664,3164.402197263291,-24876.060403850606,1548.7137782807613,0.0310127961702936,0.008761284445853714,-0.9247479266641669,2.840792506628625,-0.5443284881541588,-0.2645401017104154,-29554.11162625884,5787.221149196242,2852.7159323589794,2.2279489714168372,1.3286995879593064
1326,1724559183075373404,-1.3824646472930908,0.18047696352005,0.1732788532972335,0.015843566507101,-0.0033538567367941,-0.4462251365184784,0.8947741389274597,0.0,0.0,0.0,-208.5830461830362,40.77799939468223,20.29630854581417,1.587272908,0.1732788532972335,0.04819111285254094,-0.08924761589386081,-0.04524603174345489,-75.62892560371048,541.7191840481574,-40.79936886546297,0.03135215152493879,0.008137796526551855,-0.9250887555865379,0.10897996318284697,-0.012071428187628186,0.0027980196079955277,16119.939587099681,-3129.803581791982,-1621.9897002321236,0.08340722591240292,0.05878825720584856
1328,1724559183083673433,-1.381649613380432,0.1804090291261673,0.1733059138059616,0.0153370890766382,-0.0034232670441269,-0.4468345642089844,0.8944786787033081,0.0,0.0,0.0,-1.2862481716543974,0.5353505976149651,-0.13886091632824646,1.595572937,0.1733059138059616,-0.10110159189010663,-0.07198913351681487,-0.16249185546368455,-7.312804335202077,3.329135309522001,-5.868967069099391,0.030502272687541264,0.0075822769144373876,-0.9264555405259239,0.0858524329317305,-0.005074271490689064,0.00297588274343763,15442.187043679818,-3004.0458642609656,-1509.8154346692313,0.0655009910776575,0.05237566438935891
1330,1724559183097028695,-1.3807682991027832,0.1804081052541732,0.1733395457267761,0.0155194122344255,-0.0035121259279549,-0.4472127854824066,0.8942861557006836,0.0,0.0,0.0,0.08408589275469502,0.051719898436650646,0.16036649046485094,1.608928199,0.1733395457267761,0.03061675434384481,-0.0006699919857361144,-0.06343538616120345,-9.932056489034672,-8.873283538260548,-14.49478837936693,0.030904737773632403,0.0075993411033475474,-0.9273026456666859,0.10091253592599969,-0.004536340460408184,-0.002323187336767063,1449.9252492040405,-115.76036363008409,136.21001569738664,0.03962869193897357,0.03948638922978244
1332,1724559183103861349,-1.3799567222595217,0.1803614944219589,0.1733067482709884,0.0150275155901908,-0.0036758987698704,-0.4479501247406006,0.8939247727394104,0.0,0.0,0.0,14.700662684664175,-1.0173002871890233,1.4888628080191761,1.615760853,0.1733067482709884,-0.10644069707941212,-0.11098309617761312,-0.23906906750721382,-15.112937524416395,-10.301605325659274,-18.990297604380437,0.030165466362101056,0.00689125556486853,-0.9289585242407066,0.09783913249976806,-0.0041429615933807895,0.0007201157663083713,1246.4460868506692,-97.94663940310774,108.87898844392241,0.07660482059828008,0.06574123768354638
1334,1724559183123510173,-1.379217505455017,0.180431455373764,0.1736328154802322,0.0140215344727039,-0.0029488541185855,-0.4499950110912323,0.8929160833358765,0.0,0.0,0.0,-11.254178576969025,0.3642972193984235,-1.2060111042370352,1.635409677,0.1736328154802322,-0.12390664026999519,0.016780287304155754,-0.23279203890101557,-992.9836929414327,-4757.5199591326855,-1786.2256691358825,0.02769833682877312,0.007353148843802525,-0.9335211122196428,1.2427611114999308,-0.0848670063291479,0.08893463025032133,-6815.653954460977,455.9842277875291,-675.3572296520006,0.01940078935369681,0.024948662299257292
1336,1724559183124139362,-1.3784112930297852,0.1803762763738632,0.1736902296543121,0.0133719211444258,-0.0036970004439353,-0.4504002332687378,0.8927189707756042,0.0,0.0,0.0,-15.653219051644333,0.6589678410510876,-1.6417820484537746,1.636038866,0.1736902296543121,-0.7686694946141904,-3.0725830755879042,-1.3926603737027488,-983.6628212711615,-4714.788380354123,-1769.9002215662438,0.02720875539117147,0.005444694843886778,-0.9344501682010602,1.2342793685591626,-0.0845476811356125,0.08806106867899599,-6728.079924669275,451.689939383819,-667.234675228437,0.8314814379377257,0.6892290661098105
1338,1724559183139951614,-1.3776001930236816,0.1802915036678314,0.1738150268793106,0.0133369602262973,-0.0038559951353818,-0.451516717672348,0.8921546339988708,0.0,0.0,0.0,-17.319946389558414,1.187168230481804,-2.115967984918135,1.651851118,0.1738150268793106,0.005542486270587677,-0.022096773780918857,-0.15793182508785533,48.841182801871994,55.108433769578696,58.24043677553428,0.02728310257863961,0.005163456096819437,-0.9369560322978143,0.12334610917966415,-0.013945016973970326,-0.03859103896464333,2246.459687516134,-121.18898808776189,447.7220509162098,0.034658147489044375,0.025911083823879456
1340,1724559183145112459,-1.3768422603607178,0.1802050769329071,0.1735375672578811,0.0139636006206274,-0.0040901722386479,-0.4512615799903869,0.8922730684280396,0.0,0.0,0.0,-1.7648069615776691,0.3013317721704182,0.9993167480570257,1.657011963,0.1735375672578811,0.25739942318068043,0.030179503493257338,0.10920858052781314,28.321636628501917,3.1313689884424964,28.220347671086582,0.02861447177256474,0.00530339674981935,-0.9363882620957824,0.12312953661055559,-0.013339541700862156,-0.03958368255180922,1890.1141495109775,-108.11507754684773,421.767868128402,0.10081712756948055,0.07462994494723735
1342,1724559183154433379,-1.376094102859497,0.1801380962133407,0.1734073013067245,0.0145755959674716,-0.0047030663117766,-0.4513619542121887,0.8922094702720642,0.0,0.0,0.0,-3.068259225002218,0.3630961992867993,1.8689046682557053,1.666332883,0.1734073013067245,0.17661776416789765,-0.05844071208551849,-0.02407607350905016,-10.136940031634808,-5.416103368744766,-10.394915922569446,0.030259501040618832,0.004765516391576776,-0.9366285839388923,0.07767695381033946,-0.007433147085425418,-0.010208324433998328,286.23315790901233,-47.82831276036593,75.10269066225749,0.05341331471413694,0.04207230746235544
1344,1724559183164268253,-1.3753570318222046,0.1800624281167984,0.173345997929573,0.014694427140057,-0.0051376055926084,-0.4517418146133423,0.892012894153595,0.0,0.0,0.0,4.168256765010437,-0.672375211948292,2.418753669401795,1.676167757,0.173345997929573,0.06166535574248232,-0.06924855235269872,-0.08579006302865846,-10.248547549397687,-0.7953260029965277,-5.296311605302619,0.030862139187212496,0.004110565070393152,-0.9374928013890094,0.06626444433782464,-0.006669939382546897,-0.005138121878173807,-2045.7882556725826,888.9809419238602,-535.2380826610787,0.050580083545226015,0.03829309808048371
1346,1724559183225987223,-1.374629259109497,0.1800473481416702,0.1734530478715896,0.0143248392269015,-0.0049582216888666,-0.4526689350605011,0.8915497660636902,0.0,0.0,0.0,-1199.4576352387758,439.2927341576868,-259.57759463118373,1.737886727,0.1734530478715896,-0.013242935566406735,-0.0007436427643673446,-0.03360246821374746,6851.249669167615,8719.597437550105,-21599.942720200135,0.030036251971473076,0.004127828384218991,-0.9395671195300065,2.387418511427313,-0.33864856421462264,0.8812979256493918,774317.6687155347,-46389.64869602141,-72229.5147686532,0.007148765805403987,0.0067236683708939635
1348,1724559183226340430,-1.3737812042236328,0.1799270510673523,0.1737661063671112,0.0149602442979812,-0.0046446453779935,-0.4538719058036804,0.8909293413162231,0.0,0.0,0.0,-924.3586334634106,422.79940694863245,-285.22698487389073,1.738239934,0.1737661063671112,2.420517582627303,3.096702259749582,-7.706516030695914,736.2340151040739,4960.771449589389,-12826.12343602426,0.030878530360435707,0.005303992356013603,-0.9422547723695419,1.961261144072978,-0.18258846178311217,0.7890595754795129,1165227.4363102114,-470263.22122721694,-849329.105966508,1.6824834390310244,1.1169260029497112
1350,1724559183226908566,-1.3730688095092771,0.1799677014350891,0.1741255074739456,0.0145782371982932,-0.0036402335390448,-0.4556008875370025,0.8900573253631592,0.0,0.0,0.0,90.7307167931067,-231.45138994532607,-1477.5589956915514,1.73880807,0.1741255074739456,-2.785250660354378,2.434492775447706,-6.8625683227320975,-4380.815128346993,756.8386512262059,-3876.699020446111,0.029272778752016927,0.006803735049229309,-0.9461102063675494,1.6939688030934121,0.04022111288878705,0.605004794865863,1683158.0165596486,-781848.9321210174,-1972101.2643751507,0.6709860029938103,0.7788454032818902
1352,1724559183227243914,-1.3724136352539062,0.1799749881029129,0.1743229329586029,0.0143246306106448,-0.0029070023447275,-0.4569713175296783,0.8893613219261169,0.0,0.0,0.0,634.6787639993486,-420.4584952186729,-2113.8451660268697,1.739143418,0.1743229329586029,-3.307772022040441,3.0688260595987726,-9.22401248010442,5978.329705788978,-5007.113696626693,8923.166969113101,0.02814097501804699,0.007921222587184569,-0.949172734790945,1.8354811478063766,-0.16083812975500678,-0.11883746849099452,1313584.852875431,233553.2476897998,239433.18950581132,1.115394541789729,1.1446295422410202
1354,1724559183227678126,-1.371683120727539,0.1798025071620941,0.1738735288381576,0.014706970192492,-0.0038441745564341,-0.4562777876853943,0.8897075057029724,0.0,0.0,0.0,1031.6324685178965,129.13864689504558,-808.510771267874,1.73957763,0.1738735288381576,3.5252641310171673,-2.983913750552382,3.626375408394851,13410.349242517612,2739.237501715529,14644.122458843536,0.029682827640892494,0.006580593228246259,-0.9476361473795333,2.230646550558504,-0.2427147877004927,-1.0115991914704523,512668.26791480347,946071.5376783798,2928329.74790223,1.311197213415769,0.6803326361729781
1356,1724559183227997245,-1.370842695236206,0.1797612905502319,0.1735561937093734,0.0158657263964414,-0.0041281026788055,-0.4555882215499878,0.8900396823883057,0.0,0.0,0.0,1101.063880145717,356.07659699583894,107.70837263997898,1.739896749,0.1735561937093734,7.259170951616853,1.8019617096576148,4.793185430957871,11489.627535911693,14733.833661284874,3587.8101851600795,0.032009956764288534,0.0071081856091244925,-0.946089578782307,2.588369325045763,-0.1269925656952452,-0.9770214534797815,212659.78897721105,698397.7463479851,2820903.1155917845,1.652065196216389,1.457190623450093
1358,1724559183245974781,-1.370098114013672,0.1796708405017852,0.1736022382974624,0.0164927300065755,-0.0043975287117064,-0.456537127494812,0.8895406126976013,0.0,0.0,0.0,-50.907712148961764,7.73372460269411,-6.089207840924928,1.757874285,0.1736022382974624,0.07618467215767166,0.0031973576214798316,-0.11906502805787617,-9425.93166718361,-2839.523148666614,-33191.44894876394,0.03336423944923311,0.00723558952924839,-0.9482270856940558,2.222772062783406,-0.36296874663798917,0.3057030904479916,-11640.99397930145,2366.363502075328,-5491.016593826709,0.028219497306408298,0.020006440032823283
1360,1724559183246272683,-1.3694251775741575,0.1795609444379806,0.1736948043107986,0.0160732809454202,-0.004297190811485,-0.4578878879547119,0.8888542056083679,0.0,0.0,0.0,-54.1167317964867,8.546002372472278,-7.720851109304452,1.758172187,0.1736948043107986,-2.7763776860118994,-0.8562255689589501,-10.169363848016749,-9347.214381604494,-2816.1610702943913,-32931.575608475505,0.03251541407096357,0.007080428238759577,-0.9512633420600417,2.2074556387926276,-0.36056188033100356,0.30350681926881184,-10506.37381545199,2661.0908761271908,-5347.24585932314,1.60975193703839,1.0044417898126181
1362,1724559183258751975,-1.3687808513641355,0.1794202923774719,0.1737082153558731,0.0154716232791543,-0.0043668416328728,-0.4585677981376648,0.88851398229599,0.0,0.0,0.0,-46.33490098933318,7.476760899653405,-6.560085499844279,1.770651479,0.1737082153558731,-0.08018834376247846,-0.05605952252306159,-0.12122806397605103,58.35534214278089,4.09151912215086,228.7178537157527,0.0315043554306087,0.006429621042941069,-0.9527978566107103,0.11938256719633955,-0.009984987356311592,0.02503045081943256,6966.228712638694,-1203.6633928170472,920.6390201961591,0.039094087759377984,0.020708474249427816
1364,1724559183263589970,-1.368076205253601,0.1793743968009948,0.1738742440938949,0.0151062458753585,-0.0045793075114488,-0.4587804675102234,0.888409435749054,0.0,0.0,0.0,-0.7360304009674725,-0.44344704758794584,-0.553745194604632,1.775489474,0.1738742440938949,-0.09364379692430216,-0.1488534378611202,-0.09591521019105095,-0.42317744285487,-11.822262661567162,8.268367763199896,0.031048353239624748,0.005724332347724996,-0.9532842359376652,0.12214024558935677,-0.012479752561917579,0.022842897890854807,6492.028472086642,-1122.1529748229739,865.8074021438862,0.09186823213501091,0.07584357861774688
1366,1724559183274437806,-1.3673230409622192,0.1791662126779556,0.1738429367542266,0.0146633936092257,-0.004955977667123,-0.4584635496139526,0.888578474521637,0.0,0.0,0.0,-1.654698705436564,-0.09158661093099685,-0.29950342003432795,1.78633731,0.1738429367542266,-0.040879581607995555,-0.09812975970064672,0.06763055142278683,21.169831168805487,19.122048502795312,0.15761116188483282,0.030608530401074804,0.004637729441622715,-0.9525838205446323,0.08238895606827157,-0.015533719289086534,0.014365108972372198,5.446263874740865,22.161426397363307,-7.732159813576857,0.05589222844493989,0.024670388847385247
1368,1724559183284382355,-1.366385579109192,0.1790450811386108,0.1741430610418319,0.0165813378989696,-0.0046881991438567,-0.4587336778640747,0.8884067535400391,0.0,0.0,0.0,-0.7788421813179007,0.03513083516034876,-0.660550087937822,1.796281859,0.1741430610418319,0.31829630115560315,0.22372814223050824,-0.06680841738298395,0.8622542189676712,7.5095516930129484,-5.27078398483304,0.03377043307475228,0.006882835017691274,-0.9531762266334777,0.0842555235023994,-0.014712912786491117,0.015780965953354986,85.230619915039,-10.694682227085174,-51.09641087427242,0.06431197895369431,0.04395259365152009
1370,1724559183294967448,-1.3656065464019775,0.1788608133792877,0.1741478741168975,0.016310142353177,-0.0044071869924664,-0.4588728249073028,0.8883413076400757,0.0,0.0,0.0,0.09129543336188561,-0.3421365540054506,-1.368052507022289,1.806866952,0.1741478741168975,-0.06979794331734811,0.02317079225030493,-0.02966994244464352,-19.650236064974408,-9.321164151389446,-0.3631198500180419,0.03302946968760691,0.007138450306758013,-0.9534818669577801,0.06512150454134513,-0.014875184957018561,-0.00025749323234869337,65.47144163209222,-21.89648399468486,-22.628699567964844,0.05679212292004608,0.028400134979920912
1372,1724559183308006573,-1.3648935556411743,0.1787075400352478,0.1741330772638321,0.0161757301539182,-0.0039133909158408,-0.4594276249408722,0.8880592584609985,0.0,0.0,0.0,0.6762248290538491,-0.4068756036490604,-0.9529926800998361,1.819906077,0.1741330772638321,-0.05273948285512982,0.056244485092812276,-0.0965920635737025,25.491381390018553,15.179072034003408,5.875369722802725,0.03233249866559703,0.007912591069458061,-0.9547167141626042,0.0968127723389216,-0.02458554043206007,-0.015732315584692458,-120.85850789074428,44.35734834273738,81.2444478165758,0.041198231421255484,0.022030091963047314
1374,1724559183314179475,-1.3641728162765503,0.1785182803869247,0.1739933043718338,0.01692152954638,-0.0036482876166701,-0.4594932198524475,0.8880125880241394,0.0,0.0,0.0,-0.5541069552967748,0.011074444278411033,-0.30707847624341483,1.826078979,0.1739933043718338,0.1752875733941714,0.18688927755062476,-0.028155541912484986,20.93724496109401,9.940679050132594,8.070317880562914,0.033413380921285554,0.009071329946824948,-0.9548525632354612,0.09586053142880857,-0.02610988019346472,-0.020931784703595024,-80.0054339594275,38.427422194724564,95.87650805717647,0.09268179889784801,0.04293412525916567
1376,1724559183329770801,-1.3635011911392212,0.1782903671264648,0.1737343370914459,0.0156742203980684,-0.0038783447816967,-0.4596558511257171,0.8879503607749939,0.0,0.0,0.0,2.896795161801057,-0.5428323001154671,0.8427727997711705,1.841670305,0.1737343370914459,-0.1284633343918943,-0.10010729658480004,-0.021110219272807186,-6.429464919095986,-3.3584034830571934,-6.574658614900207,0.03140731864091513,0.007522009872523013,-0.9552321527990137,0.07147531722797851,-0.015776561145303347,-0.004642257281901152,0.9084572697177862,16.0242013615824,40.975736863981226,0.036932089992185765,0.013295529833421346
1378,1724559183337785608,-1.3628113269805908,0.1781591475009918,0.1737464368343353,0.0151069145649671,-0.003870764747262,-0.4600273966789245,0.8877677321434021,0.0,0.0,0.0,1.995907705175327,-0.20200926220194892,1.0361560160566399,1.849685112,0.1737464368343353,-0.12621689996692012,-0.065021337367451,-0.10275454683362999,7.020775981597111,-7.486062380218749,0.8830706440885683,0.03038960570875154,0.007026566895556952,-0.9560713465049362,0.11307139631784935,-0.025094367793812467,0.0012801173681928901,-399.6924618683838,107.53991033580941,1.750194906113279,0.06300439462049393,0.03623826334393958
1380,1724559183343607593,-1.3620388507843018,0.1779761612415313,0.1737529188394546,0.0147479800507426,-0.0042027472518384,-0.4601662456989288,0.8877003192901611,0.0,0.0,0.0,-1.54607533988404,0.6990452606636945,0.9517063698547519,1.855507097,0.1737529188394546,-0.05683576444637961,-0.15877800610425966,-0.050798089167437555,10.628395308117105,-4.533195628258145,3.905348815283109,0.0300565845868162,0.00611152311336863,-0.9563949332909366,0.11118377572254445,-0.022208127463143157,0.008569607526635714,-408.0658893479523,68.61275272724062,-72.10132687197006,0.10216098585253842,0.05078868617988877
1382,1724559183355066370,-1.3612496852874756,0.1779296696186065,0.1740192770957946,0.015065811574459,-0.0040318118408322,-0.4607674777507782,0.8873839378356934,0.0,0.0,0.0,-1.704300678946712,-0.4577913715577798,-1.1734532119942251,1.866965874,0.1740192770957946,0.035888576899452726,0.05023191015353705,-0.11923762336936435,5.625888537822743,11.865299154826191,-3.834181140894444,0.030459172846820683,0.0067281926255050445,-0.9577433696434603,0.06591113216630617,-0.009612959900387352,0.012701044985631071,98.3362528149436,-93.2824689862521,-93.95613259631735,0.0427865850294789,0.03581817928054025
1384,1724559183367002667,-1.3604997396469116,0.1777458488941192,0.1740397810935974,0.0157620795071125,-0.0036220825277268,-0.4614883065223694,0.8869988322257996,0.0,0.0,0.0,0.863842663884852,-1.4758234053560502,-1.1571922997657826,1.878902171,0.1740397810935974,0.07237801141929624,0.11259644204052538,-0.1384141397120612,-5.08107039150417,-19.566698322155336,4.582184427314752,0.03131113833595764,0.008122554128533946,-0.9593531058817966,0.07350184765840595,-0.03443613582300564,-0.020378975625733986,47.21909102069043,69.82464305668182,138.7469730277003,0.04866137210581355,0.0234237372288326
1386,1724559183375419491,-1.3598177433013916,0.1773430258035659,0.1737371087074279,0.0153063377365469,-0.0043253051117062,-0.4617372453212738,0.8868741393089294,0.0,0.0,0.0,0.2645689929655415,0.03248944617893956,0.8260060907167384,1.887318995,0.1737371087074279,-0.018688682596564258,-0.1992325252068062,-0.0631159122209118,-1.8799338670923507,-14.133128480367722,5.287583795979984,0.031149586761386815,0.006463054943177231,-0.9599365144983164,0.08212530725884903,-0.043274191742096235,-0.020538516932642636,-104.34319504422783,150.00395791500895,139.39445622817374,0.08591004482242892,0.00806778999241643
1388,1724559183383970614,-1.359105944633484,0.1770128160715103,0.1736954599618911,0.015231030061841,-0.0048655997961759,-0.4619327187538147,0.8867709040641785,0.0,0.0,0.0,-0.9156204921719722,1.0615306615858338,1.1819924108516935,1.895870118,0.1736954599618911,0.04289972705716412,-0.12100966103313769,-0.04968522337609557,2.3136585718074,1.3780150410238292,6.064389461140453,0.03151371052096878,0.005442104454277945,-0.9603936895480576,0.07778528230157633,-0.03359176991169832,-0.006134582536635236,-65.01435951332677,50.402146854638744,-38.39849251364013,0.0793810757261323,0.01619236603574507
1390,1724559183393672738,-1.3584113121032717,0.17674221098423,0.1736220270395279,0.0148463808000087,-0.0057267392985522,-0.4616943001747131,0.8868963718414307,0.0,0.0,0.0,-0.742794955407863,0.7806601802635199,-0.07151631608889675,1.905572242,0.1736220270395279,0.011531863290780939,-0.1931687737232411,0.058619725209827424,-4.9373314791058425,2.8349355797384685,-1.0156701129802101,0.03162788043666293,0.0035509376368235606,-0.9598842925448922,0.06440963184508774,-0.02407168141081506,-0.00019781896883053207,51.865226061889004,-25.02676083672971,-80.8058761152535,0.06394143908308672,0.018412006604976935
1392,1724559183406120833,-1.3577243089675903,0.1765035688877105,0.1737372875213623,0.0144435763359069,-0.0054571852087974,-0.4625161290168762,0.8864763975143433,0.0,0.0,0.0,0.44668235861398786,0.5317738349642679,-0.30449015472575164,1.918020337,0.1737372875213623,-0.07714733946727272,0.006183717529681915,-0.14853227227677954,12.249895459693834,13.16730463940281,13.788943767676118,0.030660863346935505,0.003685450606121779,-0.9617299214809576,0.06531835003288222,-0.017557421271876095,-0.01200313098879846,67.48684616981441,-56.016623294385404,76.8850352640171,0.047263227498655816,0.015642918987192802
1394,1724559183416256707,-1.3569786548614502,0.1763389259576797,0.1734401434659958,0.015638668090105,-0.005438121035695,-0.4614123404026031,0.8870313167572021,0.0,0.0,0.0,0.899070232566825,-0.33330413350865695,1.263813027448034,1.928156211,0.1734401434659958,0.20691095920674693,0.11614589993093237,0.24237563778686474,3.3519948754439177,6.872282830587429,3.938856242613504,0.032768648045688055,0.004784199813074012,-0.9592371769328739,0.07292991628098378,-0.012097606943246575,-0.009775428889028603,-0.8229430423315733,-79.87445260340112,82.06004778333954,0.055676554922297415,0.029649047783023363
1396,1724559183426342909,-1.356249451637268,0.1762585192918777,0.1735376715660095,0.0159481987357139,-0.004765760153532,-0.4616937041282654,0.8868833184242249,0.0,0.0,0.0,0.4345453876049694,-1.083995861376445,1.3621358008596374,1.938242413,0.1735376715660095,-0.006917931104434659,0.14554961946860975,-0.06544877587116879,-26.9393146096438,-21.934094022766658,-27.60733361593273,0.03269549384749043,0.006273060679465149,-0.9598490076500001,0.08348473811433621,-0.024211110403330238,0.013450328215173002,-67.70988945972002,6.738907995444109,-71.55429227668398,0.04794103782970702,0.03472051752849111
1398,1724559183434059332,-1.3555392026901243,0.1759758293628692,0.173663780093193,0.0147985396906733,-0.0048897806555032,-0.4626022279262543,0.8864288926124573,0.0,0.0,0.0,-0.2157680608285948,-0.5528348739483315,0.3300288021902116,1.945958836,0.173663780093193,-0.2486738939369681,-0.17039943503437552,-0.2612877065538026,-8.051920842326505,-15.621715746700254,-12.543064573541521,0.030764994040227697,0.005022810278508028,-0.9619057460121715,0.0832254705592348,-0.03188497001466217,0.018408437623506302,-42.18603305395914,42.12224523015286,-135.24988806581092,0.08261298041078632,0.022239114292783965
1400,1724559183445299285,-1.3547481298446655,0.1756952106952667,0.1739045083522796,0.0151911452412605,-0.0046410127542912,-0.4635520875453949,0.8859272599220276,0.0,0.0,0.0,-0.0008134588009234278,-0.516737488408086,-1.2146552271970978,1.957198789,0.1739045083522796,0.04194237185718719,0.06861698594050697,-0.1921076657903959,8.776886543833793,8.738589609173964,5.737485515131474,0.031224811532095314,0.005860608300968966,-0.9640401604295465,0.07781770606567306,-0.030867940738607658,0.0170013824205153,27.88355174110513,-5.050307936015123,-119.51955124661808,0.060514531283052286,0.01915051087682091
1402,1724559183455397565,-1.353894829750061,0.1753299534320831,0.1740361303091049,0.0151864923536777,-0.0043800687417387,-0.4641663432121277,0.8856070637702942,0.0,0.0,0.0,0.3602326941308731,-0.6426929649739217,-2.259121655390553,1.967297069,0.1740361303091049,-0.024374424918930358,0.043215929209508834,-0.13795535052783187,1.7901664618864213,-11.880339837033105,17.151148398190905,0.03097026379597683,0.006340120084763299,-0.9654191560805999,0.08216710481909217,-0.04159515461232477,-0.005148855709645517,46.32549800076166,7.815029469767371,23.145249028283885,0.07774448836750461,0.01806838745171622
1404,1724559183466687777,-1.352996587753296,0.1747918576002121,0.1737484782934188,0.0151400240138173,-0.0057086064480245,-0.4631587266921997,0.8861276507377625,0.0,0.0,0.0,1.0167093133833047,-0.2983677101007389,-0.40006718520613094,1.978587281,0.1737484782934188,0.10132977813804989,-0.20912787984515002,0.20449051246770578,4.420841764727535,-18.801684836855618,26.438091998109968,0.03212574048848034,0.003907370389759328,-0.9631859667035286,0.08534462442939628,-0.04355490174574861,-0.031483573044033264,-18.50490266651948,25.61769915946798,185.48723715900792,0.08464978420179366,0.006922642472032718
1406,1724559183476104741,-1.3521474599838257,0.1744139492511749,0.1734048277139663,0.0147236976772546,-0.0074304798617959,-0.4614158570766449,0.8870307207107544,0.0,0.0,0.0,0.2403959771266102,-0.09545666054880986,1.5102417496656289,1.988004245,0.1734048277139663,0.09023274909771739,-0.35830708496721314,0.4228784446497534,-6.8944798393969915,16.45293519183321,-20.694020699706982,0.032983809863535135,0.00040536736320639027,-0.9593157125062983,0.10069412630603836,-0.04734477293327011,-0.02007244935333219,1642.3407933432625,-1013.344988004088,684.8304628758639,0.08463851093539587,0.019900408723887944
1408,1724559183484467977,-1.3512271642684937,0.1739644110202789,0.1733589172363281,0.0147263668477535,-0.0073356637731194,-0.461697369813919,0.8868849277496338,0.0,0.0,0.0,26.786328721507655,-16.25687699658645,10.817448953204568,1.996367481,0.1733589172363281,-0.009883058144508816,0.01915721640991682,-0.07614217917249223,-8.970088406500984,34.690958376745975,-44.92853878865623,0.0329008399403295,0.0005864704438273407,-0.959946821486846,0.09238356423490224,-0.04586292097121092,-0.005225011280592495,-2086.7328618295846,1154.4625510105247,-789.3920298318918,0.10714979999906507,0.019253284355423443
