seq,stamp,px,py,pz,ox,oy,oz,ow,lx,ly,lz,ax,ay,az,timestamp,wx,wy,wz,aa_x,aa_y,aa_z,roll,pitch,yaw,vx,vy,vz,jx,jy,jz,forward_velocity
1020,1724560271442324281,-1.5621095895767212,0.2069709748029709,0.1524454057216644,-0.0721923038363456,-0.0361871905624866,0.4628224372863769,-0.8827651143074036,0.0,0.0,0.0,-348.59185534579495,353.13068520602167,188.07294474819227,0.0,0.0,0.0,0.0,25093.370284625933,-1414.7533699568698,-552.5567039860784,0.09491681673774227,0.13108913961369137,-0.9595412963827074,0.4647045222992733,-0.3789136296972478,-0.060400488268681975,-32208.76654578972,17771.551544226833,-9150.803850437283,0.0
1022,1724560271442646479,-1.5619598627090454,0.2068488895893097,0.1524259448051452,-0.0733070075511932,-0.0355215817689895,0.462899774312973,-0.8826596736907959,0.0,0.0,0.0,-358.9694555093153,358.85664357046846,185.12457404918908,0.000322198,8.085033718965907,-0.45583070629336353,-0.1780326649109065,11866.51924417187,1966.2841899793455,-2101.8524510285897,0.09751240684267137,0.1309484489896386,-0.9596130379356094,0.35238892369056884,-0.26513562918523803,0.0001962383832960768,-16056.740613639413,1400.243053960905,-17877.396345998248,0.5799302758270561
1024,1724560271443011014,-1.561877727508545,0.2067991644144058,0.1524510085582733,-0.0745553821325302,-0.0352221764624118,0.4631770253181457,-0.8824217319488525,0.0,0.0,0.0,-358.1610369243741,352.614978822549,175.00848427284566,0.000686733,6.955577603104735,1.6554072847145251,-1.5832154035246042,-3011.2423725260214,5576.7632899449545,-3710.094305346875,0.09997999981586791,0.13160588398795972,-0.9601324854313683,0.21725190660488103,-0.13195823637731563,0.06646461340307719,3418.8525066837265,-17784.610631847296,-27409.581924006347,0.22984596841925567
1026,1724560271452766202,-1.5618633031845093,0.2066732943058014,0.1525013595819473,-0.0758725702762603,-0.0344022847712039,0.4633215963840484,-0.8822658658027649,0.0,0.0,0.0,-11.23494081930871,6.214015556724148,-3.3348947364689647,0.010441921,0.31958035158056125,-0.02433321964283461,-0.018911925977908313,-332.84318977894566,-83.32631269883,79.37648453685507,0.10307010520814008,0.13138842230939016,-0.9603418472201162,-0.0005294416010599434,-0.012757236273381878,0.003673514455249993,18223.6159496702,-18424.58341530515,-8876.570155593094,0.010645440433867401
1028,1724560271462504304,-1.5618879795074463,0.2065504789352417,0.1525226682424545,-0.0778869166970253,-0.0335074253380298,0.4635287225246429,-0.8820158839225769,0.0,0.0,0.0,-2.3307956231186284,-7.124080214164249,1.6538105284152094,0.020180023,0.4555074839645579,0.028069334646479444,-0.03314176071105013,4.312871070650566,2.992285848080163,-0.7409882397799301,0.10746721223298147,0.13169414837274154,-0.9606365343386631,-0.002132679259364778,-0.010621598188396586,0.001350641538790498,743.2445788802501,-484.1280217703613,222.7655310171075,0.008519870976529674
1030,1724560271481913020,-1.5619138479232788,0.2064213156700134,0.152516484260559,-0.0792739763855934,-0.0327214561402797,0.4637551307678222,-0.8818027377128601,0.0,0.0,0.0,5.475325934236537,17.735404676641565,-5.222142204629051,0.039588739,0.16610224332483745,-0.006263945585058795,-0.019661428468579482,39956.673190401714,-3749.4634680838412,-3893.97599793149,0.11063905335652208,0.1316148188924669,-0.9610324724134239,-0.13116383489796135,-0.43295455170562036,0.10665041728429969,1246.2182400250022,4114.412336398469,-1027.59417594134,0.004693541760910336
1032,1724560271482204961,-1.5619527101516724,0.2062930464744568,0.1525480896234512,-0.0807380750775337,-0.0317783840000629,0.4639757871627807,-0.8815883994102478,0.0,0.0,0.0,5.842854487530291,18.94901339679096,-5.525095840147117,0.03988068,12.006620698250654,-1.117343321022304,-1.1735753526770585,39391.820355113116,-3696.3681094808962,-3838.435905492132,0.11409444535373305,0.1313291207832612,-0.9614129448854388,-0.12951212512002108,-0.4276034238105727,0.10507910334737897,1224.9964673491086,4045.3915331062985,-1006.4611268741027,0.2674671904087308
1034,1724560271492345862,-1.561996340751648,0.2061004936695099,0.1524934023618698,-0.083836905658245,-0.0298777241259813,0.4636500477790832,-0.8815369009971619,0.0,0.0,0.0,6.3178500614536945,20.646167295452464,-4.719653838751638,0.050021581,0.711487009767981,-0.04139301450278128,0.10160941180769106,-584.6093586052602,58.65106898719911,58.40232365373066,0.1214379450336704,0.13079117737182436,-0.9604304335432805,-0.005032784702621029,-0.017210618984503157,-0.0012511207533671964,-268.73690230470316,-873.9743961301692,294.95514220425275,0.01368475104170556
1036,1724560271502865951,-1.5620572566986084,0.2059388309717178,0.1525254398584365,-0.0855367109179496,-0.0293324664235115,0.4637646675109863,-0.8813316822052002,0.0,0.0,0.0,0.0466839784754855,0.0873515640356054,0.7354781295194819,0.06054167,0.33685633381445346,0.05778888589225464,-0.018952728398857352,-13.987548387157169,6.589605673664712,-10.548147030815212,0.12496548307135273,0.13141903488948617,-0.9605547810593467,-0.0035812949148947837,-0.016347439879263348,0.012020646327291828,-280.0682579692663,-919.8051400759658,203.9960603040644,0.008796093608943354
1038,1724560271512178681,-1.5620723962783811,0.2057785093784332,0.1527113765478134,-0.0873077362775802,-0.0289379823952913,0.4642283022403717,-0.8809269070625305,0.0,0.0,0.0,0.04393987082389307,0.04929838393435315,0.04212298548071525,0.0698544,0.3848562554943658,0.09575773770541957,-0.10966601141765772,-11.880881085260507,-1.7343581158211565,-2.1384276445367147,0.12843007256671166,0.13243270984140532,-0.9614631417694581,-0.0038991216888746294,-0.015490257141186348,0.014532936148263786,14.512398005495584,-3.2647492714329687,-42.80569756509086,0.010434780248079036
1040,1724560271522833748,-1.5621416568756104,0.2056344896554947,0.1527999937534332,-0.087554931640625,-0.0288615375757217,0.4644196927547455,-0.8808038830757141,0.0,0.0,0.0,0.3790816609936737,0.024525825028780424,-0.028173111362480352,0.080509467,0.05059157235585326,0.006431302337806139,-0.039771633757397715,0.07374651800447296,3.1085414852100532,3.2346569505685903,0.12891426514197277,0.1325550204447073,-0.9618780926231022,-0.002479220195695575,-0.015486088975189105,0.012206547021360592,7.068920340272429,10.768793773304036,20.30679230692231,0.006205296989647629
1042,1724560271531601088,-1.5621343851089478,0.2054845094680786,0.1529350727796554,-0.0888614729046821,-0.0287591256201267,0.4645464420318603,-0.8806096315383911,0.0,0.0,0.0,0.2651437767358712,0.21339854428468902,0.34395203495128374,0.089276807,0.2780853957591543,0.11658895811355628,-0.035399570036595544,0.04927693733900318,4.614187258686854,-2.3324792820445848,0.13132891745930012,0.13360884933979456,-0.9620549103476704,0.002617683938872517,-0.01509695412526213,0.013331392506099604,-16.417438252318565,17.854751579975368,27.020439830076654,0.012326374942500641
1044,1724560271542675103,-1.5620803833007812,0.2053454369306564,0.1530536711215973,-0.0885828956961631,-0.0292992256581783,0.4649967849254608,-0.8803820610046387,0.0,0.0,0.0,0.0354752670557974,0.35953601572761285,0.42743196854800813,0.100350822,-0.0836274112503763,0.056480299364584985,-0.10083047443900386,-8.866844156403284,-6.197961987109774,-6.088583663416409,0.13026456344758763,0.13437457346418574,-0.9630894954459149,0.0011309148798943625,-0.010369680515728064,0.02015677784099168,14.499684194935217,-0.9191155537125937,-45.24291352553763,0.011541554080363866
1046,1724560271551878229,-1.5620986223220823,0.2052667438983917,0.1533114314079284,-0.0886156857013702,-0.0293017048388719,0.4656426310539245,-0.8800373077392578,0.0,0.0,0.0,0.43843727573172403,0.24311716962566327,-0.3926319583370672,0.109553948,0.016771900182452074,-0.0064499917326055305,-0.15824175327085432,2.9952560750587462,-2.125281835188872,-2.665840192599588,0.13022258016163765,0.1345048694034029,-0.9645544865868282,0.0027555671368730827,-0.007575891781478106,0.022645641832468755,33.55403565589765,-13.907223905506463,-73.00438567342651,0.0020885792998835153
1048,1724560271561422785,-1.5620254278182983,0.2052040845155716,0.1534744948148727,-0.0885006710886955,-0.0295213386416435,0.4662523865699768,-0.8797186017036438,0.0,0.0,0.0,0.6574195100760739,0.0979333187489583,-0.9300311644009207,0.119098504,-0.03297770621106353,0.01991396155985016,-0.14832410097451387,1.092507753031997,3.3097760980018704,2.8880317657089947,0.12972092817922617,0.13487680885498146,-0.9659461480073543,0.009532759193994877,-0.005853843377054524,0.012334656627120744,2.469003443965752,-13.25188780901891,-26.453673288943133,0.007374997447660354
1050,1724560271573418491,-1.5618829727172852,0.2051445841789245,0.15355084836483,-0.0890719518065452,-0.0297147538512945,0.4666822850704193,-0.8794264793395996,0.0,0.0,0.0,0.378361688194104,-0.03149364928277515,-0.7973240167419212,0.13109421,0.0751819318778412,0.06787253594341,-0.08580484740316535,-2.4108526287503107,-4.43956713913245,1.1506628643771295,0.1304982010144228,0.1358176604331205,-0.9668696175316192,0.016625368769041415,-0.005922692229145099,0.0034437822697839238,-32.520897191235726,2.81231261623427,22.411316737166786,0.009865062471864987
1052,1724560271581726853,-1.561717510223389,0.2050898373126983,0.1535626500844955,-0.088986836373806,-0.0297079961746931,0.4670513272285461,-0.8792393207550049,0.0,0.0,0.0,0.054892871457568826,0.07014288991284573,-0.5458185380359957,0.139402572,-0.010606783882671089,-0.0175665620824997,-0.09961441412079818,-5.039679040104727,-9.361326586197766,4.989123894971096,0.13029533952564737,0.13578054885043778,-0.9677169035436232,0.018543804955939436,-0.006332554478676755,-0.003503802530800293,-20.71254977437499,13.44892319589923,42.292981696366496,0.01637628140103283
1054,1724560271591906255,-1.5615458488464355,0.2050285786390304,0.1534655690193176,-0.0887690261006355,-0.0292294062674045,0.4669451117515564,-0.8793339133262634,0.0,0.0,0.0,0.07129234073268897,0.22220911524270137,0.03462988749100816,0.149581974,0.004017083148217904,-0.10135802056874865,0.034124972135350894,-1.0822348713013277,-2.3982381869314553,3.830996795597265,0.13036488174625147,0.13471241997873634,-0.9675048110362144,0.016907402801749072,-0.004128483735469146,-0.005438130583091727,6.857943436756214,1.5265316572425023,24.772184858515622,0.015672536316309615
1056,1724560271605425318,-1.5613164901733398,0.2050066888332367,0.1534656435251236,-0.0883293747901916,-0.0292817000299692,0.4674339294433594,-0.8791165947914124,0.0,0.0,0.0,0.2582102376628197,0.0020403695289232804,-0.20949696304974458,0.163101037,-0.055838132941550045,-0.02904774245166101,-0.08118944552901242,-37.562052601169356,-5.08662088648951,-4.859433701527195,0.12945571563881836,0.1344651925058363,-0.9686542659075131,0.022037501275917748,-0.0010223270076181734,-0.0009364456380804853,-3.279957773189805,-3.4954584611567467,-8.43682580153321,0.010844334633019672
1058,1724560271612572416,-1.5611398220062256,0.2050016373395919,0.1534553915262222,-0.086731344461441,-0.0297353714704513,0.4677399396896362,-0.8790977597236633,0.0,0.0,0.0,0.17013323929341206,0.025385559691047666,-0.23344283369956104,0.170248135,-0.4494949460856494,-0.10483182823461273,-0.10205216014405148,-15.029514594122004,-5.381647685475239,4.077342805225643,0.12613262616552823,0.1338150260695455,-0.9694806722461863,0.023424776552673165,-0.001868174643943732,-0.00448348928450315,-6.790098279833802,12.071514070719074,10.804156893194062,0.014628113216559189
1060,1724560271622656007,-1.5609220266342163,0.2049662768840789,0.1533668041229248,-0.0863985046744346,-0.0294163525104522,0.4676012396812439,-0.8792151212692261,0.0,0.0,0.0,0.18038555806901635,0.27237666735837385,0.07687335741142956,0.180331726,-0.03127537062969362,-0.08480936323066608,0.038596840648798564,17.913756058658937,12.47239865433451,0.20071343450917123,0.12585465879540234,0.13291773308956514,-0.969199638056236,0.024799318473370136,0.00043264660499708896,-0.0030979927490708548,-25.516594143601136,3.530723938662206,13.914246624736442,0.016146182638104963
1062,1724560271631248196,-1.5606855154037476,0.2049988359212875,0.1533818244934082,-0.0864016786217689,-0.0299133453518152,0.4677859246730804,-0.8790997266769409,0.0,0.0,0.0,-0.23311817550422576,0.14923075564475377,0.07298795172238998,0.188923915,-0.049859519430826366,0.09913323458575612,-0.06032980984780669,1.1769682017348104,8.424535833949585,-1.7367542260210458,0.12537155888159104,0.13382772072566773,-0.9696107643896078,0.02667188421489186,0.0030965767651487397,-0.0028806284280467054,-34.11932976578686,-10.313876812907527,13.063491604545522,0.012099951438142116
1064,1724560271641596503,-1.5604201555252075,0.205022245645523,0.1532943248748779,-0.0864856466650962,-0.0299957357347011,0.4675774574279785,-0.8791995048522949,0.0,0.0,0.0,-0.41163117853363884,0.0925827241247254,0.3766237925671827,0.199272222,0.003946204525728217,0.024493987811374296,0.04354942734213118,2.4651083338079234,-5.136443002837652,1.8470679619015495,0.12547689654707583,0.13402281153896575,-0.9691275239804348,0.018637833014601313,0.0026366291275650156,-0.0015309488710029129,11.2403334937237,-6.189113778280885,-2.949662349621291,0.01366580545534255
1066,1724560271656317562,-1.5602924823760986,0.205068901181221,0.1534167975187301,-0.086326889693737,-0.03006905131042,0.4682307243347168,-0.8788648843765259,0.0,0.0,0.0,0.350479674796389,-0.013500344072543746,-0.34302732490665044,0.213993281,-0.017026583666618147,-0.007639828990382209,-0.10079651325896255,11.693330103285962,-1.4438409094684586,1.7381225153626758,0.1250257996938481,0.1340965947966932,-0.9706272515581903,0.020216252727010442,0.006869152342016349,0.009169133006448504,-22.569261800980126,-24.466690568152885,-69.57340765986591,0.0011500392364344287
1068,1724560271661556537,-1.5601650476455688,0.2051117867231369,0.1534664183855056,-0.0864625424146652,-0.0299688335508108,0.468400776386261,-0.8787643313407898,0.0,0.0,0.0,0.09363692148844693,-0.1738622357938902,-0.7460918851583794,0.219232256,0.0686925139954366,-0.013826226786010434,-0.07016806198541672,8.330728159201445,1.686257365002557,4.3599026342653815,0.12533525372238855,0.13407061879788318,-0.9710043826569664,0.022505951949568725,0.0062371928872169136,0.0053772653728918485,-52.2039320283417,-20.609984791466985,-37.958633328205686,0.005644718227705041
1070,1724560271672298167,-1.559963345527649,0.2051358669996261,0.153434008359909,-0.0865349024534225,-0.0303601622581481,0.4686310589313507,-0.8786210417747498,0.0,0.0,0.0,-0.5371224295781668,-0.17502099123046178,-0.2954013295497265,0.229973886,-0.018697491874119183,0.06743159371585632,-0.05607114743953065,1.0012281949584647,0.36374333656741487,6.067818788010763,0.12506581715174536,0.13486449806656456,-0.9715162123152152,0.015948451004163644,0.0031971720259047487,-0.003128362430482312,-18.366464817711964,-5.771811833575471,48.983037581217644,0.00906667057437327
1072,1724560271682044039,-1.5598329305648804,0.2051754742860794,0.1534025371074676,-0.0868658795952797,-0.0302083175629377,0.4684454202651977,-0.878692626953125,0.0,0.0,0.0,-0.3592877526795641,-0.28135524618995933,0.24410499030477933,0.239719758,0.07185236683554867,0.00730219120736668,0.04511478538061538,4.8088546001615295,-1.936583340359587,3.216104937550965,0.12582648820385206,0.1348800977871738,-0.9710670297021957,0.01136234250795809,0.0024463506605947316,-0.0016176061231991667,22.463288409594,-6.665883753287462,33.18430260122045,0.004594121451949987
1074,1724560271693341818,-1.5597310066223145,0.2051819264888763,0.1534053683280944,-0.0873068198561668,-0.0302386712282896,0.4684983789920807,-0.8786195516586304,0.0,0.0,0.0,-0.050284918987312355,-0.30107142727358455,0.3286168682855462,0.251017537,0.0674786547724629,0.04086381280391131,-0.012406485256624127,-6.351464106025042,-4.004542830333964,-2.150655806249011,0.12657782284223154,0.13535571673382346,-0.9711485808439717,0.008760622338982671,-0.0034082170219331687,0.0023070326256640072,13.32770435039788,22.59781317843065,-8.46055337586993,0.004543811727222174
1076,1724560271701903652,-1.5596576929092407,0.2051269263029098,0.153438463807106,-0.0871314331889152,-0.0301489159464836,0.4685536921024322,-0.8786106109619141,0.0,0.0,0.0,-0.02716312717032715,0.05035516147499561,0.15274705450248044,0.259579371,-0.0256007701525827,-0.03868049105744533,-0.01173932914037201,-0.7055036007704039,-1.4712086330481287,-0.40079366007645845,0.12633940214967612,0.13503987627755556,-0.9712914483037807,0.009498017970344108,-0.004577080456693139,0.00499884283060581,1.0814478769718203,26.428391812504426,-15.428481912275409,0.009522423978385727
1078,1724560271711623571,-1.5595550537109375,0.2051028162240982,0.1534995585680008,-0.087544597685337,-0.0301184430718421,0.46864053606987,-0.8785242438316345,0.0,0.0,0.0,-0.03451793243114287,0.14593998374248868,0.05919982093002421,0.26929929,0.07971927170742918,0.03330336296881048,-0.02091747104931091,-0.7389039910029251,3.8120131404643125,-0.009112040994232795,0.12709238986231897,0.1353866765345126,-0.9714536766014062,0.007983890060401677,-0.002025528325102499,0.004699787644421249,7.228748886618063,-1.3063185012089993,0.36832714588623894,0.007083232012223899
1080,1724560271722369740,-1.5594998598098757,0.2050864547491073,0.1535312235355377,-0.0873121991753578,-0.0304376482963562,0.4686617851257324,-0.8785250782966614,0.0,0.0,0.0,0.1380364131099196,-0.0004524747859630529,0.18187783484374503,0.280045459,-0.06573380656965351,0.03157084042895604,-0.009905096569407214,1.7103229849252561,3.8650400463634926,-1.9103866479308753,0.12637745994261626,0.13573668539957615,-0.9715170272234793,0.009053591382681248,-0.0018421453639856367,0.006404837254137874,3.1824597093723934,-5.420674202190086,4.005831355583917,0.0037173070014034923
1082,1724560271731686336,-1.5593838691711426,0.2050667107105255,0.1536188274621963,-0.0878235772252082,-0.0307080876082181,0.4688417613506317,-0.878368616104126,0.0,0.0,0.0,0.06369352442892318,0.015295167633787535,0.1593453187105923,0.289362055,0.07334287797214757,0.10010078542373216,-0.05141126294707734,3.388461095467121,2.37172646498866,-1.7289399625325381,0.1270117799597445,0.13672232240146445,-0.9718776161680861,0.010650543331763629,-0.001987852733574158,0.008286807739422919,-9.31397663886354,1.5725252526595328,-7.569630298430906,0.00740556610760536
1084,1724560271742598295,-1.559290647506714,0.2050466984510421,0.1536949872970581,-0.0877988636493682,-0.0311186090111732,0.4689754843711853,-0.87828528881073,0.0,0.0,0.0,-0.05499397500253933,0.030949551454510976,0.010912201396081733,0.300274014,-0.037161563350125826,0.06228343562729407,-0.035435944049333534,-7.397984387552961,-0.25479960273344027,-2.782590049840492,0.12656522544848467,0.1374454059924002,-0.9721781270097231,0.0099689008726358,-0.0014255910196432353,0.009480403918892932,-8.054734571308591,1.8891602087247437,-18.552419556036376,0.0053131401052685144
1086,1724560271752390708,-1.559180498123169,0.2050363272428512,0.1538098007440567,-0.0876174643635749,-0.0317366421222686,0.4693544805049896,-0.8780787587165833,0.0,0.0,0.0,-0.10906946810720053,0.053443470527782186,-0.21425673789762134,0.310066427,-0.08562460788088595,0.08800467687112096,-0.10000227279579349,-0.3360807213440974,-0.5385830615300213,-0.27587691765821154,0.1256069272673311,0.13842347497481314,-0.9730494456764761,0.009496052205136607,-0.0013033502654504758,0.008721915118727885,-2.679522622389195,-1.4658353850639985,-15.889450679801808,0.005519151274462154
1088,1724560271764627915,-1.559091091156006,0.2050166428089141,0.1538706123828888,-0.0876078307628631,-0.0319727435708045,0.4693694412708282,-0.8780632615089417,0.0,0.0,0.0,-0.09838832287718113,-0.022038109542603185,-0.3000503871317224,0.322303634,-0.019194200501711008,0.033009999449908546,-0.006766701409937434,1.2315423429147763,-0.8050995437141406,2.660838036696829,0.1253676584258612,0.13883463809437493,-0.9730815008387728,0.007231842134501676,-2.2971868958165942e-05,0.004008015073949878,-0.6265055115242717,-8.868199457331935,17.6998497017414,0.004701193493749589
1090,1724560271772092481,-1.559037446975708,0.2050236910581588,0.153896152973175,-0.0875880122184753,-0.032170370221138,0.4693826735019684,-0.8780508637428284,0.0,0.0,0.0,-0.10989190121568179,-0.10052927804436408,-0.05541315994156171,0.3297682,-0.02911157434797104,0.04379722158723203,-0.009480836249528793,5.503992015729172,-1.598210089498487,2.743008603635972,0.1251462253769809,0.13916782497780686,-0.9731110381474031,0.006891907045229573,-0.0007642352167867017,0.0021560289747846184,-4.0547591408945545,-2.4483637450802584,30.621956075176293,0.0027573417417679617
1092,1724560271781488732,-1.558976173400879,0.2049963027238845,0.1539014428853988,-0.0880067273974418,-0.0318907089531421,0.469182401895523,-0.8781262040138245,0.0,0.0,0.0,-0.17772264220622563,-0.028122015924125932,0.20687467451150018,0.339164451,0.10341989840415401,-0.007215963106610199,0.053037593765397,-0.27572258098738356,0.13572770386732014,-0.875853914001214,0.12618601185830822,0.13903808829821152,-0.9726203317895414,0.0050981905670823835,-0.0017233226076758257,0.003914461230627886,-0.37800423754904156,4.362819808092272,16.97065689997187,0.005944240189886614
1094,1724560271791926805,-1.5589394569396973,0.2049921303987503,0.1539811640977859,-0.0878398790955543,-0.0323419049382209,0.4693433046340942,-0.8780404329299927,0.0,0.0,0.0,-0.10234511921334594,-0.02134781787590466,0.2571220064311486,0.349602524,-0.06620519844776297,0.058727220595583475,-0.04341115201221651,-6.905950868520158,2.910106773089152,-3.800622313764993,0.12544268819208984,0.1397031053776535,-0.9729966274086398,0.0033958711464094904,-0.0011593903137852024,0.006302643776053607,3.7686155172259554,2.857955517265734,-4.652206321664039,0.0012241389209860728
1096,1724560271806096004,-1.5588936805725098,0.2049610912799835,0.1540447920560836,-0.0880535542964935,-0.0324993170797824,0.4692797064781189,-0.8780472874641418,0.0,0.0,0.0,-0.11535785507011409,0.061634442524216626,0.009133539907655752,0.363771723,0.015678535429327303,0.03442199033156054,0.007359975912386347,-14.689414753691159,7.505583156307856,-5.1348473530633125,0.125688035080967,0.14017395609698902,-0.9728305689523025,0.0031140438586305663,-0.002911623146658826,0.01049069242457179,-0.5422433649165832,15.008659263386829,-44.53764752317965,0.0029662566144124615
1098,1724560271811415332,-1.5588773488998413,0.2049441635608673,0.1541125774383545,-0.0879247784614563,-0.0328536629676818,0.4693362712860107,-0.8780167698860168,0.0,0.0,0.0,-0.11749109372574185,0.1597468237984189,-0.2817659029159245,0.369091051,-0.10333377000284294,0.0927604493242115,-0.03736351577312412,-14.046053625880921,6.303711002090729,-5.34752266171151,0.12511921784383298,0.14068836284417233,-0.9729673869202847,0.002309772866453841,-0.00221373487783616,0.009967267802060586,1.1982971801067177,9.693099029802845,-38.36904107385,0.002528475020270041
1100,1724560271823395434,-1.5588701963424685,0.2049437761306762,0.1541570872068405,-0.0877936333417892,-0.0332187600433826,0.4694038033485412,-0.8779799938201904,0.0,0.0,0.0,-0.05998316191940302,0.03974602563173553,-0.30114291400698884,0.381071153,-0.046919251849592475,0.04245050342219636,-0.018858654471161786,14.064578357338126,-1.814240001695246,7.670434706472588,0.12453428273855595,0.14122108102576622,-0.9731297636106583,0.0018116727716233072,0.0004703196186763847,0.001644231208903335,4.579811886291035,-11.830986530362793,29.688682243757878,-0.00016385338453388414
1102,1724560271831464327,-1.5588489770889282,0.2049503028392791,0.1541590988636016,-0.0882969498634338,-0.0331137999892234,0.469134658575058,-0.8780773282051086,0.0,0.0,0.0,-0.024227345161836514,-0.06557698743515035,0.1085480262881803,0.389140046,0.11741003139756331,0.0407742999761031,0.07632452984702932,4.1407966464336825,-1.7929218382179162,3.4352550641606774,0.12557443820925718,0.14147069901555695,-0.9724711045970337,0.0012276465115022006,-0.0002105522723470088,0.001353374226513715,5.348013820324535,-3.8664776492297968,24.801108993438483,0.0007696081804379932
1104,1724560271842596487,-1.5588568449020386,0.204932302236557,0.1541911214590072,-0.0878663957118988,-0.0333270840346813,0.4691882133483886,-0.8780838251113892,0.0,0.0,0.0,0.049386574085392404,0.03247023743271778,-0.014264984640528028,0.400272206,-0.08568310764998677,-0.003530644634074764,-0.013845816642233498,-1.4384913356885884,1.3034630002983985,-6.025468305394567,0.12459812077986596,0.14145092993960473,-0.972630517028345,0.0016974893629821963,-0.0006517467066249338,0.0047824865238368375,-3.8780791810838746,7.292398590305972,-23.733586063984585,0.0005233235287398255
1106,1724560271851873028,-1.558822512626648,0.2049337178468704,0.154250219464302,-0.0880913808941841,-0.0334829725325107,0.4693915843963623,-0.8779467344284058,0.0,0.0,0.0,-0.0676849726825894,0.08840587808125623,-0.33261471570287643,0.409548747,0.030881819394057642,0.049402663321548454,-0.05370480671578094,5.57435572752214,-2.268867451916309,3.554201508094999,0.12482222515196843,0.1419676466924281,-0.9730723889810649,0.0022111342268118506,0.00020683526430431698,0.002158690108333694,-6.538077501414675,0.030321759381393365,-6.83358559483949,0.0010355467902673297
1108,1724560271861593666,-1.5588161945343018,0.2049362808465957,0.1542282998561859,-0.0880374535918235,-0.0331953838467597,0.469157338142395,-0.8780881762504578,0.0,0.0,0.0,-0.06928706709315831,0.027590018510953072,-0.1190882694258955,0.419269385,0.013855745589317892,-0.053885637151051886,0.06081406853113761,-4.46300940604839,-2.100521634621042,2.3518813328404806,0.12503124108688252,0.14137424607189072,-0.9725457116950341,0.00029975267254656046,0.0010239429590068738,-0.0015815206806397697,9.197082515265858,-10.37656567365832,26.407537217228853,0.00046444037534366467
1110,1724560271872615518,-1.5588172674179075,0.2049570679664611,0.1542192846536636,-0.0877730697393417,-0.0335322096943855,0.4692808091640472,-0.878035843372345,0.0,0.0,0.0,0.14907975188736727,-0.13827012099913544,0.22747494477769944,0.430291237,-0.06922080457252046,0.02950362705209287,-0.03110192577616718,5.477695725161936,0.9964725427830068,-0.1105681343447833,0.12422558162819955,0.14173951518873817,-0.9728484269952555,0.0011275331331290772,0.0006223284548863006,0.0004261976165800263,7.67776592802465,-9.903915408754923,16.336177247773996,-0.0014818285863246463
1112,1724560271881591212,-1.5587981939315796,0.2049534171819687,0.1542322039604187,-0.0880529731512069,-0.0333253256976604,0.4691852927207947,-0.8780667185783386,0.0,0.0,0.0,0.1292978539126789,-0.18956228739655767,0.26367965026354495,0.439266931,0.07507810062883555,-0.009570247689764002,0.02805368049139967,3.275825135512853,-0.4770409450488571,1.7269486734938857,0.12493357049273529,0.14162298789306962,-0.9726067997186437,0.0030063485699827197,-0.0013630729825830912,0.0027991827616080656,-4.925312632697439,1.0744468927124924,-1.3400713058533373,0.001314297119223567
1114,1724560271892100341,-1.5587557554244995,0.2049273252487182,0.154278352856636,-0.0879107341170311,-0.0336027592420578,0.4692245125770569,-0.8780494928359985,0.0,0.0,0.0,0.04405187722362977,-0.09473514104194977,0.18347563607540637,0.44977606,-0.0480038466403136,0.03311203575289766,-0.013643133704108395,-3.900917178246623,2.0863218750804573,-1.8082477044936263,0.12441497105313819,0.14198610811407816,-0.9727068740326681,0.0033804888794577437,-0.0029659502537473514,0.005561620850294879,-3.0354659318516544,11.013112596325596,-13.47585409747148,0.00366066217800694
1116,1724560271902265113,-1.5587278604507446,0.2048924267292022,0.1543463915586471,-0.0879436507821083,-0.033789224922657,0.4692552089691162,-0.8780226111412048,0.0,0.0,0.0,0.06310419655313382,0.03677376066188617,-0.010959912440963337,0.459940832,-0.010860476559438371,0.0349001746749363,-0.010792715412381788,4.063805459128522,0.5283831753436212,0.6753097789937446,0.12429528811066619,0.14235172207877436,-0.9727723554614954,0.003911348148108118,-0.0033607647307984934,0.006646117816119457,-2.837992595086941,7.085659408002945,-14.996163098076309,0.003388536165973231
1118,1724560271911615494,-1.5586812496185305,0.2048616260290146,0.1544081270694732,-0.0881633982062339,-0.0338983908295631,0.4692468643188476,-0.8780008554458618,0.0,0.0,0.0,-0.003964078624429573,0.05269247004206276,-0.11563763092886337,0.469291213,0.030661392872381534,0.04287241881377646,-0.0010817815874779757,0.777542963329773,1.2184348423338354,-0.4677352432513635,0.12458769127431758,0.14275075876845525,-0.9727322731308561,0.004594967561317276,-0.0023665316275263137,0.005531688783935174,-2.2413122052034007,-5.623066667781577,0.9288798384746251,0.004533475217489752
1120,1724560271922367590,-1.5586366653442385,0.2048476487398147,0.1544543653726577,-0.0882819071412086,-0.034211479127407,0.4693337678909302,-0.8779303431510925,0.0,0.0,0.0,0.03290956443851539,-0.09833974844639445,0.0442489901258733,0.480043309,-0.006268965782913927,0.06049616345743232,-0.024734665674150075,-0.672111049029309,-2.5430690990096516,2.526289967552378,0.12449390636175817,0.14342921539693945,-0.9729172419882912,0.003599388702426154,-0.0024631578178553326,0.004332206461278076,4.340208245532206,-6.2201919260306795,11.024097331526926,0.00275883063962295
1122,1724560271931898670,-1.55860698223114,0.2048143446445465,0.1544959247112274,-0.0883349999785423,-0.0341749675571918,0.4691708087921142,-0.878013551235199,0.0,0.0,0.0,0.08197128518530244,-0.0915003021622208,0.11682525471962626,0.489574389,0.010665545889388579,0.0009239906542978065,0.03927336602428561,3.496188456688839,-0.8198818320448349,1.9219057993288984,0.12464935817640643,0.14339145230952854,-0.9725409096724947,0.004973396741632996,-0.004155360767480687,0.00607031730008778,-0.42463570282937313,4.029517680207091,2.2069184320219577,0.003970645763579643
1124,1724560271941820363,-1.5585384368896484,0.2047662883996963,0.1545738130807876,-0.0887251496315002,-0.0342370942234993,0.4691216051578522,-0.8779981136322021,0.0,0.0,0.0,0.02020688286393993,-0.017314075856311034,0.08286840745922769,0.499496082,0.06311237650338353,0.048876510440773846,0.008829940138965008,-1.0829891779839764,2.781179249789504,-2.4586453737914082,0.12529685983317823,0.14386169570078872,-0.9723920504511426,0.005144377884022333,-0.004174494006707441,0.006552533129214666,3.224997629997512,5.814483502769468,1.0021688141184795,0.006686708455306986
1126,1724560271956003474,-1.5585012435913086,0.2047206461429596,0.1546404361724853,-0.088370531797409,-0.0348073206841945,0.4691574871540069,-0.8779922127723694,0.0,0.0,0.0,0.25754828430637555,0.03144261930621578,0.18679138598833744,0.513679193,-0.08137950721563685,0.04671997026650668,-0.013679235538931214,4.57582985159648,-0.8612622010411299,2.50657143922015,0.12412664421622328,0.14454329896842277,-0.9725031838112322,0.005491268075545008,-0.004732002923317324,0.008422607046171038,0.7397479057081693,7.633534897130177,-13.947944770704702,0.003416347358713118
1128,1724560271964937865,-1.5584360361099243,0.2046698480844497,0.154736652970314,-0.0886159464716911,-0.0348429270088672,0.4690257310867309,-0.8780364990234375,0.0,0.0,0.0,0.17414045045365545,0.1232582307758329,-0.05756290527556529,0.522613584,0.04259216411405212,0.0350336303112018,0.03175453251196795,7.842043813724528,4.582858044818001,3.931625977662261,0.12455386089417292,0.14481871165882462,-0.9721795255108059,0.009104150448976611,-0.004052894144631836,0.01040067532472122,-21.99269116300388,8.456941971226371,-25.234046878946245,0.00716335953564948
1130,1724560271972347870,-1.5583574771881104,0.2046498507261276,0.1548114567995071,-0.0890126526355743,-0.0350569225847721,0.4688243567943573,-0.8780954480171204,0.0,0.0,0.0,-0.06661235583488323,0.1747408141347785,-0.23154418105123747,0.530023589,0.06362013769207939,0.1051962428758376,0.053797954776165294,-0.27235205613009533,2.4967512850594877,1.0302242399019998,0.12509731894599221,0.1455425324911166,-0.9716817706112079,0.008979551187998425,-0.002849180058354328,0.008259712905843486,-16.804499007779846,1.0980813168494268,-3.034124840191705,0.006656282309852081
1132,1724560271983138897,-1.5582860708236694,0.2046167403459549,0.1548717468976974,-0.0891321897506713,-0.0351175218820571,0.4686529338359833,-0.8781723380088806,0.0,0.0,0.0,-0.001452971235676781,0.09466483846705526,0.057004038071133856,0.540814616,0.011806258395105285,0.02257749219906869,0.0343563443137618,-14.668143304872316,-0.4141223771170175,-6.043531963861321,0.12528312194036686,0.1457379508691007,-0.9712791506775101,0.007478183272183969,-0.000770312900170822,0.006662894426266774,0.12284389532578732,-14.019000769863169,11.47816238750557,0.005389145105636724
1134,1724560271991685089,-1.5582163333892822,0.2046257108449936,0.1549359709024429,-0.0885848477482795,-0.0357515402138233,0.4687724113464355,-0.8781383633613586,0.0,0.0,0.0,-0.040440927446926456,-0.06980443847808751,0.051803639919973055,0.549360808,-0.18033088149705453,0.0680555126330529,-0.046003389563178225,-2.998364978659795,0.8796106743994067,-3.9265329459361307,0.12369521671428553,0.14636388119332353,-0.9716004577639203,0.008397619315275051,-0.0006244712554313026,0.008537441003086954,-11.157623716763624,-7.629010309405513,-9.293030849311576,0.002599381111803469
1136,1724560272001980907,-1.5581269264221191,0.2045985162258148,0.1550365537405014,-0.0887723118066787,-0.0357859805226326,0.468851625919342,-0.8780757784843445,0.0,0.0,0.0,-0.2371271854117345,-0.004273989567826257,-0.151595429094874,0.559656626,0.03046884271150368,0.022017022829079986,-0.018502304490618217,0.3503267010561606,0.4481086964497001,0.7870308526502092,0.12398516732529506,0.1466123700316037,-0.9717632986990309,0.006145195671379611,-0.002420663356254238,0.006992705530908694,-8.616184904632608,9.064029137968234,-6.827530414840165,0.005574634087001487
1138,1724560272011396250,-1.5580909252166748,0.204577624797821,0.1550784856081009,-0.0883424207568168,-0.0363888479769229,0.4689122140407562,-0.8780619502067566,0.0,0.0,0.0,-0.22795393376719653,0.10430807223268464,-0.10456699803594707,0.569071969,-0.139503474472718,0.06859537723041308,-0.027314221622312288,-3.9952838701216473,1.7183878194861613,1.2442063854250818,0.12264566430256478,0.14728493361937764,-0.9719409127486347,0.003754509810569573,-0.0009955885730104086,0.005551949040558668,2.981201490128236,0.9803549704975456,-2.342315839144229,0.003291387798860493
1140,1724560272023227475,-1.5580475330352783,0.2045840322971344,0.1551605015993118,-0.0885756164789199,-0.0365294329822063,0.4687926471233368,-0.8780964612960815,0.0,0.0,0.0,-0.16284588303552644,-0.04097124381091899,-0.24136141699554334,0.580903194,0.02221892811376455,0.040925209081810396,0.019818055355300002,-6.559232294691153,-2.5103841070708874,-1.4772400493770372,0.12295193161534573,0.14773676172829664,-0.9716456879521295,0.0014434813474224484,-0.0004609674228213123,0.005035176732452129,11.496690283518113,-1.8087819217319265,-3.7406103291765067,0.0005829963568273241
1142,1724560272031658263,-1.5580487251281738,0.2045741230249405,0.1551915556192398,-0.0880364179611206,-0.0369137786328792,0.4688559472560882,-0.8781008720397949,0.0,0.0,0.0,-0.029911981401844902,0.006682875629622149,-0.22590840983156904,0.589333982,-0.15460597319998592,0.01872951497244735,-0.025443924676270612,-2.1762840698036254,-3.4679740078883476,-0.04553603896356595,0.121619656259531,0.1479196682148388,-0.9718415542296074,0.0002657342516698691,-0.0013240000723140355,0.0018126956373896164,9.882102384940799,9.828795341461065,11.065945069463803,0.00033845461791570533
1144,1724560272041677521,-1.558041214942932,0.2045590877532959,0.1551874428987503,-0.088190920650959,-0.0366716794669628,0.468711256980896,-0.878172755241394,0.0,0.0,0.0,-0.0009802243464685973,0.1548886138863318,-0.005098137058190316,0.59935324,0.04741053201266816,-0.025962691201889477,0.03748228558422442,5.478794910824602,-0.30679210260320877,1.0713508748706895,0.12214545337759375,0.1476158123032589,-0.9714966654078556,0.0012732381273465876,4.141346042629834e-05,0.0014105578934220375,-2.4724149520982754,1.4146994005790132,9.915175066283803,0.001704230483413007
1146,1724560272053090136,-1.5580198764801023,0.2045796066522598,0.1552272140979766,-0.0878471061587333,-0.0370201952755451,0.468772143125534,-0.8781600594520569,0.0,0.0,0.0,-0.0988759538634297,-0.0028685730183666547,-0.04954128212211978,0.610765855,-0.0809506589187316,0.024534839003187384,-0.018008738163276937,-4.74618580246401,-0.5058438908921052,1.1465919051286912,0.12119627901222677,0.14791868500102903,-0.9716685113790082,-5.790319868026472e-05,0.002051018984694508,0.0018078642729868477,3.0505114888220333,-17.093155998707264,-4.082839810947851,-0.0009392830377644336
1148,1724560272061691402,-1.5580328702926636,0.2045988887548446,0.1552318930625915,-0.0875275284051895,-0.0371246114373207,0.4686475694179535,-0.8782541155815125,0.0,0.0,0.0,0.00274266785936734,-0.1710896512053419,-0.08588164331420893,0.619367121,-0.07963062850377296,-0.011778168970996728,0.030805478947851465,2.4807330647441552,-1.6849746981513243,2.286212443837535,0.12054872594372688,0.1477861856424546,-0.9714150272710574,-0.0007932217458943569,0.0008662782866402097,0.0008349241490943626,8.736547816036406,-5.504332198587443,-0.4952849232217731,-0.0027538601059225952
1150,1724560272072156786,-1.5580320358276367,0.2045904397964477,0.1552443355321884,-0.087426409125328,-0.0371915325522422,0.4685883522033691,-0.8782929182052612,0.0,0.0,0.0,0.054982409427084544,-0.04974582907970185,-0.04357262696023998,0.629832505,-0.024034580171719742,0.0028908722265542025,0.01157741827114175,6.090839448610963,0.4774214414809165,0.19567019945585984,0.12031563661206099,0.14780165512641807,-0.9712896922829433,0.00035898697736058693,-0.0013488951233711077,0.0002829275779028251,4.452642182049279,15.802989272132582,3.8287824175822434,0.0005286855928106145
1152,1724560272081819850,-1.5580260753631592,0.2045725733041763,0.1552389860153198,-0.0876076370477676,-0.0370804667472839,0.4684619903564453,-0.878346860408783,0.0,0.0,0.0,0.09319923464908077,0.14050617881866767,-0.008484002990603763,0.639495569,0.04176724473600842,-0.0007421759995906348,0.03160687587867645,2.457608428186036,-0.037812580391408446,-0.3478867999202732,0.12076422243328794,0.14775778278268295,-0.9709838709610207,0.00039853804322831365,-0.00038489314740441927,-5.627936234997577e-05,5.983385634713582,7.946036025018098,-2.2616670533943872,0.0019354683276451925
1154,1724560272094446872,-1.5580246448516846,0.2045918703079223,0.1552464812994003,-0.0876230522990226,-0.0371087566018104,0.4685304164886474,-0.8783077001571655,0.0,0.0,0.0,0.20222118896929506,0.04708760468640946,-0.13427529821675743,0.652122591,0.000990768213446439,0.004360045122738798,-0.012727271782865245,-8.703149503894036,4.842200982085519,-4.116963363486145,0.12075398339904451,0.14783181442477633,-0.9711385645736095,0.0030456298608640964,0.0020615730528419363,0.00027581702599199787,-12.230402000892916,-10.511081932886569,14.533885188037415,-0.0012720315111796182
1156,1724560272102445728,-1.5579854249954224,0.20461106300354,0.155247077345848,-0.0874002054333686,-0.037536758929491,0.4686642289161682,-0.8782402873039246,0.0,0.0,0.0,-0.0013290124015453708,-0.0527616033455229,0.10610128779031228,0.660121447,-0.096360703114991,0.06558031776965295,-0.048728442695654565,0.5207289107598314,-1.4593610932660028,3.2604962792448813,0.11993486065411164,0.14839937262787126,-0.9714660767447038,0.004625591454626488,0.0016950827148800585,-0.0016118764115953255,-18.985290942399562,-5.8709523237125705,30.08296182191716,0.0007649513927704008
1158,1724560272111575785,-1.5579460859298706,0.2046191990375518,0.155214786529541,-0.0874824151396751,-0.0372538305819034,0.4684399366378784,-0.8783637881278992,0.0,0.0,0.0,-0.10732251026876662,-0.03745871062032256,0.3810896634650359,0.669251504,0.040653649671620905,-0.04271231912652455,0.06192224539084926,2.557073000290827,-3.936059277863505,-0.057179550070695306,0.12038282969124785,0.14794444566056175,-0.9709458221885018,0.0025411697356574336,0.0011410037380574778,0.002921903912523227,3.0003680902996885,0.9459962980390308,-6.427535040342124,0.0021996154933339894
1160,1724560272122843730,-1.557942032814026,0.2046355307102203,0.1553375273942947,-0.0870077759027481,-0.0376952104270458,0.468941330909729,-0.8781245350837708,0.0,0.0,0.0,0.1296538255377041,-0.03695242563975288,-0.1995679109201981,0.680519449,-0.10366691946844687,0.023145659522498627,-0.10805472645939408,-12.22727090023908,-1.6535388719705428,-1.2298127024904013,0.11903895869856658,0.14834879194343853,-0.9721365708574056,0.003014276970645824,0.001041948731732134,0.005609977525175225,124.70362216843442,-0.07903767594965672,-23.495900206930518,-0.0025937322070638904
1162,1724560272131483846,-1.5578984022140503,0.2046418339014053,0.1553509980440139,-0.0861412361264228,-0.0379666984081268,0.469025045633316,-0.8781536221504211,0.0,0.0,0.0,1.8939521146443086,-0.0384566318735766,-0.21683367269290582,0.689159565,-0.20546412345544846,-0.04081804777536029,-0.026888016228574285,-8.407603351510954,-5.752298511177221,7.7426059054954,0.117223093737073,0.1480259730948929,-0.9724119387460793,0.004715305193784047,0.0005361014909208706,0.0009830374210527681,-121.24073817212962,270.38187748797526,-1063.5484518297653,0.001987349996290343
1164,1724560272166625299,-1.5577805042266846,0.2046330273151397,0.1553032100200653,-0.0858020409941673,-0.0379981771111488,0.4688821136951446,-0.8782617449760437,0.0,0.0,0.0,-48.8812676995168,48.133405595089094,-189.31759508575686,0.724301018,-0.01863157005883531,-0.007013973393802868,0.009142409607820342,-6364.619778148708,-654.2758412477264,-615.0219676487542,0.11661159535098323,0.14774368539638102,-0.9721183366552586,0.3138327011683941,0.00205607934691443,0.038912407676548355,-54535.55815208054,-6271.530822428336,22318.083589037124,0.0022750369952529853
1166,1724560272167075415,-1.5576374530792236,0.2046339660882949,0.1553209573030471,-0.0851902887225151,-0.0382512174546718,0.4689165651798248,-0.8782919645309448,0.0,0.0,0.0,-73.73468380161876,45.26642816613844,-179.1121716156452,0.724751134,-2.920173975541197,-0.30529170364277314,-0.27124057518401185,-3626.429322276703,-388.5267776383258,1295.3241884662555,0.1152767818512438,0.14762132713970705,-0.9722570800502417,0.29149792599218927,0.023998954141006834,-0.047400184760505226,-49582.42953966304,-11082.680969399604,41207.82167486232,0.16961419226887153
1168,1724560272167561122,-1.5575096607208252,0.204657107591629,0.1552524268627166,-0.084479697048664,-0.0385131053626537,0.468603104352951,-0.878516435623169,0.0,0.0,0.0,-94.8648138794649,37.413214341581586,-149.3828519898865,0.725236841,-3.2036744411252585,-0.35032081471216825,1.3632788321129223,-492.2015901279746,-77.38307080983927,3056.586191789177,0.11381558348928678,0.14737660961400764,-0.9716117175787037,0.2430456962173757,0.0441597189166365,-0.1277692623157325,-38755.35772604794,-15475.78233665685,58676.63798468551,0.1285753871292139
1170,1724560272172855439,-1.5573805570602417,0.2046897709369659,0.1553449481725692,-0.0833741202950477,-0.0395193882286548,0.4691397547721863,-0.8782908916473389,0.0,0.0,0.0,-26.015312534990063,-4.537106002898016,15.167164183893771,0.730531158,-0.530037269348216,0.12440119165132063,-0.2662237589429976,334.1202823153319,55.61470335911837,-180.42407538988692,0.11081187602262103,0.14818904264325594,-0.9729530733105585,0.023073064327064685,0.005925488827347891,0.009625854155066449,9213.522377973799,-4738.626973024235,18643.45668907368,0.00595137058213404
1172,1724560272181609386,-1.5571975708007812,0.2047381103038787,0.1553155928850174,-0.0833148211240768,-0.0401365496218204,0.4690913558006286,-0.8782943487167358,0.0,0.0,0.0,-0.23119901766402795,0.08223171860846984,-1.6466213514082817,0.739285105,-0.07855149094623894,0.11837545559172781,-0.002208953428920885,21.06262850960421,-5.181337854673499,22.61006385993076,0.11013846983662559,0.1492211007993928,-0.9728569338299498,0.02017322863899551,0.005066263977358432,-0.013696459412195772,1603.0673378705042,295.2274858922788,-949.4556423107309,0.007621872656899004
1174,1724560272192020535,-1.5569965839385986,0.2047852128744125,0.1550449281930923,-0.0822815150022506,-0.0406950563192367,0.4683988094329834,-0.8787356615066528,0.0,0.0,0.0,-0.16262574133949592,0.27756697636225947,0.4945869303999616,0.749696254,-0.23707314322582515,0.008799203712459961,0.13970991056921003,-4.309457788540652,-6.517822274855684,1.8616400052325557,0.1078891083295262,0.14915394239688393,-0.9713848555910174,0.019005148283554263,0.008155925815277243,-0.01823987720970166,5.231460107829375,-0.9523689747211499,130.0209541337789,0.01093933557155374
1176,1724560272201754724,-1.5568143129348757,0.2048976570367813,0.1549379825592041,-0.0814816653728485,-0.0410065799951553,0.4681533873081207,-0.8789263963699341,0.0,0.0,0.0,-0.1240344850595625,0.08886998203263691,1.0717809410875045,0.759430443,-0.1796667668599355,-0.01817715116452742,0.05071169059667432,-2.928377034368209,1.3280843213980804,-11.222008890026256,0.1062110410947983,0.14892525182590355,-0.9709075448558998,0.016963137268348305,0.010683091717449855,-0.004952339490073676,11.57647952277174,-21.554934354892428,-1.1963825404006254,0.0026552185008996343
1178,1724560272212456872,-1.5566534996032717,0.2050017714500427,0.1549559831619262,-0.0800910294055938,-0.0420444011688232,0.4685056805610657,-0.8788174986839294,0.0,0.0,0.0,0.0894239259317201,-0.16734665789671715,0.3472073209216169,0.770132591,-0.31485392483167757,0.044271031644939805,-0.09385205334003284,-11.621802835172161,-2.3214685645675335,-6.406393960508056,0.102698687344478,0.1495012005304576,-0.9718678147315013,0.016644581625058663,0.00962511454897097,0.0030674508443038206,19.480206168529975,4.968609714486602,-30.73893029393076,0.00018074280573425762
1180,1724560272222310665,-1.5564748048782349,0.2050956785678863,0.154998779296875,-0.078130804002285,-0.0428230091929435,0.4688390493392944,-0.8787785768508911,0.0,0.0,0.0,0.27715746668826724,0.14389787240844543,0.37968085692169845,0.779986384,-0.4202095756831763,-0.05260629767140067,-0.09254942479344896,16.38092723196041,-6.134260967175957,4.815162733485808,0.09841372504491519,0.14907699661472676,-0.9728380002907471,0.018607115533797014,0.00735472570681317,0.0028401302869083267,3.3902255156943095,29.421059866501473,14.374731598919102,0.0016616019361135473
1182,1724560272232669191,-1.5562769174575806,0.2051481753587722,0.1550118327140808,-0.0781498625874519,-0.0423667319118976,0.4688416421413421,-0.8787975907325745,0.0,0.0,0.0,0.14173340145843305,0.4250795088640501,0.6492244885196479,0.79034491,0.044271616396623296,-0.07588880890470988,0.008321919180980243,7.857268060896306,8.462249355391302,-2.0760505550244295,0.09887356270955978,0.1482862259936276,-0.9728295057197631,0.022327323540551447,0.012921150022725314,0.011158656595901206,-17.615078571795966,-10.102632996868007,-10.320285845760319,0.006307916626072201
1184,1724560272241991974,-1.5560417175292969,0.2053345292806625,0.1551989167928695,-0.0775412693619728,-0.0432085804641246,0.4692206978797912,-0.8786081671714783,0.0,0.0,0.0,-0.060593218686544326,0.018365186811969747,0.24808180305079375,0.799667693,-0.19278817061956344,0.09286556076378738,-0.11015967610750575,-15.779335052905619,2.712054044589136,-1.009333367709571,0.09693573725966945,0.14924822852569192,-0.9737774026946386,0.021824462700109848,0.015941837878875376,0.01592045604413883,-8.045280127406063,-29.103246032328297,-4.990471765528451,-0.00530613748661385
1186,1724560272252419550,-1.5558538436889648,0.205453559756279,0.155316561460495,-0.076280653476715,-0.043533768504858,0.4691164791584015,-0.8787580728530884,0.0,0.0,0.0,0.014800807351875056,-0.11572976440281624,0.6396885569454434,0.810095269,-0.244793112361748,-0.05834340727743277,0.015769983734307186,-8.278162194550593,-5.836038400757031,4.068185967935454,0.09439897400533466,0.14862691390022578,-0.9736705966765616,0.02111501127045301,0.012568501343594107,0.01544353675881105,-5.165438445298953,-3.141971383912417,22.40279430521018,-0.0009875448759141653
1188,1724560272261594892,-1.5556350946426392,0.2055781930685043,0.1554918587207794,-0.0747878104448318,-0.0441161803901195,0.469107836484909,-0.8788620829582214,0.0,0.0,0.0,-0.1326703228940277,-0.0661028935051356,0.7229113865225227,0.819270611,-0.3473172086094533,-0.04193561487109924,-0.011558842982631662,-3.307940320144466,1.910272118725611,-7.272998796298719,0.09119111667204184,0.14825365725992862,-0.9738136121751403,0.02191959631204554,0.013184083657446166,0.026846667234447175,238.9956110783882,117.40254130134844,61.60097732710284,-0.0006776930630023997
1190,1724560272272395193,-1.5554227828979492,0.2057155072689056,0.1558802276849746,-0.0733598545193672,-0.0447978265583515,0.4697344005107879,-0.8786131143569946,0.0,0.0,0.0,5.691246260081272,2.6256619441355373,2.0560455343532302,0.830070912,-0.2830440466625858,-0.019752810854702475,-0.14470546189072778,6.439977549183405,1.5924602113628825,-5.834127028869403,0.08789886265283241,0.14818089761694353,-0.975406547669619,0.017685267975181773,0.010776853813738274,0.028044941005759494,14.57757498980834,3.291182351719968,-55.68173889574783,-0.004815877082156083
1192,1724560272291722953,-1.5551491975784302,0.2058568000793457,0.1561485379934311,-0.0721203312277793,-0.0454222485423088,0.4699550867080688,-0.8785657286643982,0.0,0.0,0.0,-12.173977655451381,-5.817311392526108,-5.215469098418168,0.849398672,-0.141662710664374,-0.004934676091194823,-0.03285346385991483,-5310.655189713432,-1686.849694083192,2095.3938481190744,0.0850651997144447,0.14814074210443628,-0.9760545963131128,0.33809442848405524,0.16005096911169403,0.13506099219077328,-2931.9341897591003,-1359.4506385413797,-1059.015787976382,-0.00019365973122786146
1194,1724560272292411674,-1.5549083948135376,0.2059707790613174,0.1562445312738418,-0.0707586854696273,-0.045656356960535,0.4694809317588806,-0.8789178133010864,0.0,0.0,0.0,-14.242532382865724,-6.776236264422179,-5.961592467533983,0.850087393,-3.9297346363704326,-1.2081205050504555,1.4615708412482487,-5126.856111277726,-1628.2034978750457,2022.5404923634444,0.08249758478494547,0.1472273829229606,-0.9751109665271699,0.3290043394067137,0.1557121545657938,0.13120510716271783,-2810.0632663549495,-1301.4003719926616,-1010.1529703518148,0.038096966042236335
1196,1724560272302537695,-1.554648756980896,0.2060912549495697,0.1563561856746673,-0.0695419758558273,-0.0462403111159801,0.4693785905838012,-0.87903892993927,0.0,0.0,0.0,-13.90262938082138,-6.417144829871083,-5.293446115447744,0.860213414,-0.26798002364678075,-0.011112453992275341,0.009863909446485134,166.2220857142688,58.78587670836884,-73.82923871685486,0.07979740116374852,0.14710710114831313,-0.9750193719673312,0.029350417617663993,0.01616650521294183,0.01679834733095653,821.7943834968866,388.88554154939453,329.21079685859,0.002875196617347104
1198,1724560272311458650,-1.5543577671051023,0.2062690258026123,0.1565514057874679,-0.0683598592877388,-0.0471250563859939,0.4696985483169555,-0.8789138197898865,0.0,0.0,0.0,-0.37652530868338574,-0.17025465242710686,-0.287786014695643,0.869134369,-0.32079785602056976,0.04627306517384622,-0.10226880441674199,-0.9243393939540372,1.7477761802704517,-5.66729269597406,0.07680538048640724,0.147590017658337,-0.9759063293072698,0.02863681338584456,0.016793380927837553,0.016769652548302538,1065.0811628862198,445.34472463413545,124.7959903857518,-0.0014612857897559068
1200,1724560272322956148,-1.554087519645691,0.2064156681299209,0.1566684395074844,-0.0670333802700042,-0.0478301681578159,0.4699586033821106,-0.8788387775421143,0.0,0.0,0.0,5.184223206992044,1.1728733012764418,-5.318369176235584,0.880631867,-0.257389169168284,-0.0030534896819150122,-0.06514895075809536,6.365877424277827,-2.715483965358188,2.787581748942103,0.07373458623853105,0.1476113097690433,-0.9766639829988328,0.019913624365258897,0.01127173660048042,0.00924402743942121,-282.79138595759537,-61.62661114000819,250.15385367404033,0.0010639154599579135
1202,1724560272345680772,-1.5537962913513184,0.2066052258014679,0.1568365097045898,-0.0663094446063041,-0.0483040548861026,0.4701291620731354,-0.8787766098976135,0.0,0.0,0.0,-35.6666497504998,-8.242435040128015,31.253832171654892,0.903356491,-0.07450989908264033,0.0059662683815177794,-0.021606694543937644,1673.6425430919603,-643.6529340169277,5153.579022771402,0.07196999412865263,0.14778228512384503,-0.9771491800390292,0.40464886882182327,0.112174532678182,-0.3210889500584244,-4871.8632794381265,-1201.2163503206302,4201.471731499405,-0.000837261531044674
1204,1724560272346412430,-1.5534909963607788,0.2066897451877594,0.156593844294548,-0.0666775181889534,-0.0478512234985828,0.4689170718193054,-0.8794209957122803,0.0,0.0,0.0,-39.30360671227892,-9.139851447576175,34.38893478625541,0.904088149,1.1892604367010224,-0.48013941705830493,3.870408227879518,1521.6540636043305,-588.1654172740979,4693.459884259875,0.07325600431056933,0.1472264896455079,-0.9743197163041261,0.3773140535373898,0.10584512365423526,-0.29714315559788274,-4343.177899266494,-1076.9800313593164,3740.557589120679,0.18597231507513645
1206,1724560272352581539,-1.5532413721084597,0.2068395912647247,0.1565564274787902,-0.06618632376194,-0.0475788414478302,0.4682137370109558,-0.8798474073410034,0.0,0.0,0.0,-33.44853711162254,-8.003739035623186,29.148829074329925,0.910257258,-0.1187625631760563,-0.14374057756731443,0.2636155706257106,-127.49390299872212,39.47162312430154,-357.9253074627341,0.0727534732412138,0.14622345029387857,-0.9727453732873117,0.03375236465387843,0.024020615024761938,0.0013945769574119637,2064.21295457659,480.6177432897614,-1766.7907226284979,0.0035632524168026578
1208,1724560272361530991,-1.5530264377593994,0.2070510685443878,0.1566657572984695,-0.0655776411294937,-0.0479728057980537,0.4681593179702759,-0.8799005746841431,0.0,0.0,0.0,-0.49753788035005664,0.14637680353322946,1.4267989104436518,0.91920671,-0.1622703831728409,0.014013617323919673,0.003964190382788487,-0.8550164169783021,9.209634551501784,-16.25724830770641,0.07130778888001826,0.14634599282767075,-0.9727005211545978,0.023172567943213096,0.020679406051645977,0.012424539566708859,2203.7953644111503,551.3113922917405,-1835.3024824792847,-0.007722503862871144
1210,1724560272374419845,-1.552743434906006,0.2072628289461136,0.156829759478569,-0.0649553388357162,-0.0481245964765548,0.4679616093635559,-0.8800435662269592,0.0,0.0,0.0,0.4697885542211533,0.5813752097360898,1.203449459282778,0.932095564,-0.09892082742461446,-0.023535118581681103,0.031205113830076014,-8.34866531397849,2.4090972693402635,-3.1396438249569094,0.07008872108067284,0.14601498909078134,-0.9723166061224572,0.0294682804859292,0.032213225570565385,0.03442147174340349,-0.5353258707480872,-59.10210688278214,-129.70906287787096,-0.0030422801292059602
1212,1724560272381969836,-1.5524877309799194,0.2075758427381515,0.1571855992078781,-0.0642516836524009,-0.0485786013305187,0.4679691791534424,-0.8800662755966187,0.0,0.0,0.0,0.1314563357033065,-0.27549360332254547,-0.2728664111285004,0.939645555,-0.22061347113022442,0.018192302806034247,-0.015731884340469283,-9.135547496438472,1.5354950863608727,-2.513032942054684,0.06840705819889492,0.1461602362388131,-0.9724268020750515,0.03293259547066896,0.03521614827258013,0.041281986835607576,-24.101292182972838,-72.56069382221506,-165.67719736384032,-0.02188016660138628
1214,1724560272392677854,-1.5521492958068848,0.2078581303358078,0.157538816332817,-0.0631893202662468,-0.0489836111664772,0.4678584337234497,-0.8801795840263367,0.0,0.0,0.0,0.18791667666289658,-0.43084088868236714,-1.5934335389574599,0.950353573,-0.21239083171873835,-0.025981765919711998,0.013608023389396637,4.628306054838442,-0.459694165605552,6.938195360857236,0.06615139873607423,0.14587284699617914,-0.9722987054939106,0.029368104220367286,0.022041786327442026,0.020416014619803136,9.345242706558025,14.874774768890884,-4.603605917861047,-0.008725852797205511
1216,1724560272405601232,-1.5518046617507937,0.2080755978822708,0.1576066017150879,-0.0627936944365501,-0.0493375211954116,0.4668587744235992,-0.8807188272476196,0.0,0.0,0.0,0.37220825742666275,0.2196698647346378,0.19877931070153054,0.963276951,-0.09236639291718658,0.02525055173774029,0.16875257841144575,-9.76645926566879,-31.72188142161705,46.150548323363154,0.06528078414293917,0.14605526707323405,-0.9700776005134707,0.03991953338598364,0.028943504456076852,0.0053635048423128495,-24.780926200458616,-4.142628818660962,159.3693755843994,0.0004158927640044916
1218,1724560272412306195,-1.5514909029006958,0.2083118110895156,0.157642975449562,-0.0617428161203861,-0.0486425273120403,0.4651233851909637,-0.8817494511604309,0.0,0.0,0.0,0.0702403400018532,0.002379104330042514,1.339317492279583,0.969981914,-0.22413272427507921,-0.31158498222881387,0.5969725079651558,-9.497565535493903,-25.975332533140993,28.032116424591212,0.06434103314675466,0.14371126462664802,-0.9661778711759387,0.04086975620100475,0.029322752433706967,0.01143962082644645,-26.49140486169977,-14.103548567023099,102.65022325700853,-0.0031358918766463796
1220,1724560272424560144,-1.551122784614563,0.2085388451814651,0.1579178571701049,-0.0609262138605117,-0.0484450608491897,0.46437668800354,-0.8822104930877686,0.0,0.0,0.0,0.16093740467088935,0.2394752578627517,1.08655396918423,0.982235863,-0.11310306417536758,-0.08654513089784849,0.13796560683072173,3.8990661483822056,5.272046985785579,-5.543701212210767,0.06318847218066984,0.14254515065487325,-0.9645414136657748,0.04012968866074118,0.028138460605408255,0.03755105769591438,-4.652541808400457,-1.395678075792656,-100.81569940425999,-0.0013145054468264015
1222,1724560272432409788,-1.5507570505142212,0.2088080495595932,0.1582886427640915,-0.0603968277573585,-0.0481974072754383,0.4634996056556701,-0.8827215433120728,0.0,0.0,0.0,0.06380511748582007,0.12421083438108216,-0.1080281587656533,0.990085507,-0.10845131109573981,-0.11099553029038403,0.2549245580503874,1.5593341746147575,4.264980614609836,4.90020694170099,0.06261494208005033,0.14154980804693615,-0.9625792974953467,0.042505918588446434,0.0317083836827301,0.04082900850448645,-7.984935960416568,-15.957308909117332,-98.95042428101473,-0.008170456652313881
1224,1724560272442295064,-1.5503877401351929,0.2090892940759658,0.1586124897003173,-0.0601387731730937,-0.0484300553798675,0.4626927673816681,-0.8831496238708496,0.0,0.0,0.0,0.039511677308837534,-0.04938234372358541,-0.4234988865893998,0.999970783,-0.0810022636115898,0.023034945098320485,0.1788801703106437,-2.5396296464814077,9.3393508090678,-8.350825105512357,0.06206783681775592,0.14166691020069366,-0.9607822975504535,0.0401624678647039,0.02882095293564113,0.033217774270345224,0.34101124957028084,1.396610359099764,1.665630065668756,-0.006523273800814277
1226,1724560272452562729,-1.5499454736709597,0.2093891650438308,0.1589584350585937,-0.0595932118594646,-0.049127671867609,0.4622385203838348,-0.8833858966827393,0.0,0.0,0.0,0.07285916155134542,0.16713525183428524,-0.04828377629955782,1.010238448,-0.16377681517981588,0.0739306583489565,0.08611781200904853,-8.21357417561434,0.6530313475455145,-3.118521878668301,0.06051906838606928,0.1423704127969547,-0.9598437602830322,0.043517805748123806,0.030902394982531334,0.03256434846908718,6.471902953251695,1.932091195641871,-8.094042440052302,-0.004001645613826819
1228,1724560272462388597,-1.5495136976242063,0.2097087651491165,0.1592677980661392,-0.0586432814598083,-0.0498266220092773,0.461684912443161,-0.8836998343467712,0.0,0.0,0.0,0.16676757750517202,0.006001510648259378,-0.5475439842267704,1.020064316,-0.24591065545953525,0.03987770321759602,0.11110325836957137,-3.1732423260494524,-12.35231842364379,6.831588368598125,0.058262514122032316,0.14269677301277225,-0.9587194309047484,0.04184600773875502,0.03221005505059793,0.032234306574289384,14.479942151774633,-8.236758115023399,-11.621771453535896,-0.0058368506033741096
1230,1724560272473075576,-1.54909086227417,0.2100493162870407,0.159621000289917,-0.0571866333484649,-0.049372024834156,0.4605820178985595,-0.8843961358070374,0.0,0.0,0.0,0.3787334352489866,0.012848929245344642,-0.21622977783651898,1.030751295,-0.219546786759501,-0.19542602237001064,0.23396299746268018,-0.8251968071079983,-3.745945697634504,7.219542673223314,0.0562549992508284,0.14046861152076343,-0.9563187890007153,0.0475443425684432,0.030797049525837394,0.020408732291905096,-18.584437725743715,4.913143870768984,92.50247456629334,-0.007821573460141113
1232,1724560272482619735,-1.5485690832138062,0.2103341370820999,0.1597080379724502,-0.0560052581131458,-0.0495423972606658,0.4594172537326813,-0.8850677013397217,0.0,0.0,0.0,-0.12610101677431684,0.09615691670275961,1.1908335560389016,1.040295454,-0.2554830669231852,-0.07543694169203702,0.26641509695718796,-4.289980627105464,7.328658719167786,-10.811295883556618,0.05416889549444385,0.13960938933377975,-0.9537948634297655,0.04984240161206799,0.032156162224433515,0.025933605824091543,-39.05405267964382,-10.551638862361052,49.48109766400314,0.005951661233685303
1234,1724560272492163937,-1.5481394529342651,0.2106631249189376,0.1601160317659378,-0.0546168163418769,-0.0499612763524055,0.4592438042163849,-0.8852209448814392,0.0,0.0,0.0,-0.366743230523511,-0.18856622061289108,0.7282748537142497,1.049839656,-0.30143553077841173,-0.055534390020326195,0.027591856567685865,-0.476336163789405,0.796974049422976,-12.662850816396132,0.05132489682655253,0.13906621544974793,-0.9535575579031581,0.04513724928580132,0.03263252348737211,0.04313984572905749,13.168662393950399,-17.147706150525654,-83.40788969092145,-0.00796139001770976
1236,1724560272503843457,-1.5476105213165283,0.2110179960727691,0.1606254875659942,-0.0531933568418026,-0.0502661317586898,0.4589011073112488,-0.885468065738678,0.0,0.0,0.0,0.33563943355008585,-0.20755126989977568,-0.7453145726554441,1.061519176,-0.24499254240428503,-0.06463964694971754,0.05635216439657078,7.436819148552223,1.7792738021817875,4.537512380165207,0.048549986358858994,0.13827934583096166,-0.9529319077135956,0.042658189724491535,0.027021706973376247,0.036288090272104334,36.70625646167274,6.459268320606464,-65.89601017150672,-0.00455844293305341
1238,1724560272516847162,-1.5470938682556152,0.211320698261261,0.160991221666336,-0.052590899169445,-0.0505201071500778,0.4580290913581848,-0.8859409689903259,0.0,0.0,0.0,0.4737118572637473,-0.006505412132926214,-0.7295780711490554,1.074522881,-0.11058306819150573,-0.00445518500902218,0.1453993434523863,0.7770183900832279,-9.442093284288942,22.910024647314692,0.04737429208491748,0.13813082895387538,-0.9510279700385336,0.054955201955081634,0.02827305045712869,0.024299046989366246,143.0856390067952,141.16764740824974,161.16095559691098,0.00021706019236143699
1240,1724560272525232234,-1.546550750732422,0.2115847766399383,0.1611742824316024,-0.0517954714596271,-0.0501323379576206,0.4564542174339294,-0.8868222236633301,0.0,0.0,0.0,2.389731843416072,1.8568776860703817,1.4866024360806596,1.082907953,-0.155753272046267,-0.1597044581205049,0.4243478517525221,-4.188945712946198,-15.264811173799435,26.949742429371042,0.046550971285279685,0.13662612889270942,-0.9475033613863909,0.0563755741691514,0.02766302564673606,0.01922172904108599,871.5370772648978,282.7110909836234,-265.4227915453351,0.009148842680380099
1242,1724560272570911699,-1.5460649728775024,0.2118951082229614,0.1614028215408325,-0.0503962598741054,-0.0495679788291454,0.4547667801380157,-0.887800931930542,0.0,0.0,0.0,202.21904192130694,29.82253800147248,-142.45872712171195,1.128587418,-0.048973238116108875,-0.04819783112023098,0.08328809938178054,-12665.727602488694,-3508.664289082592,1982.929503071951,0.04481811191233103,0.13425301517078356,-0.9437690851209711,0.7180654925500676,0.592669696066082,0.6077503738594316,322806.50330324465,105507.66591393093,-24585.883320359106,6.201958301695782e-05
1244,1724560272571634063,-1.5455381870269775,0.2123299241065979,0.1618487238883972,-0.046996783465147,-0.0502332411706447,0.4541510641574859,-0.8882650136947632,0.0,0.0,0.0,439.0403786796137,107.2357286729731,-160.46353868150595,1.129309782,-9.342949866881304,-2.6228389742463167,1.5384218550160331,-4226.36490108613,-1462.9461420388302,2631.102363794971,0.038207411300115096,0.13231387090470265,-0.9427280681409616,0.8662857831216115,0.6144118013809248,0.503068794368204,613550.8253269625,270313.2660718647,312826.576886816,-0.1394925292835969
1246,1724560272572229915,-1.5449546575546265,0.2127021551132202,0.1620923429727554,-0.0446993857622146,-0.0505641736090183,0.4531678259372711,-0.8888667821884155,0.0,0.0,0.0,945.0507897132811,348.48856598118937,191.9385517870311,1.129905634,-7.6148565326480675,-2.461784647248582,3.409274181806245,4477.153570431122,2918.760573060667,3657.825206831277,0.03393167732176866,0.13077470894802154,-0.9407336376684663,1.2428266614235781,0.7162211049741245,0.3998143530377547,242794.59511076286,174396.66199519584,559924.41124261,0.0183227232398761
1248,1724560272572719115,-1.5442408323287964,0.2130892872810363,0.1622842997312545,-0.0437277890741825,-0.0510425493121147,0.4519320428371429,-0.8895167708396912,0.0,0.0,0.0,820.2619297817214,341.2297255106962,453.20153243258824,1.130394834,-4.7912712334899314,0.029797708868064696,5.406743286886678,-3361.959021988432,-1914.3868495745992,-4851.723818999879,0.03193544760461701,0.13070220000528798,-0.9380669455119448,1.8309038487113867,0.9580426751534787,0.6403997494431337,-609811.9403636344,-210562.06596678047,143319.8577749821,0.17165557777356755
1250,1724560272573063281,-1.54352068901062,0.2134593725204467,0.1625647544860839,-0.0423116385936737,-0.0513092316687107,0.4516364932060241,-0.8897199630737305,0.0,0.0,0.0,524.4958182531574,221.37070255525614,407.91684248572926,1.130739,-8.159915031833481,-2.3258141050387375,1.5735434315998522,-9407.97855526955,-6591.760264458514,-10745.904577440866,0.029194804203697567,0.1298855480350159,-0.9375456242614228,2.0207505932794456,1.0384144097869283,0.7870320080282414,-831115.1531063985,-336887.11486051587,-128609.0444316207,0.262744864605776
1252,1724560272582361700,-1.5427380800247192,0.2138460874557495,0.1628864407539367,-0.0411452613770961,-0.0511174462735652,0.4513401389122009,-0.8899360299110413,0.0,0.0,0.0,-105.31450747581596,-54.243209801424875,-42.07802965016434,1.140037419,-0.20981624162171525,-0.14969443690868714,0.06657579865280978,428.0584476429186,117.82342784771029,-76.75001658956144,0.02731911883453149,0.12847668366128312,-0.9369612282024828,0.08519356469457762,0.04316743432393366,0.024399335364863717,-28565.63955666248,-12069.5893947717,-22230.36171264979,0.011768031948611866
1254,1724560272591829053,-1.541921615600586,0.2142699807882309,0.1630191504955291,-0.0397061593830585,-0.051017839461565,0.450619637966156,-0.890372097492218,0.0,0.0,0.0,1.7931682107170923,0.8662680920297308,-0.3326359687478201,1.149504772,-0.27262624428416393,-0.15438605619253748,0.16235788051551112,-0.8419517965083623,3.599116839464701,3.692074676049901,0.024930498013686252,0.1269753956298424,-0.9354504829001353,0.07950634324309647,0.038497046098789234,0.011022133598636685,6832.806376494224,3547.6928482606145,2697.0807602793416,0.013245344555704617
1256,1724560272606368945,-1.5409159660339355,0.214689552783966,0.1631125211715698,-0.0386915691196918,-0.0514375977218151,0.4500949680805206,-0.8906580209732056,0.0,0.0,0.0,1.089262258611008,1.6857599789773747,0.6459804901066892,1.164044664,-0.1555217361255941,-0.010620137576331208,0.07256793523545832,-42.65147759369469,24.68094977444185,2.375975648914581,0.022803326532217016,0.12679585962878628,-0.934390921398932,0.15903494673926843,0.08145233761909765,0.030310056554537113,-404.1764862026855,-114.807797846117,-87.24738388973127,0.01694195076438842
1258,1724560272611701785,-1.539892077445984,0.215226799249649,0.1633208841085434,-0.0377404130995273,-0.0523617565631866,0.4497708082199096,-0.8908087611198425,0.0,0.0,0.0,-1.7620008077601148,0.7387109412430957,-0.12159253028881811,1.169377504,-0.48215223410987723,0.1499341772169054,0.10196466610486325,-33.967120159656616,19.244323721042733,6.9518679517079,0.020303809975121254,0.12758353836648065,-0.9338255406384849,0.15627595961466056,0.0879610235023085,0.0324238088710298,-359.0614044331284,-143.65396742871863,-118.4567496650474,0.02796392562685078
1260,1724560272624051058,-1.538983702659607,0.2159475237131118,0.1635311841964721,-0.0373601429164409,-0.0530688501894474,0.4484534859657287,-0.8914468288421631,0.0,0.0,0.0,-1.1744750374271966,-0.06488772906673113,-0.8558893460612493,1.181726777,-0.12143813309026763,0.07695298483197181,0.22898008977525106,-23.213212364379004,-13.911229829315277,-2.1241671000191484,0.0191705066654006,0.12847785200527528,-0.9309560633003839,0.09892317092072744,0.0833059689016018,0.016110063618766546,111.41703513712744,-105.6768066057377,9.701598987746316,-0.005056773710953306
1262,1724560272631378816,-1.5381485223770142,0.216666430234909,0.1636452376842498,-0.0355961583554744,-0.0537052191793918,0.4478389322757721,-0.8917897343635559,0.0,0.0,0.0,-0.08044877593621136,-1.0158137044960966,-0.4840727288710103,1.189054535,-0.5194781246577567,-0.05977645428603341,0.15945713427660366,-32.36288873326829,-15.749682704068643,-6.694100778084577,0.015513570961907334,0.1280196170156362,-0.9297856922253824,0.10540376295961806,0.08418736805661453,0.011860792615292937,217.12745500213413,6.291433020641371,63.81799396568136,-0.012375979721919401
1264,1724560272642018842,-1.537159442901611,0.2173471301794052,0.1637142151594162,-0.0327100679278373,-0.0540645718574523,0.4470981657505035,-0.892250120639801,0.0,0.0,0.0,3.27770973342568,1.1532135450582657,0.3969877537909674,1.199694561,-0.5246019035778532,-0.18240431547609706,0.13139012768600522,6.614838144646931,-4.383995010705648,-2.5787087340562675,0.0101071551152792,0.1260610801664881,-0.9284015171303273,0.08964152314430152,0.05582697632951561,0.00819052693673683,126.53708758545962,116.42588549159463,60.2360015587404,0.0036194203734137304
1266,1724560272657522952,-1.5358445644378662,0.2180285900831222,0.163879781961441,-0.0306299533694982,-0.05433214828372,0.4463684260845184,-0.8926730155944824,0.0,0.0,0.0,0.9679284885668267,0.9831014082157736,0.8209909851578017,1.215198671,-0.2617243273309964,-0.0890427255209261,0.0927461063503709,-198.7132156857253,-65.34330713914105,1.4310632024865413,0.006229139614486877,0.12466886326261843,-0.9269636809108162,0.24797661339431443,0.15997690123457176,0.03110716021588189,-1039.499151143642,-661.6417357373405,-3.8476825569022424,0.014303320089688116
1268,1724560272661665769,-1.534636616706848,0.2188197821378708,0.1640312671661377,-0.0277881082147359,-0.0547380112111568,0.4460549652576446,-0.8928979635238647,0.0,0.0,0.0,-4.324325746004149,-2.478245632242306,0.7705175816847558,1.219341488,-1.3237002865415801,-0.4387486482261532,0.10301809609054763,-159.48903027487657,-52.18819119729184,0.5561126798684393,0.0007975781573034716,0.12284974092182828,-0.9265401838815458,0.2417529383409942,0.15770169841078463,0.03378096031679334,-960.241637536395,-632.926231059284,-4.113425356241226,0.017775276860499154
1270,1724560272672490587,-1.5334289073944092,0.2195856422185897,0.164318174123764,-0.0260798819363117,-0.0550341606140136,0.445712000131607,-0.8931024670600891,0.0,0.0,0.0,-5.746663353668628,-3.5997393400844695,0.9542427772824191,1.230166306,-0.3107353254630684,-0.09223164387381218,0.05463710142940357,43.67549152293927,23.562752640143035,-12.114700282786352,-0.002493247185927646,0.12185183818534867,-0.9259433503329412,0.1151233335174453,0.07631321204261887,0.045660358724655126,179.03023675130981,100.47200561826943,-74.30248606928234,0.007219224162957111
1272,1724560272681816647,-1.5323266983032229,0.2203420400619506,0.1648979187011718,-0.0249054748564958,-0.0559296049177646,0.4461249113082886,-0.8928741812705994,0.0,0.0,0.0,-1.5827998005100357,-1.023019263947305,-0.4720848889231233,1.239492366,-0.304372531485603,0.05963312059928791,-0.11977347261014609,12.895558786105921,0.5584446113308976,3.958183879378651,-0.0054692166598961965,0.1224035313867636,-0.9270709857004191,0.10934814308951957,0.07422989148425252,0.053409262048178974,1320.6126860753616,770.4346471200067,184.69233382241754,-0.0015764242204081506
1274,1724560272691703572,-1.5313382148742676,0.2210038751363754,0.1653342097997665,-0.0245133470743894,-0.0555780753493309,0.4454310238361358,-0.8932532072067261,0.0,0.0,0.0,20.636278297938723,11.7735715898134,4.892854535149753,1.249379291,-0.0488611672403787,-0.09967241007524474,0.1568678997014434,20.366801254646866,-11.983133310643671,21.547543652570848,-0.005761601561661651,0.12142677417477146,-0.9255027127590035,0.08359968472112911,0.055734015040716844,0.035084666558403255,2439.6486973804895,3696.7315246586422,6628.936756583055,0.0012561762846707155
1276,1724560272725941520,-1.5304179191589355,0.2215834110975265,0.1654632091522216,-0.0244705043733119,-0.0552184097468853,0.4434208273887634,-0.8942763805389404,0.0,0.0,0.0,126.96824959701007,423.18553912885545,953.4732353691775,1.283617239,-0.0008684758348099506,-0.020325124768716805,0.131888924040411,-13045.186789100373,-11354.01177511553,52503.0209854393,-0.005241389970552027,0.12075576375017393,-0.9209501958867926,3.5456474239963427,2.0765663471406697,1.0024734412179441,-1417715.2307566837,-893175.1850891343,-548417.697078384,0.0023129333882077057
1278,1724560272726214682,-1.5294417142868042,0.2221551388502121,0.1657392233610153,-0.0239510834217071,-0.0550027936697006,0.4416214525699615,-0.8951936364173889,0.0,0.0,0.0,-263.39418606865274,177.23126364709333,802.4107693196411,1.283890401,-3.592751255675645,-3.1465594393107597,14.58814473435149,-7613.531479748333,-2701.4684881078633,24711.25050428474,-0.005740368476625302,0.11991813061887549,-0.9169315152155132,3.580386664090838,2.192958203335479,1.26494249897479,-1432495.1327700145,-942566.178763541,-659655.5046436363,0.38789180410029844
1280,1724560272726471570,-1.5285203456878662,0.2227426320314407,0.1661256551742553,-0.0234685465693473,-0.0549993999302387,0.4399725496768951,-0.8960181474685669,0.0,0.0,0.0,-632.2170358792397,-75.09002993302124,607.19040255205,1.284147289,-4.211231120146753,-1.7283335936892383,14.12093639121322,-2250.348381751306,5265.000324712841,-1866.7925932448188,-0.006385544692516611,0.11949613784718963,-0.9132751881833873,3.418368890948827,2.1783663826517503,1.432794691552965,-1362845.8425840274,-935767.0261382519,-730340.4734949346,0.19980401390048788
1282,1724560272731397842,-1.5275784730911257,0.2232148200273513,0.1664306670427322,-0.0225903559476137,-0.0555535182356834,0.4390630424022674,-0.8964526057243347,0.0,0.0,0.0,-460.23215589567354,-296.24986643022015,-194.0733330569062,1.289073561,-0.44288664362171654,0.04367203477368114,0.38356811047522676,532.5763864088265,249.78221150550488,-1943.8450374648476,-0.008340427538271916,0.11972519418084346,-0.9113737364663567,0.16003436988777509,0.08081128814517768,0.0579901255634363,36860.572164884994,-22960.209125349164,-107352.42884030116,0.03369009070811201
1284,1724560272742498194,-1.5265814065933228,0.2237356752157211,0.166976198554039,-0.0210254341363906,-0.0567309409379959,0.4392695128917694,-0.8963157534599304,0.0,0.0,0.0,-2.322664055142253,-2.5009463386751998,-2.5705053567212137,1.300173913,-0.34328268613964313,0.06690647303533888,-0.06463093966956276,15.072606869252981,-4.806969854146977,-13.27455226641364,-0.01223848045805919,0.12046045327042006,-0.912103991459404,0.08348181031480095,0.03242977747604492,0.02982872041518192,22395.025076713984,14370.907946680323,9414.213185555029,0.011837918791144481
1286,1724560272755526003,-1.5255907773971558,0.2239365726709365,0.1670694500207901,-0.0204878505319356,-0.0562692284584045,0.4382307231426239,-0.8968656063079834,0.0,0.0,0.0,1.1163450707441918,-0.1673841344927851,0.23732429301405722,1.313201722,-0.053657656819475714,-0.10121992440780024,0.17682594072943358,0.7889464377071107,-36.29301388073326,51.219623673371366,-0.012658225342098527,0.11917055143422918,-0.9097673138471213,0.12315489919600964,0.028250688488057563,-0.0041718863606554635,-191.08810896476035,10.281806559564842,246.83134399675333,0.033414718284422586
1288,1724560272761814967,-1.5246732234954834,0.2241531908512115,0.1670088171958923,-0.019720871001482,-0.0552579574286937,0.4365482628345489,-0.8977656960487366,0.0,0.0,0.0,-1.466923689514236,-0.6153022607431669,1.8846779317353008,1.319490686,-0.11379272467894247,-0.40046836312223116,0.5981745755123877,-1.781037811675685,-13.951825694274321,20.150619647348666,-0.012924353382189717,0.1167003305244605,-0.9059469095359456,0.12431956336841665,0.02766371614930563,0.0059643567336093994,-264.62201358182557,-54.25557386583608,163.92446522500103,0.06359787528744279
1290,1724560272772137580,-1.5237555503845217,0.2243238687515258,0.1673347949981689,-0.0197799261659383,-0.0553748793900013,0.436488002538681,-0.8977864980697632,0.0,0.0,0.0,-1.7224046712153016,-0.8878779558423704,1.916031420719064,1.329813299,-0.000341865593450306,0.025340069178318974,0.012426732931647456,3.6069779380524225,19.458312754447512,-31.30450579765311,-0.01291322497308509,0.11696354270792685,-0.9058211736110314,0.08118464984895013,0.01246827484116686,0.030043466253659723,62.68699234656679,-3.092967086923906,-80.77669714379572,0.03787189717201261
1292,1724560272784287611,-1.5228794813156128,0.2244172096252441,0.1676778644323349,-0.0193075202405452,-0.0552679896354675,0.4364954829216003,-0.8977997303009033,0.0,0.0,0.0,0.28967185800918394,-0.5920633672683546,-0.2640292472501087,1.34196333,-0.06210866017227241,-0.04988372322506664,-0.00411278396491979,-5.267681416554384,-2.832400542785295,-0.5115856620489487,-0.013672758624117426,0.11635684300707888,-0.9058633684856704,0.09538449320845643,0.01003480373870147,0.04736517081530245,-37.32817969649928,-27.002540001425814,-191.40934616615468,0.03490509876204699
1294,1724560272791679689,-1.5220696926116943,0.2245019674301147,0.1681140214204788,-0.018878748640418,-0.0552477538585662,0.4364921450614929,-0.897811770439148,0.0,0.0,0.0,-0.8989095442479158,-1.0226037552904494,-1.7328244323444189,1.349355408,-0.10187531673089174,-0.055715194060217146,-0.00407312959035546,1.2748603023633165,-5.22294251973655,11.019516888334904,-0.014428667779941656,0.11594462075377852,-0.905887928779985,0.09357244418558253,0.0038962655232275267,0.03781437965026768,-108.11609584435416,-19.857620333398312,-74.2047832501282,0.05134733291125405
1296,1724560272802206621,-1.5213241577148438,0.224429503083229,0.168194442987442,-0.018605662509799,-0.0543569400906562,0.4352031648159027,-0.8984972834587097,0.0,0.0,0.0,-1.2473754172211566,-0.6561924695551091,-0.6476591820647395,1.35988234,0.011304030209174531,-0.17716876247550972,0.27704420216900827,8.788877089755434,-4.019548594861931,10.930367526987936,-0.01396967097417949,0.11412116333342893,-0.902925675780348,0.07430878762241377,-0.00974966654980669,0.01296501598033295,36.51221372552026,42.90228675334322,137.510233147485,0.04807524214244262
1298,1724560272811877198,-1.5205745697021484,0.2243097573518753,0.1683671325445175,-0.0186979509890079,-0.0535206794738769,0.4341828525066376,-0.8990390300750732,0.0,0.0,0.0,-0.27583368876562275,-0.16938530754603454,0.9879769318098683,1.369552917,0.07886263769340994,-0.14925226407920555,0.2426108353752493,-3.9459599741550297,2.4180608683213753,-9.422940871267047,-0.012937594714037437,0.11270950029409582,-0.9005449823229771,0.06742138691538457,-0.010408893894091165,0.021918916146502987,77.20589050453434,22.45476964273172,74.06410310264043,0.055477506866084374
1300,1724560272823519159,-1.519931077957153,0.2242162376642227,0.1686792373657226,-0.0177615694701671,-0.0531510077416896,0.4338934421539306,-0.8992196321487427,0.0,0.0,0.0,0.2970312966017188,-0.2987713345813342,0.5177844236266547,1.381194878,-0.12028982621610548,-0.12767001702603079,0.050747782972486014,-5.124802145535279,4.986109077015883,-9.28218230244981,-0.014269306606916717,0.1112313410905738,-0.89993013736513,0.07032593419972955,-0.013799448783249346,0.03429105305797364,-8.47148273394392,7.0340542176518515,-59.30829656133269,0.037426631572191255
1302,1724560272831754608,-1.5192642211914062,0.2240689992904663,0.1690052300691604,-0.0172997675836086,-0.0530623085796833,0.433817982673645,-0.8992702960968018,0.0,0.0,0.0,-0.10875244706715037,-0.13511891034129864,-0.08087158528697724,1.389430327,-0.09269341756389494,-0.06835945412994383,0.016238969265985642,7.5539026090358385,11.002425023146536,-2.5256588144392853,-0.015016862995261868,0.1106703921093149,-0.8997873178154243,0.07304908460709214,-0.016303865135260054,0.03538061078052479,-37.3832967774807,10.271189161306594,-58.6547145415109,0.05958460496762636
1304,1724560272842002581,-1.5186166763305664,0.223921999335289,0.1693142056465149,-0.0176858846098184,-0.0534039810299873,0.4337667226791382,-0.8992672562599182,0.0,0.0,0.0,-0.34023672788340065,-0.1522887565794182,-0.5029484268432642,1.3996783,0.038316364453130476,0.09285904279672492,0.011583805177133274,4.263295067457907,1.2489023087366742,-0.2049031456676208,-0.014612522963320225,0.11162365719730287,-0.8996820253315205,0.0663310452078889,-0.015533636569061926,0.03183339995369927,-4.075631204382928,-7.310887335048896,-29.794491789488518,0.0468543043527913
1306,1724560272851685383,-1.517945647239685,0.2237607091665268,0.169637843966484,-0.0176382567733526,-0.0532795749604702,0.4337177872657776,-0.8992992043495178,0.0,0.0,0.0,-0.2103315619223225,-0.2746362269742587,-0.6872205468609889,1.409361102,0.0016430539677798766,-0.027548712537070155,0.011881013025643592,-1.822245368679071,-11.03494013573306,3.4296844160882434,-0.014583300331526987,0.11135862241443628,-0.8995624030610274,0.06592132114687388,-0.01908909350193433,0.02552882086825825,8.862733248034237,9.321585842385263,20.38274546147922,0.05208353758074443
1308,1724560272861867457,-1.517310619354248,0.2235403060913086,0.1698132455348968,-0.0174039099365472,-0.05269106477499,0.4333491027355194,-0.8995161652565002,0.0,0.0,0.0,-0.16884356011704993,0.055373811423626074,-0.05767683132276402,1.419543176,0.004130640632768616,-0.12491438690387151,0.08319560496685861,3.601485556998738,-2.7237803703443473,1.1148791551283004,-0.01444501550996015,0.11009916561959443,-0.8986916127889013,0.06198073709769858,-0.020894446404902567,0.018144862456159316,2.017920037549139,18.82920760332798,19.168574138882256,0.053539934939385365
1310,1724560272872065162,-1.516682505607605,0.2233349084854126,0.1700076609849929,-0.017574755474925,-0.0521419905126094,0.4332186877727508,-0.8996075987815857,0.0,0.0,0.0,-0.1692711431764975,0.10867394639573713,-0.29790390458962546,1.429740881,0.07514556625906273,-0.08284479962927471,0.03441775881878382,2.817961261118706,6.829610507340241,-8.864782136452407,-0.013638748622688929,0.10925933949800203,-0.8983265320320158,0.06248715232065649,-0.017953307812099695,0.024374263668716978,-23.757955981434698,6.200439705083169,-47.88855681587784,0.05172276924314884
1312,1724560272881620819,-1.5160773992538452,0.2231829464435577,0.1702881157398224,-0.0178460143506526,-0.0520433373749256,0.4336075186729431,-0.8994206786155701,0.0,0.0,0.0,-0.6086480918487118,0.1766423024799333,-0.9733763064579108,1.439296538,0.06495093367487777,0.0066302261406958616,-0.08683751603837737,2.636323909380364,8.35032145140145,3.1008464432049587,-0.01310923264633305,0.10931160416305764,-0.8991621612934344,0.05890934125794445,-0.01852423553642346,0.013390467377268678,-2.300607956244461,-8.168835252882086,-22.724779381959145,0.04834210594094095
1314,1724560272892165790,-1.5155075788497925,0.2229571044445037,0.1702436059713363,-0.0187152735888957,-0.0521136410534381,0.4330221116542816,-0.8996809124946594,0.0,0.0,0.0,-0.12461395226878524,-0.08732686296147574,-0.6548717553154951,1.449841509,0.13584387436351664,0.08289328934241388,0.12960700525851163,2.763101303481209,4.139522498670084,5.031056325773382,-0.01152734932121094,0.11020247601170124,-0.8977980907245022,0.04976549834479016,-0.013910746552519448,0.005175217485697381,30.326008538990497,-28.269407019510005,22.839332248187773,0.05058865081734441
1316,1724560272905263926,-1.514925241470337,0.2228970229625702,0.1704642623662948,-0.0195761527866125,-0.0523267947137355,0.4333814084529876,-0.8994771838188171,0.0,0.0,0.0,0.019188718750608125,-0.5102628244033429,-0.47554492308377705,1.462939645,0.10761125649732269,0.08679749742562556,-0.05658777290184099,38.47504371223053,-58.75064398498832,55.53508766641706,-0.010201647914995267,0.11133123994023161,-0.8985562249029728,0.06021360841162959,-0.023593323439261127,-0.0013817731850807036,790.3193119069213,-234.67043651248986,221.69131529462766,0.02921049481790773
1318,1724560272912184697,-1.5144509077072144,0.2226642370223999,0.1703880429267883,-0.020504355430603,-0.0498360283672809,0.4316959381103515,-0.9004080295562744,0.0,0.0,0.0,8.338688385237468,-2.874425777702752,1.8193423285277586,1.469860416,0.522465282723889,-0.5357307382505911,0.5828202799124467,38.69198641091889,-60.99625969352633,62.45564753232595,-0.006139029015614046,0.10765664957498006,-0.8944680889091068,0.05749963675044256,-0.026287440120876138,-0.004581271852003521,311.78307064884854,-63.003190966048265,128.15891270294543,0.06991497201176884
1320,1724560272932935172,-1.5139445066452026,0.2225759476423263,0.1706931442022323,-0.0205424483865499,-0.0498182885348796,0.4315440654754638,-0.9004808664321899,0.0,0.0,0.0,-40.58392887550099,13.151635934590274,-8.178212764619957,1.490610891,0.0031705505403431806,-4.275884056490818e-06,0.016428816098150632,-925.737769416882,-2005.1786405124928,4817.86458657506,-0.006036394820992663,0.10765862151058328,-0.8941250974094812,0.7737285442535722,-0.2405488086781702,0.17512568373234672,-7343.695165282581,2274.628010297176,-1658.8303990663971,0.016911754707010833
1322,1724560272933508535,-1.513489007949829,0.2224342823028564,0.1707960963249206,-0.0202971193939447,-0.0495633892714977,0.4308059513568878,-0.9008538722991944,0.0,0.0,0.0,-44.87352456540767,14.479624162040551,-9.147972185958377,1.491184254,-0.5418830141367731,-1.1818761347150781,2.8555748931713736,-891.2870091708681,-1928.435209913534,4632.163696817696,-0.006170249829049327,0.10699098740645592,-0.8924742466953947,0.7492694254734058,-0.23263620244953964,0.1701698291045759,-7015.452650764324,2169.314954553825,-1591.622250949342,0.6677534244449522
1324,1724560272942384291,-1.5130441188812256,0.2223537266254425,0.1710165143013,-0.0190296396613121,-0.0499585457146167,0.4305038750171661,-0.9010041356086732,0.0,0.0,0.0,-43.111598840587625,13.56061737272155,-9.571951633234356,1.50006001,-0.2997089176772882,-0.04312328537695894,0.05994302670664347,29.12466125981753,70.3979360272106,-167.67687407157223,-0.00877304963750645,0.10661222714137245,-0.8919363381835165,0.04671764526780464,-0.010786621522871798,0.019659061441209325,1949.340877857264,-631.8729891518684,365.9905831195539,0.035675542284930695
1326,1724560272953007908,-1.5125911235809326,0.2222173810005188,0.171159565448761,-0.0191562213003635,-0.0497167818248271,0.4297901690006256,-0.9013554453849792,0.0,0.0,0.0,-0.1395487997375633,0.12974537442254674,-0.4225843941704064,1.510683627,0.03309416342180895,-0.031496944143284945,0.15158995412766335,19.018676769298736,-4.786597241651274,13.816522902881959,-0.00824908699206505,0.10629132603916878,-0.8903138725015941,0.04702030070339447,-0.01211980734554885,0.011882747795622706,1909.0400488618022,-579.3692638228144,420.3729761345808,0.035167343856314245
1328,1724560272962313650,-1.512117862701416,0.2221104204654693,0.1712572425603866,-0.019443143159151,-0.048948548734188,0.4284736216068268,-0.9020179510116576,0.0,0.0,0.0,0.21489430572475055,0.3209604928357216,-0.10427440338297211,1.519989369,0.10974987394639045,-0.1239777461841288,0.32246689029432024,0.9641784288120714,-6.804441714051183,5.317070742798784,-0.006908414122949853,0.10516040312832203,-0.8872875819989252,0.0443519610459262,-0.008831895585948324,0.010472308242412076,31.631213663001844,11.999173735504664,23.775518605340288,0.039700602746207334
1330,1724560272975484371,-1.5116549730300903,0.2220437228679657,0.1713947206735611,-0.0189753733575344,-0.0480446256697177,0.4276018738746643,-0.9024900794029236,0.0,0.0,0.0,0.5111275230545953,0.31963853479798976,0.014436661022311448,1.53316009,-0.013132161126844748,-0.15518396222594252,0.14931682440922173,7.320219802695769,3.2091140007730825,0.40513763748947795,-0.006874350161374094,0.10313012155688947,-0.8852961681217986,0.056533237526281255,-0.005207840523013374,0.009980510499033812,-88.42889872076648,11.31633778252705,-5.164613896448124,0.0249556217935352
1332,1724560272982183035,-1.511203408241272,0.2220083475112915,0.1714600175619125,-0.0191230121999979,-0.0475526973605155,0.4270248115062713,-0.9027861952781676,0.0,0.0,0.0,-0.4591301693196663,0.43433913182525574,-0.06846276194759365,1.539858754,0.09262993418309143,-0.11468154713491564,0.19820087768623462,10.490416941157815,3.408589363473377,3.2103990725975384,-0.0061164396728232255,0.10237054774456816,-0.8839564560630513,0.05854748707091062,-0.0029151527199307026,0.010253618555523758,-93.9760871950956,14.782821028476079,-15.55163216923017,0.04558742360201453
1334,1724560272991982794,-1.5107567310333252,0.2220136970281601,0.171567752957344,-0.0194421801716089,-0.0467598251998424,0.4263067841529846,-0.903160035610199,0.0,0.0,0.0,-0.6508139509974598,0.545658622478689,-0.2663993429935741,1.549658513,0.11947710817126085,-0.11909428970517022,0.17106618268087173,4.107578013623779,-1.086927154173968,-0.5607774500145233,-0.004773709228906503,0.10121259235335879,-0.882264924843873,0.043154913317522414,0.002661350366194526,0.008016678908083996,17.32160012223788,-2.666212560363876,-3.1980500972121852,0.02728360039369572
1336,1724560273003217464,-1.5103031396865845,0.2220708429813385,0.1716194748878479,-0.0200884863734245,-0.0455920808017253,0.4253893196582794,-0.9036380052566528,0.0,0.0,0.0,0.018812557340366354,0.335058988757616,-0.08337300058256913,1.560893183,0.18324384070710525,-0.13950523172017001,0.1932061432363481,11.725278525523903,13.167925848083733,3.1305028060408695,-0.0024957134475608067,0.0996531857285168,-0.8800775344430761,0.047691197286994225,0.008490436761510622,0.004532608795610571,22.51331233070925,-14.485620142654799,3.8061363514818005,0.021235230454643324
1338,1724560273011684464,-1.509852647781372,0.2221644520759582,0.1716573983430862,-0.0214825235307216,-0.0452530309557914,0.4245761334896087,-0.9040054082870485,0.0,0.0,0.0,-0.027245679737904815,0.23959223797218926,-0.1308155288248704,1.569360183,0.3211238264053693,0.0676072285528504,0.22711309919129227,5.644486729746793,11.737403387511883,-1.3169593584669106,0.00041600887496602763,0.10022762613140568,-0.8781456037865157,0.04539397810059853,0.01015459619654191,0.00527358107645437,30.87112564790285,-2.3309216967235606,8.009416715919828,0.024891998645908204
1340,1724560273025793577,-1.5093958377838137,0.2222865372896194,0.1717504858970642,-0.0222721304744482,-0.0443687587976455,0.4241018891334533,-0.9042527675628662,0.0,0.0,0.0,1.26202073436911,0.416992307430756,0.3022362054704237,1.583469296,0.1506083203692439,-0.06593530601717071,0.08341712376048697,17.244748961984627,-6.311416868821036,19.088288996430308,0.002658621219258404,0.09929553979097856,-0.8769643029118637,0.05074784950275557,0.014547075007499188,-0.0017052166077267117,-20.029064305956467,-10.926997554722181,68.59575379341707,0.013329018543440107
1342,1724560273033839057,-1.5089032649993896,0.2224306166172027,0.1716986745595932,-0.0237059127539396,-0.0432402305305004,0.42283496260643,-0.9048640131950378,0.0,0.0,0.0,0.5897630220853958,0.22126413197387296,1.0280118795432969,1.591514776,0.42391177764060595,-0.102245756029238,0.3712897464477616,16.647062682587585,8.921846141915909,-2.1487828203396178,0.006365162815555143,0.0984594393534658,-0.8739660885502054,0.0649504127997318,0.01838677171384262,0.004382281561678525,-137.83678996237393,-48.05404688490699,8.655266741809214,0.026068532638429367
1344,1724560273042327728,-1.508318543434143,0.2225909829139709,0.171832799911499,-0.0254516080021858,-0.0428631827235221,0.4228488802909851,-0.9048280715942384,0.0,0.0,0.0,-1.066431177905955,-0.39915039254343254,0.3710648104401322,1.600003447,0.410075884870425,0.09381637830327902,0.01334285427141055,-6.189164794711777,-0.26789885764906707,-16.563947305731404,0.009858038548300248,0.0992548783167511,-0.8738458402954297,0.059428420456882236,0.01797233977804602,0.015539255151381326,-91.77055077036195,-62.10180989986697,-102.63137220908025,0.028016196759328857
1346,1724560273051850246,-1.507853627204895,0.2227523028850555,0.1719779819250106,-0.0264621004462242,-0.0415564998984336,0.4223729074001312,-0.90508234500885,0.0,0.0,0.0,-0.8364553607812399,-0.8731653239823498,-0.8758685506916211,1.609525965,0.3024363763277223,-0.1583241732282463,0.12911773187209702,-9.851025125750166,-14.660958530006372,9.16139173459666,0.012857791805628172,0.09773337153267105,-0.872627657412882,0.04483035838752869,0.010429115003093514,0.008996431098143631,48.147990214339615,-14.87573279564224,-64.44181415121042,0.01683148455305605
1348,1724560273061853722,-1.5074471235275269,0.2227881997823715,0.172002300620079,-0.0271115694195032,-0.0402499213814735,0.4215849339962005,-0.905489444732666,0.0,0.0,0.0,-0.10262752669747188,-0.6551926543728955,-0.82163894499083,1.619529441,0.21915744843835613,-0.1807990058307819,0.18927284465179747,-1.1818356647317518,2.3073791673235613,7.128303982641837,0.01523152986790074,0.0958983367909463,-0.8707510507854672,0.04378274031381579,0.0008430170229338785,-0.0017491241170777272,55.02680756402011,48.581917647394064,28.03730834393999,0.02309505224868901
1350,1724560273072725944,-1.5069339275360107,0.2227649241685867,0.171933889389038,-0.0283702183514833,-0.0390407182276248,0.4202844798564911,-0.9061081409454346,0.0,0.0,0.0,0.27903564261921865,0.1895887524356577,-0.24956834827091248,1.630401663,0.29071484230725975,-0.10189975640151022,0.2799472664734776,6.155289610441624,-2.142915681369699,8.981884031109981,0.018681412062973662,0.09473900790719517,-0.8677128082138126,0.0426917404561209,-0.002699016475945726,-0.007698010301835367,34.46581158163098,62.2145404964032,45.48706161208234,0.032604046397124734
1352,1724560273084311785,-1.5064949989318848,0.2227267622947693,0.171827346086502,-0.0297402683645486,-0.0368331186473369,0.4183454215526581,-0.907053530216217,0.0,0.0,0.0,0.6704664661665047,0.719197321498097,0.18940133249951357,1.641987504,0.35676481021402606,-0.24278088456213,0.39193473679587615,-2.581400691518585,1.4447083855501468,-2.764456239393411,0.02323407747851893,0.09183164656070751,-0.8632123678561427,0.05060858054177686,0.005860517760563511,-0.006915266989897972,70.00430738077398,21.802032880763164,42.556760661696146,0.02785727161413481
1354,1724560273091638533,-1.5060652494430542,0.2228121161460876,0.1717872470617294,-0.0305184796452522,-0.0357777774333953,0.4173599779605865,-0.90752375125885,0.0,0.0,0.0,1.3511857762725987,0.7681534753207337,0.5228338533295654,1.649314252,0.2994766555909939,-0.16916159747076365,0.3140861371714495,-7.500089142870599,9.539284436932785,-10.159276870034189,0.025635856538161184,0.09053638420747472,-0.8609326175645625,0.05546136319804729,0.011039103291555954,-0.0049630393869517925,-78.36602440027922,-51.683964335069824,-120.01524731077302,0.029765950158407432
1356,1724560273206757776,-1.5054569244384766,0.2229786366224289,0.1721382439136505,-0.0313826203346252,-0.0359481312334537,0.418028324842453,-0.9071798920631408,0.0,0.0,0.0,-317.46789363811376,-110.75228402543013,-312.68927271809014,1.764433495,0.012987148771472156,0.008811097651225168,-0.012584093198743856,20320.8848900608,7461.076882141089,1922.5218634039536,0.027001126781189433,0.09158848592843916,-0.8623600368266304,1.4569798611523765,0.21043310879923638,0.5189621038421137,1130717.047086285,118124.72773064412,850604.9757220198,0.0020511016949824328
1358,1724560273207204014,-1.504804253578186,0.2230729013681411,0.1723707169294357,-0.0335470922291278,-0.0357701443135738,0.4179052114486694,-0.9071661829948424,0.0,0.0,0.0,189.06167661033624,-57.83453897810951,68.35903687538064,1.764879733,9.116092684350544,3.3511303015157794,0.8486486228161537,9649.677915141223,2325.729101929942,2609.7177549699827,0.0311081501808717,0.09307225392457524,-0.8619362394484942,1.3147434219004026,0.16081666045488419,0.3788795192182448,1640864.7378031248,-182852.83654864485,783461.2730969838,0.7399121240156838
1360,1724560273207789447,-1.5041481256484983,0.2231283187866211,0.1724833995103836,-0.0353970304131507,-0.0351435616612434,0.4171954095363617,-0.9074469804763794,0.0,0.0,0.0,1538.1208880322383,-396.4021299458627,472.9130825363511,1.765465166,6.508836574433308,0.7462915096852472,2.8985301621431074,2474.0375049910617,-14343.484318031089,3853.5298663889616,0.03507862048238813,0.09345276265763941,-0.8602182692455714,1.8154463368555298,0.167936620125829,0.7125066855567184,2099691.1510740938,-993230.4806143832,-297547.56229501637,0.6384487564617509
1362,1724560273208070814,-1.5035433769226074,0.2231854796409607,0.1727541983127594,-0.036184724420309,-0.0340548418462276,0.4167437553405761,-0.907664954662323,0.0,0.0,0.0,2101.225069854266,-731.9722524895498,255.50835613667073,1.765746533,8.141758496647109,-4.6274535162627615,4.03039366572941,-553.1809310701283,-18404.120245464645,13833.18650713303,0.037470501583949135,0.09211048305902599,-0.8591275557583465,2.3405639720804174,0.0011525320173859654,0.8324559626683481,-1011411.5976384063,281121.7479811605,-701472.388102063,1.1560527331913104
1364,1724560273208341261,-1.50286066532135,0.2231332808732986,0.1729455441236496,-0.0364792123436927,-0.0324902907013893,0.4155513048171997,-0.9082570672035216,0.0,0.0,0.0,1044.5309452511592,-272.8376184212316,84.30594917144481,1.76601698,6.339720122881704,-9.424235034776284,10.32177355203913,-15141.432943235219,2925.577955679394,606.0927974420847,0.03943007801272578,0.08945630444482415,-0.8564250067606138,2.9699007307440297,-0.23299459547183687,0.8571576719231757,-4522466.533330098,1927289.4147939603,-737021.7606672012,1.729246322639008
1366,1724560273208609066,-1.5019471645355225,0.2230602800846099,0.1732147783041,-0.0363271944224834,-0.0320819094777107,0.41502246260643,-0.908519446849823,0.0,0.0,0.0,-329.7664682589684,304.18784182348037,-140.64829822467425,1.766284785,0.03643217331555579,-3.161400434740917,4.475758097637739,-12549.479459557671,13933.564607567954,-11051.253268571625,0.03954374107900394,0.08856300789867265,-0.8552561093731565,2.9095284368497687,-0.1488206563768415,0.8778707769175753,-2061056.292371165,705676.2590352612,-734609.3159442868,2.344984169566788
1368,1724560273209037492,-1.5010443925857544,0.223081350326538,0.1735035181045532,-0.0364761240780353,-0.0311173480004072,0.4136781394481659,-0.9091598987579346,0.0,0.0,0.0,891.7950119563775,-386.5817300781707,-383.14610474835354,1.766713211,2.1904641318272047,-3.670296101611231,7.128248146779016,5721.085215770303,3013.571942645479,11325.687017337725,0.040744995327325666,0.08686925542496356,-0.8522561999058482,2.696740119274182,-0.02543660798971814,0.6682053140406765,2492011.951053962,-280787.857786806,1248756.2369244331,1.2865450820507152
1370,1724560273209315388,-1.5001887083053589,0.2230608314275741,0.1736881732940673,-0.0368985421955585,-0.0305738653987646,0.412289947271347,-0.9097915887832642,0.0,0.0,0.0,1519.5555093048824,-224.59131595691,291.00189404094476,1.766991107,3.9053028588426346,-2.0755109423712366,11.201123324521575,4704.691689940478,-4961.413006518537,17143.594585078863,0.04209793535780858,0.08616406481775372,-0.8491583267382604,3.194845814835844,-0.25446215014727613,0.5808807863983247,73459.13862764975,1019111.6833972859,1484742.629732524,2.024631270934926
1372,1724560273209583377,-1.499302625656128,0.2229459583759308,0.1738222390413284,-0.0372084900736808,-0.0294758155941963,0.4103349149227142,-0.910698652267456,0.0,0.0,0.0,974.4272007583586,161.2473549052283,445.66832179044104,1.767259096,4.787216284105007,-6.1704224814983215,16.438270857434446,4047.8987323612564,9595.533310626719,-9409.890861530053,0.043750887706986354,0.08432294851811942,-0.8448123384757722,3.531552798181565,-0.1597053679317355,0.8152804881726752,-3615941.005196684,-355148.26305291895,-1701582.5676149414,2.464525828594661
1374,1724560273209857279,-1.4982722997665403,0.2229775041341781,0.1741337329149246,-0.0381857566535472,-0.0295299757272005,0.409623920917511,-0.9109764099121094,0.0,0.0,0.0,-458.803076628682,-438.50367148905144,-658.3158218155537,1.767532998,6.107874297171777,3.4216474455186447,5.755821093091349,-5716.1814859920805,-6191.597907990341,-12880.771082591102,0.04556120413862145,0.08518882169269854,-0.8431896226873266,3.719507496758979,-0.1693833335136219,0.8172551945949635,-4679425.746404742,-1587366.8731714415,-2959888.409328272,2.3102895746042202
1376,1724560273210131827,-1.497262716293335,0.2228526920080185,0.1742700487375259,-0.0378878228366375,-0.028185524046421,0.4085038602352142,-0.911534309387207,0.0,0.0,0.0,-1591.2882555070498,-708.564932108574,-1176.2975104278757,1.767807546,1.6385456218282224,-9.619512631817248,9.407599079528222,-14210.272778233115,-40797.99790002411,11005.706054340793,0.04621764324605115,0.08243211154424215,-0.8407221174727374,3.278441147449527,-0.4007242164572009,0.4533663029435395,-3573000.71898356,-796072.8125188679,-1572419.7361404458,2.7408352142486603
1378,1724560273211990362,-1.4961872100830078,0.2227858752012252,0.1745698451995849,-0.0385508053004741,-0.0267274193465709,0.4077421128749847,-0.9118914604187012,0.0,0.0,0.0,-1288.1639464210077,171.95534540806406,-145.02906640842605,1.769666081,1.253644119996432,-1.1186091247163297,0.9837720029040771,-189.58928825303082,3958.5856392165397,-3919.2569597270044,0.048688451110396616,0.08026875300597384,-0.8389887399003517,0.5125872754161236,-0.030981751663393453,0.14320557872262807,155696.96358661688,406618.77406587615,480265.102952131,0.39916762204537987
1380,1724560273223650117,-1.49504554271698,0.2227881550788879,0.1749154180288314,-0.0403477028012275,-0.026041816920042,0.4070161283016205,-0.9121578335762024,0.0,0.0,0.0,-14.191636130983143,0.9042145140206306,-3.435933458316319,1.781325836,0.32392651034370906,0.022014803645296663,0.1449580451018629,-22.13199946699124,44.93340285352747,-34.75558033849367,0.05260233452785822,0.08043954572943618,-0.8372822082441475,0.12463374655173709,-0.00014068375848808046,0.05090582417425793,46338.807727180414,-6144.319238230881,5311.687904620304,0.0628144332325536
1382,1724560273231861388,-1.4938676357269287,0.2227850556373596,0.1754564046859741,-0.0422778539359569,-0.02555388584733,0.4067726135253906,-0.9121927618980408,0.0,0.0,0.0,2.4402919606518534,-0.2456717614977609,0.6719560361134176,1.789537107,0.4753094737352935,0.08511426709249698,0.07460278474313324,3.610965881436189,1.1266421008927052,-4.584120849986206,0.05655782427038857,0.0811039714736475,-0.8366301776141777,0.11844360942485821,-0.0027828932816706953,0.04859992740188224,1316.3927606651841,-85.21317491567277,319.0032972587802,0.09073280850771445
1384,1724560273248483522,-1.492740273475647,0.2226578593254089,0.1756826788187027,-0.0421876832842826,-0.0244982987642288,0.4058167636394501,-0.9126515984535216,0.0,0.0,0.0,0.4612986276205788,0.1826506478186487,-0.12499685794328386,1.806159241,0.036494302964732064,-0.11681913086510569,0.13246015683019993,127.8194929025876,-24.690650893285525,39.98679337591067,0.057331969783210576,0.07904003369666188,-0.8345358850114524,0.2664842163310368,-0.004305623447258711,0.0918285992541783,-1195.6843875002571,28.28506202023744,-432.5329893586198,0.04998003462996994
1386,1724560273252338018,-1.4915355443954468,0.2226442545652389,0.1761065423488617,-0.0432013608515262,-0.023558048531413,0.4053044617176056,-0.9128565192222596,0.0,0.0,0.0,-5.109768858567185,0.2939249227494335,-2.1359444154342833,1.810013737,0.6670174780439108,-0.22319956082650708,0.319218806275538,106.88112864409865,-17.13548566630154,31.385145607402336,0.05999572412653511,0.07810904492861376,-0.8333543081227623,0.2607140669989363,-0.0033564597994395484,0.08891055378161727,-1078.8600117677872,9.013776823733755,-418.57196954585913,0.20354192848367353
1388,1724560273262228718,-1.4902725219726562,0.2226154506206512,0.1764515489339828,-0.044256504625082,-0.0223706848919391,0.4044771194458008,-0.9132026433944702,0.0,0.0,0.0,-6.479230547457523,-0.12083438899903659,-3.6581805955336053,1.819904437,0.28511532015183055,-0.12711938645806212,0.19648423489265276,-24.350504905691633,6.773731221258851,-5.238144041508059,0.06296018924705826,0.07673470708220448,-0.8314861330983465,0.11848368633496875,0.0007606780562845472,0.03278863900584028,263.4188869028625,-35.9607929617185,33.08496047318018,0.08525852847401783
1390,1724560273273478172,-1.489057540893555,0.2226710021495819,0.1767936199903488,-0.0450786054134368,-0.0214181784540414,0.4033450782299042,-0.9136859178543092,0.0,0.0,0.0,1.6260700037869977,-0.4489437808182182,-0.8934703767243427,1.831153891,0.19366257200112125,-0.0885414405927297,0.22930927233723997,-0.4376095969742906,12.63912428852522,0.32260883779041727,0.0653303527131854,0.07557536595290004,-0.8289684828023204,0.14668792964383215,-0.007470740807814735,0.017430945385735086,180.53158454143696,19.99362095051474,191.55514960835637,0.06683678399084003
1392,1724560273281541789,-1.4876511096954346,0.2225390374660492,0.1768591701984405,-0.0460698157548904,-0.0212426129728555,0.4025538563728332,-0.9139895439147948,0.0,0.0,0.0,-0.039248907292168234,-0.0035759260571431306,0.3378297726317928,1.839217508,0.23459319386220226,0.0666083633777819,0.21690973488765788,3.2022079518558026,3.5604272416129827,-2.176582500980598,0.06735725327991715,0.0759953443763177,-0.8271826250537666,0.1547071973490901,-0.009456419323466747,0.01295291150256439,-104.19108394057206,33.31274820058803,117.77002089370094,0.12912457523859433
1394,1724560273292715471,-1.4862276315689087,0.2225403487682342,0.1770785897970199,-0.0470171459019184,-0.0199562758207321,0.4016840159893036,-0.9143529534339904,0.0,0.0,0.0,0.380979220860052,0.029271939085003418,1.1129513949787504,1.85039119,0.24136178888809706,-0.13639079483505925,0.18269752120804453,3.691751990380336,-7.046233048598033,-6.217807010333467,0.07019964190901926,0.07433467034489276,-0.8252453614276886,0.1382628266326691,-0.00573896243252392,0.03055687468206436,19.211157635278006,2.753802974813957,-40.83830502037169,0.08463919740961597
1396,1724560273302999795,-1.4847028255462646,0.2224258929491043,0.1774962097406387,-0.0482629165053367,-0.0188104324042797,0.4013222157955169,-0.91447114944458,0.0,0.0,0.0,0.4044059868372649,0.055832784030343585,-0.3502504180118451,1.860675514,0.30854018061239097,-0.10358427305738246,0.08887813196329672,-1.9448070598573857,5.975933422161327,-4.398940163485654,0.07343449388431826,0.07320652716743506,-0.824407761292377,0.15971799860218994,-0.008310072607235597,0.03762460271776469,-71.675522072798,23.808766772978277,-58.71283513492807,0.10557960465355881
1398,1724560273311494894,-1.4832656383514404,0.2223750799894333,0.1777949035167694,-0.0491161681711673,-0.0182674564421176,0.4010185599327087,-0.9145699143409728,0.0,0.0,0.0,-0.7234274479794349,0.40703756562566784,-0.2626532711787337,1.869170613,0.23253496347633112,-0.033268475371797605,0.08465509566662388,-4.872535544712704,4.152534517155286,3.9840096353188423,0.07546083527163053,0.07287119866493562,-0.8237097348216122,0.15135204595810592,-0.005689671283217734,0.027369006814694785,-54.66547084836357,-6.709154082497028,18.287978447248783,0.11646916583003371
1400,1724560273322578884,-1.4818458557128906,0.2223162353038787,0.1779855787754058,-0.0502350106835365,-0.0174493268132209,0.400073379278183,-0.9149389266967772,0.0,0.0,0.0,-0.19990672180096247,-0.36223581820367423,0.055405234750210086,1.880254603,0.23745137751939135,-0.04689239103869994,0.19361915574939895,3.811143964929963,-0.16485683576319277,-3.376346722839476,0.07824530442773275,0.072188198408948,-0.8216042725248712,0.14711347809929975,0.00024753758427209505,0.03811818403677769,18.41575736657259,-98.69993094148906,-75.36227158572461,0.08964682624856987
1402,1724560273331576410,-1.480383276939392,0.2223590463399887,0.1784813106060028,-0.0513868853449821,-0.0167337357997894,0.3998305797576904,-0.914994478225708,0.0,0.0,0.0,-0.2446802588171666,-1.4642631424874575,-1.382686652485556,1.889252129,0.2963384738258963,-0.040602269057252095,0.066778041031642,-6.68018303673442,-8.6493004907628,-2.0746995174002354,0.08095271389476613,0.07177626203068255,-0.8210329314816285,0.1466477433330553,-0.009569731392382153,0.031938169049490206,30.991769409914355,-49.08335124736804,-64.72243510731195,0.10306488927042622
1404,1724560273342592417,-1.4789823293685913,0.2220603823661804,0.1785207986831665,-0.0510525368154048,-0.0152573809027671,0.3988695740699768,-0.9154583811759948,0.0,0.0,0.0,0.5818364669472391,-1.0150269286225428,-0.8128984255744974,1.900268136,0.044379970535701196,-0.2619677139666546,0.20607609694304654,-2.646818643207096,-9.571910962175146,7.625429837453976,0.08158433436858087,0.0687156663372082,-0.8189996281636966,0.14135040302213042,-0.030732928429534567,0.007321615823880023,-18.50567987607332,96.13135963963997,86.95926639998706,0.10615998608426239
1406,1724560273352725077,-1.4774179458618164,0.2217152267694473,0.1786298155784607,-0.051499243825674,-0.0135697806254029,0.3978549540042877,-0.9159013032913208,0.0,0.0,0.0,-0.47742945005696313,0.4749193151622735,0.3966312448217109,1.910400796,0.20606264059009094,-0.2608809308186374,0.23655830801153904,1.7571032727700784,-4.729320888546653,1.451276991774158,0.08381858407361933,0.06588326995568583,-0.8168242515247955,0.15715059581927449,-0.032572824730779715,0.012335415023146723,215.5485356043879,62.62833657048821,120.907976548249,0.12952632881297133
1408,1724560273362245011,-1.475897192955017,0.2214184701442718,0.1787613481283188,-0.0512707643210887,-0.0118081588298082,0.3969150483608246,-0.9163461923599244,0.0,0.0,0.0,4.437531317019525,0.3161018634425533,1.56142851894418,1.91992073,0.09578627717891298,-0.34916334891335027,0.23644783616574974,-7.10450019217007,-0.4724487285196495,-3.610830436547217,0.08485652323812308,0.06238144969299849,-0.81485721132117,0.1343881650049994,-0.022179716798810034,0.015233131067570405,240.39469587928815,-11.531771064415892,26.96613001557472,0.13114310599409787
1410,1724560273378161596,-1.4744329452514648,0.2213047444820404,0.1790415048599243,-0.0516347996890544,-0.0105591313913464,0.3963674902915954,-0.9165779948234558,0.0,0.0,0.0,0.9221056041538986,0.2696261877599593,-0.5477433630239013,1.935837315,0.10190500881112596,-0.12247776282328848,0.08319571273981041,105.22329982700833,-64.58741296803248,97.91199181407382,0.08654930380315685,0.0603258299117025,-0.8137025977351667,0.3867352541572018,-0.0377886656153521,0.07353730965303384,-2092.5255724523886,197.8260724541845,-456.90108411497175,0.06719107792701673
1412,1724560273381550222,-1.4729098081588743,0.22115458548069,0.1793310493230819,-0.0522055812180042,-0.0095389327034354,0.3956465721130371,-0.9168683290481568,0.0,0.0,0.0,-7.518962534879936,1.0848100279081323,-2.3300344775779784,1.939225941,0.5341018828917731,-0.3982107420744115,0.49256630774745974,88.80467146620057,-46.022775632378725,79.58462480962808,0.08845133594203294,0.058835747958587314,-0.8121551089090683,0.37908727798429,-0.03597299408484922,0.06864335506750319,-1749.8186576634448,168.36480007409952,-315.9864098159327,0.3357627679520837
1414,1724560273391868878,-1.4712101221084597,0.221045434474945,0.1795113980770111,-0.0537945926189422,-0.0101815704256296,0.3955058753490448,-0.9168301224708556,0.0,0.0,0.0,-2.28593231851273,0.5535013041136059,1.0071175570160706,1.949544597,0.23322985391331308,0.23755238951091354,0.018508670621723088,-20.272131874575496,35.706638839019845,-28.00454231772927,0.09088256558744104,0.061260004587211106,-0.8117444612475914,0.13616314912069427,-0.007529088078400026,0.01676749307968084,-35.588412880241776,-26.05052537904306,22.700595512723368,0.11974285271696439
1416,1724560273411577116,-1.4696015119552612,0.2210118174552917,0.1798151135444641,-0.0551960580050945,-0.0091446470469236,0.3942588269710541,-0.91729474067688,0.0,0.0,0.0,-23.416787953342805,0.9976876593354618,-9.864774735588583,1.969252835,0.16818592430115525,-0.0338986039732124,0.14178240963599728,548.9014569658061,-1388.052446563336,569.948342895812,0.09436282523935552,0.060336341599905245,-0.8090189114446823,0.8912404274103665,-0.0795477221061276,0.2637666518891848,-6191.924895879398,535.2348891270289,-2088.989317003292,0.05653593937848087
1418,1724560273413054444,-1.4681951999664309,0.2208856791257858,0.180232286453247,-0.0552564822137355,-0.0072835059836506,0.3936474323272705,-0.917570412158966,0.0,0.0,0.0,-33.131254104513175,1.8451813908349515,-13.121143588597343,1.970730163,1.0402444601202685,-2.236695541627774,1.0462066846664357,501.6249111986105,-1271.5581400071153,522.0284811660804,0.09597149573413218,0.05690010239116226,-0.8077923401549801,0.8498101948968788,-0.07755865388149896,0.24671282911677217,-5703.510513517878,511.5476930657114,-1885.5755975760576,0.7023623387705282
1420,1724560273423033935,-1.466598629951477,0.2206391245126724,0.1802897155284881,-0.0553253889083862,-0.0065113431774079,0.392875075340271,-0.9179030060768129,0.0,0.0,0.0,-31.25297157605072,2.7625817462839626,-10.457051281485565,1.980709654,0.0687776988996707,-0.1284902247287968,0.17691995380429631,-35.46512238967287,84.63555989959383,-17.375312358488394,0.09674974925234107,0.05545391264498041,-0.806155717149014,0.1762351867955374,-0.025520344587310007,0.009430834959614387,1994.0020660995724,-79.02586967024274,818.7462678875916,0.1280662300075703
1422,1724560273431575994,-1.4649744033813477,0.2204151749610901,0.1803971529006958,-0.0556399561464786,-0.0047189206816256,0.390847235918045,-0.9187601804733276,0.0,0.0,0.0,-1.0167588783088402,0.837575181065582,0.5712321315708557,1.989251713,0.21828762158961346,-0.3313193509090307,0.5383566383748181,5.540356327589051,-5.998520570262649,8.67418962714463,0.09884604232717902,0.05218824583866165,-0.8018490146020195,0.1742670964495261,-0.019850017803317854,0.01749692521546642,1939.5081965062175,-110.41496643004992,735.1112178778492,0.15020169550509763
1424,1724560273441923406,-1.4633702039718628,0.2202895879745483,0.1806398630142212,-0.0558966360986232,-0.0035927477292716,0.389917641878128,-0.9191447496414183,0.0,0.0,0.0,-1.0050244008059845,1.1357775878331282,1.2093286375298264,1.999599125,0.12567486682875856,-0.17095142146141581,0.2064773781629099,-4.102115902931713,16.83821977305438,-16.06609325369667,0.10024641890439637,0.0502157810619672,-0.7998965213578877,0.15388979640343337,-0.009005286406475577,0.018731804234372262,-9.24560611158708,-5.456672874652945,52.48968623905038,0.11540584115067337
1426,1724560273452086537,-1.4618176221847534,0.2202293276786804,0.1807830780744552,-0.0565454512834548,-0.0033360898960381,0.3889677822589874,-0.9195082783699036,0.0,0.0,0.0,-1.20259979869489,0.7381760896176683,1.65117648159658,2.009762256,0.13238004089334468,0.013552256184719056,0.20298510078901646,3.5721578797796827,20.73614655133256,-22.173236044273857,0.10169556669586582,0.050144854403168126,-0.7978273948589241,0.15330126460433746,0.0034133565678224898,0.041902761777544484,353.3994021848489,-127.55084410817732,-150.6626676256015,0.11006969075771128
1428,1724560273461613796,-1.4603523015975952,0.2203452885150909,0.1814306825399398,-0.0578188858926296,-0.0040599978528916,0.3897973597049713,-0.919074773788452,0.0,0.0,0.0,5.494224040552699,-1.2668074443558939,-1.5181075726784066,2.019289515,0.1924240853931207,0.23417055715259552,-0.2032290828983449,3.374140274321824,8.512728174043716,-21.829255078561363,0.10344158794376727,0.05256238125615186,-0.7995272474092875,0.13162035087003687,0.006125655009551423,0.05201867940782812,298.0753576534225,-106.6232796827094,-197.7314580496565,0.09477319098456354
1430,1724560273479053454,-1.4587650299072266,0.2202591150999069,0.1818285286426544,-0.0587978065013885,-0.0028031729161739,0.3892014026641845,-0.9192699790000916,0.0,0.0,0.0,-2.2311677029944406,0.18811768305158694,-0.6592911858515187,2.036729173,0.15779003772120348,-0.08484918527100467,0.08032980827024565,130.44328072957194,-85.04616785897483,373.7853033538401,0.10625755567321188,0.050944156038500374,-0.7982873207391328,0.4754785530366803,-0.06549591541338629,-0.05681537232714362,-2258.803097701572,475.8456877366143,689.9121423089579,0.06581258457089212
1432,1724560273482103542,-1.4571096897125244,0.2200270444154739,0.1816127598285675,-0.0594562217593193,-0.0017723607597872,0.3872586786746979,-0.9200502634048462,0.0,0.0,0.0,-10.089352124133761,1.8488217112772736,1.7867599698142107,2.039779261,0.6262967591509345,-0.3798565092701085,1.4111270044371371,111.73288821901745,-71.08530774896784,323.8904920151353,0.10837631648726762,0.049331203758716184,-0.7941268080845034,0.4569652181115309,-0.06263104100782568,-0.055848963148401154,-2031.496077248552,428.06401238854124,643.9487060395892,0.4376243370830633
1434,1724560273493694228,-1.4555902481079102,0.2198937684297561,0.1816214025020599,-0.0597018972039222,-0.0011278290767222,0.3861468732357025,-0.9205026626586914,0.0,0.0,0.0,-9.63587788341728,1.6828392023587924,2.2907734835832985,2.051369947,0.07709048019656058,-0.07463918195491342,0.21342468745629073,-13.487226767220255,2.6322484538217363,-44.135707595014665,0.10938529891127709,0.04820240518635207,-0.7917590492686688,0.16297645389630588,-0.0011401298673483495,0.029604543044243314,653.089460735105,-182.03535076653932,-233.9077893519181,0.10013410076628745
1436,1724560273502026193,-1.4540413618087769,0.2199463099241256,0.1820409148931503,-0.0600328557193279,-6.170530105009675e-05,0.3854277729988098,-0.9207830429077148,0.0,0.0,0.0,-0.5170543006634549,-0.8383908689426923,-1.319559783248692,2.059701912,0.16773433449542316,-0.19466134361110998,0.20024676434775834,-5.249881273004966,-10.919706922213598,4.943450108984839,0.11085290033213185,0.04640694940885903,-0.790277134146823,0.1768945409335032,-0.00881466288818089,0.01825391900370299,525.4653485704387,-111.16990415960467,-149.65622762327186,0.12385357594546247
1438,1724560273511445384,-1.4524710178375244,0.219702273607254,0.181871086359024,-0.0593283176422119,0.0010599212255328,0.3841290771961212,-0.9213706851005554,0.0,0.0,0.0,-1.6261859288441363,0.15285247139686917,0.2912387117934555,2.069121103,-0.05346078566765332,-0.2604034828683267,0.3162907864220812,3.1112829778276065,1.1570217916837766,4.15595973821992,0.11047055681089678,0.04364015364766752,-0.7875843944036365,0.14873118903002336,-0.015830967050060707,0.006279828305499002,-7.7626498962313,67.6148587888693,91.13618997356726,0.1366462011455052
1440,1724560273523262818,-1.4509800672531128,0.2196646034717559,0.1823057234287262,-0.0610961057245731,0.0026891136076301,0.3828391134738922,-0.9217886328697203,0.0,0.0,0.0,-0.08718069054060607,0.3940958662611901,0.1839659562389635,2.080938537,0.3776081008432431,-0.12609453580647773,0.24436170769815144,-9.255225918056563,16.868123995837905,-14.979865587537825,0.11504845741987009,0.04183457079020495,-0.7848801865423582,0.1497341140163826,-0.0007143766980775013,0.032887360161502954,91.59657039482659,-50.13533480211886,-101.16290111646282,0.08989315966158958
1442,1724560273531998324,-1.4495198726654053,0.2196743339300155,0.1825678795576095,-0.0611962415277957,0.0024778540246188,0.3825981616973877,-0.921882688999176,0.0,0.0,0.0,0.4634815451405414,-0.4994232071410126,-1.2943689506239293,2.089674043,0.001448593167396967,0.05679046575362628,0.05607884866639703,-20.486892270020753,12.553640589908984,-10.434562168286845,0.11508399970635536,0.04227114513290726,-0.7843362016743626,0.1478615698497805,-0.0029870107176046545,0.021143330830107665,52.36358652190154,-66.47357460449872,-88.8040098858461,0.11616278731151082
1444,1724560273545089122,-1.447962760925293,0.2195547819137573,0.1826707124710083,-0.0623985491693019,0.0026319164317101,0.3817417919635772,-0.9221566319465636,0.0,0.0,0.0,0.9395719267828895,-0.6670662620190314,-0.8790689209405825,2.102764841,0.17610664769468254,0.05668999353806309,0.13761290923739763,3.755884061384325,-31.04639859826013,33.31027735700034,0.11746919518339437,0.04279925481329822,-0.7824591017828337,0.16722648789401262,-0.01421859984248286,0.005180527467443241,-179.37228910037936,34.4224475903871,85.37216478708147,0.09037451458488498
