seq,stamp,px,py,pz,ox,oy,oz,ow,lx,ly,lz,ax,ay,az,timestamp,wx,wy,wz,aa_x,aa_y,aa_z,roll,pitch,yaw,vx,vy,vz,jx,jy,jz,fw,fw2
15264,1724557935955779918,0.4747784435749054,-1.217243194580078,0.1745738089084625,-0.0159059148281812,-0.1915718913078308,-0.1522192656993866,-0.9694722890853882,0.0,0.0,0.0,8.191781437397498,5.645059155530783,-2.711029114295056,75.066972552,0.2101860258038243,0.2528145725248194,-0.0600251290875585,-0.6565654123824962,-24.404868378290058,13.32632771257176,0.0959821980340134,0.375357225361297,0.329723797410353,0.119957231993018,0.0609394339124165,-0.0537078965419728,185.61091410266192,119.42684658457628,-3.322998716271229,-8.690075682609561e-05,-0.001144705862976
15266,1724557935973112160,0.4761283993721008,-1.2165534496307373,0.1741253286600113,-0.0155772725120186,-0.1924850940704345,-0.1516691893339157,-0.9693830013275146,0.0,0.0,0.0,-12.09601607960957,-6.909641218232423,3.8284180107702497,75.084304794,-0.00840089717341,0.1088960125911364,-0.0689093115246118,265.64467331386703,919.2699479935574,-398.71794300252424,0.0954380442874297,0.3773501755493325,0.3286394161223376,0.5894278081738094,0.3699088087736299,-0.1987078763456367,-4517.70008387943,-2819.6007644775236,1490.4592422052726,0.0001145724776866,-0.0008513285834497
15268,1724557935974955823,0.4773154258728027,-1.2158067226409912,0.1737250834703445,-0.015622011385858,-0.1943466514348983,-0.150814026594162,-0.9691442251205444,0.0,0.0,0.0,-21.081560351237584,-12.518941554719152,6.794628636623551,75.086148457,0.5359282717294686,1.9856300354383083,-0.882104429682766,242.7146485408042,831.0447693103464,-359.47060176849675,0.0959203076042427,0.3811496172323784,0.3272731884819507,0.55944258646793,0.352318701660586,-0.1892580866740822,-4167.241616708729,-2601.0925948503696,1381.3457927057268,0.0001040937967355,-0.000744989922365
15270,1724557935984828810,0.478376567363739,-1.2151148319244385,0.173328161239624,-0.0160214118659496,-0.1959507465362548,-0.1501309722661972,-0.9689207673072816,0.0,0.0,0.0,-24.87128159368248,-14.86321952745111,8.403358271163903,75.096021444,0.1550162867543849,0.3093535734731955,-0.116624205186979,-38.37245750043765,-89.4365367838916,34.507103408762305,0.0971078966213492,0.3843006355677218,0.3263550339318594,0.0965932665023459,0.0712652331976855,-0.0339294227129638,906.3598528062292,566.1865204768039,-273.8852695986282,6.103288599706503e-05,-0.0007018813699214
15272,1724557935995141068,0.4792554080486297,-1.214367151260376,0.1730458438396453,-0.0144081665202975,-0.1970456540584564,-0.1492722630500793,-0.968856692314148,0.0,0.0,0.0,-1.6277473389523576,-0.3685988165736642,0.8738783627568939,75.106333702,-0.2384416882322731,0.2524906839032189,-0.2242108655064262,-4.972298478752691,-12.150881475290188,6.834510528610238,0.0938152347098726,0.3871128920302672,0.3241387800520282,0.0771757345336823,0.0645182631205401,-0.0262166141973017,1170.2429626174642,739.458771916425,-378.74923369376,0.0001021697103392,-0.0005271958339221
15274,1724557936006079943,0.4800062477588653,-1.2137540578842163,0.1727725267410278,-0.0149168502539396,-0.1973424255847931,-0.1494460254907608,-0.9687618017196656,0.0,0.0,0.0,-1.4017220073370251,-0.0090413977319658,0.8082733208058663,75.117272577,0.0921976826076758,0.0425634418011483,0.0509144537701145,10.192509743201835,-1.801209340489967,0.2652054786313318,0.0950678639807744,0.3875238944960762,0.3247850230126514,0.0623313452789879,0.0638009768829164,-0.0151958741932727,6.0687768780711195,-7.201041290866389,-33.83273964370083,5.6971366503322056e-05,-0.0004817652345962
15276,1724557936015933566,0.4805644452571869,-1.213056564331055,0.1727096885442733,-0.0146928960457444,-0.1982206255197525,-0.1486458778381347,-0.9687089920043944,0.0,0.0,0.0,-1.4714577012997052,-0.4356671270205341,0.2278308751221244,75.1271262,0.0148120221043201,0.1791668977304703,-0.1673609642122842,-4.855102904395916,-2.5493768597152813,-6.292437783440436,0.0946103161830243,0.3894375369297995,0.3231917564391627,0.0481226233057405,0.0642136561025736,-0.0089996542131718,1.2513319430883951,-21.80348400875291,-27.90087823359672,0.0001801810357684,-0.0002088449664823
15278,1724557936026437977,0.4809744656085968,-1.2124556303024292,0.1725857853889465,-0.0146459704264998,-0.1980631202459335,-0.1483619511127472,-0.968785524368286,0.0,0.0,0.0,-1.3650492077602552,-0.4240190936950525,0.2819551395108788,75.137630611,-0.002611117932701,-0.0314046116578451,-0.0558633909795879,-1.1300753578099738,-14.773211030583308,8.141784210533034,0.0943304790620909,0.3891645401174975,0.3225267325674136,0.0323357241714532,0.0542895597585371,-0.011096847325982,13.12211414605865,35.58852068206087,36.95748857391877,6.326689382136068e-05,-0.0002173269032094
15280,1724557936036459762,0.4812344908714294,-1.2119394540786743,0.1724812537431717,-0.0147008560597896,-0.1974298804998397,-0.1483714133501052,-0.9689124822616576,0.0,0.0,0.0,-1.2049325173878158,0.2623128344795833,0.9564329792074844,75.147652396,-0.0088826130341202,-0.1290435849434578,0.0020907229981645,-3.624635463738056,0.0975216782590937,1.3788798926120525,0.0942001697217299,0.38787505524058,0.3224177354625274,0.0199733678825602,0.0550190625142761,-0.0036663777023324,21.454247284331217,1.7283121528244116,19.8515832729971,1.981448006319037e-05,-0.0001497394826925
15282,1724557936045812761,0.4813691675662994,-1.211394190788269,0.1725060045719146,-0.0143960397690534,-0.1971922367811203,-0.148325890302658,-0.968972384929657,0.0,0.0,0.0,-0.956459739027317,-0.3042222022622605,0.7279248273461918,75.157005395,-0.0689603097345605,-0.0422379486798359,-0.0234538611986898,2.382352934684606,10.480593495759983,-5.4491746877254394,0.0934508784621819,0.387502264176331,0.3221418258649411,0.0089534183156274,0.0591267744771926,0.0071558509941418,31.87837213489758,898.1218745841775,58.68969192781103,9.15415911377396e-05,1.9033129523540397e-05
15284,1724557936055281426,0.4814017415046692,-1.210826396942139,0.1726169884204864,-0.0144279012456536,-0.1975400000810623,-0.1478312313556671,-0.968976616859436,0.0,0.0,0.0,-0.6036920127154825,17.38960901462324,2.0804181387729246,75.16647406,0.0380068728207608,0.0684978333652509,-0.1011044625199034,7.518998715861154,7.749041950419227,-5.409367800230003,0.093446044706331,0.3882373054106275,0.3211775361071184,0.0020228229682679,0.049120056814214,0.0099344861145214,37.41883412377657,-1609.991016897939,-262.49473986625355,0.0001321712603643,0.0001389828472083
15286,1724557936080912488,0.4813552498817444,-1.2103198766708374,0.1727476567029953,-0.0139340087771415,-0.1974062770605087,-0.1473372429609298,-0.9690863490104676,0.0,0.0,0.0,0.3666671095093221,-265.2314693527642,-32.77030354642386,75.192105122,-0.0313946748770939,-0.0066610937287156,-0.0460784042613409,6509.979841367797,-3993.160200056897,-9105.868232187122,0.0921539792136925,0.3881767673379551,0.3198899604265716,-0.0045516532311467,1.7746776912827045,0.1872401552138853,45.89205996803048,-26851.376000432647,-2812.129480509757,0.0001182397564353,0.0001811745345896
15288,1724557936081192198,0.4813539683818817,-1.2098181247711182,0.1728005856275558,-0.014130282215774,-0.1972947120666504,-0.14692984521389,-0.9691680669784546,0.0,0.0,0.0,0.3795280990274863,-272.79037244791965,-33.56131774037454,75.192384832,1.8093914775160305,-1.1357679275095225,-2.6208826210452596,6198.61644828844,-3805.7615244796984,-8664.9264875299,0.0923497218733263,0.3879279570771705,0.3190697329700995,-0.0044471905709251,1.6994746894480812,0.1779528280092053,42.78531133196148,-25031.27768230847,-2588.637876458885,6.363930322006911e-05,9.2104657483701e-05
15290,1724557936085986003,0.4813436865806579,-1.2094231843948364,0.1727273166179657,-0.0146255986765027,-0.1963804960250854,-0.1474114507436752,-0.969273328781128,0.0,0.0,0.0,0.3221839746029462,-229.0603813408277,-26.306769496675443,75.197178637,0.103973220438167,-0.4058438504320873,0.2344409291367315,-239.15304351034732,111.36602794005972,393.4367876407131,0.0932306567284367,0.3858867124896237,0.3200834736241116,-0.0021298962056981,0.068907456117941,-0.0123383543381647,-18.688057738832622,13792.19253788066,1925.0705461906584,-5.987638473141519e-05,-2.9652951244894072e-05
15292,1724557936095737672,0.4813232123851776,-1.209018588066101,0.1726654320955276,-0.0151785928755998,-0.1958173662424087,-0.1476054191589355,-0.9693491458892822,0.0,0.0,0.0,0.006521541876742,-1.9242778886386072,0.6338586451558441,75.206930306,0.0848655272723101,-0.1311357990598055,0.0602287643182221,-9.85265529836868,17.796679051337012,-11.128104604558096,0.0942467914135884,0.3845584888421683,0.3205852475458228,-0.0021859902447225,0.0386906091527379,-0.0032854666860249,-14.437139355754027,12335.7634756867,1432.842753317658,-5.349180455007546e-05,-1.4134654921026526e-05
15294,1724557936106514285,0.4812986254692077,-1.2086349725723269,0.1726664751768112,-0.0146479671820998,-0.1953954398632049,-0.1478291749954223,-0.969408392906189,0.0,0.0,0.0,0.0645067020519456,0.5322678269255638,0.2377798350029923,75.217706919,-0.1153154052705102,-0.0628910110193084,0.0205353706574725,-16.121562146848934,5.665271443762277,-3.262419191666589,0.0930675446773553,0.3838630436454822,0.3207545655852106,-0.0019695380471642,0.0319391430284092,3.8292381373983275e-05,-9.58351389184628,-120.47092436412774,-75.52011979680026,2.8091017396856185e-06,4.322706617613752e-05
15296,1724557936184091291,0.4813200533390045,-1.208199977874756,0.1726367771625518,-0.0148106459528207,-0.1955657452344894,-0.1478912085294723,-0.9693621397018432,0.0,0.0,0.0,-9.035679118525572,-203.38979269126344,-27.270006946077395,75.295283925,0.0044197300928604,0.0038927286828891,0.0024818040557256,1725.9172763143558,2045.1167565408784,-53.48651433132798,0.0934992412261586,0.3841458013373177,0.320991671146229,0.0278417632412129,0.7203397105186014,-0.0209662797894907,-4291.582726513629,137202.62357167786,49943.26960958169,-6.523226552117529e-06,2.2087686688433214e-06
15298,1724557936184710452,0.4813374280929565,-1.20775043964386,0.1726236939430236,-0.0150747299194335,-0.1959995776414871,-0.147822305560112,-0.9692809581756592,0.0,0.0,0.0,-11.71348769354039,-117.7482784306192,3.901473463280244,75.295903086,1.081561691731075,1.2802513127731177,-0.030898122592548,1250.3094237187622,1432.1494992682378,46.5508176191805,0.0941912553203568,0.384936791190757,0.3210512590080405,0.0222006727464076,0.5933597455631912,-0.0379842260724032,-111.26112320595551,144579.38755176472,72414.80754437222,7.5190836713431156e-06,2.0589732551355095e-05
15300,1724557936186783923,0.4813427627086639,-1.2074414491653442,0.1724279075860977,-0.0155255040153861,-0.1959094852209091,-0.1485312283039093,-0.969183623790741,0.0,0.0,0.0,17.314144101046043,225.5057044161831,307.30010988320237,75.297976557,0.2759892079723227,-0.1197943126883334,0.7632063924642554,-373.05017031265623,5689.9050503456465,-5321.220263250236,0.0953918807483042,0.384539693119384,0.3227254907897687,-0.020158813366379,0.9556465387458956,0.1880477528549704,216788.50487176504,-346122.8791908789,-839594.1764917553,-0.0001699291815958,-0.0001553831655273
15302,1724557936187185545,0.4813328981399536,-1.206994891166687,0.172525405883789,-0.0153994271531701,-0.196436733007431,-0.1481807380914688,-0.969132661819458,0.0,0.0,0.0,120.15661225674084,46.69123656081035,-106.5963001561298,75.298378179,0.1273670194263663,2.6605547900472395,-1.8176562579149256,-4176.351886296792,4016.668725427098,-5467.7088684730115,0.0951896998613973,0.3856729178873965,0.3220511284464324,-0.0102689228895087,1.0501649583302424,0.3268915869166733,157387.4401978781,-477484.4827569714,-1026477.5557973804,9.879472867213435e-05,0.0001329644115394
15304,1724557936187780791,0.4813393950462341,-1.2064242362976074,0.1727942079305648,-0.0133936982601881,-0.1969210058450698,-0.147306814789772,-0.9691973328590392,0.0,0.0,0.0,126.78334097106878,-265.9842789298734,-713.9995082532013,75.298973425,-5.716570067146728,2.48762133974798,-4.2267800986232045,19744.116847625533,-13665.513530229964,12270.115641401884,0.0908233077225849,0.3873808747830581,0.3194949176503101,0.1455335555250485,0.9115270295869776,-0.1355897981669613,-282395.01454457524,-242616.6621399887,445835.8193473787,0.0002686554248167,0.0002933265436919
15306,1724557936188159716,0.4814270138740539,-1.206090211868286,0.1726011931896209,-0.0153549285605549,-0.1960712522268295,-0.1477599292993545,-0.9692715406417848,0.0,0.0,0.0,-51.0274240395603,-289.73235900504443,-191.3726871774266,75.29935235,8.895813132983488,-5.916873899494915,4.3587245446652805,16313.150973235845,-10645.886732178426,11637.37265355923,0.09477835158447,0.3849954104177583,0.3210458973318392,0.1610198028183731,0.8027604882572632,-0.3909552305217971,-320126.70717920305,8478.875213381165,1239862.6478181952,-0.0001349706546117,-0.0001816919157069
15308,1724557936188690665,0.4814602732658386,-1.2057225704193115,0.1724817156791687,-0.0158523321151733,-0.1953320205211639,-0.1482972353696823,-0.969330668449402,0.0,0.0,0.0,-110.05549686666826,-232.2965844707107,363.2426394096652,75.299883299,1.0043605236785311,-2.9884434673368028,2.3389672068783462,-9726.251200922696,4171.7520900343625,-3753.144167848567,0.0957503191036712,0.3832977189810656,0.3222164877663966,0.0655592191264133,0.6469241837778554,-0.1335655975502021,-16886.27934303785,114304.713337553,541590.2328464584,-8.754848218528463e-05,-9.014105342820257e-05
15310,1724557936189522314,0.4815185964107513,-1.2052438259124756,0.1724897772073745,-0.0157139673829078,-0.1948008239269256,-0.1480321884155273,-0.9694804549217224,0.0,0.0,0.0,-1.2743157948507495,-129.25121950316324,158.4449080799842,75.300714948,-0.3931910519858446,-1.26939550009287,-0.7160170188924506,-1535.9323889696489,1907.751071142828,-3362.99390744993,0.0951441521244666,0.3823036879721173,0.321469101950223,0.0648743382547412,0.5334683185895948,0.0102136676636348,119905.46014816036,114563.01996353218,-227212.8302670286,4.277051869801263e-05,2.7885421886530974e-05
15312,1724557936198686512,0.4815824329853058,-1.204615354537964,0.1726359128952026,-0.0160175636410713,-0.1954708397388458,-0.1470902562141418,-0.9694839119911194,0.0,0.0,0.0,-2.782899899530041,-22.74279771305318,-0.8395901444726075,75.309879146,0.1259137766395484,0.1285765069236774,-0.1887965367044146,30.943435661258285,63.75684753113402,31.668895868169656,0.0956493977320321,0.3836413692860795,0.3197332350624954,0.0076736387396181,0.0731908181460596,0.0040735840071803,133.8516430950236,6810.639761361952,-7608.117723307695,0.0001760096186621,0.0001666575557249
15314,1724557936205851794,0.4816413819789886,-1.2040650844573977,0.172598585486412,-0.0166037455201149,-0.1958897858858108,-0.1465818136930465,-0.9694665670394896,0.0,0.0,0.0,-0.1516813062573348,-0.8989750556028382,-0.6015944178795395,75.317044428,0.2036431525665733,0.0879759731765887,-0.1067660989280156,3.7909456987133,-5.235498173958684,8.87354505922776,0.0968253757839783,0.3843423884338269,0.3189773324082425,0.0071111893777935,0.0642012968500758,-0.0028923801843587,242.7971007716272,2060.091339471575,34.77164534104162,2.120299419287968e-06,-7.2290862294026e-06
15316,1724557936220066872,0.4817110002040863,-1.203507661819458,0.1726228147745132,-0.0169060304760932,-0.1961340755224228,-0.1461364924907684,-0.9694790840148926,0.0,0.0,0.0,-0.2090933960742223,0.5094142191483613,-0.0634172243582135,75.331259506,0.0585138713739851,0.0257016121503195,-0.0532392950380691,-6.453612415791837,-14.42068064526134,3.592739330707249,0.0973666269176782,0.3847793092602196,0.3182028935596575,0.0028911389647205,0.0614511281550278,-0.0009931109143863,-17.265046209642364,188.4576082589476,12.322426045317936,6.285253696510475e-05,4.644622807118352e-05
15318,1724557936226970234,0.4817242324352264,-1.2030088901519775,0.1726069152355194,-0.0170294735580682,-0.1957893967628479,-0.1460151374340057,-0.9695649147033693,0.0,0.0,0.0,-0.3726215285332346,2.1100555804940164,-0.0639650815521543,75.338162868,0.0265540606775867,-0.1075082958587095,-0.0290164823042038,-4.318434627295279,-17.796980906976724,3.273484356867591,0.0974400977770872,0.3840601696307236,0.3179100041067313,0.0017419696002443,0.0673242306660768,-0.0020914399795589,-234.09927610151624,519.8563245256641,922.3548398185926,2.465587157431615e-06,2.5359296583750776e-05
15320,1724557936313576668,0.4816851615905761,-1.2025307416915894,0.1726558208465576,-0.0167505983263254,-0.1949037164449691,-0.146028071641922,-0.9697462916374208,0.0,0.0,0.0,-249.26400315138164,360.04374035566707,1082.065586576021,75.424769302,-0.009360309375704,-0.0197051404823259,-0.0012345818925777,-3694.9803262258856,-32970.58625227346,8606.50591080352,0.0965199207690155,0.3823719794778347,0.3176171169217616,-0.2545234546032588,1.6183248451116017,0.0957358825455685,-610074.0579064934,-398336.5718639615,49595.231014188845,4.188572650903387e-05,0.0001024922533486
15322,1724557936313847124,0.4816161096096039,-1.2020916938781738,0.1726817935705185,-0.0168564319610595,-0.193702682852745,-0.1463403403759002,-0.9699379205703736,0.0,0.0,0.0,-414.7750244355688,251.97130503746897,1095.5102488273826,75.425039758,-1.0118102811808565,-8.964645316683953,2.333715230864147,6624.132704079999,-9581.974190903227,-2609.044124948081,0.0964044277709098,0.3798978483453935,0.3180422902216676,-0.3221464252449095,1.7159897969668236,0.3892999545880116,-898984.0081928282,-993393.695360294,-481473.4713555083,8.255706289093432e-06,8.886272179450474e-05
15324,1724557936314109901,0.4815143942832947,-1.2016171216964722,0.1728589683771133,-0.0173597931861877,-0.1930710822343826,-0.1460867077112198,-0.9700932502746582,0.0,0.0,0.0,-724.2865623363474,-160.67644044969984,833.3701622677436,75.425302535,3.366440088244371,-5.484791786311465,-1.2222530020586266,14946.618882935592,9693.286839696437,-7538.55451388268,0.0971061951925463,0.3784943841506688,0.3175483235479688,-0.4732009981619285,1.7543366495572172,0.6797456532066803,-1297049.2048038377,-885895.7882265025,-1338918.5983596134,0.000136027828251,0.000244200066603
15326,1724557936314403020,0.4813475310802459,-1.2011197805404663,0.1730600148439407,-0.018421372398734,-0.1926877200603485,-0.145664244890213,-0.9702134132385254,0.0,0.0,0.0,-1143.450673008785,-196.5622267286371,329.3008447264251,75.425595654,7.18688355713423,-3.80400813489424,-1.472215771931076,-10571.863298605414,-6755.688275309731,3023.973410151248,0.0989989496954386,0.3774269574040744,0.3169688020891046,-0.7343670665823083,1.6069901557957564,0.8351130202042327,-669283.0253009181,484649.8465575066,-843633.4030710995,0.0001328366670604,0.0002931710181088
15328,1724557936314683835,0.4810968935489654,-1.200692653656006,0.1733346730470657,-0.0183275509625673,-0.191408485174179,-0.1457555741071701,-0.9704546332359314,0.0,0.0,0.0,-1126.738002661767,102.85516834399914,328.0750981229594,75.425876469,-2.132416156870021,-9.06121210350866,0.4199115156552986,-5266.743410619163,6621.088340004213,7499.370744920336,0.0983474706811421,0.3748831718802817,0.316825436416798,-1.1233840515020574,1.634147942369509,0.8735789281687403,1689067.0558979854,-304589.18699822354,950262.6965565908,0.0001685346135336,0.0003851491710279
15330,1724557936314971052,0.4807064235210418,-1.2001900672912598,0.1735548824071884,-0.0190335307270288,-0.1915361881256103,-0.1460209041833877,-0.970375955104828,0.0,0.0,0.0,-162.9039121099604,-387.3308601876197,881.4428474242823,75.426163686,4.556765789674134,0.2851638127468895,2.79752669869187,2647.9183286359453,995.5951704400812,-4255.949173552696,0.0999740588104385,0.3748851267617838,0.3176933715629556,-1.3710417592920976,1.6654947546726362,1.0239448527769923,2079529.7548866956,-500736.494550214,1312978.8634976544,6.61226684531692e-05,0.0003935474427006
15332,1724557936315250752,0.4803197979927063,-1.1997472047805786,0.1739113479852676,-0.0191049687564373,-0.190444678068161,-0.1457629352807998,-0.9706281423568726,0.0,0.0,0.0,71.11867837584418,-198.913691221283,1081.530396146735,75.426443386,-0.3249994497595763,-8.028742253176528,-1.806887184406084,-12627.694519490233,-20525.232914792497,-13781.240232174074,0.0995981671756525,0.3727010102451322,0.316912899287135,-1.2261136832249804,1.4219297607703538,1.3679733738323137,-460949.3686082546,1663202.31962174,-147701.03279796615,0.0001934211850651,0.0005121430430311
15334,1724557936315628140,0.4799365997314453,-1.199292778968811,0.174475222826004,-0.0187248978763818,-0.1883607804775238,-0.1447836756706237,-0.9711885452270508,0.0,0.0,0.0,-763.5896391824772,932.6384885214006,586.3213950520258,75.426820774,-2.633227447737983,-11.090569221092789,-5.642747419794122,6810.453057709769,6696.0633800068135,-4838.885891255283,0.0976205314796334,0.3687455027771638,0.3141971624481153,-1.4269030082557492,1.6889870026811875,1.7005345737449034,-1221234.2749954294,1529327.1543698246,-1034028.406464664,0.0003894474865075,0.0007029028666533
15336,1724557936315899535,0.4794690310955047,-1.198739767074585,0.1749770194292068,-0.0189281105995178,-0.1875686347484588,-0.143943190574646,-0.9714628458023072,0.0,0.0,0.0,-901.6958778747356,1060.9737472032757,359.9825643581042,75.427092169,1.7380296397018236,-6.38294892132183,-5.916642444872297,15682.19872357922,16909.77868809284,-968.09644696284,0.097411102047629,0.367177792505562,0.3123036567604259,-1.6793272531231231,1.9860123967364611,1.802103909906943,-493107.45096632105,457598.56931818754,-813386.5235206505,0.0003027081205666,0.0006841770262252
15338,1724557936326043651,0.4789300560951233,-1.198177933692932,0.17549429833889,-0.0184469539672136,-0.1862677931785583,-0.1432923227548599,-0.9718186259269714,0.0,0.0,0.0,74.79565667462775,-88.44802426737361,-81.65158074962143,75.437236285,-0.1063325645110301,-0.2510840615282633,-0.1476981237699288,-80.4329267923769,277.2090851692269,275.599507829486,0.0956668407551958,0.3647870961881779,0.3104437260446458,-0.0567690610602333,0.0596794256639015,0.0444562873688845,40561.226572654545,-47679.084618490546,-15522.398368808848,0.0002929013265301,0.0007234472890569
15340,1724557936334956300,0.4783956110477447,-1.1976124048233032,0.1758393347263336,-0.0185503009706735,-0.1847617477178573,-0.1433465629816055,-0.9720961451530457,0.0,0.0,0.0,0.1298267052702124,0.5334500572826766,-0.6318266699410315,75.446148934,-0.0293050474820357,-0.3431312484571869,0.0134589520275487,12.066150048770591,10.246623199492529,7.847955735048879,0.0953401958145831,0.3617314058504974,0.3102595043168619,-0.0569631998199575,0.065784293647269,0.0341407738263903,-4594.860983144486,5474.50420297916,5024.790051574118,0.0001359804188532,0.0005607309488811
15342,1724557936345764880,0.4778192639350891,-1.1968708038330078,0.1761484146118164,-0.0192525424063205,-0.1850743442773819,-0.1430160850286483,-0.972071647644043,0.0,0.0,0.0,0.0482228741898316,0.5989553045389044,0.3874256407120009,75.456957514,0.1459895666782109,0.0373047618476181,-0.035859681050129,-3.124564965450671,3.5667201228456324,-7.872730696060134,0.096786690249714,0.3621698938075833,0.3098882887660735,-0.0535726927651154,0.0695640780318314,0.0342007654772054,-14.063455160503874,21.591618438008076,26.384148438829584,8.862770848645714e-05,0.0005588956278898
15344,1724557936355468392,0.4772972464561462,-1.1961874961853027,0.1765291094779968,-0.0190179720520973,-0.1840903311967849,-0.1423790007829666,-0.972356617450714,0.0,0.0,0.0,-0.1449842785347064,0.9437681449253308,0.0517980321788085,75.466661026,-0.0528318681711496,-0.2036355444088998,-0.1410860314124221,-7.569472958214063,-11.949716105771662,-7.121011994372051,0.0956874288600889,0.3603346204682374,0.3082286134392729,-0.0554173294142756,0.0775473978544241,0.0412868329772635,-6.874439916521661,0.3054383385563461,-78.07266337827473,0.0001754537971894,0.0005997649264803
15346,1724557936365542754,0.4767220020294189,-1.1953316926956177,0.1769665330648422,-0.0190220978111028,-0.1831839978694915,-0.1415034681558609,-0.972655475139618,0.0,0.0,0.0,-0.0778849051198657,0.578367257961979,-1.1895543521601626,75.476735388,0.0060474895932921,-0.1892991925084347,-0.1738839379908796,9.691068705651414,-3.229446118309724,5.06039644755833,0.0950248011005565,0.3586030098898647,0.3061717658189373,-0.0564060718701355,0.0883212989181174,0.0347123907124746,9.391209297237594,-55.26533310462322,-63.9464770847092,0.0002123641028969,0.000685676739578
15348,1724557936375294428,0.4761784970760345,-1.1944385766983032,0.1772228479385376,-0.0198126547038555,-0.1820271164178848,-0.1411381810903549,-0.972909927368164,0.0,0.0,0.0,0.0394720074988548,-0.1398617785232483,-1.253647526853475,75.486487062,0.1368608676515385,-0.264708135828312,-0.0460394087815654,-2.935311611064338,-9.567732178215737,9.025487933530808,0.0961005991808645,0.356076279197719,0.3054318059209094,-0.0569743439540531,0.0893259772649983,0.0180436785604474,14.080646854060612,-22.99295294082279,71.55029933662591,5.50422764725844e-05,0.0005089150210445
15350,1724557936385321454,0.4755944311618805,-1.1935662031173706,0.1773188114166259,-0.0197851136326789,-0.1801318973302841,-0.1411674618721008,-0.973258912563324,0.0,0.0,0.0,0.2017546923057289,0.1518884787750005,0.2692475088709261,75.496514088,-0.0611401577667783,-0.3795611992832103,0.0023473614550856,-4.611861546344281,-1.6061750078906003,2.5814781751488627,0.0953616885034537,0.3522855789715881,0.3050689240934872,-0.0555707776146086,0.0854193669126814,0.0101713547524973,7.77520086587446,49.171193398570395,102.61527819051844,-0.0001076229679492,0.0003691528678108
15352,1724557936395308305,0.4750660955905914,-1.192728877067566,0.1774263679981231,-0.0202107802033424,-0.1787151396274566,-0.1411271095275879,-0.9735170602798462,0.0,0.0,0.0,0.1957582570951861,0.8426346590342666,0.8040324421661178,75.506500939,0.0433459870695713,-0.2976436404814563,0.0058059346784219,4.465771275246443,10.650186732748349,-13.716985099839436,0.0957119156689919,0.3493210024957171,0.3048283760621393,-0.0529414041448816,0.0923224325120273,0.0233478171341872,-16.01638772470069,28.480630406604114,-40.25798487300911,-7.697010930702565e-05,0.0003566132789449
15354,1724557936406089012,0.4744949042797088,-1.1916348934173584,0.1778244525194168,-0.0201475247740745,-0.1779547482728958,-0.1394847780466079,-0.9738944172859192,0.0,0.0,0.0,-0.1563154689101256,0.6761982953756691,-0.7216704140871146,75.517281646,0.0217037244224284,-0.1543422172354669,-0.3057368351138351,7.120008596061366,6.833374350272543,-6.462710007584509,0.0946957372497226,0.3479780314275257,0.3011689753289663,-0.0516168284517597,0.1031687962940139,0.0260183994812326,-21.147322760502973,-44.46093916661379,-86.02622771276597,0.0001827309302896,0.0006645642871803
15356,1724557936416408288,0.4739757478237152,-1.1905535459518433,0.177985206246376,-0.0210465658456087,-0.1773618012666702,-0.1385412514209747,-0.974118173122406,0.0,0.0,0.0,-0.260845106739048,-0.0692797549280781,-1.0612380348386634,75.527600922,0.1853348850859521,-0.1476263379424078,-0.150818876127349,-1.019238587443719,-21.208722426386437,18.007698660176654,0.0959949731028963,0.34660968397623,0.2993670665055893,-0.055987526293876,0.1068881344090186,0.0089960506109889,14.110993133354608,-66.82264995394408,3.876623877618833,-2.311832355984724e-05,0.0004243415904529
15358,1724557936424858864,0.4734633266925812,-1.1896357536315918,0.1780156791210174,-0.0215896423906087,-0.1754266172647476,-0.138544425368309,-0.9744561910629272,0.0,0.0,0.0,0.0261521647480469,-0.5964709928789285,-0.7739314102070463,75.536051498,0.0599345807117217,-0.4781262434346853,0.0220842657501679,-5.319563681497535,-8.608561071338187,5.986645841518083,0.0964288181674917,0.3425699890684738,0.2991520417609924,-0.0570658761064208,0.1033289964498251,0.0040993844300238,11.224930748018458,-19.586766311710864,34.88383804873803,-0.000143693344112,0.0002839257592374
15360,1724557936436125905,0.4728740155696869,-1.18855082988739,0.1780692785978317,-0.0223395377397537,-0.1749117821455001,-0.1376866847276687,-0.974653422832489,0.0,0.0,0.0,-0.1889346850641393,-0.1742287656057239,-0.3675935505979165,75.547318539,0.1430056046788931,-0.116924417938636,-0.1278932648348361,14.53479282155353,12.297539630768554,7.017317186587296,0.0974841416541905,0.3413983010700083,0.297494324219191,-0.0544614232600828,0.0939751431219875,-0.0075421061517086,-21.112704732685653,61.09841403075967,72.32549996348749,-0.0001492768160861,0.0003470718833009
15362,1724557936446203225,0.4723057448863983,-1.18762469291687,0.1778824180364608,-0.0243079010397195,-0.1743025332689285,-0.137974128127098,-0.9746748208999634,0.0,0.0,0.0,-0.4199260303488152,0.6543947635174145,0.688084089332015,75.557395859,0.3540289103661355,-0.1711060761128214,0.1260477458555498,-10.135929687810986,5.890251125520562,-7.69755894462421,0.1014389344971978,0.3395564047879267,0.2986536027558545,-0.060151757481794,0.0981317653011899,-0.0052468960952118,36.59436956860484,-15.596908033932031,35.870507168392905,-0.0003715212953349,0.0001024180972165
15364,1724557936456034352,0.4716783165931701,-1.1866002082824707,0.1779583543539047,-0.0238749664276838,-0.1742798238992691,-0.136740505695343,-0.9748634099960328,0.0,0.0,0.0,0.510655369152504,-0.4371604366459518,0.3800373384096878,75.567226986,-0.0436703667969202,-0.0051385368853712,-0.2651396368576965,-21.348932413016698,3.5803210380592425,-21.381103174767368,0.1000914119440674,0.3397683529672155,0.2958976638304008,-0.062891896449269,0.1068854627491475,0.0059326909812433,-400.076661020497,877.229433396924,-96.22752474504946,-0.0001449189548062,0.0003768576866124
15366,1724557936465035827,0.4711198508739471,-1.1856160163879397,0.1779969930648803,-0.0233418755233287,-0.1739021092653274,-0.135450929403305,-0.9751237630844116,0.0,0.0,0.0,-7.168136174582948,15.604276469436517,-1.0209957065854367,75.576228461,-0.0783890415902578,-0.0825393476689358,-0.3058722307618156,-1.9360556068247323,-6.423349521233561,-1.7383916275029652,0.098392071842852,0.339301822609851,0.2929139513008443,-0.0517893352328813,0.0920087845327888,0.0031134865326665,-2001.0788805014831,7213.6274802462,10248.574492750846,-0.0001551137772083,0.0003133015512766
15368,1724557936496662990,0.4706211686134338,-1.184631586074829,0.177964448928833,-0.0244339015334844,-0.1734010577201843,-0.1344422101974487,-0.9753257632255554,0.0,0.0,0.0,-198.02880231590052,847.3235507728077,1479.2679551541812,75.607855624,0.0738413338145576,-0.043960746967114,-0.0511829698687508,-10143.346771483844,-11048.712241025967,-12387.496266500164,0.1001114952291375,0.3380786780344807,0.291060028052593,-1.212108900743715,2.5031865660116637,-0.1078313172070579,246131.6987578059,-547291.3208615584,-106081.79383182758,-0.0002035223342251,0.0002276711551239
15370,1724557936497063956,0.4701290726661682,-1.1836153268814087,0.1779206693172454,-0.0235884152352809,-0.1724308729171753,-0.1335669159889221,-0.9756388068199158,0.0,0.0,0.0,-98.05649518749328,624.9625531054226,1435.955580133275,75.60825659,-4.04488307284067,-4.530289998249907,-5.081159415713,-11346.99293738478,2398.119757902139,-23262.64138427776,0.0977157680429303,0.3364722683578359,0.2887214846186189,-1.2923318812726166,2.8468542445771163,0.4928423904380565,262400.56123232783,-617050.4862724205,-228342.9421724251,-0.0002097640863633,0.000214929446942
15372,1724557936497421049,0.4696469008922577,-1.1824994087219238,0.1782881170511245,-0.0215857438743114,-0.172412097454071,-0.1309027671813964,-0.9760494828224182,0.0,0.0,0.0,-0.1979522867221118,384.7459129662536,1316.1507727672072,75.608613683,-8.438683308612529,0.6469815822974156,-16.796628208139797,-11731.2883917049,13873.097932087789,-31313.323276808147,0.0926189262164387,0.3372722015490693,0.2824183245416581,-1.294903424207618,2.9961997510826324,0.985859549696466,262754.86462422175,-646998.5356865898,-328564.67923487735,0.0001836014022182,0.000602210169798
15374,1724557936505389708,0.4691736400127411,-1.1815286874771118,0.1784731894731521,-0.0211407132446765,-0.1724754869937896,-0.1287662386894226,-0.976332187652588,0.0,0.0,0.0,86.45670404446912,-200.55135634274473,-68.75340168647058,75.616582342,-0.0160160160499405,0.0063415384747901,-0.5522789590686841,593.0969770733435,-45.06993926103723,1139.720357268304,0.0909550270173763,0.33772590585676,0.27777882268915,-0.0511165140495748,0.1085976687118162,0.005977001942627,2045.190963794365,-31287.171296587345,-92552.646470844,1.497684634181568e-05,0.0004138969620156
15376,1724557936515147278,0.4687737226486206,-1.1806269884109497,0.1783254295587539,-0.0220939237624406,-0.1725824624300003,-0.1277606934309005,-0.9764243364334106,0.0,0.0,0.0,0.92029918526897,-2.074386354259962,-1.1655879081070126,75.626339912,0.2287267735432495,-0.0113653545307202,-0.1704252068301225,17.248827526359168,-6.592400660583514,19.4078103640252,0.0926017160713765,0.3377679235690651,0.2760129911068997,-0.0394317531668271,0.0851244925728806,-0.0171400534073651,-4608.295585863412,10633.14767922914,3538.035150012287,-0.0002749957328725,7.238008708345238e-05
15378,1724557936525093971,0.4683972597122192,-1.179854154586792,0.1781346946954727,-0.0235794521868228,-0.1721966415643692,-0.1266098171472549,-0.9766075611114502,0.0,0.0,0.0,-2.758428027842588,5.259509415303893,-0.3331991579981465,75.636286605,0.3208677045958486,-0.125381523950109,-0.1773960598192182,6.973308016399477,-9.554111556481956,-0.2587153565054915,0.0951363453454088,0.3366916432654897,0.2740275054154189,-0.033088565846999,0.0678499230780507,-0.0165303979901839,187.29447438004945,-524.2211343136569,-2936.650109339894,-0.0003099728945598,1.4450868581401192e-05
15380,1724557936581823045,0.4680600762367248,-1.1791912317276,0.1780528128147125,-0.022839980199933,-0.1707598716020584,-0.1253376603126526,-0.9770413637161256,0.0,0.0,0.0,188.12522529236867,-432.6425031466879,-1144.1364156908123,75.693015679,-0.0245112694471717,-0.0498591642305826,-0.0490322826736667,-19711.114253831536,-15033.97318424386,-35826.54085222085,0.0926880344320914,0.3341364440813543,0.2708138594326255,-1.2883726658064916,2.629799888298294,-0.1630676146236283,138592.0806557529,-398547.68617022806,-717673.1721344385,-0.0001926732556937,9.15228777801354e-05
15382,1724557936582085836,0.4677199423313141,-1.1784969568252563,0.1780097633600235,-0.0220216047018766,-0.170186161994934,-0.1242222040891647,-0.9773027300834656,0.0,0.0,0.0,224.71059558590375,-537.8530230255246,-1333.5835804628646,75.69327847,-5.228402598798072,-4.01895523157335,-9.507540955703908,7758.422776652244,7179.490728818488,-8275.523301284788,0.0904180086604308,0.3333131844821564,0.2680783771470121,-1.2386790984307936,2.5155236782238717,-0.4651260367831469,363731.7905361543,-936663.0477616508,697925.9158251667,-0.0001560482295828,0.000130008792043
15384,1724557936582344695,0.4674134850502014,-1.1778780221939087,0.1778125315904617,-0.0223456695675849,-0.1707058101892471,-0.1235687062144279,-0.9772876501083374,0.0,0.0,0.0,376.1135500060486,-917.0668324333246,-791.1375694215559,75.693537329,3.807553165670897,3.521398740783299,-4.582294768392688,7655.597319224004,7813.379919159021,9039.40036263553,0.091022607917682,0.3343284840867273,0.2669155060242473,-1.1714303365456544,2.350032768847086,-0.8572940971274079,763651.6081853574,-1673725.1582628114,3033642.462094742,-0.0002904053529748,-3.183635924752096e-05
15386,1724557936582615809,0.4670994281768799,-1.1772525310516355,0.1775530278682708,-0.0219918973743915,-0.1706350296735763,-0.122952252626419,-0.9773856997489928,0.0,0.0,0.0,633.9105956725948,-1430.1205358862462,297.7025038939596,75.693808443,-1.8548819152994056,-0.4128924596590517,-4.967487304326406,-4286.9615365700165,-12795.318109177417,-527.37037000286,0.0900502803710284,0.334338710185599,0.2654848891386854,-1.036430471987842,2.022534025631103,-0.8662460708380308,638333.49667179,-1150597.9267103118,2551023.7055128384,-0.0003512377230782,-8.795018555973988e-05
15388,1724557936582886548,0.4668518006801605,-1.1767818927764893,0.1773430854082107,-0.0221310220658779,-0.1702224016189575,-0.122263878583908,-0.977540910243988,0.0,0.0,0.0,722.2307183972947,-1541.077730884544,592.2403786840682,75.694079182,1.4722096707213046,-3.413069065255558,-4.868721577058408,10895.1872168318,-9742.560407533943,509.1915833035523,0.089964603749917,0.3335369231818141,0.2640074266259001,-0.8280458822092491,1.5752841605674135,-0.6962309720361883,270150.68874383456,-317618.66054666776,955215.1107562603,-0.0002820942101977,-7.654686743746764e-05
15390,1724557936585147197,0.4666143655776977,-1.17629873752594,0.1772643625736236,-0.0217351056635379,-0.1700366586446762,-0.1212031692266464,-0.9777141213417052,0.0,0.0,0.0,274.5935892354091,-518.4827342616278,246.99095296666889,75.696339831,-0.2061452097972106,-0.1646642821916913,-0.9920579534489176,-619.8092782213404,1208.0025729082045,1451.9830454066398,0.0887133233169941,0.3333662031971446,0.2616082764879737,-0.0911528067535627,0.184479173324835,-0.0317634720326385,-169901.39833759202,386655.81744835014,-131543.1563463859,-0.000154913273398,4.404803801746011e-05
15392,1724557936596961502,0.4663942456245422,-1.1759248971939087,0.1770780086517334,-0.0219274181872606,-0.1699148118495941,-0.1207671836018562,-0.9777849912643432,0.0,0.0,0.0,2.9824656703017176,-6.265188033964287,0.4932228419824506,75.708154136,0.0416193125249405,-0.0277573497578595,-0.0676316430582521,9.874875127404216,6.311593997932981,31.433294960854028,0.0889194754922403,0.3331104574568881,0.2607353106887804,-0.0188295367953763,0.03198543337583,-0.0117263117483563,-10781.227165180677,20360.649219664338,-9714.2090362397,-0.0002504095757773,-7.206552966473667e-05
15394,1724557936607142876,0.4662007987499237,-1.1755962371826172,0.1769941300153732,-0.0220194403082132,-0.1699112057685852,-0.1199391335248947,-0.9778854250907898,0.0,0.0,0.0,0.336439474973033,-0.7276802456065881,-0.5779125965592,75.71833551,0.0447951467062966,-0.0097946346545843,-0.1583419004571944,4.294107786553023,-6.974044410237832,-2.1991798286672655,0.088816837006295,0.3331541787507089,0.2590267291706778,-0.0160077545688004,0.0264782360506927,-0.0172580352940432,-120.5042325146928,246.0344868775944,-18.144247532537975,-0.0001450179949149,1.1857128065035183e-05
15396,1724557936615427308,0.4660883545875549,-1.1754159927368164,0.1767903566360473,-0.02242411673069,-0.1694640964269638,-0.1193201467394828,-0.9780296087265016,0.0,0.0,0.0,0.277711125402027,-0.6972177479278426,-0.1413552945087088,75.726619942,0.1072129547318054,-0.1264749124701387,-0.1313275936759111,2.726004212491405,-5.202770295519594,6.330208180224079,0.0892984214345696,0.3322073777279976,0.2577816509388655,-0.0128208886394034,0.0191908090997472,-0.0222789124034239,-7.061283196102854,16.417579544579286,50.51657954757515,-0.0002303561877224,-0.0001399977116986
15398,1724557936625418183,0.4659693241119385,-1.1752551794052124,0.1765957027673721,-0.0228141881525516,-0.1691641062498092,-0.1190953999757766,-0.9780998826026917,0.0,0.0,0.0,0.2074966984522914,-0.3796838176716037,0.3370888344945868,75.736610817,0.0765132595040493,-0.0714434524453308,-0.031101172377944,-9.09656097931772,-1.2354705628267526,4.701149454904479,0.0899341858892299,0.3315242486809943,0.2573867256906861,-0.0113351750687407,0.014423124383164,-0.0180920140244467,-6.449536967858681,31.497276543665937,5.025017166988539,-0.0002240441130733,-0.0001309113611961
15400,1724557936635564490,0.4658602774143219,-1.175126075744629,0.1764264702796936,-0.0224876943975687,-0.1683599203824997,-0.1189542040228843,-0.9782633185386658,0.0,0.0,0.0,0.1480168025541657,-0.0630406800083953,-0.0535938499872118,75.746757124,-0.0778532942002418,-0.1534664707347731,-0.0383296877740047,-5.5233873251213215,-2.5813302222116215,0.7910898412168196,0.0889634813498556,0.330008064000046,0.2568300813962789,-0.0086240721134398,0.0115755982650398,-0.0155165771283032,-9.776348953003987,24.384123801051217,-22.83452244125063,-0.0001964800970819,-0.0001132794396081
15402,1724557936648829808,0.4657827019691467,-1.1749924421310425,0.1762408018112182,-0.022668469697237,-0.167774811387062,-0.1189100891351699,-0.978365123271942,0.0,0.0,0.0,-0.0495527787898479,0.1420799496624327,-0.0847274954605663,75.760022442,0.01694380715149,-0.0922746862706555,-0.0017599291818173,-3.68002784320323,-9.85237890090498,0.6504272733139018,0.0891430998772684,0.3287910019951827,0.2566905099741582,-0.0087276077671205,0.0145133093181328,-0.0215592062200258,8.04990525966667,-10.27637293365174,39.41587538513555,-0.0002015060235489,-0.0001387166043249
15404,1724557936655562900,0.4657140970230102,-1.174879550933838,0.1760697960853576,-0.0226014927029609,-0.167071908712387,-0.1189044117927551,-0.9784875512123108,0.0,0.0,0.0,0.0830582480319001,-0.0150764577115024,0.3233887878679616,75.766755534,-0.0448331654947513,-0.208047132837362,-0.0045791014631495,-3.846808980761717,-6.390136207564442,-1.718071475417535,0.0887883987265827,0.3273984216253386,0.25652655158823,-0.0092039252145994,0.0151986703198971,-0.0208624894246263,27.829374920163136,-14.54046786629898,27.876761391268477,-0.0001845918937264,-0.0001297438743711
15406,1724557936665828984,0.4656350314617157,-1.1747480630874634,0.1759266108274459,-0.0226241666823625,-0.166551262140274,-0.1186793223023414,-0.978603184223175,0.0,0.0,0.0,0.4960771216655384,-0.0265977989890602,0.0971487240338961,75.777021618,-0.0009211527364958,-0.1045283891866834,-0.042555849864821,3.1227998443715927,4.342757181493273,-2.2040564931306488,0.0885991882332719,0.326368291939954,0.2559667293179933,-0.0059438091302936,0.0132145950421644,-0.0141002857947594,18.01602945794796,-0.8453449971611213,-33.97563433826367,-0.0001619172250683,-9.872579615447206e-05
15408,1724557936675771565,0.4655928611755371,-1.1746127605438232,0.175784945487976,-0.0227439925074577,-0.1660006642341613,-0.1184068322181701,-0.978726863861084,0.0,0.0,0.0,0.4612851591684496,-0.0323361021250847,-0.3556111562187362,75.786964199,0.0190097050912744,-0.1166299923016085,-0.0500722937916618,1.0529495623767482,-4.90973164460571,1.3061582260443392,0.0885859734513177,0.3252572208324719,0.2553349512199314,0.0007074504805295,0.0145550286305393,-0.0185416449968247,-19.228994944431165,9.796747671059396,-1.2074241067114468,-0.0001483459434193,-0.0001088930110635
15410,1724557936685569747,0.4656475782394409,-1.174461007118225,0.1755618155002594,-0.0229426641017198,-0.1650533527135849,-0.1182848215103149,-0.978897213935852,0.0,0.0,0.0,0.120991809876412,0.1638232713206636,0.060603792001299,75.796762381,0.0201377128611618,-0.2003915714059834,-0.0173625081550532,-6.08522925279988,-8.722340346868052,4.249301008267845,0.0886679106044996,0.3233165340259728,0.2549728529031073,0.0032218544624313,0.0126241787843994,-0.0211464368373288,-21.75435010257412,19.789838760692707,32.564102108416776,-0.0001936503794684,-0.0002153803586703
15412,1724557936695277684,0.4656561315059662,-1.1743659973144531,0.1753721684217453,-0.0226650424301624,-0.1636304855346679,-0.1184868738055229,-0.9791180491447448,0.0,0.0,0.0,0.0346109818649288,0.3537281940050999,0.2813693562538165,75.806470318,-0.0985755527407661,-0.2867378024929088,0.0326514174231106,3.1833393083653108,8.807438383788515,-6.167004123543992,0.0877344632039868,0.3205157674759372,0.2550471916219848,0.0030918978205818,0.0176857486285797,-0.0174181495120606,-3.757189422361293,-11.717545020965552,12.85035550481955,-0.0001770427747046,-0.000174090435813
15414,1724557936705153986,0.4657088816165924,-1.1741119623184204,0.1752214133739471,-0.02298722602427,-0.1635918021202087,-0.117727018892765,-0.9792087078094482,0.0,0.0,0.0,0.0491561765257375,-0.0762799661233571,0.3089089605028603,75.81634662,0.0877156128092458,-0.0218921659784139,-0.1419830423190437,1.737545229963449,6.823476933126372,-4.3661309359768,0.0881308469564555,0.3204235690602672,0.2535554304238372,0.003915986593018,0.0194947317506972,-0.015670905988383,5.279254982816713,-24.990778296126177,-7.7518862105958,-0.0001269922741364,-0.0001379199526167
15416,1724557936715430386,0.4657338857650757,-1.1739782094955444,0.1750560253858566,-0.0226598475128412,-0.1627171486616134,-0.117548868060112,-0.9793835282325744,0.0,0.0,0.0,0.144109892156637,-0.1347603471098635,0.1165427248665609,75.82662302,-0.0775401607961497,-0.1655485127662847,-0.0444666454805307,-6.446176079512326,-0.9160820732674856,-1.5169363500138324,0.0871341047545105,0.3187688922713965,0.2529191477469498,0.0040545372977973,0.01593669001236,-0.0110850369890531,10.054162969668862,7.346302258203901,-46.39180587292364,-0.0001491776090091,-0.000153243167797
15418,1724557936726429946,0.4657975733280182,-1.1737685203552246,0.1749930679798126,-0.0223146881908178,-0.1626006364822387,-0.1165500283241272,-0.979530155658722,0.0,0.0,0.0,0.264287150303642,0.0995388585993783,-0.7195528964663309,75.83762258,-0.0350074786109016,-0.0218243956157077,-0.1907360413022591,5.556246639096581,0.6956340167177197,0.9040310251076162,0.08605245153628,0.3187111719328647,0.2506962639431163,0.0071776395856808,0.0169441967360484,-0.0136849922003339,-3.827928949490765,0.1050756865605588,-32.424039958238914,-4.016610446847914e-05,-6.240727873420629e-05
15420,1724557936736669701,0.4658842980861664,-1.1736152172088623,0.1747770458459854,-0.0225459747016429,-0.161963403224945,-0.1162720099091529,-0.9796634316444396,0.0,0.0,0.0,0.0844526477280394,-0.1014318481398208,-0.6360703007650265,75.847862335,0.037992025576315,-0.1326243245941558,-0.0461014440081455,11.98763108200022,-5.053568278179641,15.37725844392155,0.0862481604770593,0.3173987654812555,0.2500780757589185,0.0096966334929895,0.0180391728155342,-0.0256589561074385,-20.217342115869045,-25.02526866390676,33.50895512096505,-0.0001774914117965,-0.0002189894377576
15422,1724557936745657074,0.465981125831604,-1.1734288930892944,0.1745104491710662,-0.0234997030347585,-0.1614656001329422,-0.1165734902024269,-0.9796873331069946,0.0,0.0,0.0,-0.118190898937842,-0.3689295286067588,-0.1348992349531127,75.856849708,0.1840547954461692,-0.1325516123000219,0.1019792302140476,7.192448213716554,1.7263137142228675,5.659678598268878,0.0881676110114734,0.3161321552609543,0.2509297160565679,0.0091813179036179,0.0154839442936918,-0.0271688771179743,-11.731036968096925,-10.763926828799088,46.78909381004319,-0.000222802240621,-0.0002669108544221
15424,1724557936757713098,0.4660660624504089,-1.173327088356018,0.174223244190216,-0.0242878701537847,-0.1610577404499054,-0.116412729024887,-0.9797543883323668,0.0,0.0,0.0,-0.0846906492929063,-0.1914267011214887,0.284046550414287,75.868905732,0.1242521312570593,-0.0839512776720073,-0.0047223019196561,-0.7628185973772439,2.818203131405652,-6.321126375556011,0.0896177448585876,0.3151291052692977,0.2507755556698375,0.006772261650326,0.0096676684236456,-0.0282598293267568,6.694096812670288,23.30694911521236,51.48307840194621,-0.0002457079903774,-0.0002896287325018
15426,1724557936765201184,0.4661155045032501,-1.1732490062713623,0.1739909946918487,-0.0247998684644699,-0.1608703136444091,-0.116175428032875,-0.9798005223274232,0.0,0.0,0.0,-0.016354602725258,0.0230201107758608,0.7473806449552167,75.876393818,0.1380626213136576,-0.068489899411506,-0.0402916803029362,-4.196952389712079,-0.8264496991684593,-0.4607716546132305,0.0905386676038612,0.3146454679805608,0.2504110132234887,0.006673554858608,0.0095877117832756,-0.0243909291128545,5.831771175511863,20.562510762135332,32.48167658450852,-0.0002049478750794,-0.000228531019505
15428,1724557936775214230,0.4661832749843597,-1.1731642484664917,0.1738354712724685,-0.0249514300376176,-0.160311073064804,-0.1162103116512298,-0.979884147644043,0.0,0.0,0.0,-0.0020682015730019,0.1207820277734653,0.6790460770144243,75.886406864,0.0151491283167316,-0.1154772812197502,0.0125265840494374,-2.7638551570582974,0.1073320014007945,0.199091947831957,0.0906969345785011,0.3134825524581318,0.2504323107597853,0.0064673141045368,0.0102694091557467,-0.0138183468998125,4.771319117375329,2.331110525684707,-35.629878234338705,-0.0001266378679945,-0.0001609319714246
15430,1724557936785957584,0.4662492871284485,-1.1730331182479858,0.1737067699432373,-0.0254510380327701,-0.1600657552480697,-0.1158897206187248,-0.979949414730072,0.0,0.0,0.0,0.0877440431640461,0.0601538856478388,-0.0357752075076972,75.897150218,0.0950941912283525,-0.058995520744843,-0.0438434877749809,-3.7635666567084423,-0.545048172119083,-1.5175096874949747,0.0915479888857176,0.3128942632766996,0.2498786548933273,0.0066586771536769,0.0121744950976676,-0.0108668601086847,4.103985239690065,-13.43971725443452,-43.326103187403234,-0.0001025174569609,-0.0001308532175366
15432,1724557936795427999,0.4663166403770447,-1.1729180812835691,0.1736131459474563,-0.0253341104835271,-0.1595278084278106,-0.115776315331459,-0.9800536036491394,0.0,0.0,0.0,0.0910816967845459,-0.1322125234740511,-0.2523270122001508,75.906620633,-0.0340903758368234,-0.1125976698913744,-0.0270802622910236,-1.7169596903747744,-3.624868164127757,2.843370209885782,0.091111259640899,0.3118557751806067,0.2495080947142606,0.0080734615633382,0.011765981467029,-0.0137978302333836,-2.3659360115244947,-12.708511490024422,-1.9047533661733616,-6.874571384475436e-05,-9.94423918647012e-05
15434,1724557936805784590,0.466411143541336,-1.1728005409240725,0.173425942659378,-0.0258444026112556,-0.1589307337999344,-0.1157646030187606,-0.980138659477234,0.0,0.0,0.0,0.0357913021953311,-0.1777106374051364,-0.0346516495290358,75.916977224,0.0831741186132168,-0.1270901542530953,0.0145233107578909,-2.2450896188181604,-3.5092992718466514,-0.2019342598520128,0.0919821328174322,0.310531311076065,0.2495390320290046,0.00835637678394,0.0093878547940562,-0.0157637018810099,0.2907395328031743,3.7672150889954583,7.6920671372317555,-0.000149118005297,-0.0001960929021871
15436,1724557936816050189,0.4664891064167022,-1.1727241277694702,0.1732876449823379,-0.0255371443927288,-0.157959759235382,-0.1156502813100814,-0.9803171157836914,0.0,0.0,0.0,0.0960574210938598,-0.0560028312226695,-0.0912852796876335,75.927242823,-0.0779307679969991,-0.1845848158294482,-0.030480163180354,-5.3137043057380655,-0.4402973149056333,-5.021320056375734,0.0910270570710268,0.3086729304398597,0.2490300781289572,0.0088100212588031,0.0080917929536923,-0.0145405369541311,-7.749607704567285,-9.107999986529263,-18.589928803491706,-0.000107644259475,-0.0001482828083884
15438,1724557936825013846,0.4665775895118713,-1.1726465225219729,0.1731489449739456,-0.0253622289746999,-0.1572950780391693,-0.1153110787272453,-0.9804685115814208,0.0,0.0,0.0,-0.0800112001590162,-0.3017247165157801,-0.3602399588897662,75.93620648,-0.0443187425538635,-0.1481417785132888,-0.0804784480050049,4.666517815834825,2.5688055548608384,-2.4835912878247157,0.0903629586639941,0.307415852414134,0.2481499820034846,0.0100769989302804,0.0081396386116452,-0.0170058433849575,-21.82976248000582,-20.29280545673392,-9.183623931104623,-0.0001048928446227,-0.0001517581147747
15440,1724557936835453915,0.4666852951049804,-1.1725678443908691,0.1729527711868286,-0.025469297543168,-0.1565993875265121,-0.1149277687072753,-0.9806220531463624,0.0,0.0,0.0,-0.3345118149116503,-0.4270022775093429,-0.2029365232326986,75.946646549,0.0155468627009013,-0.1395243197202767,-0.0687816962372455,-2.4557510994244467,-5.603544553913809,5.624886617167654,0.0902571506574621,0.3060298832293822,0.2472619892418156,0.0065500468856782,0.0012558360398884,-0.0218028545231145,-4.869054582270034,6.606407760330753,9.776653977275178,-0.0001536855311772,-0.0002119845051779
15442,1724557936846406880,0.4667137563228607,-1.172626256942749,0.1726793497800827,-0.0251140762120485,-0.1550509333610534,-0.1152191907167434,-0.9808430075645448,0.0,0.0,0.0,-0.1636720997575053,-0.1408388027514328,-0.1566480589478047,75.957599514,-0.105462277153261,-0.2747753728129342,0.0445891405608028,-1.0421465256112832,0.6810915221031077,0.0096881200025267,0.0891701471914079,0.3029885992072891,0.2474892012770858,0.0029242620201586,-0.0007510262387881,-0.0210776460297541,10.708820178706649,6.153435343281451,-0.9327885307192753,-0.0002503177714684,-0.0002733868682014
15444,1724557936855708163,0.466743528842926,-1.172597050666809,0.1725139915943145,-0.0250113122165203,-0.154280811548233,-0.1150570958852768,-0.9809861779212952,0.0,0.0,0.0,-0.1026810138476279,-0.2413652248643197,-0.2060726517104254,75.966900797,-0.0361220693550676,-0.1655250722019986,-0.0370009836639998,1.335754822956777,4.700899531673439,-3.9821807686061383,0.0886846699194684,0.3014857062720603,0.2469869499730502,0.0027238243992719,-0.0017262093816583,-0.0242949655575692,0.3573518670679281,-1.2918440097121424,26.02037601915904,-0.0001484923712007,-0.0001636499466674
15446,1724557936864921975,0.4667642712593078,-1.1726573705673218,0.1722306609153747,-0.024728825315833,-0.1533990651369094,-0.1149567067623138,-0.981143355369568,0.0,0.0,0.0,-0.1559761687660551,-0.1664143302185819,0.3196657974290543,75.976114609,-0.0796651864141599,-0.1865111307880888,-0.029975301488124,-1.9673456941933416,0.4242488845147871,0.3620326342829298,0.0878183915397365,0.2997982466563289,0.2465403357190403,0.0010372398721614,-0.0051961553015118,-0.0249174475153735,-19.27233332055885,-25.554978161183502,-10.407121484777008,-0.0002624885924584,-0.0002808301159282
15448,1724557936876187501,0.4667592346668243,-1.1726973056793213,0.1720302999019622,-0.0244424771517515,-0.1525633782148361,-0.1148180812597274,-0.9812970757484436,0.0,0.0,0.0,-0.5588752642475264,-0.9183489434649568,-0.7268730835168391,75.987380135,-0.0638323886257782,-0.1445151583835215,-0.0314131207055029,2.045732839013549,3.18428352897698,0.3317677530499424,0.0869468274379857,0.2982073169209868,0.2460227661815129,-0.0003470013559763,-0.004175743005307,-0.0159825575153065,-1056.4374014905252,-1861.3476353349124,-1964.9683202919723,-0.0001918142692793,-0.0001926295838681
15450,1724557936906964005,0.4667569696903229,-1.1728788614273071,0.1716899871826172,-0.025446068495512,-0.1512576937675476,-0.1149219796061515,-0.9814614057540894,0.0,0.0,0.0,-118.88944571381926,-209.09223612525625,-218.60341346789983,76.018156639,0.0529649080857594,-0.0922148903123357,0.017423196318914,-964.4701989228462,-1279.196232351641,-516.3160552457451,0.0886641239853513,0.2953331079452833,0.2463210347078312,-0.0542057338611812,-0.1172688212419643,-0.1661523595575715,13200.47369778926,24867.414183101355,29605.174724828074,-0.0003222292327401,-0.0003390211928964
15452,1724557936908080347,0.4666942656040191,-1.1730142831802368,0.1714982241392135,-0.0249156430363655,-0.1503364294767379,-0.1146716251969337,-0.9816458821296692,0.0,0.0,0.0,-103.46299431763384,-180.0508581539052,-184.0684646069576,76.019272981,-1.062921220820023,-1.5721021133272808,-0.5799333145194088,-4546.897117038829,-8996.65279353417,-14014.74186602194,0.0872351910010534,0.2936417849682313,0.2454860610623725,-0.1916702917988004,-0.3590051501487323,-0.4188427653861595,27165.09177688672,49456.51454734441,55354.293942275166,-0.0001997673262457,-0.0001760013324123
15454,1724557936908359532,0.4666312932968139,-1.1731311082839966,0.1713640391826629,-0.0245219990611076,-0.1496809422969818,-0.1139650419354438,-0.9818382263183594,0.0,0.0,0.0,-94.9470514781586,-164.60661180595702,-166.9094501203015,76.019552166,-2.5800235831078218,-4.61943020785134,-5.433802782287833,-5264.02627692966,-10576.581736868537,-16851.63418172855,0.0860251601238341,0.2924882006509604,0.2437908485023328,-0.2191818493456463,-0.4067247085482703,-0.4672793750160614,29939.95703710659,54276.512611999424,60255.115297758544,-0.0001452322044787,-0.0001194649630988
15456,1724557936917479504,0.4665318131446838,-1.1733471155166626,0.1710801273584365,-0.0249423962086439,-0.1486722230911255,-0.1140427142381668,-0.9819719195365906,0.0,0.0,0.0,10.404298242962334,19.807110044804514,23.335363924297823,76.028672138,0.0620393954401829,-0.2316709527678311,0.0326067964503419,131.0622366276675,228.48774639735532,270.92376578540666,0.0866251931000015,0.2903576257067481,0.2439099975291714,-0.0139842927382431,-0.0257256562383929,-0.0281748963959476,4715.442704166188,8186.703106944572,8292.162343043226,-0.0002973638440497,-0.0002604330690184
15458,1724557936925509828,0.466397762298584,-1.1735681295394895,0.1708747744560241,-0.0249296128749847,-0.1479582488536834,-0.1135778874158859,-0.98213392496109,0.0,0.0,0.0,-0.0675621840978826,0.4570381482253148,1.056909001409267,76.036702462,-0.0072003075069923,-0.1831369214385468,-0.1143203496097241,-3.0633725060444754,5.659577870365183,-13.084477025574216,0.0862569324074021,0.2889717145085186,0.2428231430183222,-0.0159600919876226,-0.0220096358721875,-0.0162281485395325,-719.7719000718661,-1354.281557809464,-1578.175890502286,-0.0002324303688822,-0.0001761574957386
15460,1724557936935154225,0.466252326965332,-1.1737165451049805,0.1708264946937561,-0.0250048357993364,-0.1473650336265564,-0.1126889437437057,-0.9823235273361206,0.0,0.0,0.0,-0.2418172704246169,-0.3802558796230434,-0.3091720038338409,76.046346859,0.0276435507406399,-0.133004627910075,-0.1801414638795822,3.0349978435513973,2.511697825313906,0.9230123998993548,0.0859772681726338,0.2878431175939351,0.2409025450712278,-0.0145443724073572,-0.0176679208993135,-0.0110247553626958,-19.85251465499189,-52.49994756289493,-76.07154855136112,-8.668682764133612e-05,-1.7055901324375675e-05
15462,1724557936948693311,0.4660655856132507,-1.1739990711212158,0.1705628335475921,-0.0254829972982406,-0.1464145928621292,-0.112470306456089,-0.9824784398078918,0.0,0.0,0.0,-0.5445194267085762,-0.4388149961036443,-0.0927844612098969,76.059885945,0.0577514692981692,-0.1500573243384588,-0.0203853603971399,-1.6041856637654877,-26.02551864378482,7.488761256774009,0.086626410353409,0.2858428482620682,0.2404332995591142,-0.0252044827667106,-0.0385999713795683,-0.03134147548419,47.9045495115156,91.7250269855216,89.69931200308291,-0.0003019679480739,-0.0002228114315313
15464,1724557936955682937,0.4658482372760772,-1.174332857131958,0.1703009456396103,-0.0257693380117416,-0.1449791491031646,-0.112472228705883,-0.982683539390564,0.0,0.0,0.0,0.0438518322124152,0.5488993163382574,0.8001825276497725,76.066875571,0.03272586557586,-0.4213324031203703,0.0164028302744719,-0.8711561644689585,-12.004087361390065,-2.7399393441816104,0.0868139725887639,0.2828989936435906,0.2402865287044288,-0.0281342027069371,-0.037671756069578,-0.026910006096565,58.72074119730215,80.11712328203902,69.15460887187777,-0.0003077019233017,-0.0002176506413921
15466,1724557936965124968,0.4656203687191009,-1.1745599508285522,0.1701815277338028,-0.026069302111864,-0.1441297531127929,-0.1118907928466796,-0.9828669428825378,0.0,0.0,0.0,0.2735929125260203,0.5248402013152971,0.705687265342133,76.076317602,0.0590564070495909,-0.1927547131398748,-0.111547681884554,6.6552764976879555,6.861109526211374,-0.4215904101146153,0.0870217706818943,0.2811773026285367,0.2390296208858923,-0.0218145791327444,-0.02718171558449,-0.0172351019475183,-26.590843290994513,-28.514484110330724,-4.085997951454388,-0.0001758704959801,-7.002569364953872e-05
15468,1724557936975018106,0.4654285907745361,-1.1748613119125366,0.169963464140892,-0.0270545333623886,-0.1427368521690368,-0.1118328049778938,-0.9830502271652222,0.0,0.0,0.0,-0.5173271868581666,-0.026419935716303,0.7266495555409982,76.08621074,0.1649786185447046,-0.3046966533308097,0.0203799662732266,-1.9400870272306263,-1.7255968199229716,3.2073573851203516,0.0886356831543885,0.2781568607892749,0.2389635121337056,-0.0232097854460811,-0.0280653512756288,-0.0135600830200477,-45.88584614084879,-43.83115093491693,-26.697529873580866,-0.0002574299527526,-0.0001818507055132
15470,1724557936986123783,0.4651231467723846,-1.175143122673035,0.1699186116456985,-0.027048010379076,-0.1416231989860534,-0.1114297658205032,-0.9832572340965272,0.0,0.0,0.0,-0.6022943080975258,-0.3649600333155023,0.0709062556094897,76.097316417,-0.0142318770400507,-0.2043097570865295,-0.0702630922758783,-11.844849507692796,8.474839824125322,-9.722386118633406,0.0881996169064475,0.2759656362967152,0.2379471271682106,-0.0336463157473154,-0.0275746226310218,-0.0010622037572911,35.44603033890797,-24.416456119952215,-86.17036440160133,-0.0001238011617199,1.6354433173410274e-05
15472,1724557936995279171,0.4647687375545501,-1.1754121780395508,0.1699313521385193,-0.0265975482761859,-0.1410087049007415,-0.110702097415924,-0.9834400415420532,0.0,0.0,0.0,0.0475050548235482,-0.542710454052757,-0.9227422280206886,76.106471805,-0.0902818982229822,-0.1309791842464973,-0.1710534726234147,1.489079855366462,-2.1735946443393708,2.865403388635615,0.0869025155927976,0.274908012220158,0.2362170070763244,-0.0366135957840647,-0.0340040500284928,-0.008371613448868,41.25125291196982,-18.79052230534556,-64.35268294627434,-8.249011336721722e-05,8.594787733606362e-05
15474,1724557937005429132,0.4644207060337066,-1.1758092641830444,0.1697365194559097,-0.02693298086524,-0.1396906375885009,-0.1107114031910896,-0.983617901802063,0.0,0.0,0.0,0.1317401961271238,-0.7264083058021962,-1.0787933067891236,76.116621766,0.0350586925717966,-0.267627747056098,0.0141514715215255,17.14270768478205,-7.169813443073987,11.93510120590635,0.0872322233425927,0.272189370686856,0.2361202667624896,-0.0319498837535512,-0.0377172399062857,-0.0191368914020175,-9.197172831706949,-5.035485372349882,38.09189753068247,-0.0002759055396783,-0.0001267023835942
15476,1724557937016415816,0.4640974998474121,-1.1762069463729858,0.1695269644260406,-0.0286671090871095,-0.1383831202983856,-0.1108351871371269,-0.983739733695984,0.0,0.0,0.0,-0.1773781472281488,-0.6263826435393556,-0.0244461900156613,76.12760845,0.2804103102906198,-0.2715596601339671,0.0702167715895499,8.51455728087306,-10.949148994686755,12.394073343020152,0.0904527659250483,0.2691491326233377,0.2366429742572009,-0.0344001124895285,-0.0499861590562034,-0.031205345657554,-4.217964503439155,65.13045885704516,143.40515851226905,-0.0002810056187232,-0.0001498696421906
15478,1724557937025139140,0.4637629091739654,-1.1767385005950928,0.1691707223653793,-0.0301292948424816,-0.1365895271301269,-0.1116053387522697,-0.983859658241272,0.0,0.0,0.0,-0.048512716045026,0.3298221833669859,1.555098975213795,76.136331774,0.2589845608218755,-0.4404302786276567,0.2288338352818734,-14.294636813838949,-3.2379628831601046,-4.235999694372831,0.0931596152695475,0.2651403026935353,0.2383386976699558,-0.0356313268034824,-0.0520541872045896,-0.0239797096173512,5.225422453306505,59.521013126729656,95.49097738743517,-0.0004191731832392,-0.0003023448549957
15480,1724557937035475142,0.4634279906749725,-1.1771677732467651,0.1691293269395828,-0.0300539378076791,-0.1351780891418457,-0.1111308485269546,-0.9841105341911316,0.0,0.0,0.0,-0.111424212803229,0.3315429678335762,1.4940053353079872,76.146667776,-0.0337486547071712,-0.2764724179891364,-0.0895120253914263,-30.5620967523777,7.13474077966638,-19.815521163272223,0.0924904733106442,0.2623807186421021,0.2371100961258433,-0.0349983589728495,-0.041702535045978,0.0009946193723084,-3.8359793625155136,-10.547814037146008,-38.131919439832664,-0.0001186583206296,8.773401294619617e-06
15482,1724557937046107094,0.4630275070667267,-1.1776130199432373,0.1691945791244506,-0.0280947051942348,-0.1334310919046402,-0.1104164943099021,-0.984487235546112,0.0,0.0,0.0,-0.1275941184615994,0.1022235184564923,0.7362058995680669,76.157299728,-0.3831851498633315,-0.2960694570665383,-0.1800624807031329,-10.13571157115257,-0.7150676198145831,-2.159027412364509,0.0878317540891812,0.2594181101670575,0.2348433500377297,-0.0380713271426351,-0.0455046427218661,0.0067928359711686,13.967113121419784,0.6732515919241138,-54.20650771979052,-3.33646050537832e-05,0.0001278073373701
15484,1724557937055428992,0.462669312953949,-1.1780668497085571,0.1692632585763931,-0.0268141720443964,-0.1319531798362732,-0.1098792105913162,-0.9847822785377502,0.0,0.0,0.0,0.129193374880923,0.2902904983070611,0.3704091331855949,76.166621626,-0.2918833059176828,-0.2935145442542118,-0.1482247516893073,12.495951419617636,9.559032232423965,-3.5408591508579157,0.0846851964522254,0.2568112417557677,0.2331758207021742,-0.0379412763435667,-0.0407933716141712,0.0152155257868145,25.928707729108098,-16.292175167829473,-71.85760300695551,-1.8205146772930553e-05,0.0001200416718385
15486,1724557937065389540,0.4622965455055237,-1.1783891916275024,0.1694983392953872,-0.0260192640125751,-0.131423607468605,-0.1086938604712486,-0.985005795955658,0.0,0.0,0.0,0.3702373372663072,-0.2601042630589329,-0.6924732994094823,76.176582174,-0.1386636665876444,-0.0994820027868513,-0.2575284627786875,14.175472261838646,1.337678841938125,6.170066141600582,0.0826120810706597,0.2560380564345804,0.2304476052866819,-0.0354279215661144,-0.0401913009248104,0.0132309377527288,3.126449364068039,-53.466635725506784,-61.03074827906157,0.0001353349139938,0.0002953130283893
15488,1724557937075163090,0.4619694352149963,-1.1788570880889893,0.1695282012224197,-0.0260801818221807,-0.1301680505275726,-0.1085102185606956,-0.9851911664009094,0.0,0.0,0.0,0.1986984259449242,-0.7654888115888734,-0.8509008424255861,76.186355724,-0.0116959048885456,-0.2603951554870736,-0.0328155623612413,5.052309819313008,-8.11051225512849,12.48780641226499,0.0823599171559558,0.253528164352383,0.2299006398822886,-0.0306786590239873,-0.0458075356342746,0.0017329237307466,-30.56283231751693,-24.65386383266263,34.343061232385466,-4.611301633370489e-05,7.359355862394726e-05
15490,1724557937085910578,0.461672693490982,-1.179324984550476,0.1695311963558197,-0.0259381830692291,-0.1288238763809204,-0.1083906516432762,-0.98538476228714,0.0,0.0,0.0,-0.2835512853504525,-0.7107004513796809,0.1156590448138954,76.197103212,-0.0512189957038132,-0.248835542912775,-0.0227459286237555,-5.003019953962341,-8.878901361336089,4.748367577058906,0.081690195462235,0.2508828390778683,0.2294227743836509,-0.0319377921678629,-0.0562902062055314,-0.0035647222629346,-45.89554100115432,-10.54170429166512,59.399808068008944,-6.326303945769946e-05,3.9575794051063895e-05
15492,1724557937095211393,0.4613408148288727,-1.1799511909484863,0.1694671064615249,-0.02567994967103,-0.1268768310546875,-0.1086444705724716,-0.985616147518158,0.0,0.0,0.0,-0.7186642374923535,-0.9346271295289532,0.422363374399108,76.206404027,-0.1084206960847408,-0.4115387845452052,0.0520955421621302,-8.444624471223051,-3.233101513075865,1.0616158094553043,0.0807256287833985,0.247028489509768,0.2296006904628257,-0.0359143443083773,-0.0607700881787636,0.0024093718633011,-15.090774273303897,-13.06350675540624,4.59624815028152,-0.0001323624737003,-2.975287761573896e-05
15494,1724557937107406170,0.460899144411087,-1.1805874109268188,0.1696451902389526,-0.0243005789816379,-0.1253796368837356,-0.108520932495594,-0.985856294631958,0.0,0.0,0.0,-0.3959717108497775,-0.9178522898692192,0.0246429584185193,76.218598804,-0.2480873145960338,-0.2229543531581852,-0.0466452302333085,14.69066430089059,-1.8233715166418172,10.674533995978798,0.0775041767817127,0.2443630694172942,0.2287945515682332,-0.0493329974762986,-0.0794101509820706,0.0040430778923763,97.76577281936568,135.09671097489056,7.173595848122563,7.392897864930543e-05,0.0002313345912765
15496,1724557937115158277,0.4604520797729492,-1.1813372373580933,0.1696244925260543,-0.024478105828166,-0.1241336464881897,-0.1089845448732376,-0.9859585165977478,0.0,0.0,0.0,0.7133022196619225,0.7884019681307377,0.2763244190127463,76.226350911,-0.0053692976648524,-0.3222822794319819,0.1286098082217444,29.96085995785308,-6.119837218463244,7.8238480530295185,0.0776610430521472,0.2417949868605151,0.2296191959879129,-0.0489314240095488,-0.0835160633019356,0.0036953667547132,16.71679585088871,32.00984789568239,86.31637115943892,-0.0001159484419356,3.053120606086677e-05
15498,1724557937125029998,0.4600788950920105,-1.1819956302642822,0.1697409898042678,-0.0259816069155931,-0.1228251159191131,-0.1088780462741851,-0.9860955476760864,0.0,0.0,0.0,-0.7103381822434085,-1.2600912881030428,1.805360062396533,76.236222632,0.2734367982135379,-0.2985563088653627,0.0200021762735817,23.65753549884333,2.6158968995424976,-9.53416294943984,0.0803515521127911,0.2388412679931565,0.2295823072499826,-0.0335742558547553,-0.0591640798911736,0.0104606595013048,2.1655280573968554,179.12470673554265,757.3969375884369,3.644263446397898e-05,0.0001497660999197
15500,1724557937186829775,0.4596402049064636,-1.1827384233474731,0.1698688566684723,-0.0249860472977161,-0.1210297644138336,-0.1089385896921157,-0.986336588859558,0.0,0.0,0.0,56.05541214770483,159.3931046492462,281.712522079049,76.298022409,-0.0385402737135984,-0.0546936095170961,-0.0013649274705368,-19799.64770936514,-12214.264383059954,-11621.197121715264,0.0778848779889972,0.2354784727528407,0.2292209779284718,-0.9541567531343844,-1.5789291677315305,0.5553570693797383,-489541.0934413667,-1657660.7464843225,-766122.5054494565,3.385933554593705e-05,0.0001701122929376
15502,1724557937187296938,0.4591911137104034,-1.1834815740585327,0.1701302528381347,-0.0228229388594627,-0.1194859147071838,-0.1079082712531089,-0.9866904616355896,0.0,0.0,0.0,-174.37209503641225,-620.8677472225477,-78.91306472529561,76.298489572,-9.358106237232974,-5.803893693335299,-5.4713964017842285,-4188.443891078418,-3538.8563212067547,-7586.380559361591,0.0728562503991902,0.2329672804667056,0.2263907668620169,-0.9277191783050966,-1.5038168780720298,0.6879264459159629,-928716.7817872432,-3535972.977594431,-1727950.7595425455,0.0001598628448585,0.0003047058040833
15504,1724557937187749479,0.4587860107421875,-1.184123992919922,0.1704978495836258,-0.0217480566352605,-0.1186210438609123,-0.1064225807785987,-0.986980438232422,0.0,0.0,0.0,-785.5535934906825,-3038.946936698547,-1279.9708876508614,76.298942113,-4.3443656539361335,-3.5617858878025705,-7.097265815564955,8320.212443169883,-7526.536211273906,9184.362382256491,0.0701052101621987,0.2315889384626874,0.2229804706137107,-1.1078788629929477,-2.1274428299975625,0.4932208813046372,-809041.9384288552,-783051.5450834469,1651851.1376789054,0.0002715319210933,0.0004060864711397
15506,1724557937188066562,0.4583874642848968,-1.1849558353424072,0.1705833524465561,-0.0215069744735956,-0.1172217577695846,-0.1062253415584564,-0.987174153327942,0.0,0.0,0.0,-921.7783754755692,-2274.0745962339015,200.4465120033784,76.299259196,-2.319110260361072,-8.721247562215435,-1.3463514401233587,1586.2927509208594,-34731.758224199366,38866.29760118747,0.0692249298531224,0.2288600119017165,0.2223453596895933,-1.443044099196186,-3.4600440005033306,-0.1014198328315956,857529.9790834811,7451852.104522996,6668170.689936686,3.620564411735484e-06,0.0001174532051043
15508,1724557937188340039,0.4579489231109619,-1.186099410057068,0.1704680919647216,-0.0216545369476079,-0.1140883490443229,-0.1081196218729019,-0.9873323440551758,0.0,0.0,0.0,-383.666725726584,952.5236980670716,2495.609900726879,76.299532673,-3.017662354245844,-22.57373114558185,14.17207571787004,10430.725251544787,5743.4265736611505,-10265.036488352847,0.0691892363446958,0.2224333487524464,0.2258743709145718,-1.663228530197216,-3.627053111836176,0.4430105718749928,1766639.165696786,8549966.222934734,4823313.072327014,-0.0001923153273445,-9.252028589400132e-05
15510,1724557937188603392,0.457495778799057,-1.1869139671325684,0.1708039939403534,-0.0220606736838817,-0.1132683530449867,-0.1073365435004234,-0.9875032305717468,0.0,0.0,0.0,30.60159566699828,2380.3611180261637,2860.6774411024253,76.299796026,3.0223610800491034,-6.758785983941852,-5.5252280191014265,22037.605909999475,57790.87395763943,-71901.20091081168,0.0696303427288941,0.2207586206652085,0.2242598819803236,-1.6573837296796263,-2.9797667433803836,1.2282656822420672,1513536.7683676924,5202035.766167233,1315973.194535808,0.0002391227059089,0.000370884203053
15512,1724557937195220795,0.4570518136024475,-1.187800049781799,0.1710808724164962,-0.0208542477339506,-0.1119922325015068,-0.1065922901034355,-0.987755537033081,0.0,0.0,0.0,149.93660929711882,268.4289899475757,-113.03298808953116,76.306413429,-0.3776676696931137,-0.3553287102194927,-0.2631038607984103,-302.2637834186265,595.3148111324432,500.1820277853677,0.0667076138636709,0.2185313039175722,0.2223159756585308,-0.0568403323055335,-0.1153669480149872,0.0252667347312787,5734.748228681956,-206482.9309413557,-273139.56455667334,0.0001848442144408,0.0003082823106576
15514,1724557937205867029,0.4566222429275512,-1.1887108087539673,0.1710659861564636,-0.0212286338210105,-0.1099290922284126,-0.1065790802240371,-0.9879807233810424,0.0,0.0,0.0,0.3379405220068319,-0.1160911311340204,-2.356909757087099,76.317059663,0.0275534796560257,-0.3951217872467235,0.0089989215010365,31.24910195963593,-1.9408477925931888,21.036196870688656,0.0669602032552591,0.2143277334467851,0.2221262061481789,-0.0351867996864723,-0.0739450453629011,-0.0003898171230094,-13113.561809487994,-24775.08557814773,8339.03481838759,-9.290395374581276e-05,1.730784719324334e-05
15516,1724557937257694408,0.4561011791229248,-1.1896158456802368,0.1713002175092697,-0.019385702908039,-0.1086690574884414,-0.105691023170948,-0.9882533550262452,0.0,0.0,0.0,-442.5851954772937,-1170.7753231682857,-89.09372813492891,76.368887042,-0.0719016816129619,-0.0423442034189337,-0.0417649129394053,-736.0126884844983,-6354.557243003666,1347.8728027693087,0.0627350613248815,0.2122780207519664,0.21977058663406,-0.4455716894830743,-1.0909015516378986,-0.1091681100251662,-280255.99354916497,701629.080582903,1019254.926453247,0.0001283593290161,0.0002828380949422
15518,1724557937258737760,0.4556271433830261,-1.1907765865325928,0.1711839288473129,-0.0193988773971796,-0.1050982773303985,-0.1063880696892738,-0.9885644912719728,0.0,0.0,0.0,-740.6978468971865,-423.5177545069987,995.7915422626552,76.369930394,-0.8552409126072924,-6.805998440320636,1.3928721942400832,2118.8291185603066,-13670.012133273993,2218.0155244552234,0.0620561353476876,0.2051001704722875,0.220800593674433,-0.916473591218164,-2.336611176183851,-0.2039514716130952,548337.488850093,2247746.638663347,710805.5530843833,-0.0001955278546358,-8.756368142979278e-05
15520,1724557937259138049,0.4551893174648285,-1.1918998956680298,0.1710880845785141,-0.0198202300816774,-0.1024501025676727,-0.1068034619092941,-0.9887892603874208,0.0,0.0,0.0,-393.1143014428874,711.4342680782083,1229.7931800194524,76.370330683,0.4336008520538667,-13.381747386891604,2.410180170662974,-780.9461799207902,9633.8606917753,-11448.294030876556,0.0623589556692674,0.1996939620317329,0.2214435970670871,-1.2574051826404684,-2.387822723040017,0.361531581180003,1238185.4844837675,2114053.415593233,-602529.6253253294,-0.0001648687974353,-7.551758886522323e-05
15522,1724557937259553874,0.4545957744121551,-1.1927120685577393,0.1714980155229568,-0.0192667264491319,-0.1028354316949844,-0.1051200106739997,-0.9889405965805054,0.0,0.0,0.0,281.5177802775577,1278.9443630529497,466.4569480369821,76.370746508,-1.6193048956934448,1.8818233998725995,-8.393365223858089,-2457.757898027302,21689.183638952785,-13192.117686128298,0.06098854868193,0.200690102020888,0.2179382843591356,-1.2227735509634383,-1.7294126576207418,0.7939068022435691,1172046.3818859349,564665.3488981372,-1638412.7217605887,0.0002912182293548,0.0004707676855422
15524,1724557937260278711,0.4539679884910583,-1.1936829090118408,0.1718309819698333,-0.019155815243721,-0.1023461669683456,-0.1044763550162315,-0.989061713218689,0.0,0.0,0.0,562.0525808755957,677.3004178364473,-471.8366044008315,76.371471345,-0.2683610815647183,-1.3714834722984757,-1.7969503888927485,1643.0197441512555,-3861.887044158111,7934.568948804475,0.0605179234098161,0.199776918343828,0.2165501001265156,-0.7682538167024422,-1.187039614721833,0.4076005015043202,322192.25044895103,-734219.3306638747,-1109834.055201776,0.0002121621563691,0.0003927816086592
15526,1724557937264984608,0.4533422887325287,-1.194614291191101,0.1721675097942352,-0.0209080688655376,-0.1015817299485206,-0.1040960773825645,-0.9891451597213744,0.0,0.0,0.0,97.26324352772052,149.69574399455348,-52.95944407859152,76.376177242,0.7184784741869409,-0.4058607392967396,-0.0811137082798617,109.27055274068246,138.153132813931,249.43302075602745,0.0637983448194434,0.1978943932195284,0.2160404565946957,-0.109566254098663,-0.167989271223405,0.0545296628227616,-70409.59096572544,-81168.5433475229,62349.45819114841,0.0002196520569071,0.0003940829037281
15528,1724557937275122199,0.4527424573898315,-1.1956636905670166,0.1723494380712509,-0.0192801915109157,-0.0990412384271621,-0.1038945689797401,-0.9894570112228394,0.0,0.0,0.0,2.778349542007488,2.687217583264573,-3.1426057358292505,76.386314833,-0.3670917180326571,-0.4694114826998433,-0.067872023140575,-45.0593186151279,-11.681992343483092,16.17983514816533,0.0598826306046238,0.1931873088356105,0.2150405683094148,-0.0562266889761069,-0.110392126677425,-0.0004174375811709,-4903.940093718613,-7531.567329529209,2674.681438915694,7.669973753501406e-05,0.0002317493054408
15530,1724557937285774421,0.4521764516830444,-1.196916580200195,0.1721394509077072,-0.0189796723425388,-0.0954792201519012,-0.1053351461887359,-0.9896605014801024,0.0,0.0,0.0,-0.0278365085913114,0.4716621612495135,0.2832605044166614,76.396967055,-0.1528366632844786,-0.654440166512141,0.2709594845063239,13.979954250700027,-0.6220668228873834,5.832484422880686,0.0587282470124629,0.1860571816112067,0.217553618506764,-0.0544256371017581,-0.1152826909198694,-0.0084008490535882,-132.77388899099154,-44.041317908361066,198.51981824645372,-0.0002933707411105,-0.0001735729358829
15532,1724557937295637153,0.4516278803348541,-1.198032259941101,0.1721598953008651,-0.0189399309456348,-0.09295604377985,-0.1057661771774292,-0.9898555874824524,0.0,0.0,0.0,-0.1441691401714822,1.5344334598438527,1.117174482695672,76.406829787,-0.0709675197226066,-0.507637774252783,0.0912768419676201,3.030914748613437,13.755713758024,-22.831294905951506,0.0581408663607535,0.1810064890349413,0.218170325132761,-0.0564983523203608,-0.1021312106305387,0.0038234216897681,-29.46965246183476,19.7950347778342,49.46114266726958,-6.317761651629894e-05,5.5059148413404385e-05
15534,1724557937305784236,0.451045423746109,-1.1989538669586182,0.1722169667482376,-0.0185765400528907,-0.0910152345895767,-0.1048274040222168,-0.990142583847046,0.0,0.0,0.0,-0.6277152110459903,0.8170122961665491,1.2527248850476829,76.41697687,-0.0952288509162975,-0.3798421085250349,-0.1885517146367716,25.214903824382624,9.205986081242305,-9.862468763531922,0.0567885994385263,0.1772684170093858,0.2160041770603938,-0.0572723669300607,-0.0844630150716554,0.0138830703185792,-38.8020702343652,-75.7546580052483,-9.306701902097927,-3.4844549473600734e-05,0.0001073088485566
15536,1724557937315919743,0.4504662454128265,-1.199745535850525,0.1724412888288498,-0.0209034699946641,-0.0896489024162292,-0.1040461361408233,-0.9903032779693604,0.0,0.0,0.0,-0.931380437971934,-0.0019503014463149,0.9289349105522726,76.427112377,0.4398172699041439,-0.3208381309350342,-0.1091694668210853,-21.84239123811525,7.616010485738736,-3.9607284918875343,0.0610163349705719,0.174087348736757,0.2146879341560768,-0.0692172830259671,-0.0855387003978762,0.0292258797869173,35.63889741545652,-39.31485547320423,-123.0989967458636,0.000133170083182,0.0002732943325656
15538,1724557937325054745,0.4497345387935638,-1.2005881071090698,0.1727666705846786,-0.0192240551114082,-0.0884242877364158,-0.1030798628926277,-0.9905483722686768,0.0,0.0,0.0,-0.0657218621971114,-0.0195225418152462,-0.9460601000650284,76.436247379,-0.374174953624024,-0.2364912894078635,-0.2424441033965493,-38.89519336966917,4.2348469347817534,-2.496111739862405,0.0571894139524539,0.1720615725832408,0.2123139751916607,-0.0756906660524627,-0.0846987746660588,0.0328966166464201,80.37634907254251,4.697532767845802,-170.47247765281682,0.0002057043015699,0.000397882573823
15540,1724557937335365379,0.4490054249763489,-1.2013736963272097,0.1730741709470749,-0.0183246359229087,-0.0870536118745803,-0.1024910360574722,-0.9907479286193848,0.0,0.0,0.0,0.5955857418147978,0.1059660495760184,-2.29896809909376,76.446558013,-0.1908664359239431,-0.2509979512257877,-0.1274436193143976,17.922702196587693,-15.826541581499171,25.841179440171484,0.0549701433026018,0.1695513499957947,0.2108354535835022,-0.0688863559894308,-0.0861972852958246,0.0074559552430617,-12.755215879440696,52.75093575480965,26.263968829092537,0.0001886314719697,0.0003831206596304
15542,1724557937345466023,0.4483277201652527,-1.2023433446884155,0.1729281544685363,-0.0186916049569845,-0.0842533484101295,-0.1038385182619094,-0.990842878818512,0.0,0.0,0.0,-0.2941071904544321,1.0403221745767053,-0.4754433789372436,76.456658657,-0.0084096051677827,-0.5535369626864548,0.2789017110099644,14.282901677004494,-9.852376165616665,15.000763191851837,0.0553066014576151,0.1638135133603786,0.2133753464283644,-0.0635072512459729,-0.0826403394277548,-0.0140982862167113,-100.08187310122428,43.484757121496386,147.60971357010058,-0.0002406739909132,-8.62031103232463e-05
15544,1724557937357392867,0.4476208090782165,-1.2031408548355105,0.1727650463581085,-0.019625537097454,-0.0820165202021598,-0.1043460518121719,-0.9909591674804688,0.0,0.0,0.0,-1.656753785552941,0.8686006505389581,0.8213736329511561,76.468585501,0.1086919659872268,-0.3879709541197144,0.1025095290813153,-15.36717234591011,14.2428789825141,-34.69927339660825,0.056759581900856,0.159125029041103,0.2143495687519148,-0.0786570276849687,-0.0605409035987491,0.0035882522819736,33.25128930171577,-48.67050062021213,-60.99271571201802,-0.0002612220432416,-9.344543229824856e-05
15546,1724557937366082264,0.4468145966529846,-1.2036268711090088,0.1729055196046829,-0.0188350044190883,-0.0808328464627265,-0.1029897108674049,-0.9912136793136596,0.0,0.0,0.0,-0.4340269269921499,0.2287128020130406,-0.7830908282450635,76.477274898,-0.1842820285664783,-0.2619230020261613,-0.3250495528931156,-27.57837002888045,2.7606420722492544,-19.33591402388312,0.0546885631474475,0.1570099328838569,0.2113655282716801,-0.0955002276083263,-0.0592247194352779,0.0065374319516138,175.86183367086443,-8.52401852436747,-122.28393830239584,1.6273630918657296e-05,0.0002383622972353
15548,1724557937375041126,0.4459339082241058,-1.2041878700256348,0.1728751510381698,-0.0172503814101219,-0.0791436731815338,-0.1021084561944007,-0.9914699196815492,0.0,0.0,0.0,1.4661368878729035,0.7538036909637107,-1.3025949485464197,76.48623376,-0.3746590662210627,-0.3456784737833012,-0.2223889173449854,5.432987588848383,-6.2499240374093805,13.604001839161992,0.0509944566778045,0.1540225794789224,0.2091860637832513,-0.0854935451111806,-0.0564622469788815,-0.010846261245283,17.59809873919947,-21.957167405329663,-52.514812772702086,-0.0001611626241641,7.688324321058602e-05
15550,1724557937385919004,0.4451731145381927,-1.2047207355499268,0.1726586818695068,-0.0176363345235586,-0.0771583244204521,-0.1018089279532432,-0.991650402545929,0.0,0.0,0.0,-0.9113892000684388,-0.5491887441968415,-1.801558567587329,76.497111638,0.0368697594065008,-0.3727333045106686,-0.0460766883798643,20.809784749581137,-2.398426406859704,13.175974977833167,0.0512870882695825,0.1499989500576471,0.2084699808211368,-0.0649331631315242,-0.0423789417503073,-0.0165917527430572,-154.3279729515637,-30.936484195604,27.02011792320257,-0.0003226450744067,-0.0001270766554779
15552,1724557937400054112,0.4443472325801849,-1.2051984071731567,0.1724849194288253,-0.0181024521589279,-0.0743221789598465,-0.1023400053381919,-0.9918039441108704,0.0,0.0,0.0,-1.9129426922810568,0.6454370225569637,-0.0808124612893479,76.511246746,0.0183650327003204,-0.4050058161434922,0.0844698556634296,120.6002102387267,-82.67698557253021,130.7747295693851,0.0516797186774959,0.1442202820540115,0.2093775903760441,-0.1292727551785262,-0.084009246179022,-0.0654459520733503,256.7141100123304,368.7892714380272,302.3705346204643,-0.0002866596482394,-7.745122610154013e-05
15554,1724557937405319654,0.4435275793075561,-1.2057392597198486,0.1720360517501831,-0.0208996310830116,-0.0719076618552208,-0.1047579422593116,-0.991674542427063,0.0,0.0,0.0,0.081322595146458,3.1449151594946736,1.8656466323033505,76.516512288,0.8925149749587705,-0.998037007765663,1.0114679388900378,99.95859189877092,-54.96776925033423,99.30777309680016,0.0570959659463578,0.1386833141217597,0.2144607601635513,-0.1341694141544671,-0.0735677143638184,-0.0592506094284099,279.8953597761757,313.94669877764306,212.27848208657724,-0.0005500493823521,-0.0003610928129994
15556,1724557937418167147,0.4424776136875152,-1.20577073097229,0.1720897108316421,-0.0214516222476959,-0.0726518929004669,-0.1039690896868705,-0.9916914701461792,0.0,0.0,0.0,0.5788458934597163,2.139680370755535,-0.3405126144782655,76.529359781,0.1061266131027932,0.1031338273158749,-0.1182985796698165,-42.97830542137914,17.80940298744872,-46.23909049025648,0.0582572602214046,0.1400937165759573,0.213005689388123,-0.1014246168317214,0.0032591499975467,-0.0136817362417325,21.756230956021973,-226.6081405258132,-232.3876689279944,-0.0001020730851288,0.0001978417081646
15558,1724557937426791131,0.4414888918399811,-1.2057095766067505,0.1718683391809463,-0.0207465458661317,-0.0720229670405387,-0.1028273180127143,-0.991871416568756,0.0,0.0,0.0,0.6682385849324852,-0.6734546488902999,-2.6958259121662507,76.537983765,-0.1589788088265348,-0.1363547436918888,-0.2756794886568832,-23.67658929640345,-33.70746091669153,9.55254000414083,0.0565433000906407,0.1390561339352201,0.2105407329276742,-0.1078361621316865,-0.0005190657221305,-0.0391222746240131,58.427854403160445,-100.32172029870222,-18.520370765444017,-0.000365977669036,-7.841659792770528e-05
15560,1724557937435712345,0.4405897259712219,-1.2057844400405884,0.1713951677083969,-0.0196438375860452,-0.069700539112091,-0.1031719520688057,-0.9920239448547364,0.0,0.0,0.0,1.633037619378654,0.5161048647611041,-0.5115035788291771,76.546904979,-0.3050122688091349,-0.4918606184627898,0.0661144616127773,17.65949493901548,-14.71060613272717,34.36536855592496,0.0538699658485411,0.1346422640736851,0.2108907868323372,-0.0888465814421053,-0.0086990617132016,-0.0608268505447817,-13.532950092963205,163.08975595757704,257.7426584454255,-0.0005943573649105,-0.0003515029960828
15562,1724557937445628020,0.4398403763771057,-1.2058740854263306,0.1707061976194381,-0.0211594067513942,-0.06801638007164,-0.104838877916336,-0.9919350147247314,0.0,0.0,0.0,0.1578200843734918,2.4611156671740937,2.1863243194661575,76.556820654,0.2451238519030516,-0.3606707613416986,0.3633690665947612,24.32244753296961,21.23569556063237,-5.489821531402877,0.0567545779470198,0.1308722681105693,0.2143208416810562,-0.0781153566106844,0.012211765363979,-0.0447228722422847,-74.72313442367307,61.869257932456264,94.0121526226042,-0.0007839324667067,-0.000589230686786
15564,1724557937456180290,0.438987523317337,-1.2055065631866455,0.170512318611145,-0.0219467412680387,-0.0678663626313209,-0.1042931303381919,-0.9919856786727904,0.0,0.0,0.0,0.2009189260020116,1.6059817086660673,1.1787440001316178,76.567372924,0.1518734397176006,-0.0466903315549288,-0.0928580788135563,-14.624800661861777,13.980798344426056,-26.41809294065638,0.0582249198800197,0.130436685445141,0.2133056211116373,-0.0868310830555536,0.0421377959537494,-0.0153384789519623,65.08470841540768,-105.18741706138522,-155.32706006110968,-0.0003214427045195,-5.977295093985194e-05
15566,1724557937465009773,0.4381764531135559,-1.205080509185791,0.1703993082046508,-0.0218169074505567,-0.067702442407608,-0.1034111455082893,-0.9920920133590698,0.0,0.0,0.0,1.226251809740961,0.4988155931681961,-0.6348267309468812,76.576202407,-0.0200160390710126,-0.0397846579154448,-0.2018736842386621,-0.0537841555168405,2.54759925230098,1.9305519010100745,0.0578123060297556,0.1301893393840868,0.2114903943644378,-0.0774705488459837,0.0472306007392475,-0.0167951616319852,66.0648080602509,-91.94340644654363,-116.4674021466851,-0.0002369585326566,1.7836944940468276e-05
15568,1724557937476024204,0.4375208616256714,-1.2045743465423584,0.1701594144105911,-0.0231603756546974,-0.0679091662168502,-0.1034058034420013,-0.9920479655265808,0.0,0.0,0.0,1.2660734050272024,-0.0542723135198532,-0.6957169207054612,76.587216838,0.2461396834510303,0.0125335666731438,0.015561624566691,-3.0244909758713576,-5.738520390272041,12.35943065040067,0.0605468760162983,0.1303170046852723,0.2116711843308091,-0.0616817672030372,0.0516533234934684,-0.0302431509827343,-202.32949848930468,219.7568187851627,-228.17833770204808,-0.0003450479167024,-0.0001218625673358
15570,1724557937485812298,0.4368983209133148,-1.2040191888809204,0.1697897762060165,-0.023155752569437,-0.0672360509634018,-0.1037482991814613,-0.9920582175254822,0.0,0.0,0.0,-2.5057165057489814,4.445021573103849,-4.86582463492658,76.597004932,-0.0199602468395267,-0.1348676133706956,0.072330269327796,-18.099880488952625,-9.083668461280435,3.1977206897463506,0.0604332343745342,0.1289565367664216,0.212303388517258,-0.0507453278410361,0.0471573198113368,-0.0324843239807597,-46.43743963121972,21.07159501008735,5.877548322644543,-0.0004697012963496,-0.000252590258387
15572,1724557937506019049,0.4364092350006103,-1.2034651041030884,0.1693536192178726,-0.0231806952506303,-0.0665293261408805,-0.104021281003952,-0.9920766353607178,0.0,0.0,0.0,10.693533726968894,-13.425435024409296,13.27043941070974,76.617211683,-0.0066668416951993,-0.0691469075294363,0.0284008877692103,377.5050165320766,-796.7780226083299,714.1772074622785,0.0603615044448549,0.1275271942572075,0.2127959132200421,-0.2525136164221635,0.3415631786891708,-0.324234409371698,2170.091414427803,-2929.6294809319124,2863.166212419519,-0.0005165629506352,-0.0003364707766812
15574,1724557937507547793,0.435996800661087,-1.202906608581543,0.1688229441642761,-0.0238171815872192,-0.065510481595993,-0.1048777922987937,-0.9920392632484436,0.0,0.0,0.0,14.186486370788138,-18.14063648580871,17.874827186111776,76.618740427,0.614026810004778,-1.379745887293299,1.2030462529948278,326.61122077071485,-700.2281415467947,626.0045067002284,0.0615171938332822,0.1253098430506205,0.2145169588255259,-0.233774295358156,0.3178012863052437,-0.3007425928158995,1941.6825374552116,-2615.116469976468,2558.9313728592715,-0.000599903280095,-0.0004399049599581
15576,1724557937515789256,0.4356701672077179,-1.2023991346359253,0.1684054285287857,-0.0229933131486177,-0.0647085532546043,-0.1050714626908302,-0.9920908212661744,0.0,0.0,0.0,14.941891229125686,-18.844515602815058,18.83993730570064,76.62698189,-0.2221279693169542,-0.1717908108454605,0.0368500099306324,-59.37946164473941,89.55126024660537,-85.11377652103228,0.0597137560210697,0.1238782338244974,0.2147360228171607,-0.0311740620133615,0.0529017111978831,-0.0419943262589566,-426.2130609769402,592.1156407932568,-539.4304514514744,-0.0004733453789851,-0.0003431652630315
15578,1724557937527972073,0.435442715883255,-1.2019108533859253,0.1680498868227005,-0.0219336245208978,-0.0639355033636093,-0.1052236706018447,-0.992148756980896,0.0,0.0,0.0,0.4230233873434423,0.5706701792797801,0.4445802277329207,76.639164707,-0.1877585670845565,-0.107666697980407,0.0154513921331526,20.543520859546508,1.4613861469679303,4.108483016724318,0.0574400841670987,0.1225577683274064,0.2148479806539094,-0.0227678364315977,0.0628030667028411,-0.0385922051887206,-451.3141562034486,494.57745224095976,-560.8749644080468,-0.0003968803855612,-0.0002966654536162
15580,1724557937535308237,0.4352575838565826,-1.2013497352600098,0.1677252054214477,-0.0221443884074687,-0.0635317265987396,-0.1054650545120239,-0.9921444654464722,0.0,0.0,0.0,0.3830863117017854,-0.65634991199111,0.5225498327886697,76.646500871,0.0412431842794283,-0.1137420482077606,0.0715011007316521,27.014030851186817,1.4857062019399483,3.8479263226247618,0.0578010365189889,0.1216945349974724,0.215327204285193,-0.0208439037855345,0.0659202582207214,-0.0346003474387988,-7.559510557650725,-111.07240114542785,1.0961205513355878,-0.0003630820309296,-0.0002670925500166
15582,1724557937546920044,0.435096263885498,-1.2007784843444824,0.1675009280443191,-0.0237942095845937,-0.063384860754013,-0.1056232899427414,-0.9920988082885742,0.0,0.0,0.0,0.2564224776560654,-0.9134755007570344,0.360085708145494,76.658112678,0.2777052383418378,-0.0539633341268707,0.0464830122894659,-18.382278071018774,-9.857590914013125,12.163759210439268,0.0610868696005071,0.12103695864442,0.2158324839997402,-0.0141747435824584,0.0384260202248469,-0.0289293067240965,-6.214661487543118,60.41768736825152,20.161496195147784,-0.0002626422390672,-0.0001681241606311
15584,1724557937556875845,0.4349527359008789,-1.2004878520965576,0.1671308428049087,-0.0228671971708536,-0.0618425086140632,-0.1070955023169517,-0.9920600652694702,0.0,0.0,0.0,0.2346143650916887,0.3927700068696262,0.8523365008751733,76.668068479,-0.2360413461528001,-0.2801915724092751,0.2898034632171354,-19.471810468811736,5.218391036176198,-2.3351156480918647,0.0590627382436987,0.1180792176555323,0.2185645058468081,-0.0143356108483523,0.0417455563638498,-0.0264395294253549,21.45316592878922,56.8869496337027,-16.961358333660854,-0.0003945183274974,-0.0003329230024065
15586,1724557937565760078,0.4348260164260864,-1.2000174522399902,0.166981041431427,-0.022208672016859,-0.0617090761661529,-0.1073868498206138,-0.9920518398284912,0.0,0.0,0.0,0.6126562313754312,0.3089776467703318,0.1751891741810463,76.676952712,-0.1542994403707715,-0.0123087582487896,0.0567840825019619,9.39061234821559,18.92424293480156,-16.50908812057582,0.0577508589690263,0.1179406016758185,0.2190652276702901,-0.0102631175690621,0.0457054854014415,-0.0140925078303872,26.2527824868871,-10.50131375942451,-73.53805468830569,-0.0001791257272493,-0.0001066396824134
15588,1724557937578372998,0.4347681999206543,-1.199570655822754,0.1668528765439987,-0.0219972543418407,-0.0618423409759998,-0.1075443923473358,-0.9920312166213988,0.0,0.0,0.0,0.6519181442416152,0.1573702125770522,-0.7043340662164135,76.689565632,-0.0324572256212657,0.0253201522362174,0.0225957178615005,4.8728834375548695,-42.283710475932594,25.01894539544318,0.0573774193132706,0.1182430444873662,0.2193702651319202,0.0002265385763209,0.0471539170455059,-0.0336317460669555,-24.376278297719992,-28.572230538172256,108.5303974150038,-0.0001479849551007,-9.479699324553674e-05
15590,1724557937585360782,0.4347884058952331,-1.1991957426071167,0.1665270030498504,-0.0221717096865177,-0.0602686814963817,-0.1085699871182441,-0.9920124411582948,0.0,0.0,0.0,0.3751617937237673,-0.1063659266415959,0.7441701416779308,76.696553416,-0.0169396413969076,-0.4453943151445626,0.3047736274750279,6.457766917850323,-32.221504711402034,13.056228132351135,0.0574872182127764,0.1150136006956027,0.2213311042011313,0.0040861582373672,0.0484182468428073,-0.0352829161947658,-33.62830201987436,-55.952761014775085,125.30519287889044,-0.0003322581055721,-0.0003041060641443
15592,1724557937595868388,0.4348502159118652,-1.1987696886062622,0.1663356274366378,-0.022919675335288,-0.0591425970196723,-0.1085591465234756,-0.9920644164085388,0.0,0.0,0.0,0.116254744996583,-0.9820255808716392,0.7654203609940166,76.707061022,0.1178638065040798,-0.2287237008820108,0.0102114914523202,-8.045111142371557,21.061782124844942,-20.519394799780915,0.0587219782039546,0.1126080897119114,0.2212984500462506,0.0052287532724264,0.04276113705059,-0.0119717466592117,-27.929724286606433,-21.83583035127311,-29.382606368029023,-0.0001961790920193,-0.0001719353612288
15594,1724557937605520659,0.4348948895931244,-1.1983373165130615,0.1662754118442535,-0.0222027115523815,-0.0589770674705505,-0.1080176681280136,-0.9921497106552124,0.0,0.0,0.0,-0.1824993720817037,-0.6474977486255149,0.2033573657163694,76.716713293,-0.1448725344236248,-0.0215157720854622,-0.1212253853171725,-17.264047185996702,-2.309466181874754,15.50814960952895,0.0571902554369406,0.1124685463827007,0.2201107867222993,0.0064175072478604,0.0293487701502499,-0.0174675604772511,-29.648976003944036,75.03540349470214,29.909357256840373,-6.783500367913637e-05,-4.0193275606181146e-05
15596,1724557937615905482,0.4349815249443054,-1.1982051134109497,0.1659685522317886,-0.0213921219110488,-0.0572123564779758,-0.1099281907081604,-0.9920610189437866,0.0,0.0,0.0,-0.4758435336556,0.5828678805039715,1.4987523012046169,76.727098116,-0.2129172672609031,-0.311155989658783,0.3652406721073395,3.3066466737516427,21.323121203787807,-8.355132951822942,0.0553800519483634,0.1090289848573557,0.223738193023019,0.0011071829477771,0.0309156114877424,-0.0067219533207421,13.104362691289127,27.442891057582287,6.221741166597717,-0.0002982763025097,-0.0003067227406424
15598,1724557937625371179,0.4349295794963836,-1.1977555751800537,0.16610187292099,-0.0207232199609279,-0.0586616732180118,-0.1090935096144676,-0.9920827150344848,0.0,0.0,0.0,0.0049780111020939,0.0571965288323188,0.5350859405621157,76.736563813,-0.0965551372189822,0.3152953108134391,-0.1900996842613112,4.148143415132287,26.48294222873816,-27.749725620989636,0.0542847738682338,0.1121076091927433,0.2220950023936466,-0.003090623382242,0.0401600362564522,0.0114682299496005,47.29055241728726,-50.35680315117289,-113.73659547687112,0.0001132770698327,0.0001623378875823
15600,1724557937636219274,0.4349258542060852,-1.197411060333252,0.1661937534809112,-0.0198024027049541,-0.0591699630022048,-0.1085799634456634,-0.9921276569366456,0.0,0.0,0.0,0.4744067246123519,-0.4247095849311002,-0.847063060767876,76.747411908,-0.1528160714458133,0.1090407113690736,-0.1067345426535206,-3.144088959924077,-17.88833812080301,8.484807309597715,0.0525032605301851,0.1133505974748946,0.2209949247416958,0.0025387262378195,0.029349838446862,3.4038064473662644e-05,8.911633309269714,-3.065717809463604,-37.254782967206815,8.160149790724716e-05,0.0001095503174416
15602,1724557937646570599,0.4349806010723114,-1.1971310377120972,0.1661107838153839,-0.0189873240888118,-0.0587443672120571,-0.1085673421621322,-0.99217027425766,0.0,0.0,0.0,0.2272571024973524,-0.0479443053824009,-0.3422151408300012,76.757763233,-0.1651905118354357,-0.0650188733871288,-0.0110033573383538,15.172565527321147,-9.840983471785494,8.328895469867913,0.0507764673308264,0.1126843450340834,0.2208454894068646,0.0070097421485577,0.0306013438803489,-0.0066899350401765,-27.1883774261727,24.228713263043687,18.23059296073972,-8.270840166947842e-05,-7.437095576360161e-05
15604,1724557937655329139,0.435054749250412,-1.1968367099761963,0.1660620123147964,-0.0194355249404907,-0.0583496429026126,-0.1087756976485252,-0.9921620488166808,0.0,0.0,0.0,-0.0354198983330614,0.0740808099817615,-0.408874330285064,76.766521773,0.088999732987565,-0.0995267225150979,0.0551327431622449,17.920019386730313,-1.254550213169649,4.932301714610902,0.0516053005248851,0.1117890656666384,0.2212858982393402,0.0074834071218639,0.0289301218252333,-0.0074094370215318,-21.682901360048476,21.515111980161524,0.2177371184261298,-4.711876492291531e-05,-4.1586888679436766e-05
15606,1724557937668696167,0.4351347386837005,-1.1965453624725342,0.1659254133701324,-0.0201833415776491,-0.0580071173608303,-0.1091763898730278,-0.9921231865882874,0.0,0.0,0.0,-0.1557684469883329,0.516369541683515,-0.2462595099734597,76.779888801,0.102052885905204,-0.0615140267312626,0.0676396999928206,-12.463262870702728,-11.950808609694366,15.40414649242243,0.0530655948602609,0.1109206335367949,0.2221511452494218,0.0051841102127383,0.035324243775733,-0.0195401962918815,9.273853315268552,-35.39578487243677,33.15991342765245,-0.0001339869354705,-0.000129064378419
15608,1724557937675177025,0.4351658225059509,-1.196273922920227,0.1657694876194,-0.0202216152101755,-0.0573895424604415,-0.1098527163267135,-0.9920836687088012,0.0,0.0,0.0,-0.0382356560817068,0.0717864362017548,0.0346136820476044,76.786369659,-0.0209498757569728,-0.185452638848432,0.2129342886636651,-7.817744339802092,-3.7698981762945385,5.1892016573469695,0.0530753584523368,0.1096472308245986,0.2234734784522954,0.0042256388952424,0.0387902244798112,-0.0190583942666577,16.40866377761351,-66.7539693668935,23.292429068499555,-0.0001585619628469,-0.0001438590454114
15610,1724557937685280713,0.4351995289325714,-1.1959307193756104,0.1656557023525238,-0.0205899886786937,-0.0575240179896354,-0.1098023355007171,-0.992073893547058,0.0,0.0,0.0,0.1003537294919584,-0.5736058503712662,-0.045812659553533,76.796473347,0.0758770077571695,0.0183074458747072,-0.0060347655649686,-10.19543504619108,-3.3681600290099336,-7.510115542829114,0.0538363777156436,0.1098351999265102,0.2234221722586477,0.005566601622803,0.0322222395186315,-0.0193344619024085,30.62562539206759,103.07280089848814,-28.758984169954957,-0.0001186217842926,-9.827384078571996e-05
15612,1724557937695210115,0.4352765679359436,-1.1956278085708618,0.1653849482536316,-0.0196643490344285,-0.0561933182179927,-0.1101231724023819,-0.992133378982544,0.0,0.0,0.0,0.56944711494906,2.0789610570095056,-0.5343302561439325,76.806402749,-0.2183610857594288,-0.2447943837729065,0.057589541881341,-14.998046829754124,-13.195109538852009,1.795914998819002,0.0517164631770492,0.1073777573864219,0.2238676097277681,0.0062472189030202,0.0272727075611882,-0.0199697741643722,-0.1450415169778089,70.75146755624806,-12.056086369981358,-0.0002679815248874,-0.0002615228693072
15614,1724557937713714640,0.4353400468826294,-1.1952346563339231,0.1652670949697494,-0.0197404362261295,-0.0559371188282966,-0.109486885368824,-0.99221670627594,0.0,0.0,0.0,-1.0674183498637415,-3.3844069738902576,0.5234618066610626,76.824907274,0.0087969462401218,-0.0302366622812332,-0.0682151294892671,-41.104129075679026,-60.894474433269785,11.480023827691484,0.0517405609735384,0.106884245545012,0.2225706186092787,0.0340582561902351,0.1546262077911819,-0.0460773247568226,-245.70306077940876,-1134.9464089872884,249.07752127200445,-0.000120288687886,-0.0001035790946557
15616,1724557937716206102,0.4354351758956909,-1.1948046684265137,0.1651389747858047,-0.0196283943951129,-0.0556677728891372,-0.1094481945037841,-0.9922383427619934,0.0,0.0,0.0,-1.7323265260469682,-6.493762484282728,1.2084068023360717,76.827398736,-0.1115188452876322,-0.2062696414690162,-0.0334814859882202,-42.13965524758989,-54.9545640846123,14.545893115057336,0.0514509620333645,0.1063753179795425,0.2224601793542399,0.0305365944536752,0.1427501008673708,-0.0441242624781974,-204.4979416679573,-991.1897784669102,228.95814529694056,-0.0001278189542864,-0.0001153391680653
15618,1724557937725016349,0.4354660212993622,-1.1944764852523804,0.1649776399135589,-0.0184807553887367,-0.0546376183629035,-0.1099982038140297,-0.9922568798065186,0.0,0.0,0.0,-1.5906821657888728,-7.22543793500858,1.793759087882586,76.836208983,-0.2911295505160092,-0.2013082990819942,0.1135144683708021,1.3163648698157755,0.5028552134683304,12.531153060721676,0.0489823521375305,0.1045537897530904,0.2233750929234746,0.0053412157665846,0.03173323094083,-0.0202526341723014,56.98515006186007,256.21470502548954,16.199498503093416,-0.0001648828970699,-0.0001474995346386
15620,1724557937736179444,0.4355516731739044,-1.1942002773284912,0.1647241115570068,-0.0188298933207988,-0.0535476729273796,-0.1110465228557586,-0.9921928644180298,0.0,0.0,0.0,-0.3759380192967316,0.433344602860626,1.2639802405673353,76.847372078,0.0305377445839759,-0.1965474675754837,0.1946525473816825,11.36064902009485,10.673221323063917,-0.3138839064714993,0.0495372483613694,0.1022553561614917,0.2254483762755482,0.005534784539364,0.0271068007396948,-0.0131816601731564,50.2140311028776,351.6606053217998,-44.12890695457376,-0.0002494710646654,-0.0002470322261174
15622,1724557937746515229,0.4355884194374084,-1.1938974857330322,0.1646790653467178,-0.0187581684440374,-0.053585797548294,-0.1116623282432556,-0.9921230673789978,0.0,0.0,0.0,-0.4177628353241797,0.8677049142879818,0.8397326474396034,76.857707863,-0.0190777921587495,0.011827799004502,0.1188472567973943,-10.32275820592283,26.10202881560997,-16.04197317557767,0.0494666186563012,0.1023166771930053,0.2266877861106342,-0.0021144178404242,0.039698873750197,0.0059168558574427,34.219579985979024,-47.30488951243255,-113.05021307304789,-4.83413800834272e-05,-3.361534535289719e-05
15624,1724557937755667223,0.435523122549057,-1.193449854850769,0.1648164838552475,-0.0178625825792551,-0.0548701174557209,-0.1112793162465095,-0.9921124577522278,0.0,0.0,0.0,0.2055155276047691,-0.2891386709273775,-0.7784050982785375,76.866859857,-0.1583039114131699,0.2988617629377457,-0.098534267707126,-3.0364943414878,5.265253485946625,-6.842787651210483,0.0479379371541191,0.105092523407379,0.2259160933607695,-0.0033258739647408,0.044798967086244,0.0054328803124619,44.849614235065694,-87.56990336933956,-133.8603116446541,0.0001187354285904,0.0001646848850419
15626,1724557937765275938,0.4355295896530151,-1.1930608749389648,0.164772018790245,-0.0175100434571504,-0.055245753377676,-0.111333779990673,-0.9920917749404908,0.0,0.0,0.0,0.4018770992769723,-0.7388112686897923,-1.6313734307034076,76.876468572,-0.0646448416753047,0.0861740870961255,0.0063030358409645,8.764279741893997,-17.96732328307885,7.95004197613577,0.0473273636662597,0.1059167205192795,0.2260165686312906,0.0020575398375708,0.0334819944641111,-0.0093658352331544,14.408818200238866,4.570785531032412,-30.569670478395786,-5.216162364529048e-05,-2.6550674752058543e-05
15628,1724557937778288307,0.4355807602405548,-1.1927485466003418,0.1645666509866714,-0.0177915189415216,-0.0547835789620876,-0.1116854473948478,-0.9920728802680968,0.0,0.0,0.0,0.4831647634107261,0.2258772759366492,-1.0035644464765658,76.889480941,0.0320766501537412,-0.0741841249663001,0.0575810559612504,37.59592125750632,-15.94301012609774,22.252518456929316,0.0478190902059504,0.1049168721507202,0.2267230078108723,0.0044958749553032,0.0316037154042021,-0.0322016481653939,4.077936197601531,3.6869802633269457,121.03643654871765,-0.0002054430574051,-0.0001945164157926
15630,1724557937785741098,0.435616672039032,-1.1924805641174316,0.1642565727233886,-0.0195702016353607,-0.0541763827204704,-0.1126962751150131,-0.9919584393501282,0.0,0.0,0.0,0.5042981864393226,-0.047361551002546,0.2092005853081802,76.896933732,0.441023288267533,-0.2084540551718004,0.3015894851108757,32.20051430353163,-2.5465798667923862,18.009909747578313,0.0513324205437908,0.10325383563211,0.2289027508631221,0.0093593509310707,0.0348674508228299,-0.0364737490612059,11.334241473534997,334.1100690430099,-8.446880444997205,-0.0003111345538721,-0.0002980450675449
15632,1724557937795345403,0.4357627630233764,-1.1921591758728027,0.1639697849750518,-0.0219059716910123,-0.0542054809629917,-0.1139618977904319,-0.991763472557068,0.0,0.0,0.0,0.7183423116854756,7.750561145485857,-1.990524229365157,76.906538037,0.4696882832513511,-0.0414475073431755,0.292242122521237,-0.5107242710714449,13.947902764854444,-2.297522455218089,0.0561309057839635,0.1027056086666175,0.2316989491998854,0.0123676210873373,0.028406264871216,-0.024780537813602,266.3248676587811,2180.3316622669186,1098.398355862323,-0.0002783843810884,-0.0002818698754211
15634,1724557937831659643,0.4358214735984802,-1.1918219327926636,0.1637673825025558,-0.0214294400066137,-0.054002221673727,-0.1144730821251869,-0.9917260408401488,0.0,0.0,0.0,43.89757249218559,274.81817997571306,220.16093572288833,76.942852277,-0.0287853771438303,-0.0073828718240783,0.0269790420254285,2048.161386671187,-4884.109946231643,17416.91065701917,0.0551847079094329,0.102383407167494,0.2326673008909894,0.09407906379829,1.4664274859833313,-0.5375438953432194,-57908.39922810599,-779027.7417500357,226434.48707217383,-0.000204624217224,-0.0001885327526919
15636,1724557937831943826,0.4358484148979187,-1.1914019584655762,0.1636134386062622,-0.021569401025772,-0.0537978485226631,-0.1151712238788604,-0.9916532635688782,0.0,0.0,0.0,27.309561867098353,51.68288809852356,284.99973505096864,76.94313646,0.5578527450371813,-1.4062278463739966,5.015319030455681,-1687.6601829130502,-265.01860319736807,9510.82975551735,0.055486840976056,0.1019055611167156,0.2340756181191071,0.1066466282566125,1.5450492487120755,-0.4744568776188202,-64735.810729585086,-822090.1448671799,192201.96030004616,-0.0001626628152186,-0.0001324800205941
15638,1724557937832216101,0.4358805418014526,-1.1909637451171875,0.1635017991065979,-0.0214950013905763,-0.053732294589281,-0.1159203052520752,-0.9915711879730223,0.0,0.0,0.0,8.02322406392568,-181.7798628294026,327.951656304127,76.943408735,-0.8804129104294626,-0.263449438423642,5.506882042235991,-4880.272169675694,3893.104971630074,1556.9369845933277,0.055399699062114,0.1017508603842251,0.2355765187573138,0.1096700704789572,1.5004326141632376,-0.380422611074668,-66269.39082837247,-796777.9223188168,140776.04258906227,-0.0001205292261124,-9.001602525565786e-05
15640,1724557937835627529,0.435898870229721,-1.1905049085617063,0.1634692996740341,-0.0209322124719619,-0.0536946356296539,-0.1162881702184677,-0.991542100906372,0.0,0.0,0.0,-22.94345689088637,-306.5391552517261,82.59693735352981,76.946820163,-0.3409432747286003,0.0219071290387655,0.198571168911193,130.16430380923106,64.11479023286859,-1173.4123439709813,0.0543060785598903,0.10178832437871,0.2362605043132156,0.0053434252351554,0.1146151202432861,-0.0059388546346204,-6257.049823728865,-20125.321273922986,-56017.502436713476,-4.355915938242723e-05,-9.369494793354209e-06
15642,1724557937845920360,0.4359529614448547,-1.189942717552185,0.1635195910930633,-0.0215522367507219,-0.0541561320424079,-0.116277240216732,-0.9915050864219666,0.0,0.0,0.0,0.2381904487784621,-2.9632236131937497,-0.0836272393530488,76.957112994,0.1301504759747588,0.0752466107583631,0.0033224341372928,24.39945975378606,-2.5058180968975052,-4.589545553933547,0.0556535698004505,0.1025597930610913,0.2363376526667193,0.0063913346402912,0.055309584145867,0.0002513196200366,1125.3458680136346,14889.553748541946,-4017.9688994134017,3.9083065793044906e-05,7.551930217708258e-05
15644,1724557937856200283,0.4360303282737732,-1.1893670558929443,0.1634745895862579,-0.0224221311509609,-0.054091103374958,-0.116757832467556,-0.991432785987854,0.0,0.0,0.0,0.2370797761425264,0.1567610899058458,-0.1673310642833036,76.967392917,0.1615721415773245,-0.0294461008808667,0.1037805799461495,-21.81926151949128,-12.965765461272404,7.891213010405885,0.0574221843533475,0.1021972710807533,0.2373911784851787,0.0102401401437113,0.0535812462982505,-0.0076416235186176,-13.06090185747486,185.82492354462897,45.76121901274151,-5.431253423637622e-05,-1.97206349923986e-05
15646,1724557937865722241,0.436151772737503,-1.1888781785964966,0.1633730381727218,-0.0213088933378458,-0.0530885159969329,-0.1175733506679534,-0.9914152026176452,0.0,0.0,0.0,-0.0015282405717736,0.8882741040992874,0.7438292736412051,76.976914875,-0.2655921016012065,-0.1774387165685475,0.162329714473952,-16.98160045440681,-2.14755594960125,-0.1765150772704471,0.0550404623485981,0.1004235158442988,0.2388469631521368,0.0112864539594319,0.0579393971704149,-0.0039388634441239,-12.40739055180252,50.46117852088026,52.00472012840294,-0.0001020473907053,-8.630321044307699e-05
15648,1724557937876605482,0.4362563490867615,-1.188165545463562,0.1634138375520706,-0.0207953974604606,-0.0528282672166824,-0.1180401891469955,-0.991384506225586,0.0,0.0,0.0,0.020810669070611,1.1095270033365132,0.7663965629799242,76.987798116,-0.1036117083764803,-0.0341927058471109,0.0817265228907998,-7.764983745827264,6.03663593260957,-3.296513355901676,0.0540000904152282,0.1000034665917798,0.239719175246738,0.0098839457916106,0.0729627327539503,0.008571853767604,2.145258388461164,-42.54072251315677,-31.562677565097843,3.1507885231702904e-05,6.836717223203878e-05
15650,1724557937885667358,0.4363479912281036,-1.1874479055404663,0.1635279059410095,-0.0192838814109563,-0.0524865761399269,-0.1184916645288467,-0.9913793802261353,0.0,0.0,0.0,0.0409498936601392,0.2496505310525072,0.2265829654527138,76.996859992,-0.3448669870648091,-0.0332532008495173,0.0828626656198859,14.878997658062897,2.037810118007151,6.361783402859982,0.0509484774607579,0.09966316647929,0.2404569151383882,0.0112019084057095,0.0809732278682417,0.0126259049432349,9.159758965419435,-64.8720299515982,-66.02372127406952,0.0001047980636395,0.0001406023285126
15652,1724557937895326887,0.4364674091339111,-1.1866474151611328,0.1636502593755722,-0.0204161051660776,-0.0526269264519214,-0.1194332465529441,-0.9912362694740297,0.0,0.0,0.0,0.2008599256763868,-0.067905347277593,-0.4776291396446553,77.006519521,0.2261876207187443,0.0063460811462803,0.2085282800576365,21.2541847873552,1.7370117242934513,6.909100829204741,0.0533347632085593,0.0996194022274011,0.242481699457016,0.0105215685719173,0.0768533234714041,0.0125411890593154,22.75323438272504,8.01506924547581,-55.38235592175407,0.0001122785775749,0.0001521591783854
15654,1724557937907551099,0.4365675449371338,-1.1858010292053225,0.1638016253709793,-0.0198821928352117,-0.0524749495089054,-0.1206674203276634,-0.9911057353019714,0.0,0.0,0.0,0.5748915329793458,0.6626335269430461,-0.8835877102949354,77.018743733,-0.0997479657365568,-0.0089677013358508,0.1986144449350813,-29.63335930452747,-2.6256782409894392,20.819583894246616,0.0523568878940519,0.0993816944409873,0.2449124659093603,0.0171737651334993,0.081570820295056,-0.000550623326875,-6.858567512957329,14.990686836316788,43.00356894691181,0.000138670952672,0.0001845527558185
15656,1724557937915542870,0.4367517232894897,-1.1850847005844116,0.163729652762413,-0.0186058711260557,-0.0521200262010097,-0.122631050646305,-0.990908145904541,0.0,0.0,0.0,0.324380442797391,0.5485188365808309,-0.1417196993522511,77.026735504,-0.3520897526554531,-0.0371247643581442,0.4780140997766286,-9.66595938428424,-6.755436315238778,16.47433603150505,0.0499210127771378,0.0988901017552613,0.2487312070640762,0.0219286159444322,0.088312223990826,-0.0066330085410051,-24.994539665250308,-21.388982624375245,79.66324419452403,-6.892368662947123e-05,-5.414513408740466e-05
15658,1724557937925659992,0.4369592666625976,-1.1842081546783447,0.1636929363012313,-0.0179559737443923,-0.0512402988970279,-0.1247062236070633,-0.990706980228424,0.0,0.0,0.0,0.1528568571222648,0.2410617161545021,0.4956202483239528,77.036852626,-0.1692745623713172,-0.1468671015299917,0.4079164753527293,10.449087933230564,-0.5281921403981626,-12.607994809428662,0.0486066791062953,0.0972027961398762,0.2527994985287365,0.0217448053316964,0.0900830748283638,-0.0001342137692077,1.8503662012639452,13.041154491069893,17.31933348058391,-3.44827082149629e-05,-1.425385548034826e-05
15660,1724557937935935067,0.4371955394744873,-1.183246612548828,0.1637280285358429,-0.0173223372548818,-0.0509023703634738,-0.125854417681694,-0.9905905723571776,0.0,0.0,0.0,0.3681001930737507,0.8282838232220682,0.1969173332955252,77.047127701,-0.1414361404175714,-0.0446104824519225,0.219101229563132,14.604911118002503,7.103589765136968,-9.35073916665414,0.0473699099762015,0.0966369715157407,0.2550367461142978,0.0251001527052459,0.0932490230433984,0.003427060616846,-2.096345560139076,28.813740156093463,0.3211544924795149,3.906784502397444e-05,5.7410851845772266e-05
15662,1724557937946550178,0.4374850690364837,-1.1822603940963743,0.1637645363807678,-0.0181390829384326,-0.0509761050343513,-0.1269657909870147,-0.9904302954673768,0.0,0.0,0.0,0.0931326067136797,0.8233964394323268,0.5226484989118011,77.057742812,0.144048468818528,-0.0004409046224818,0.2188172140062636,28.61130472529348,7.511958522393224,5.32690568302756,0.0491237450859006,0.0965202681338964,0.2573674332189311,0.029463210059621,0.1077456806950181,0.0038759510756225,0.314774487223584,68.53163672081422,57.92710890738127,4.419362017666324e-05,5.659384289478398e-05
15664,1724557937955943779,0.4377800226211548,-1.181124925613403,0.1638045758008957,-0.0201423615217208,-0.0516597107052803,-0.1283291727304458,-0.9901803731918336,0.0,0.0,0.0,0.3140321669486235,2.040662333287059,1.2932417813360462,77.067136413,0.4270855881171947,0.0979787145390225,0.3133591733124795,-0.981060291302791,7.160548984013991,-4.403113378749546,0.0534259708554229,0.0972885591886595,0.2603683657582837,0.0276955458876706,0.1109726695147088,0.0127785739877746,12.70896439874572,37.68121728118141,9.132990521494492,4.125542644903774e-05,7.14907814892755e-05
15666,1724557937969402882,0.4380813539028168,-1.179822325706482,0.1641407907009124,-0.0187811069190502,-0.0523711927235126,-0.1282454878091812,-0.9901806712150574,0.0,0.0,0.0,0.2766798538847439,0.7755409132542646,0.0103336963260627,77.080595516,-0.1860846975816297,0.1303925231327913,-0.0248982950259995,-50.01043417073773,-26.85601699755476,25.33854960575435,0.0508974958200147,0.0990586255890748,0.2601240757436541,0.041606814944636,0.1711658697333291,0.0368472913456976,1.1909568885581194,-134.55993960480285,-158.94421655576755,0.0003358866114694,0.0003702783170659
15668,1724557937975185915,0.4383697211742401,-1.1786476373672483,0.1643833667039871,-0.0174621883779764,-0.0518978163599967,-0.1290209889411926,-0.9901289343833924,0.0,0.0,0.0,0.2934225021180607,-0.1034141999281503,-1.066943297895352,77.086378549,-0.4863601066117221,-0.0976333645077762,0.2470462961676175,-34.0595048334815,-28.00581537230831,32.80262070579777,0.0482234372481027,0.0984239144277434,0.2615298476816742,0.041326063135969,0.1664650514255434,0.0324891585524218,5.531977126299003,-98.52931457215352,-121.22591175491652,0.0002471674666716,0.0002691364370413
15670,1724557937990478246,0.4386564195156097,-1.177584528923035,0.1644977778196334,-0.0154377790167927,-0.0511095114052295,-0.1304390579462051,-0.990017831325531,0.0,0.0,0.0,0.4846485413857966,0.551639817654042,-0.2900053358376063,77.10167088,-0.2848210322779975,-0.0639279456923487,0.1735652836144242,20.300494542799033,16.183862415524267,75.74359530429658,0.044123762360401,0.0973248493727895,0.2641486802649259,0.0596418251905817,0.1935724658899573,0.0035023462374716,-131.41174750534026,-405.1893245721598,84.81905343318769,0.0001256053746398,0.0001325712235909
15672,1724557937995340877,0.4390096664428711,-1.1764514446258545,0.164508655667305,-0.0150875654071569,-0.051116470247507,-0.1320661008358001,-0.9898070693016052,0.0,0.0,0.0,-0.3768835853734342,-2.1113874896291653,0.1750302273554827,77.106533511,-0.1750960264325105,0.0363839180505656,0.666423751807913,18.598333263535455,13.906836866045456,58.74135350223975,0.0435892256198412,0.0973595122361779,0.2674092932245851,0.0608959498706607,0.1943670008113116,0.004574611955185,-132.78927269276826,-420.398212677246,57.24256612166966,2.9425032009407132e-05,2.561921352700715e-05
15674,1724557938006829471,0.4393903613090515,-1.1752675771713257,0.1646246612071991,-0.0147385131567716,-0.0511258542537689,-0.13313689827919,-0.9896683692932128,0.0,0.0,0.0,-0.697696296298076,-3.4870984718068234,-0.209418033066514,77.118022105,-0.0690942366102155,0.0136886910182462,0.1845685464682384,-6.204430590622282,-17.835422472054145,-4.641326696451813,0.0430030684250406,0.0974248482688311,0.2695446587171218,0.0393356828277511,0.1083650219019602,0.0053509537946787,57.07909581109561,176.65379174058086,-32.4172126384114,0.0001369474523151,0.0001289711045425
15676,1724557938016022596,0.439797580242157,-1.1742322444915771,0.1646389365196228,-0.0139094833284616,-0.0497364811599254,-0.1350684762001037,-0.989489495754242,0.0,0.0,0.0,0.4523506013045148,0.3173063830855268,-0.4997369122213154,77.12721523,-0.2396483597909468,-0.2669452433457615,0.4162955849644514,-17.205958852529914,-28.380270754100493,23.35149998628872,0.0411586596662407,0.0948119710898881,0.2732823859851055,0.0415945372391542,0.1057237627888398,0.0013881036485772,187.14420984236543,469.0946683060165,-82.5663237150777,4.1222011604915975e-05,1.805729410576737e-05
15678,1724557938146107608,0.4402356743812561,-1.173173904418945,0.1645162999629974,-0.0141387237235903,-0.0491802468895912,-0.1375887095928192,-0.9891666769981384,0.0,0.0,0.0,139.00658990924296,163.06433116632277,-105.09270923585424,77.257300242,0.0004742121887003,-0.0081522090367635,0.0393048454855086,1853.8854913234445,-1907.5253275463672,8663.658988793912,0.0416987282165916,0.0935406166215688,0.2783695479606075,0.4808068980993312,1.2599357988071915,-0.1900238491134587,277517.8297980402,905250.8154125644,-83818.99667211682,-9.294559324066746e-05,-0.0001189883736326
15680,1724557938146920137,0.4406287670135498,-1.172143816947937,0.1643609404563903,-0.0149779170751571,-0.0485938377678394,-0.1404111683368683,-0.9887866973876952,0.0,0.0,0.0,365.90091884026737,903.1948220775388,-173.6193897118776,77.258112771,1.5162093499109224,-1.5677629652772525,7.122763258576744,-2520.575899413626,-3284.587654522528,3234.091870599553,0.0434636853885761,0.0920215646878702,0.284122323338676,0.5944421299411715,1.3932128450161372,-0.2759406184873967,166209.0027231574,992129.0828639104,368668.2205881298,-0.0001315816149497,-0.0001461101144967
