seq,stamp,px,py,pz,ox,oy,oz,ow,lx,ly,lz,ax,ay,az,timestamp,lyap_z,wx,wy,wz,aa_x,aa_y,aa_z,roll,pitch,yaw,vx,vy,vz,jx,jy,jz,forward_velocity,forward_velocity_1
9198,1724813247725308924,-0.1736294031143188,-0.2306058406829834,0.1505115777254104,-0.0369022600352764,0.1368420720100402,0.1113385781645774,0.98362398147583,0.0,0.0,0.0,-0.1892286107317333,-0.2936239980494578,0.6253514139802201,0.0,0.1505115777254104,0.0,0.0,0.0,11.327908461165803,8.273031487467764,19.815893391303785,-0.04385932943270968,0.2811072189411171,0.21921845577982893,0.03522521559906286,-0.026827300376169576,-0.022271096684591603,-1.478268551926956,21.994236009713084,3.11104442958651,0.0,0.0
9200,1724813247735215333,-0.1732804477214813,-0.2308716028928756,0.1502909511327743,-0.0362676382064819,0.1373390555381775,0.1122038811445236,0.9834800958633424,0.0,0.0,0.0,-0.20387294361895947,-0.07574010049471203,0.6561706925168758,0.009906409,0.1502909511327743,0.11221889433086905,0.08195603358473404,0.19630434463465232,-24.053016144999432,-4.902100306102754,7.20978897195076,-0.04219580046613123,0.28200207089752677,0.2212046605456755,0.03335063958665252,-0.029736059793062708,-0.016076109808975225,20.20890451489388,40.391495595613584,-14.695773564848924,0.03355346152603512,0.03336241398272774
9202,1724813247744821524,-0.1729775369167328,-0.2311843484640121,0.1501942276954651,-0.0382406674325466,0.1367077827453613,0.1132144331932067,0.9833773970603944,0.0,0.0,0.0,0.19227521507792944,0.48364010456324125,0.34912850665458167,0.0195126,0.1501942276954651,-0.44841480598794475,-0.08786176945834953,0.14813619389350333,-24.47647803157868,-10.833733754026902,-4.148065537639169,-0.04608130037681153,0.2812216111299866,0.22272332139816536,0.03125578414646757,-0.02843402963786268,-0.009485725033043124,30.24419307914908,39.087396822666335,-48.24789702847342,0.025431465487775945,0.0345154832324857
9204,1724813247756478531,-0.172617107629776,-0.2314574867486953,0.1500919014215469,-0.0395320877432823,0.1358921527862548,0.1140852719545364,0.9833387732505798,0.0,0.0,0.0,0.38930558435673435,0.6684803718122854,-0.44365874638750413,0.031169607,0.1500919014215469,-0.25440871119903,-0.11733473741843582,0.11203535964667374,-0.9682700985597279,-0.9545464074098806,-6.272228479587444,-0.048652359484114505,0.27991723263635265,0.22414835508443756,0.039301786453247445,-0.017872141784703643,-0.010181989570067884,-27.445769046860207,-9.775422691107433,-39.04147519571082,0.026392395048608346,0.03221489008634536
9206,1724813247764653373,-0.1722477674484253,-0.2315717190504074,0.1500006169080734,-0.0409144163131713,0.1352627426385879,0.1144767254590988,0.9833234548568726,0.0,0.0,0.0,-0.0893007810864821,0.44162303570684636,-0.5967468587827351,0.039344449,0.1500006169080734,-0.36328646732162795,-0.11611561335218379,0.042557277478586106,5.600531623898262,-3.1368948506422276,-1.852448005780408,-0.05150882013312468,0.2789865775031044,0.22455924936762814,0.04075914589794927,-0.013769402720701152,-0.01600984538417638,-43.36507901684233,-35.64243241390491,-3.1686143020027107,0.042426464973002696,0.04277748332012672
9208,1724813247775595141,-0.1718665361404419,-0.2317193895578384,0.1497545093297958,-0.0408356264233589,0.1342056095600128,0.1151831001043319,0.9833891987800598,0.0,0.0,0.0,-0.3414599214731353,-0.06394472909943882,-0.4035651165352948,0.050286217,0.1497545093297958,-0.02493152553643948,-0.19856333443064006,0.1196285575131114,1.9545678701389306,0.1810796921289084,0.6911904231254464,-0.051376776269304925,0.2768841858510456,0.22603486020660188,0.03586335249811157,-0.009819651164509224,-0.02083820417124649,-7.0007517621264395,-12.837812289350104,-3.3895816345915755,0.03590133329664582,0.030142202714633283
9210,1724813247785821703,-0.1714900135993957,-0.2317846715450287,0.1495572179555893,-0.0421350076794624,0.1334349364042282,0.1157337799668312,0.9833745360374452,0.0,0.0,0.0,-0.2596956040036691,0.12369862780117735,-0.6393794274642726,0.060512779,0.1495572179555893,-0.2818286545368403,-0.12295910017977102,0.0659784499047714,-4.483269566025662,1.4443305854727502,-2.53103069407689,-0.0540490870662583,0.2756639972900211,0.22680404851976274,0.03338436780977183,-0.01453505432911939,-0.024604826515920664,-1.6032954285423138,52.20316588390671,-2.535821678808123,0.038390488010283344,0.031170792084451004
9212,1724813247795165799,-0.171207383275032,-0.2319900840520858,0.1492819488048553,-0.0426852740347385,0.1326317340135574,0.1161582022905349,0.9834094047546388,0.0,0.0,0.0,-0.35662754550860254,0.9005326172444567,-0.4878520053810049,0.069856875,0.1492819488048553,-0.14752398577082165,-0.16025094688993316,0.06550937023590722,18.505544793477284,20.34263259143507,-5.267526328126062,-0.055232087765400326,0.27420225276196436,0.2275240733963546,0.030810136254823206,-0.008386374726649493,-0.0328935157015966,-21.197281209395676,17.62653983874234,48.0612234192223,0.031570075546059256,0.026245121043050837
9214,1724813247804429944,-0.1709167808294296,-0.2319428920745849,0.1489456743001938,-0.0425580255687236,0.1338053494691848,0.1159281805157661,0.9832831621170044,0.0,0.0,0.0,-0.6524163978097494,0.46212786367242203,0.2498851313053252,0.07912102,0.1489456743001938,0.06186904133989329,0.25170716693201917,-0.031210257769710432,10.819274201647792,10.575852303564577,-3.1349330976247876,-0.05477672221672994,0.2765147341691751,0.22709089933518223,0.026761074594116252,0.002183662609265724,-0.033746453826920764,-10.631385520003748,-54.22149119154392,29.39125276573897,0.04041510853402725,0.018989462999740594
9216,1724813247814466802,-0.1706982851028442,-0.2319526225328445,0.1486347168684005,-0.0423316694796085,0.1337807923555374,0.1159847378730773,0.9832894802093506,0.0,0.0,0.0,-0.527538453542034,-0.15710268430995267,-0.0014553434995969727,0.089157878,0.1486347168684005,0.04232927837401086,-0.01068860592276747,0.016762617449790143,-11.069584535525145,-16.719319606573258,3.713666738277553,-0.05430253089917656,0.27641671554641833,0.22727154594086177,0.017871160983025547,-0.0005596830383991502,-0.027519978292951386,19.03641873117399,-34.906027311786694,-28.598959658611737,0.02864943875732605,0.01278979561130579
9218,1724813247827231413,-0.1705334484577179,-0.2319531142711639,0.1483396291732788,-0.0437894575297832,0.1331640630960464,0.1165088340640068,0.983247458934784,0.0,0.0,0.0,-0.177493149668855,-0.16776986131561816,-0.4242566187346264,0.101922489,0.1483396291732788,-0.24706615344745408,-0.0711195124463168,0.04686094673225891,12.776400472371208,-3.365708884291095,5.715403290919816,-0.05727276764315592,0.2755437033556724,0.22794490497854944,0.01695205747192574,-0.0006782853683411361,-0.037632932638670624,-6.269494688150651,0.46021266438185116,35.60675617491056,0.018386239947709205,0.006296423233212098
9220,1724813247834641638,-0.1703904569149017,-0.2319608926773071,0.1479983180761337,-0.0436990112066268,0.1328524053096771,0.1169010251760482,0.9832471013069152,0.0,0.0,0.0,-0.36889201887609613,-0.15878483100453034,0.13526220336548356,0.109332714,0.1479983180761337,0.00010223975026381839,-0.09017289894042042,0.10365662462910072,16.152489521234536,-4.0714287008697605,1.6049090048549555,-0.0570446692611776,0.2749204791867887,0.22878143156294273,0.01518299501382625,-0.0026032478550703786,-0.03919365305958866,-18.44082364887313,10.120307436934583,57.79688424040744,0.030362619592687046,0.006778835628600406
9222,1724813247845799691,-0.1702901571989059,-0.2320160418748855,0.1476763486862182,-0.0441757179796695,0.1319041401147842,0.1171290948987007,0.9833263754844666,0.0,0.0,0.0,-0.45052362771935983,0.10380142211355345,0.4826196005759671,0.120490767,0.1476763486862182,-0.10869443517589127,-0.16080756745004693,0.019754659395073777,0.8779097810023018,-0.21670093587488104,-3.9841820811920474,-0.05816659618998035,0.273141875891276,0.22911735171893322,0.008880018390405198,-0.002678266393683515,-0.03187313332306907,-2.005327443281214,11.11163838443791,-0.9970306672408817,0.015132596092703695,0.0024389441416183496
9224,1724813247854746178,-0.1702114939689636,-0.2320237606763839,0.1473695486783981,-0.0442160330712795,0.1313701272010803,0.1172087267041206,0.9833864569664,0.0,0.0,0.0,-0.43036987620697326,0.1141074403325379,0.24323945984534,0.129437254,0.1473695486783981,-0.024599815407890867,-0.1188912924353476,0.009469333299657857,-0.967541588913071,3.838075985514012,-0.6641329846691759,-0.05834570733052704,0.27208489614975445,0.22926942440645745,0.00566973280788563,-0.0009567858661778672,-0.02879962431619809,2.0328061526676393,-7.833746985672441,-22.72342365742793,0.017274551648112226,-4.8483644554600194e-05
9226,1724813247866001173,-0.1701918989419937,-0.2320358604192733,0.1471231877803802,-0.0451603569090366,0.130766749382019,0.1174143105745315,0.9833994507789612,0.0,0.0,0.0,-0.4106041698990167,-0.10129161456420825,0.04459796883137512,0.140692249,0.1471231877803802,-0.18228163820508164,-0.08768865434430506,0.00886903804404013,-9.796976578707353,4.238536278957628,3.2625338695514654,-0.060353237541388174,0.2711056257747933,0.2294336339140568,-0.00018699598511773274,-0.000781344801753292,-0.02748219074210745,1.5217316085452417,-12.751794618671298,-6.098865128947702,0.007259708513413872,-0.0035031269219019004
9228,1724813247875046137,-0.170207604765892,-0.2320407927036285,0.1468339562416076,-0.0461714193224906,0.1304797679185867,0.1178421229124069,0.983339548110962,0.0,0.0,0.0,-0.3985442843082743,-0.17020986284737738,0.07339201380370453,0.149737213,0.1468339562416076,-0.24027133936776623,-0.03869359745257744,0.0624812476916941,-0.1985373244878037,2.1986057085266437,-0.13987393437016327,-0.06236384618385676,0.2707910127061027,0.23004139041492624,-0.003103040940593438,-0.002547108261524045,-0.027605473421083992,3.861071638858288,-1.2385532274487563,11.37552494272228,0.006804793761603102,-0.009353842039146711
9230,1724813247886270881,-0.1702614724636078,-0.2320972681045532,0.1465849876403808,-0.0470104701817035,0.1300456821918487,0.117841251194477,0.983357310295105,0.0,0.0,0.0,-0.3199936577202656,-0.09522653127551278,0.31519386547014205,0.160961957,0.1465849876403808,-0.15595752197109852,-0.058844190139473423,-0.023603539411739823,-5.833201524135262,-4.260430825141449,-1.9575121982257266,-0.06417614711575782,0.2701150219813746,0.22981029857702592,-0.00863735522253073,-0.004109274648806505,-0.025569464629182193,21.923649631303824,5.300549630646977,18.865772758462377,0.00031069897878540655,-0.008702984976848877
9232,1724813247894766789,-0.1703595370054245,-0.2321262508630752,0.1463459581136703,-0.0481738075613975,0.1294358074665069,0.1180095896124839,0.9833613038063048,0.0,0.0,0.0,-0.03775323233891026,-0.05906524210563133,0.458267225942378,0.169457865,0.1463459581136703,-0.2913281699701628,-0.11089306621802252,-0.003505519870904784,-7.809731383888792,-2.436782169483902,1.1005368560743523,-0.06664244209248342,0.26917296292916465,0.22984336351398973,-0.010243183361168917,-0.004635722303749645,-0.02203115670593725,25.461997284241104,13.085845270381064,2.135473032336378,-0.004101552262283328,-0.016842208288126572
9234,1724813247906728458,-0.1704601794481277,-0.2322023212909698,0.1461852192878723,-0.0495859310030937,0.1287991255521774,0.1181553229689598,0.9833571910858154,0.0,0.0,0.0,0.1361478467746534,0.24616338513610533,0.2361642542271034,0.181419534,0.1461852192878723,-0.24792917447577145,-0.07790425348183884,-0.011646676738458383,-0.49995918729064925,1.2380065431668212,0.9585492614905456,-0.06962889031880816,0.26823376539446814,0.22976499684143972,-0.008147392449942004,-0.005293408240632402,-0.015845633149625726,-0.03189347528514208,24.38247479043153,-36.86780457086181,-0.005734835691228181,-0.009587115992636565
9236,1724813247914609037,-0.170523002743721,-0.2322385013103485,0.1460478454828262,-0.0506072267889976,0.1283780485391616,0.1183259338140487,0.983339786529541,0.0,0.0,0.0,0.06025038566549429,0.4324199072098672,-0.14938630736764436,0.189300113,0.1460478454828262,-0.2733018968645982,-0.07603902740748056,0.004417528837461628,3.8245829162404457,2.4927006189822,0.7743717939607748,-0.07176152517692334,0.2676385314514385,0.22984493707935055,-0.0072772688271181,-0.0017899840535893219,-0.015443168913837901,-7.1486901509977026,10.306011675043228,-40.25712493337697,-0.0038846756233420305,-0.010550304311576096
9238,1724813247925219897,-0.1705902963876724,-0.232217475771904,0.1459123939275741,-0.0512890666723251,0.1282030791044235,0.1183922067284584,0.9833192229270936,0.0,0.0,0.0,0.019860842645722854,0.35134516744380395,-0.45272278982631153,0.199910973,0.1459123939275741,-0.1320783350997874,-0.017357507111498832,-0.005425760123531446,4.668426156055505,-1.376208129847424,2.9490179107048973,-0.07317506177920939,0.26745062155354726,0.2297991850334375,-0.007354646511306129,0.0026248551234662187,-0.019892224099853806,17.378750067441974,8.333589351057952,30.942164680713745,-0.0021468435812675747,-0.009506615265708262
9240,1724813247934890466,-0.1706703454256057,-0.232186421751976,0.1456572115421295,-0.0519765764474868,0.1276886314153671,0.1187882050871849,0.9833022952079772,0.0,0.0,0.0,0.37464104462141645,0.5727270425723914,0.3711751370632269,0.209581542,0.1456572115421295,-0.1630895950060305,-0.09153767537788349,0.057260435552628636,0.7423572398729066,-2.0677083317209135,1.97682303750541,-0.07458328588149558,0.26660868366733415,0.23043944370983416,-0.006923263758434217,0.0054521215744625096,-0.024564951399415058,24.823253644037965,11.138629237446658,69.64500593935603,-0.00011443130636398125,-0.014867263055680114
9242,1724813247944752712,-0.1707250028848648,-0.2321101129055023,0.1454332768917083,-0.0524869114160537,0.1273592114448547,0.1190279573202133,0.9832889437675476,0.0,0.0,0.0,0.5001359354931498,0.5643634685275837,0.9016194449598529,0.219443788,0.1454332768917083,-0.11604909259252089,-0.05557645008965553,0.03144290229256933,-0.04418436369275902,5.2126987899370025,-11.758130208992478,-0.07563220859423431,0.2660854037702829,0.23080261367431823,9.092112159159171e-05,0.013920372323784846,-0.012311358446687848,-25.55219558981543,-7.414366179575147,-22.783365456689125,0.00247322024606281,-0.01252321777344875
9244,1724813247955587703,-0.1706569641828537,-0.2318856865167617,0.1454236209392547,-0.0535667352378368,0.1272929012775421,0.1180514693260192,0.983357071876526,0.0,0.0,0.0,-0.2323587555520222,0.4058654196565755,-0.2566876210000041,0.230278779,0.1454236209392547,-0.17383143446895433,0.019548380983066483,-0.2047597315733797,-5.503738307307561,-0.8667389087034549,-5.004277473702008,-0.07812304509222882,0.26612622481817294,0.228493063622592,0.0029972624769563083,0.016532112345343464,-0.006599754273680425,-50.84767825214597,-8.977913137421389,-74.87473818138972,0.010661950446917366,0.0005976663116249596
9246,1724813247968911582,-0.1706708073616027,-0.2317339181900024,0.145242154598236,-0.0551067516207695,0.1263125985860824,0.1183305755257606,0.9833648204803468,0.0,0.0,0.0,-0.6352943475293494,0.3788243040084689,-0.7295217797778331,0.243602658,0.145242154598236,-0.24996104281552564,-0.11980348029295641,0.0037528940527292273,-7.84939428914171,-1.7978039381376334,3.4416788578985145,-0.08140538862960198,0.26453902718936484,0.2286765075043867,-0.00830065506506017,0.024640282180016015,-0.022862512370263488,29.377644688871253,-56.120509697100715,75.01711344966776,0.005076641036143802,-0.006991996576257942
9248,1724813247975531064,-0.1707496345043182,-0.2315272390842437,0.1450604200363159,-0.0560774952173233,0.1258530914783477,0.1184341832995414,0.9833563566207886,0.0,0.0,0.0,-0.244762832041035,-0.17055059110749626,0.13046411915631406,0.25022214,0.1450604200363159,-0.3089432756280349,-0.10322102901697923,-0.01361233917046584,-6.158687863711801,0.11282970894362077,1.8404779436216396,-0.08345950220499035,0.26385064313256473,0.22864174793546913,-0.011806641279499708,0.026392434934638942,-0.026076676459165782,55.94862271783336,-58.05334320605628,103.11919858385242,0.0027949782293950048,-0.025341154101744808
9250,1724813247985565814,-0.1708665639162063,-0.2313358783721923,0.1448197066783905,-0.0575718432664871,0.1249946802854538,0.1190396174788475,0.9833064079284668,0.0,0.0,0.0,0.27029094750075394,-0.3737071681092392,0.7575826176435215,0.26025689,0.1448197066783905,-0.32888485361803277,-0.13848023066027812,0.07276061885393323,-14.449362153671924,-18.27447238563635,-2.740435343893658,-0.08653198332502371,0.2625280402607286,0.22951737806479308,-0.009929095186375747,0.01805998328598868,-0.015396463167821395,24.137469807810525,43.67251528664812,-48.303042515119415,-0.000542799311607616,-0.021264729846516707
9252,1724813247994606317,-0.1709422916173935,-0.2311808317899704,0.144750490784645,-0.0598621480166912,0.1227963864803314,0.119268774986267,0.9834187626838684,0.0,0.0,0.0,0.2670533091754817,0.5417100536546193,-0.5815227559053069,0.269297393,0.144750490784645,-0.5610153305981498,-0.42391361421870216,-0.04443964191918031,-4.084744455533652,-9.597034599808541,-6.037778649191524,-0.09161964043804852,0.25867505291630044,0.22945602452620376,-0.006807994243449578,0.01840081041862085,-0.011045862426891873,-13.360434082596075,65.18354450057154,-94.1874792385145,-0.002156107855543545,-0.013900641211552172
9254,1724813248007334872,-0.1710008382797241,-0.2309242039918899,0.1445491462945938,-0.0611591152846813,0.1216728687286377,0.1195209994912147,0.983448088169098,0.0,0.0,0.0,-0.13602188517719704,0.7249190029760761,-0.8138093782120679,0.282025948,0.1445491462945938,-0.22605540111976877,-0.15224045529757438,0.002832311449535704,18.76050677522457,-11.206936889860465,24.951291730076218,-0.09444011310332072,0.25674903347096784,0.2296793548691522,-0.004809902199470528,0.03432843060684476,-0.03749362511245202,-16.5919754094557,-49.97907861444322,85.31957787034018,0.004124470613105808,-0.012926135287875106
9256,1724813248014701460,-0.1710371673107147,-0.2306109219789505,0.1441805362701416,-0.0613052509725093,0.1203290522098541,0.1206628084182739,0.9834648370742798,0.0,0.0,0.0,-0.1939776162399114,0.08229903591214294,0.2562576920435382,0.289392536,0.1441805362701416,-0.12006480496476885,-0.3735725179477602,0.2771813986957496,4.241586183576272,-10.376794557574039,12.454194123998311,-0.09472576771851643,0.2542021837747969,0.2320488896759543,-0.007061084425415309,0.03742432295674725,-0.038099631646517196,-1.102380408078055,-61.15466037038058,70.51567564275076,0.01740388745280604,-0.02646853748380288
9258,1724813248025540120,-0.1711476594209671,-0.2302866727113723,0.1439579725265503,-0.0624387301504612,0.1192614957690239,0.1209636554121971,0.9834866523742676,0.0,0.0,0.0,-0.09804308549499924,-0.1646361835995327,-0.171402980723401,0.300231196,0.1439579725265503,-0.23589899758186142,-0.17238366275745332,0.01686608008461887,23.12634390054202,13.492545817719119,-7.525534375579488,-0.09718917181899725,0.2523599081525226,0.23242178412441503,-0.007383577775986083,0.032926776807777,-0.02992366066767449,2.7947352840343704,-8.969120166697834,-22.83658648679709,0.0021936938164787752,-0.021676286430982197
9260,1724813248035800636,-0.1711961179971695,-0.2299195826053619,0.1435597389936447,-0.0606617666780948,0.1190782487392425,0.1212920397520065,0.9835796356201172,0.0,0.0,0.0,-0.1281948248320871,-0.12248862536599048,-0.24428086300382468,0.310491712,0.1435597389936447,0.32982664312526216,-0.08318533438066991,0.09983818192753176,48.166523565694106,-0.4350680776805209,4.50585633105321,-0.09352152160974304,0.2516078037565681,0.23355869925129505,-0.009052856825842781,0.033668915052802006,-0.04067422316511404,1.8078901222768922,9.650704971874072,56.144272452941564,0.013232368183282408,-0.022023664125237166
9262,1724813248044564088,-0.1713078618049621,-0.2296403050422668,0.1431893557310104,-0.0575043633580207,0.1188100427389144,0.1214525401592254,0.9837818145751952,0.0,0.0,0.0,-0.07682471719305783,0.0035729271734141754,0.721129203487207,0.319255164,0.1431893557310104,0.6997650650445312,-0.1553226293114739,0.11252425238301555,9.631117945200447,-0.3023158865382225,1.0553323893508466,-0.08710587454365759,0.25034107934463107,0.23469923577487856,-0.009918099060403307,0.03113731354169147,-0.036801068877281295,4.288752029281648,15.843655166786581,84.96389417121756,0.005635429889707919,-0.029355544645783497
9264,1724813248055425806,-0.1713774502277374,-0.2293119430541992,0.1428631842136383,-0.05543939396739,0.1188110187649726,0.1218667030334472,0.983849048614502,0.0,0.0,0.0,-0.0514192464027059,0.19530029354541334,1.304740207892673,0.330116882,0.1428631842136383,0.3657354051799341,-0.05185916862300028,0.11870597015777809,-43.69464916578977,-2.8610520017637544,-2.9310187845655267,-0.08279295727744233,0.24988924709875582,0.23607454087308893,-0.010457609349002084,0.035113257812847465,-0.025210175722085282,4.290168896301411,16.081143062788662,16.75843961152269,0.008241677413176315,-0.020297810025648167
9266,1724813248064734883,-0.1715071201324463,-0.2289461195468902,0.1426669508218765,-0.055964358150959,0.1179334968328476,0.1222829446196556,0.9838733077049256,0.0,0.0,0.0,0.004085497617189848,0.3324707017974915,1.1657646477244497,0.339425959,0.1426669508218765,-0.14427539806731562,-0.1773176636799357,0.06349538190334604,-34.08066844359866,-11.298857650692597,-6.2713929572028135,-0.08395123632977783,0.24829356342655767,0.23682418988290047,-0.010950224794407326,0.03556900811960517,-0.011168524697061422,-4.732351243888582,27.44257750059544,-55.86319368759007,0.000992108684464133,-0.027703257104487275
9268,1724813248075984953,-0.1715898066759109,-0.2285966575145721,0.1426760554313659,-0.0571453683078289,0.1162393018603324,0.1224678084254264,0.9839839935302734,0.0,0.0,0.0,-0.19455761222225088,0.8139692355124168,-0.019231586427603697,0.350676029,0.1426760554313659,-0.24617494706291768,-0.2748169855949714,-0.011688392411197835,-21.997971420612508,7.9761230307672655,-2.4218505599075213,-0.08668735738560525,0.24520186945291725,0.2369607503198793,-0.010129259531966639,0.04316390552168414,-0.0027117477096609832,-0.458081171076238,1.596699642712327,-73.59387965974959,-5.331190597309303e-05,-0.014656255718796541
9270,1724813248085112651,-0.1717028468847274,-0.228113055229187,0.1426252275705337,-0.0595399290323257,0.1155812740325927,0.122765876352787,0.9838824272155762,0.0,0.0,0.0,-0.07136804735595959,0.5234062508560675,-0.45592811376351383,0.359803727,0.1426252275705337,-0.542797954671971,-0.07876234505117816,-0.0022377243358118076,-17.658011808109137,12.003333195748976,2.2070521747375054,-0.09163095612845593,0.24448401065992265,0.23700578443966258,-0.013886388675020456,0.05162201395046573,-0.008596656866327379,32.272882353319595,-33.06852660259334,3.9771110396621974,0.0017376178152994771,-0.02639347158743174
9272,1724813248094742347,-0.1718518286943435,-0.2276297658681869,0.1425116807222366,-0.0621500983834266,0.1149758696556091,0.1232417300343513,0.9837324023246764,0.0,0.0,0.0,0.4301676305149108,0.1924153883386328,0.10882651986207098,0.369433423,0.1425116807222366,-0.5620852416563562,-0.059440968117743076,0.030918853459228707,15.626908445848951,3.9914409443584753,2.3881309030968345,-0.09695637300376327,0.24394216930111076,0.23736678834798228,-0.011116934243759147,0.052565662969097815,-0.011069001148753976,22.571481699291503,-19.318311503256922,49.32967594869436,-0.00029224721441078837,-0.029965153744958253
9274,1724813248104470562,-0.1719171851873397,-0.2270950227975845,0.1424110978841781,-0.0632579997181892,0.1148417890071868,0.1235839053988456,0.9836344718933104,0.0,0.0,0.0,0.35972421061422005,0.15242539617918194,0.49714606677229395,0.379161638,0.1424110978841781,-0.23680214072406927,-0.0011032645207494968,0.04378255706050231,19.15234313314794,-1.5577906372674084,5.436170484151709,-0.09915425558584681,0.24397316514371828,0.2378046657116642,-0.005531006081548995,0.05536547375412759,-0.006417603489744295,-18.456382605404727,-6.532302128276148,-4.234059123799836,0.008727127174660261,-0.022672747866498436
9276,1724813248114597555,-0.1719606816768646,-0.2265301495790481,0.1423874497413635,-0.0640783011913299,0.1142854690551757,0.124435469508171,0.9835388660430908,0.0,0.0,0.0,0.05458420353246454,0.0607442407339871,-0.011176134703474672,0.389288631,0.1423874497413635,-0.19343787030610007,-0.0965198885501266,0.14220343220153278,-14.273174454893201,-10.232492627778388,-3.131714496920372,-0.1007329119416435,0.24314430403440562,0.23938167221456427,-0.004149096557917176,0.05548191661116597,-0.0011825892261869697,-13.985578203183808,-2.33677919365297,-52.253452968338316,0.009348600527138614,-0.019007835367106513
9278,1724813248125000894,-0.1720022857189178,-0.2259561270475387,0.1423874646425247,-0.0667213350534439,0.1128432974219322,0.1246848106384277,0.9834979772567748,0.0,0.0,0.0,0.0816410422190613,0.10821327400113523,-0.5767880063639468,0.39969197,0.1423874646425247,-0.5402303979409188,-0.21163379471963936,-0.027711788515502184,5.101904748943798,-2.3311282226663534,-4.352148186515572,-0.10636771317475051,0.2409245585938684,0.23932068397077425,-0.004456242676608824,0.05664016240113412,-0.0069429194507586445,-8.572763882364345,22.08486404592516,-1.3695788490062757,0.008928233966843432,-0.01813582931064561
9280,1724813248135125281,-0.1720519065856933,-0.2253682613372802,0.1422487497329712,-0.0671476945281028,0.1120468229055404,0.1250282675027847,0.9835165143013,0.0,0.0,0.0,-0.11524495256969436,0.50445174526737,-0.06846225703105463,0.409816357,0.1422487497329712,-0.10986382561305132,-0.14918003572918093,0.04626930823689892,30.753838420015438,-5.3463695819782,0.720287935034125,-0.10732650576259378,0.23947281770061374,0.23996610483233924,-0.002534379440458423,0.05770500679632207,-0.013010027257122303,-32.59798953006902,45.57975897533176,45.907131596300644,0.012031250779437721,-0.022568243135867545
9282,1724813248145111424,-0.1720539033412933,-0.2247955501079559,0.1421256363391876,-0.0665566325187683,0.1105419546365737,0.1250323951244354,0.983726441860199,0.0,0.0,0.0,-0.5703104577115123,1.0230772096112117,0.34760977503122953,0.4198025,0.1421256363391876,0.08147326537856203,-0.31599009340908424,-0.011417643323455058,-36.050871726978876,-9.093277062305564,-2.301822014481338,-0.10645875655353432,0.23632314393822026,0.24019587260845957,-0.0066901074000309535,0.06667531315327402,-0.008465488087829875,-19.98032272729717,26.165028518288732,-54.972029438414076,0.015961721937977465,-0.01761675704116527
9284,1724813248154663429,-0.172177106142044,-0.2240734696388244,0.1420800685882568,-0.069963090121746,0.1085163429379463,0.1255346834659576,0.983651638031006,0.0,0.0,0.0,-0.5273591271319273,1.0375566026288476,-1.0604302446381393,0.429354505,0.1420800685882568,-0.7673346329760001,-0.3333105238037122,-0.0016556001277303009,-20.09487978772586,-0.2848529885315383,6.8339873635311905,-0.11370847848090036,0.2331568957392878,0.24053935155628975,-0.013546244863453794,0.07758803377271839,-0.006127086727941489,8.486234816161236,-26.968350297730574,-92.72734982384357,0.0064357730127555,-0.032939512927515374
9286,1724813248164728313,-0.1723203212022781,-0.2232714146375656,0.1420040130615234,-0.0708799734711647,0.1068257391452789,0.1264156997203827,0.983658254146576,0.0,0.0,0.0,-0.3996346404492426,0.4640397773549174,-1.4138176467651655,0.439419389,0.1420040130615234,-0.24029387693432583,-0.3199681397515194,0.1287656840033391,56.45611432843084,25.98112473254184,14.034056397719358,-0.11573639485677704,0.2301059919108645,0.24224095153568226,-0.01683469438397278,0.08691845845855539,-0.030642632302667394,11.010055582025071,-58.48216634492081,65.014743752262,0.006885588265590806,-0.03592755548337539
9288,1724813248175289305,-0.1725269854068756,-0.2222733497619629,0.1414245665073394,-0.0687843263149261,0.1083837002515792,0.1276042312383651,0.983483076095581,0.0,0.0,0.0,-0.30197514644072776,-0.17021452208603804,0.38235052824666993,0.449980381,0.1414245665073394,0.40128218881139205,0.22763941920304764,0.2889030485404222,-9.597753773726087,-4.913123608358761,-4.475148078645041,-0.11084796597800038,0.23283958789202724,0.24507631125531695,-0.02186318439141921,0.08668855506991768,-0.0342493461475506,27.26563983163814,-27.393945959296133,69.16848190316337,0.01649937852395937,-0.05433449983597434
9290,1724813248185252232,-0.1727663725614547,-0.2214831411838531,0.1412771195173263,-0.0702680349349975,0.1064394637942314,0.128210037946701,0.9835116863250732,0.0,0.0,0.0,0.13902098631038795,-0.13615357866818734,0.12307128601125905,0.459943308,0.1412771195173263,-0.35551535276895074,-0.3548288655996362,0.05974289150960033,-40.29098409145709,-24.599881536421517,-14.626277965354562,-0.11415736065247319,0.22939359748730595,0.24609160634069277,-0.02323483070581034,0.08359752182799518,-0.023636619717828822,14.814766921425253,72.12817311214695,-68.2800266136982,-0.000512040043317964,-0.046714367790608335
9292,1724813248195147275,-0.1729884892702102,-0.2206138521432876,0.1409563869237899,-0.0720649659633636,0.1048905476927757,0.1285014897584915,0.9835100769996644,0.0,0.0,0.0,-0.0037993462356767926,1.2528078180632485,-0.9678347753966793,0.469838351,0.1409563869237899,-0.40364136199609574,-0.26544623241020954,-0.002678325156279622,1.4784813732444029,7.24195907796028,0.7328401901579258,-0.11808689444394395,0.2267816327727739,0.24637701657945013,-0.019139948298628973,0.08396126471546594,-0.03167792214017595,-11.152883812378592,70.40662508487554,-0.29750782881324156,0.006953449346113851,-0.050833059169052765
9294,1724813248208353652,-0.1731829643249511,-0.2195735871791839,0.1405510008335113,-0.0735716745257377,0.1034137532114982,0.1296370029449463,0.983405828475952,0.0,0.0,0.0,-0.09326452682918207,0.9494716745916119,0.9662007363164471,0.483044728,0.1405510008335113,-0.272330649270509,-0.20137604635721432,0.13110637712333978,32.99138553813451,-24.296961187291807,6.579824522007252,-0.1212160696927802,0.22434784520327086,0.24846642590991758,-0.02655121962926188,0.12194017307365002,-0.04719460375666529,63.29678312298655,-238.43773805204324,182.60678820175508,0.011798562650549304,-0.040856551789688986
9296,1724813248214588762,-0.1733833253383636,-0.2186861932277679,0.1402081698179245,-0.073338434100151,0.10210632532835,0.1302327811717987,0.983481228351593,0.0,0.0,0.0,0.5076716229893122,-1.1715054928525834,2.211220140530221,0.489279838,0.1402081698179245,0.0012235852164966029,-0.4386766476504164,0.16168047588283585,28.989515097156282,-20.33484850629582,-6.443528529568198,-0.12090654736155618,0.22175444525915955,0.24983131329264519,-0.025755270534613572,0.12218955498669004,-0.034867204473228774,61.15172614613668,-210.22308613804688,90.41424646746034,0.01604515923265377,-0.07895602950032177
9298,1724813248225279943,-0.1735417395830154,-0.2177489101886749,0.1402041763067245,-0.0729692354798317,0.1003465950489044,0.1297357082366943,0.9837554097175598,0.0,0.0,0.0,0.5156659828077577,-1.0369254094563791,1.1748290718197794,0.499971019,0.1402041763067245,0.03830964363545162,-0.3311672603772901,-0.11522163011330597,11.686886025819542,8.366025389895857,-4.669973359363995,-0.12067494906837163,0.2180912089540525,0.249015379763059,-0.01336125637815222,0.0874556583043784,-0.006934677142822032,-24.358936504731698,91.67773876854906,-133.83316651941175,0.007154895566976489,-0.03774864767872498
9300,1724813248235577157,-0.1736648827791214,-0.2168504744768142,0.1400676965713501,-0.071553461253643,0.0991986840963363,0.1299490630626678,0.9839476943016052,0.0,0.0,0.0,0.015834567740914962,0.6914937615415635,-0.5691885720783285,0.510268233,0.1400676965713501,0.24015659814322696,-0.26178022972569825,0.04724554154062365,-14.883122337001792,-3.5902731235888297,17.395393580605624,-0.11802493937843782,0.21547272282471522,0.24983866575072833,-0.014434491752517431,0.09871542670633282,-0.009097378101197151,-4.6829607027150075,10.621460071423439,-120.28757443460174,0.012587799865151355,-0.0372113173458928
9302,1724813248244648576,-0.1738156080245971,-0.215863361954689,0.1400183886289596,-0.0719937533140182,0.0974867045879364,0.1311205625534057,0.9839311838150024,0.0,0.0,0.0,0.3238425518494566,-0.46867805888524483,-1.268139857200175,0.519339652,0.1400183886289596,-0.17044457566973303,-0.37689137149025387,0.21797368033010192,-11.188450656634593,11.6543305577778,10.064763849970806,-0.1190567765734794,0.21231158263957947,0.2522616288155907,-0.013331381990972169,0.1017757881211594,-0.017130975567727802,24.35693636999278,-100.07589721817884,7.758814724469799,0.01196708749073596,-0.04627322920993708
9304,1724813248255878293,-0.1739196628332138,-0.2148183137178421,0.139663428068161,-0.070965938270092,0.0982123985886573,0.1321420222520828,0.983797013759613,0.0,0.0,0.0,0.46395481075047584,-1.2058006843628686,-0.002041210933645843,0.530569369,0.139663428068161,0.1776027895923079,0.09239882882958274,0.20928082873447162,7.924097931002487,-5.342451404100062,-2.726941623315911,-0.11658403251918421,0.21361825628970116,0.2545246520735362,-0.006883280840103367,0.085307467039339,-0.03668979253508553,-2.4512811031906203,33.37015009549282,149.23348976378935,0.02083616157752257,-0.039772278476932
9306,1724813248265283694,-0.1739656329154968,-0.2140770405530929,0.1392783224582672,-0.0703578665852546,0.0967894196510315,0.1329975575208664,0.9838665127754213,0.0,0.0,0.0,0.3233033415570317,-0.111990429450886,1.6889930180010544,0.53997477,0.1392783224582672,0.070404586746714,-0.3291329693868836,0.16824938040098555,-18.36528929111539,-22.125171890623598,-7.1622586270632205,-0.11550606621587405,0.21072670673037058,0.2564992093228007,-0.0033880494480298395,0.07602003336880792,-0.023004897344145014,-10.15819035295272,96.63361486277817,55.28399140424639,0.023493756159683188,-0.033354323248975006
9308,1724813248277048130,-0.1739834249019622,-0.2132238149642944,0.1392716765403747,-0.0715697929263114,0.0951341316103935,0.1334919482469558,0.9838736057281494,0.0,0.0,0.0,0.2743739084238178,0.7355148659510533,0.5071943311901539,0.551739206,0.1392716765403747,-0.24818457183189863,-0.25549376586365324,0.042791163452897255,-5.629302647209156,-1.9375221935698477,-0.8442511779761803,-0.11824520665200268,0.20780017913446105,0.2573686612916866,-0.0002955493709464463,0.08758516457303145,0.00030833949302611074,-16.09851769558286,-60.82099045258853,-132.87778499771787,0.01674882290915684,-0.02156462519569114
9310,1724813248285710211,-0.1739782243967056,-0.2123690992593765,0.1392799168825149,-0.0720239803194999,0.0936888307332992,0.1340764015913009,0.9838995933532716,0.0,0.0,0.0,0.058779574608054004,-0.638684596853067,-0.8505897916588084,0.560401287,0.1392799168825149,-0.1601325479480999,-0.32455585217948846,0.09810817350786694,15.958240505669284,5.890223841603056,2.7452681874659923,-0.11938574365519997,0.20510936852159953,0.25857122985287134,0.002154479025447742,0.09237745983829626,-0.0047022703739303395,-24.83144524450619,-114.64697522719266,-98.93709587956633,0.02507633051696798,-0.026639901078099174
9312,1724813248294741933,-0.1739441305398941,-0.2115940600633621,0.1391842067241668,-0.0717299282550811,0.0931153520941734,0.1344995945692062,0.9839178323745728,0.0,0.0,0.0,-0.16494500366087567,-1.259804845979926,-1.1997269254872192,0.569433009,0.1391842067241668,0.03855144033876072,-0.14080585691230205,0.08861635829766447,14.700324792838778,7.122576581426664,0.24117797929822693,-0.11884139077450018,0.20394179952596395,0.25953721046470807,0.0005753027470163374,0.07538442802425394,-0.014947306921648362,-5.362942084991542,37.00519490228972,-10.844011609606014,0.027285183639897702,-0.02202314177292955
9314,1724813248304965067,-0.1739752739667892,-0.2109440714120865,0.1389810591936111,-0.0710024759173393,0.092114433646202,0.1350640952587127,0.9839874505996704,0.0,0.0,0.0,0.004813075050695684,0.3425152940160361,-0.988745616660063,0.579656143,0.1389810591936111,0.10438290874176767,-0.2209963546808296,0.10603398993719916,18.891824065005306,3.830238898885468,1.7863020945561323,-0.11749802955247206,0.20182606495150388,0.26090810982730084,-0.0009963604077203314,0.06969915417596617,-0.02796892354142777,9.982254128955407,96.3273927182487,57.056316422323604,0.017167972175161295,-0.023836113233875727
9316,1724813248316052762,-0.1739616692066192,-0.2100976854562759,0.1385735720396042,-0.0683799535036087,0.0923030972480773,0.1355337649583816,0.9840909242630004,0.0,0.0,0.0,0.03584883058267016,0.684143403646372,0.08182557673294144,0.590743838,0.1385735720396042,0.4635939842547407,-0.038140502586114,0.1268327210288963,11.443653945240438,-11.217880431276793,14.00862078703957,-0.11206226957514955,0.20156701539114913,0.262383479304051,0.0009636162944435256,0.08430326405336608,-0.03550466788641771,-0.841299758337705,-59.09853308859892,83.06683795948167,0.027918116114582666,-0.026160872275723678
9318,1724813248325168108,-0.1739548593759536,-0.2092695236206054,0.1382592767477035,-0.0661764591932296,0.091103121638298,0.1370181888341903,0.9841477870941162,0.0,0.0,0.0,0.000899351966771246,-0.5283322786048679,0.7379310804082289,0.599859184,0.1382592767477035,0.4108835576047766,-0.3480474439277533,0.3454474034380352,-13.63217430016544,-8.127781656798115,3.071217248961559,-0.10761135529463217,0.19875870701062934,0.2659319725770691,0.0002343452797006762,0.08579584303135235,-0.029052420148838465,1.133284836544541,-103.54806234512058,26.117866770732213,0.030921767880914396,-0.03044894238436974
9320,1724813248334943860,-0.1739579439163208,-0.2084838300943374,0.1380321681499481,-0.0650625750422477,0.0905326306819915,0.1377331465482711,0.984174907207489,0.0,0.0,0.0,0.06405652787983503,-1.2316633295925667,0.5124537333620206,0.609634936,0.1380321681499481,0.1953238621790824,-0.15627522018216483,0.15623009977563115,-16.111816924633658,12.970307397699937,-15.104207448631742,-0.10536452167059719,0.19740198260898512,0.2676464916042509,0.0010913361212647743,0.07337527185659809,-0.021523161310430083,-1.232126115154585,-34.34443586581498,-24.618743557083157,0.02510039635042542,-0.026758069843319278
9322,1724813248345964053,-0.1739284396171569,-0.207762137055397,0.1378162056207656,-0.0644720792770385,0.0900972187519073,0.1379528194665908,0.984222948551178,0.0,0.0,0.0,-0.045088798891198684,-1.1430134413751296,0.22184772058849345,0.620655129,0.1378162056207656,0.09154441961222362,-0.09591377040527867,0.04259631428018949,-7.8832969228662755,-7.4919591177088565,-0.8764649659573598,-0.10424049661768142,0.1963998974881096,0.268235281440934,0.0015039627783854925,0.06028518191572907,-0.01907778474953048,71.42564232688875,880.8525035843055,-566.8855987969772,0.023378770262975246,-0.01913934983531421
9324,1724813248357569103,-0.1739253252744674,-0.20712611079216,0.137601152062416,-0.0640140622854232,0.0882178544998169,0.1389140486717224,0.9842879176139832,0.0,0.0,0.0,1.7777360137797784,19.7458658173749,-12.962496130667727,0.632260179,0.137601152062416,0.018804201480533675,-0.34135555440628657,0.1477289133869329,-6.191358863900878,-10.133367628729768,5.3840024599081735,-0.10360538552069454,0.1926376736902683,0.2703920690572369,-2.7908965165579502e-05,0.047568125795155236,-0.01650386503298984,-170.5015776841067,-1814.963649949485,1265.1011849932602,0.018169967014844423,-0.018241165946201985
9326,1724813248379446876,-0.1739381551742553,-0.2063839435577392,0.1373236924409866,-0.0649607256054878,0.0869546085596084,0.1403261572122573,0.984138011932373,0.0,0.0,0.0,-15.462841785538359,-169.05576960212738,113.74933861078034,0.654137952,0.1373236924409866,-0.11348880285180625,-0.10870058189757693,0.11393913527042077,34092.04485018062,-6622.791956707497,13410.184818880443,-0.10555926408945818,0.19053276861027402,0.27317028615412875,0.1176298816152439,1.3391551137443685,-0.8438652705755771,-1984.8730796413765,-21943.346691842424,14056.532042324456,0.01083372820044367,-0.01224672364353915
9328,1724813248379986453,-0.1738731116056442,-0.2056439965963363,0.1368573009967804,-0.0596659108996391,0.0867934077978134,0.1419493705034256,0.9842546582221984,0.0,0.0,0.0,-16.54976075942956,-181.07306726429258,121.44390467307215,0.654677529,0.1368573009967804,18.735562435041512,-3.77048259557449,7.528246005285088,30996.545030823712,-6035.188144288615,12198.763851705622,-0.09463471713425106,0.18891438853686537,0.27749286887289637,0.10900914421817198,1.2449011201452542,-0.780471734995051,-1772.1829282400147,-19606.033351929098,12486.362123825407,0.645183009333551,-0.41656372628197375
9330,1724813248384797617,-0.1738435477018356,-0.2050789445638656,0.1367012560367584,-0.0618355385959148,0.0850831195712089,0.1423836946487426,0.9842073321342468,0.0,0.0,0.0,-14.685552246309777,-161.04650112926817,105.41485232827486,0.659488693,0.1367012560367584,-1.0054783959229183,-0.5808110559232292,0.05979766445132725,-2718.5560954956622,456.5660060842728,-1040.2724588090346,-0.09936655082396846,0.18616100697193363,0.2780597810191994,0.004807978021648118,0.09952719981581826,-0.026458128404750703,742.6787562875165,8125.900738363536,-5751.961118723443,0.04349066325341877,-0.0332065566984471
9332,1724813248394623931,-0.173823133111,-0.2044605761766433,0.1365612000226974,-0.0612866468727588,0.0840207710862159,0.1429782211780548,0.9842467308044434,0.0,0.0,0.0,-0.25909650257462297,-1.6567742377398114,0.32019105685174853,0.669315007,0.1365612000226974,0.06936766368141185,-0.2368821980721855,0.11408920383317962,64.95690290316968,26.62027954209836,3.463760079050393,-0.09843305513820062,0.18395539173970893,0.2794285775338695,0.0004389908300233003,0.06275448316512033,-0.020307763619975994,833.3141241836822,9192.215156173153,-6017.650718239096,0.021634066590645703,-0.01850413828420179
9334,1724813248407218363,-0.1738440543413162,-0.2036730498075485,0.1362076997756958,-0.0601320266723632,0.083993375301361,0.1436735093593597,0.9842191338539124,0.0,0.0,0.0,-0.011638542418860484,0.6576929519642585,0.038336610453406195,0.681909439,0.1362076997756958,0.17029814179654726,-0.03689613287034513,0.1244381590324892,-4.2292748634370545,-6.379133119326813,-0.2757909363203357,-0.09598991013589397,0.18364504711236973,0.2810610566383772,0.00017062004758727767,0.0755531320647087,-0.021210120287118883,2.7922209745438096,12.281825873114936,-49.19563021019916,0.020609036002997475,-0.024040613015947798
9336,1724813248414725303,-0.1738345772027969,-0.2030476033687591,0.1360791623592376,-0.0596860870718956,0.0833838880062103,0.1441225707530975,0.9842324256896972,0.0,0.0,0.0,-0.0661000846598915,-0.017432771007657166,-0.4509625191267326,0.689416379,0.1360791623592376,0.08376680553341284,-0.18437823212839374,0.11745701903416673,-0.20451385645377762,-6.330370677532735,4.25558671193975,-0.09517418837961265,0.1823513907534187,0.2820880054564415,0.00012651953838460628,0.07888617702446332,-0.02043020361774861,-1.0147866537392893,-85.18324762579908,-48.281751774184954,0.02710488054571116,-0.025789426602608023
9338,1724813248425830280,-0.1738518327474594,-0.2022443413734436,0.1357979476451873,-0.0580796711146831,0.0834842249751091,0.1453760266304016,0.9841356873512268,0.0,0.0,0.0,0.02513919040675815,-0.8853551110214921,-0.709540755672291,0.700521356,0.1357979476451873,0.26749367220592657,-0.03593224137596719,0.24990092748045448,49.50029338883877,-2.103459564678566,2.307486729130993,-0.09168750615098378,0.1822130147776025,0.28493545423628164,-0.0015968760710478591,0.07111246349593081,-0.034553036036019336,7.752318476410533,-47.214627456862004,49.84675954216881,0.023118247142958397,-0.026598929873809594
9340,1724813248434485430,-0.1738659441471099,-0.2016370892524719,0.1354366242885589,-0.0539946965873241,0.0834376737475395,0.145955890417099,0.984286367893219,0.0,0.0,0.0,0.08910830445651818,-1.0852803412317447,0.21521975984616804,0.709176506,0.1354366242885589,0.9182379922461352,-0.15850166347315403,0.20498467623982877,23.34024935611309,-3.22618996140549,-5.346406973021454,-0.08339341820320961,0.18100151502275774,0.2868543140665818,-0.00016282470767592372,0.06219935873464699,-0.03690163607962127,-3.128377759023399,-7.598477463932241,81.34004784098931,0.025503530936759566,-0.02852836395129882
9342,1724813248444791430,-0.1738496124744415,-0.2010937631130218,0.135115772485733,-0.0512371957302093,0.0835795924067497,0.1464971005916595,0.9843412637710572,0.0,0.0,0.0,-0.07222212736276316,-0.973372185454088,0.7405190512064624,0.719482506,0.135115772485733,0.5225482506651956,-0.05755632734840876,0.14795958316971164,-38.71555127321436,1.3188902248460765,-3.23484855603271,-0.07772150821502544,0.18053294694274058,0.2884479036952417,-0.00018423518456422983,0.05033366431533892,-0.0287124945091648,-40.17847841161861,321.4432043075471,14.343639707048656,0.021837560485254173,-0.01881684831870933
9344,1724813248455856191,-0.1738726645708084,-0.2005651742219925,0.1348268240690231,-0.0505642145872116,0.0829100087285041,0.147255465388298,0.9843196272850036,0.0,0.0,0.0,-0.8081227406374055,6.272874623176455,0.4641265334051757,0.730547267,0.1348268240690231,0.09035145501225805,-0.14365185964370034,0.13946968116991945,-32.27962488400061,-5.840139128079761,-1.2932196318273292,-0.07641989691014402,0.1790670428956354,0.2901361714860202,-0.0018166310317003775,0.04167766379983617,-0.021161269622891776,-326.9884536062417,1710.4872885106092,-3591.527566634096,0.01613517017703667,-0.020087264418148756
9346,1724813248500593364,-0.1739056855440139,-0.1998030394315719,0.1347760409116745,-0.0532119572162628,0.0812898129224777,0.147253930568695,0.9843153953552246,0.0,0.0,0.0,-62.55276327854102,273.7329072161706,-805.3345379391214,0.77528444,0.1347760409116745,-0.1271825762217765,-0.053846383300286085,-0.013516091916008296,-39031.159723485915,-16941.165873105707,3723.349268133873,-0.08218373662446782,0.17661776825436773,0.2897176179664468,-0.1574588167981119,1.598462132875909,-0.03988960449186152,271947.673249714,83789.73865268123,-768023.0905805184,0.0042942131632254885,-0.005946085792964648
9348,1724813248501058602,-0.1739796996116638,-0.1990517228841781,0.1347572952508926,-0.0571340732276439,0.0788418054580688,0.1480985581874847,0.9841679334640504,0.0,0.0,0.0,65.29003700000621,313.0915423789097,-1166.276752341839,0.775749678,0.1347572952508926,-18.474777428031622,-8.017494596346435,1.7367582455203001,21054.7067317009,-6028.749854044165,5568.3381401208535,-0.09057995519268137,0.17297133581494833,0.2908618463918092,-0.18684654848075866,1.7269690905260404,-0.4184561605182182,321241.43778190576,-404621.57127901155,18774.844526468776,0.31301182549471074,-0.6410101887245896
9350,1724813248501439435,-0.174059510231018,-0.1983591020107269,0.1344800442457199,-0.0552997887134552,0.0778416693210601,0.1488750576972961,0.9842351675033568,0.0,0.0,0.0,202.110162914554,6.488193182838131,-911.4180052522615,0.776130511,0.1344800442457199,8.40129931527288,-6.856665467025132,4.420442058107737,66843.08719741118,10738.967088927418,3427.894137575839,-0.08704943291597741,0.17051970076753487,0.29279877078138045,-0.12193658986592482,1.8576997800182653,-0.9725238702084766,197302.34889417046,-857584.8974835908,1115765.8636503047,0.44312392579203647,-0.8459434312213004
9352,1724813248501854528,-0.1740704774856567,-0.197570338845253,0.1339657306671142,-0.0482244119048118,0.0791734382510185,0.149161234498024,0.9844577312469482,0.0,0.0,0.0,210.73121823254152,-373.2415974693373,-246.23565591621235,0.776545604,0.1339657306671142,34.46038889019174,1.080608130178228,4.2059816163302735,54496.98275923942,16914.95245414419,-606.2478174579203,-0.0724510146952076,0.1711059292615666,0.29452855980737613,-0.02371431330520757,1.708018539894769,-1.1049641908440524,11334.97131496575,-810939.3830662128,1438693.0371805897,0.7296124720027597,-0.7728111983182329
9354,1724813248505121776,-0.1740783452987671,-0.1969323456287384,0.1338033527135849,-0.0488923713564872,0.0784026458859443,0.1491270959377288,0.9844916462898254,0.0,0.0,0.0,5.152003907454552,-351.63933358704116,241.9814709367323,0.779812852,0.1338033527135849,-0.47025006175500067,-0.40414300055361313,-0.07879563117809459,-7893.672289103908,-331.1940555937959,-972.3181683520439,-0.07401500083539045,0.1697701972898452,0.2943660651427313,-0.0011667042696723584,0.1633625743805016,-0.03661366710903913,-46625.37991529665,14687.707053517535,103534.46192280184,0.06196514322704321,-0.06805254058062277
9356,1724813248514355447,-0.1740567237138748,-0.1962565332651138,0.1338067352771759,-0.0504161827266216,0.0769912376999855,0.1483682096004486,0.9846407771110536,0.0,0.0,0.0,-0.12239919854590736,-5.271517529214506,0.3765001510824264,0.789046523,0.1338067352771759,-0.3560596239809477,-0.24624366680256005,-0.207465620603875,28.418171094168535,17.02317456797757,13.029531089243033,-0.0775985012956051,0.16735789360265238,0.29260307932486546,0.0007615244714092029,0.07740678632156595,-0.020526800475010987,-331.0920815458938,21381.836337805278,-14803.517022024133,0.022966102592582534,-0.01969194206736782
9358,1724813248526335827,-0.1740721613168716,-0.1952636241912841,0.1332360506057739,-0.0488281138241291,0.0770533606410026,0.1504421532154083,0.984401285648346,0.0,0.0,0.0,-0.3565170323338808,0.17094409318420656,-0.36069147384363287,0.801026903,0.1332360506057739,0.2339065599937347,-0.043499744580646545,0.36777160059305974,-11.762082064463417,-2.618427369872945,3.291376837874897,-0.0740477553099388,0.1671720255385914,0.2970987180069085,-0.00585347328405561,0.07701044269891,-0.0372447608225297,27.05588656218255,195.9282754059675,-31.176757815493964,0.03063529870805903,-0.03291278924891842
9360,1724813248536310088,-0.1741684526205063,-0.1945442259311676,0.1329508423805236,-0.0505574829876422,0.0756292268633842,0.150791510939598,0.9843708872795104,0.0,0.0,0.0,0.300295522945601,-0.020196390811852538,-0.41957430183232525,0.811001164,0.1329508423805236,-0.3900131471640631,-0.23188991810116713,0.029213175166248988,-3.2014615148994676,-1.5215372918226366,-9.730632039884846,-0.07785974318422914,0.16488784357521524,0.2975712107158811,-0.007784896429873456,0.0804097361457714,-0.03224972945094251,47.288912278192505,-63.27905024012054,22.78749901487185,0.01644931560110955,-0.034889495126843285
9362,1724813248545065069,-0.174222245812416,-0.1937765777111053,0.1326404064893722,-0.0502766333520412,0.0752015560865402,0.1513641774654388,0.9843302369117736,0.0,0.0,0.0,0.5716659969109396,-0.9132211801630472,0.00041277434884889885,0.819756145,0.1326404064893722,0.03805960869326445,-0.11175686736926227,0.13008925303417992,80.00334583228826,-1.7917137788151667,3.385701566816965,-0.07732553218573295,0.1640006718856654,0.2987991746688275,-0.0013600387302989958,0.07745870016288947,-0.04299587948356809,-13.404612215655876,14.105774112389966,40.65189362940733,0.025460543083323565,-0.037293744228852566
9364,1724813248554963996,-0.1741821616888046,-0.193124234676361,0.132130429148674,-0.0442816205322742,0.0746241062879562,0.1513517200946808,0.9846639633178712,0.0,0.0,0.0,-0.057973574158576874,0.5259279525548632,0.3209025415472151,0.829655072,0.132130429148674,1.1781847929993168,-0.303124149069337,0.07253830063311165,23.090427208020976,-6.633455613676653,-10.115638360496575,-0.06551012952056438,0.16105894388335956,0.2997419165609201,0.0024836031102104528,0.06197030139569559,-0.02924932491391896,-54.51389223524341,123.85039251904574,-14.351047682752524,0.03128721282092498,-0.023139707987790182
9366,1724813248567631591,-0.1741760820150375,-0.1924029290676117,0.1321209073066711,-0.0443047955632209,0.0734369903802871,0.1506311744451522,0.9848626255989076,0.0,0.0,0.0,-0.6011307884406187,1.7457351805253918,-0.6183696160537968,0.842322667,0.1321209073066711,-0.02209172136002081,-0.18130051361966765,-0.12533713701659696,-8.256199295927608,17.690912012852934,40.86335510934332,-0.06602108648332848,0.15866291834335558,0.2982900373479978,-0.005484981234966213,0.10252222455741489,-0.04249380417202708,5.694829823548723,-178.369598329004,93.44207821673669,0.01709572963876398,-0.01691075341315351
9368,1724813248575075428,-0.1742430031299591,-0.1914403885602951,0.1316220015287399,-0.0430996716022491,0.0736199617385864,0.1521138995885849,0.9846745133399964,0.0,0.0,0.0,-0.34627304445258444,-0.7834529167362305,0.8102704129745715,0.849766504,0.1316220015287399,0.2948000048083885,-0.014295052795297,0.4259156490509631,-14.173566921461378,10.954464732754227,22.327005510785458,-0.06331914062398708,0.15876161594030816,0.3015010827451784,-0.009837564730177384,0.10915054087830978,-0.04522831353604495,41.91941733238899,-247.72652159625395,118.47728276116035,0.040034663521773754,-0.05687150175652405
9370,1724813248585350412,-0.1743561029434204,-0.1906047463417053,0.1314663887023925,-0.046395294368267,0.0727631747722625,0.1519790589809417,0.984609305858612,0.0,0.0,0.0,0.19340145828251798,-2.0234026549049346,0.9859550116637346,0.860041488,0.1314663887023925,-0.6556367212840934,-0.06457121498124951,-0.07832732474415104,-6.4459845823759885,-6.499454762822602,-17.138250695444967,-0.07017702540715343,0.15804596231548468,0.30073272723597205,-0.010013598119440914,0.07735984653157679,-0.020200679382222475,31.553493447626504,7.937120955644552,-63.277809095368085,0.015792058627501923,-0.03722763010512832
9372,1724813248595315388,-0.1744462847709655,-0.1898722052574157,0.1312162280082702,-0.0457156039774417,0.0721508786082267,0.1522640138864517,0.9846420884132384,0.0,0.0,0.0,0.30517378659798067,-0.7013454852373551,-0.42138722935712236,0.870006464,0.1312162280082702,0.1117835149350415,-0.14486279475671096,0.05953566969749567,48.85964445356605,-9.852615162730576,3.4341050244321436,-0.06895327958162573,0.15664712365882688,0.3014335362478109,-0.006051692022111865,0.06754318451745434,-0.02438726749104614,-8.708914188699037,104.27945836813234,-63.8416976332745,0.01693796336433841,-0.03428092312139264
9374,1724813248604866467,-0.1744766384363174,-0.1892817318439483,0.1309898644685745,-0.0440226532518863,0.0711823850870132,0.1521954387426376,0.9848002791404724,0.0,0.0,0.0,0.039589419092429495,0.03473474956645761,-0.32271331798784875,0.879557543,0.1309898644685745,0.320730960040137,-0.25540017038236607,-0.0028763476645673907,14.632050786067879,0.07030160922433737,-0.7049288105930782,-0.06586849258613797,0.1542114546330367,0.3015720897330087,-0.003982902471264538,0.06344232393383109,-0.028423476836165307,-37.5369619602,69.38882975634594,40.96209000201231,0.018786560843859997,-0.02492350948945483
9376,1724813248615598767,-0.1745290905237198,-0.1885813176631927,0.1306278556585312,-0.0418433025479316,0.0709115415811538,0.1523892730474472,0.9848848581314088,0.0,0.0,0.0,-0.4806111785633544,0.6868316399330339,0.4863008767237882,0.890289843,0.1306278556585312,0.3903971821244391,-0.11422856823388194,0.059861105663108725,-6.152978910863402,2.3380010888336074,2.931969411198028,-0.061567268055674446,0.15302891713214825,0.30229986982453,-0.005692727691766208,0.06941191992539508,-0.03068243557542516,-28.414720863617895,15.19956475456331,48.15739808943808,0.019733093068875752,-0.028869675057582818
9378,1724813248625376712,-0.1745919287204742,-0.1878656446933746,0.1303550004959106,-0.0406339839100837,0.0701824948191642,0.1526533812284469,0.9849468469619752,0.0,0.0,0.0,-0.579782216403198,0.4295771301294655,0.714658810533712,0.900067788,0.1303550004959106,0.21759300305502072,-0.1877206686920183,0.06257319716714588,-61.96847036965794,-2.1820188227516537,-7.732092661238804,-0.05932902453044216,0.15123371893816143,0.3030299277081286,-0.013254362472828518,0.07729120664752287,-0.019720151353523896,28.25751135315704,-73.30876670941245,-33.64125509995225,0.019732780222869367,-0.03200272707795199
9380,1724813248635020364,-0.1747846901416778,-0.187081292271614,0.1302426755428314,-0.0443528182804584,0.068824328482151,0.1525355726480484,0.9849005341529846,0.0,0.0,0.0,0.05795198761934839,-0.7244050703148686,-0.15186291400869578,0.90971144,0.1302426755428314,-0.8013139928612037,-0.15802968211365334,-0.0881720256889242,-31.23596860992803,-1.622725537109531,-8.157158824624126,-0.0671706831665781,0.1496590485278063,0.3022690829562791,-0.017004653032001826,0.07785535407549737,-0.016694199121912945,-42.897745070325406,196.74462034024737,-170.05222516188604,0.006809056087211003,-0.045224791746587674
9382,1724813248644697859,-0.1749202758073806,-0.186361625790596,0.1300321072340011,-0.0460373945534229,0.0674772039055824,0.1522586494684219,0.9849592447280884,0.0,0.0,0.0,-1.4160084522033858,4.2523627630985645,-2.576383044319943,0.919388935,0.1300321072340011,-0.3808757242306381,-0.21939237395829864,-0.09452566827197728,38.669312169472455,-0.2785813489382518,2.06505149195228,-0.07097126061873728,0.14747779317542076,0.30149446257829043,-0.012104365789966653,0.06324178514415557,-0.022685889617002353,-38.06142397653457,168.3867884291504,-82.84785384938596,0.011806842111402318,-0.03858727415600813
9384,1724813248661941362,-0.175070434808731,-0.1856128722429275,0.1296124309301376,-0.0447911880910396,0.0673475116491317,0.1524024009704589,0.9850034117698668,0.0,0.0,0.0,1.437875860050724,-3.4709804142122067,1.1470729186605197,0.936632438,0.1296124309301376,0.1391885621227368,-0.037937246623608804,0.02470314653961439,191.56453579996125,-69.66246088406169,43.96048357349499,-0.06850142196693546,0.14685491225525635,0.3019701579749025,-0.09558552944987753,0.3136161911139794,-0.12724762452810268,627.9654483094979,-1942.4891357320018,800.1019992690399,0.008111604407597962,-0.024420262892214852
9386,1724813248664269900,-0.1753203272819519,-0.1847976446151733,0.1292837709188461,-0.0440109297633171,0.0672091245651245,0.1525233089923858,0.9850292801856996,0.0,0.0,0.0,3.045534492625436,-8.464102839017803,3.1938280885905037,0.938960976,0.1292837709188461,0.6360062955094633,-0.2253626780431159,0.1387156579214974,170.48281372281352,-66.3800837260823,38.202262827623365,-0.06696762020047596,0.1463532000638915,0.30233179509071484,-0.09026293795811702,0.29987677641289645,-0.12230920654564637,564.5229099128643,-1771.973645371459,733.6499186486071,0.02235624855049357,-0.22541810846523552
9388,1724813248674921131,-0.1754508316516876,-0.1840506494045257,0.1288986951112747,-0.0419009216129779,0.0662238672375679,0.1525623649358749,0.985181987285614,0.0,0.0,0.0,2.9247863312790905,-9.196884353389798,3.9271222606014584,0.949612207,0.1288986951112747,0.36282021625188027,-0.24491346401880681,0.02133641928978083,-25.53849188658615,13.48020699298573,-11.59639694997701,-0.06304525074481729,0.1437648480469191,0.30273225028922535,-0.02080961967092243,0.0848197541673148,-0.03601313644893178,-161.3942277211172,467.2536185185198,-174.00560845224325,0.0142977769890466,-0.03730113267541161
9390,1724813248684542394,-0.1757254153490066,-0.183106929063797,0.128553420305252,-0.0413848459720611,0.0663760900497436,0.1520697176456451,0.9852697253227234,0.0,0.0,0.0,0.06783485858703986,-0.04254903717109837,0.1423717485310121,0.95923347,0.128553420305252,0.11806209041148594,0.01789068144482494,-0.09524278839615982,-27.628660877158715,2.7674433653046773,-8.757371721540038,-0.06204335194255456,0.1438793684787632,0.30179727714650084,-0.02392104608522594,0.0918811683494134,-0.03451250721825705,-165.456773257886,490.9499659704998,-190.1192926685276,0.007031513249632839,-0.06114154357288141
9392,1724813248694553934,-0.1759167909622192,-0.1822517067193985,0.1282222121953964,-0.042168416082859,0.06517094373703,0.1514437645673751,0.9854133129119872,0.0,0.0,0.0,-0.21888147849066453,0.07508891689817254,0.3564163342562685,0.96924501,0.1282222121953964,-0.18135142029650722,-0.21013005032622045,-0.14791991170365984,8.36161915587655,-3.67053924892581,3.3344781014790668,-0.06405237422070584,0.14168650386032552,0.3004380039368935,-0.019166265057645404,0.08336601421564893,-0.033228809473046184,-30.830818380832767,27.343350034142478,21.691640979635476,0.011622238691390972,-0.04786876490324964
9394,1724813248706109879,-0.1761389523744583,-0.1813157796859741,0.1278362721204757,-0.0397443771362304,0.0655575990676879,0.1513124704360962,0.9855086207389832,0.0,0.0,0.0,-0.6044020333923974,0.5990573842309175,0.6112434472679944,0.980800955,0.1278362721204757,0.42572240183509685,0.0022905770717109412,0.0052732663037900725,-16.101019323210508,-13.859209341794692,3.2688759993356244,-0.059124305330878965,0.1417166857208738,0.30049782035970707,-0.030950117280111655,0.09658024429054102,-0.026066287816973954,35.04955480213633,-39.06896567588622,12.098528082401586,0.010270525494841386,-0.04666981213686643
9396,1724813248714501306,-0.1764701157808303,-0.1804103404283523,0.1276622116565704,-0.0400826372206211,0.0641880556941032,0.1512827575206756,0.985589563846588,0.0,0.0,0.0,0.10657425842012824,-0.2431438226779803,0.652118389003348,0.989192382,0.1276622116565704,-0.12761173508484625,-0.31046908865535106,-0.02815664206052093,-44.18174178752198,-18.851471896648704,-2.337129801272689,-0.06020652076707417,0.13910193423598644,0.3004164789853423,-0.033491163873138774,0.09828963073457242,-0.020989299811899897,61.991184930816445,-68.18870562617944,-18.842253622370663,-0.0028355452937244303,-0.07243755464231469
9398,1724813248725804273,-0.1767577230930328,-0.1794456988573074,0.1274212151765823,-0.0415326058864593,0.0625742524862289,0.1512804180383682,0.985633671283722,0.0,0.0,0.0,0.4611198473922449,-0.5240116006279347,0.07811700500041929,1.000495349,0.1274212151765823,-0.29572703788582605,-0.2431095728594393,-0.029502806133653112,6.075555390442686,9.214491410478782,-13.346375896186329,-0.0635716933347487,0.13633871085142574,0.3002520476251936,-0.02605373093478036,0.08873821969560858,-0.012901380164839438,15.971722001988056,-39.12994279604352,-59.85730210070761,0.003823814069337991,-0.052337868025997554
9400,1724813248735270607,-0.177009180188179,-0.1785787642002105,0.127365842461586,-0.0418531261384487,0.0618644729256629,0.1501109451055526,0.9858437776565552,0.0,0.0,0.0,0.4902538138320799,-1.0076497440978636,-0.5604525545119095,1.009961683,0.127365842461586,-0.07212636730875575,-0.130075737277221,-0.2607117370003791,16.11187888709549,1.1481686552032802,-6.077256683465004,-0.06457986313038533,0.13495188741196942,0.29784591566693286,-0.023249565987399023,0.08632287443242248,-0.017215612340535813,-31.258347022477498,93.74534224722964,-42.38225148438787,0.002255242651898327,-0.05338245210055087
9402,1724813248744634309,-0.1771961897611618,-0.177819162607193,0.1270993649959564,-0.0416993200778961,0.0608298107981681,0.1494694799184799,0.986012041568756,0.0,0.0,0.0,-0.12046621649045097,1.211648179714349,-0.7250613382300478,1.019325385,0.1270993649959564,0.00919314057170716,-0.21928622425893135,-0.1476833482762248,4.365531194475158,-2.6973735550874576,9.353104355731952,-0.06466177762910999,0.13281351814683784,0.29658721904117075,-0.01686184519953393,0.06991776231017965,-0.02343334571301048,-40.5769155622581,164.36377184090776,-15.066159177107565,0.008336756932624112,-0.04631347991535312
9404,1724813248759267543,-0.1773718148469925,-0.1770522594451904,0.1268713772296905,-0.0418049655854702,0.0600394569337368,0.1489857286214828,0.9861292243003844,0.0,0.0,0.0,-0.15064600118090254,1.955512266472148,-0.8880532637963334,1.033958619,0.1268713772296905,-0.025693374898581662,-0.10256977392407088,-0.07296862209962575,80.20170679209843,23.318968476066274,-12.572624917342619,-0.06516632949829905,0.13124648911904319,0.29561056819938936,-0.03697975187471414,0.1554213307848471,-0.03543912975298369,135.9137591901211,-528.6884742774282,58.35843282241987,0.005792994725131039,-0.028695944472943453
9406,1724813248764205637,-0.1775960475206375,-0.1761131137609481,0.1266632825136184,-0.0406065434217453,0.0603021681308746,0.1485058069229126,0.9862356781959534,0.0,0.0,0.0,0.7504319523826277,-1.6209152382773135,-0.484064419672509,1.038896713,0.1266632825136184,0.5079708395241647,0.038148753670481525,-0.16451273511166234,76.80509948427904,15.432397473988114,-6.98924772613212,-0.06276658937984685,0.131382562281813,0.2947806764763967,-0.035683714294282076,0.1585995573974417,-0.03993708011223074,123.07983624220755,-542.6829179984866,75.64156718698251,0.017222934629222968,-0.1042204700546108
9408,1724813248775078315,-0.177751213312149,-0.1751448214054107,0.1262818127870559,-0.0373205468058586,0.0602171421051025,0.1485265493392944,0.9863675832748412,0.0,0.0,0.0,0.66675699238125,-3.174657808751234,0.19067689738666238,1.049769391,0.1262818127870559,0.5945629290383037,-0.10680748924151959,0.035974273920641744,-5.360110711351307,-4.6661938070435784,4.661438753479529,-0.056241632979201005,0.13024660009514127,0.2952441534965919,-0.01584267112263582,0.08676434107323239,-0.03498273174062927,-53.90889322485587,80.93532920592777,9.865994499743536,0.016712641760768945,-0.04381132961876983
9410,1724813248785461528,-0.1779312938451767,-0.1742666661739349,0.1259195953607559,-0.0352002494037151,0.0601655356585979,0.14814493060112,0.9865061044692992,0.0,0.0,0.0,-0.3512286017487052,-0.11475292763066758,-0.22441121957487864,1.060152604,0.1259195953607559,0.40678687289979026,-0.06932777226178644,-0.052245515595413634,-51.069320190405065,-3.7045758534546636,-8.054422739064387,-0.05208353757901881,0.12949845499582355,0.2947371994520946,-0.020403023330244352,0.08783503479541288,-0.0356305025291368,-33.37800133172286,119.41873660797839,-39.21870469807773,0.012410531105626316,-0.04531252604258592
9412,1724813248794468616,-0.1781389713287353,-0.1734500527381897,0.1255928426980972,-0.0365077778697013,0.0592286214232444,0.1477152109146118,0.9865795969963074,0.0,0.0,0.0,-0.14662905567868822,-0.4086499282768479,-0.5717339164075428,1.069159692,0.1255928426980972,-0.31092016363926256,-0.1598437532315607,-0.12133919521238859,-7.884051651372015,-0.5924038752183365,0.03201086194215552,-0.055015328605009364,0.12800226476670645,0.2937143799742759,-0.022879185388500645,0.0850991460020305,-0.038917750453700606,5.8997913702946665,18.807031548644655,-22.12207237025175,0.008774947145325479,-0.05255486645490362
9414,1724813248805308672,-0.1783846616744995,-0.1726001650094986,0.125136524438858,-0.0335907191038131,0.0594275519251823,0.1474400162696838,0.9867125153541564,0.0,0.0,0.0,-0.3020519714116834,0.46626262479554637,-0.5970749966988007,1.079999748,0.125136524438858,0.540301208045585,-0.04288889329549535,-0.02049797625810398,56.306952240908544,4.158744669481445,0.49964370861737795,-0.04918383001244723,0.12752643004436492,0.2935151226340607,-0.022795060431533898,0.07930080887588353,-0.04781292799167325,-24.315595460900337,49.96504413367109,89.27215687621533,0.0063333378901000836,-0.0491645257265013
9416,1724813248815946946,-0.1786285191774368,-0.1717471629381179,0.124568186700344,-0.0288087949156761,0.0597630850970745,0.146601527929306,0.9869683384895324,0.0,0.0,0.0,-0.6648982506620671,0.6768082844141023,1.3090565708841968,1.090638022,0.124568186700344,0.907342309983651,-0.0678699789880513,-0.10708817203833547,-18.971338043875754,9.38072528146799,4.449075118675026,-0.0396726180072152,0.12675452106838467,0.29240007083844405,-0.029242891797881754,0.09471341608994521,-0.05183128497800027,-5.013408502120029,-37.30765734461908,116.62227981203182,0.00790723770858162,-0.051104127085827476
9418,1724813248825668078,-0.1789689362049102,-0.1706973612308502,0.1240784749388694,-0.0276963915675878,0.0605580955743789,0.1467417180538177,0.9869308471679688,0.0,0.0,0.0,-0.4551886214290106,-0.19307806343910716,1.8870819735717201,1.100359154,0.1240784749388694,0.24791317734406615,0.12751025865263926,0.047986890629157834,-112.21793439747998,-21.731598240463573,-1.5534516815756003,-0.03720901650054233,0.12801106695972786,0.2928219709586195,-0.03622878587529499,0.0944352150746024,-0.024121981874237974,39.19010605548163,-50.74358010138341,-93.907013436217,0.004095099310456177,-0.07050725756556328
9420,1724813248835133985,-0.1793230324983596,-0.1699284017086029,0.1240921318531036,-0.0331252291798591,0.0575241521000862,0.1465520709753036,0.986973226070404,0.0,0.0,0.0,0.07816901486324745,-0.31632624941082277,-0.4154820976507072,1.109825061,0.1240921318531036,-1.2234295082615922,-0.4637631218986997,-0.12807576880970867,-0.2272934677327214,-8.497668180358684,-6.186344021957559,-0.04891925209846105,0.12357299694752319,0.291791580589913,-0.03810932184532412,0.09109166628864251,-0.015138489147727974,34.8936349286821,-18.90027328221869,-140.4251830331221,-0.012540511193357381,-0.059212941401382516
9422,1724813248844492161,-0.1796861588954925,-0.1689847558736801,0.123797059059143,-0.0321425981819629,0.0574541129171848,0.1461737304925918,0.9870659708976746,0.0,0.0,0.0,0.20624773659081685,-0.5475986576790932,-0.7783216932928452,1.119183237,0.123797059059143,0.21038330714414452,-0.04401196523730631,-0.0711247410366647,73.21726118796336,21.214612609659646,8.390319957884138,-0.04703043215896484,0.1231296973324287,0.29114160342803147,-0.03481663344996555,0.08847275950880551,-0.03165072243616862,-11.189388950232004,17.263311845717244,11.309389501941757,-0.004290567268573698,-0.0696392134212876
9424,1724813248854502770,-0.1799920052289962,-0.1682314872741699,0.1234789341688156,-0.0316415391862392,0.0571046769618988,0.1463479101657867,0.9870765805244446,0.0,0.0,0.0,-0.17214678593349464,0.07472648446274821,-0.12880481001185418,1.129193846,0.1234789341688156,0.08667476859742412,-0.0847832848159725,0.037546586851219775,-4.73276344900825,-0.4666393822594568,2.6492614474799523,-0.04611158053874217,0.1222993716105708,0.2915596890321554,-0.034311170174774475,0.08012379366839184,-0.02888198524883201,-33.6055500436582,54.41736387209215,67.07726892224727,-0.0036994673249241545,-0.05434424369568097
9426,1724813248864360153,-0.1803667098283767,-0.1673943400382995,0.1232223510742187,-0.0310520362108945,0.0569198690354824,0.146246463060379,0.987121045589447,0.0,0.0,0.0,-0.4627024256409744,0.5359216751223146,0.5537016128600915,1.139051229,0.1232223510742187,0.1140339935211668,-0.054379813618093645,-0.015993628637321934,11.215403695804008,8.239727114058905,3.8422916440216843,-0.04500382736287058,0.12175671370209991,0.29142563275511896,-0.03816913824543633,0.08968107133881809,-0.034086535057816114,5.52929948373002,-15.43371088514025,53.5077452279131,-0.00875869508251963,-0.06364938434956993
9428,1724813248875118217,-0.1807791739702224,-0.1663737148046493,0.1227610483765602,-0.029313139617443,0.0577080771327018,0.1468408405780792,0.9870401620864868,0.0,0.0,0.0,0.007780106707278467,-0.3606485054590678,0.9446506712966892,1.149809293,0.1227610483765602,0.33378321265718086,0.09479337004173324,0.13422577068086336,-29.135188622586824,-6.723607961223226,-16.252658288513974,-0.04124104317143511,0.12283779789357481,0.29283483679177197,-0.04398433735572027,0.09035524102624315,-0.015429651122065735,19.123600526627804,-10.179427258010296,-91.06267439423769,-0.003997491099729262,-0.06876865158719447
9430,1724813248885111014,-0.1812710911035537,-0.1655127257108688,0.1228616535663604,-0.0313404761254787,0.0565500706434249,0.1454624533653259,0.9872490167617798,0.0,0.0,0.0,-0.02954536496859772,0.21669861473451935,-1.1478684040816058,1.15980209,0.1228616535663604,-0.4173884328735564,-0.16350794693327214,-0.30864840573672786,0.2553394039146859,-16.7092169945207,-4.8340377817607685,-0.04578088196851056,0.12107129405000791,0.28980206364951944,-0.03881707298677206,0.08282215839293627,-0.013318734445136649,-25.64348397515893,90.30582857264976,-149.45055240159866,-0.02360369390526606,-0.07084890253285364
9432,1724813248895261857,-0.1815577745437622,-0.1647064387798309,0.1224853098392486,-0.0293311793357133,0.055628802627325,0.1456435918807983,0.9873363375663756,0.0,0.0,0.0,-0.5157527872709671,1.4688032225131966,-2.0467271873499446,1.169952933,0.1224853098392486,0.36295697884304895,-0.2388793026618837,0.04943034188836695,20.51827972312027,-0.8792527507984005,13.251292535360712,-0.04202335701960754,0.11867081252511255,0.29041412377982806,-0.044753644853043895,0.09502954900090188,-0.03898490083523676,6.4069849456864025,12.297523159021445,54.28329962009869,0.00010492859944498254,-0.0537285725156136
9434,1724813248904268262,-0.1820927858352661,-0.1637259125709533,0.1221189349889755,-0.0287723280489444,0.0548269748687744,0.1456127166748047,0.9874022603034972,0.0,0.0,0.0,-0.024096202158447433,0.6921414371588339,-0.41644840075416556,1.178959338,0.1221189349889755,0.09740717861626962,-0.1944901185204514,-0.007220586433998175,45.53747234325889,11.516716461019742,13.848362802108356,-0.04114514602678799,0.1169179840565979,0.29042206676256105,-0.04884668491582289,0.11038542456534284,-0.05356889993249414,28.5748515396361,-85.11631052302315,150.34090968795326,-0.020819127378060596,-0.09224055981610427
9436,1724813248914724002,-0.1824753731489181,-0.1625533550977707,0.1214023754000663,-0.0210050661116838,0.0560429245233535,0.1471537500619888,0.9873013496398926,0.0,0.0,0.0,-0.04110068470137174,-0.1842410600743669,0.7831666151823062,1.189415078,0.1214023754000663,1.4841754083892038,0.005893955627118517,0.3820207661941914,-43.434689854430154,2.1613869867372824,-7.8450138897411525,-0.025157767718557492,0.11711197768157532,0.2944396367064193,-0.04387475560714016,0.10532794900170384,-0.04332269320766535,-5.139319236152015,-32.336291723737304,-4.809806366517787,0.005553012059150352,-0.07478688328549135
9438,1724813248925127836,-0.1830072402954101,-0.1615281105041504,0.1212126314640045,-0.0249996352940797,0.0546609461307525,0.1465453952550888,0.9873762130737304,0.0,0.0,0.0,-0.13093642685150542,0.012288981253648856,-0.5043997722209244,1.199818912,0.1212126314640045,-0.7903894572100252,-0.1476437109531644,-0.16619677777208694,-33.244904286869456,1.4663111999344403,-12.800269488752662,-0.033577555071904755,0.11552579936838628,0.2927449322053629,-0.04965052922926816,0.10651122393394452,-0.03721199916601403,15.285052166933829,4.332218534900735,-98.90560101892193,-0.018270052681852562,-0.07924329322169449
9440,1724813248934612554,-0.1834654361009597,-0.1604489982128143,0.1206956207752227,-0.0226608421653509,0.0550438463687896,0.1466838419437408,0.9873908758163452,0.0,0.0,0.0,0.22086876416142687,-0.07250072156207032,-1.2275905440614927,1.20930363,0.1206956207752227,0.4972588337493909,0.006550458841366454,0.057347666270548305,70.75095867405378,-7.691614513803838,8.190567139747376,-0.02879830876651862,0.11560487006099693,0.2932903206708665,-0.047224263446324244,0.10575060224634569,-0.051436232864420006,1.2177579777338732,8.134432487266057,62.56213509600458,-0.006976832433291003,-0.08474061228800048
9442,1724813248944891205,-0.1839387565851211,-0.1594513952732086,0.1202011629939079,-0.0198743920773267,0.0536956340074539,0.1464300453662872,0.987562656402588,0.0,0.0,0.0,-0.1662166808407024,0.20129876396365276,0.9616756413601206,1.219582281,0.1202011629939079,0.500341349557671,-0.33927487343544127,-0.029764325730806358,23.07760103489003,-0.7590784506263759,8.49796771456095,-0.023679964461792154,0.11211072445446085,0.29307450963227516,-0.04534321897036442,0.1050910933261271,-0.0610231666627703,13.695791643952397,-41.12918010970204,225.6326535057823,-0.0105636718077513,-0.07690787144382051
9444,1724813248954771060,-0.1843800395727157,-0.15833680331707,0.1194755882024765,-0.0151836164295673,0.0542313121259212,0.1472319066524505,0.9874974489212036,0.0,0.0,0.0,0.456789755921144,-0.8486017695680799,3.3109398328064,1.229462136,0.1194755882024765,0.9446539086415359,-0.03447215243382589,0.21537908109663828,-112.19264700876812,10.44438539130363,-10.65692186517256,-0.014106958704225767,0.11181041235056055,0.2952219390081535,-0.050301810383674095,0.10960086182492645,-0.03353191921174936,76.68593539089554,-70.33402502770213,39.97516629743359,-0.0016528432789600048,-0.08299359086053701
9446,1724813248964314262,-0.1849120408296585,-0.1573204845190048,0.1195234581828117,-0.0225722305476665,0.0525288358330726,0.1466390937566757,0.9875364303588868,0.0,0.0,0.0,1.314239343622615,-1.1885845660544883,1.8690318301489863,1.239005338,0.1195234581828117,-1.5747661053244433,-0.12290722187375613,-0.21327946722432384,-89.79930377164435,-3.689849102240538,-19.861283716662722,-0.02935979610517189,0.11059352667270106,0.29320004755004303,-0.0371054523842016,0.08947238855146811,0.0029357035446402335,2.659230551404961,71.86126074568371,-172.65410032181546,-0.023003843246441055,-0.0836507338324061
9448,1724813248976990762,-0.1850685179233551,-0.1564729511737823,0.1195256412029266,-0.0211378205567598,0.0522529892623424,0.1463064551353454,0.9876322150230408,0.0,0.0,0.0,-0.1202042119721689,1.5322881077924881,-0.6826807901737801,1.251681838,0.1195256412029266,0.2202054863719721,-0.07577362523987853,-0.043137635548608604,70.60525821464147,-18.844729059656657,5.362011982833257,-0.026625822221608156,0.10961806905047641,0.2926771877624493,-0.02159999140026514,0.08990703687566537,-0.006245199491749176,-66.22202666969689,31.213325641267048,-54.72316783978825,0.00740719492008043,-0.031200729828651998
9450,1724813248985164038,-0.1852938383817672,-0.1556166559457779,0.1194407790899276,-0.0192302744835615,0.0510948747396469,0.1460771858692169,0.9877656698226928,0.0,0.0,0.0,-0.4141141769700869,0.8207886283487733,-0.3575476076038929,1.259855114,0.1194407790899276,0.4231633120388176,-0.3486985328486946,-0.04178594832371565,-11.458275351223282,-5.105371661366871,16.12862963037458,-0.023196556452322242,0.10676042501293108,0.29240513567858906,-0.029661725791106264,0.11032499175066413,-0.011605898829110117,-76.56773710171029,321.28263015670746,-46.67896788304956,0.004886871432315765,-0.057676944595442335
9452,1724813248994244600,-0.1855843067169189,-0.154558777809143,0.1193230524659156,-0.0193066503852605,0.0505949556827545,0.1472892016172409,0.98760986328125,0.0,0.0,0.0,-1.519067240703135,7.857724262114536,-1.6536659008020829,1.268935676,0.1193230524659156,-0.046999790999567984,-0.10968320795437753,0.2657173268532345,-42.88356447349428,22.327171074099166,27.43248124008908,-0.023363499861014225,0.1058208642027913,0.2948543212414225,-0.027649049210689225,0.1008561900586411,-0.011842873374300344,43.1214656901181,-1320.1229301844965,-1051.1111894775142,0.004598459997116779,-0.06577870058834634
9454,1724813249040321388,-0.1858438402414322,-0.1535690426826477,0.1190396547317504,-0.0179437324404716,0.0504600033164024,0.1478221565485,0.9875629544258118,0.0,0.0,0.0,38.99982885124973,-542.8042441706439,-262.46723725498555,1.315012464,0.1190396547317504,0.056353046780096075,-0.014842163351626882,0.026026640985570892,-1492.0351425363976,-5838.433199122541,196.12002150996236,-0.020638393522117614,0.10516355570919353,0.29607515104252063,-0.5046284159844276,2.543881246070896,-0.4685703909142944,397843.81350146956,-1003957.3808559771,142720.00609921163,0.0015204346706549315,-0.01224854401924792
9456,1724813249040722018,-0.1860477477312088,-0.1525411009788513,0.1188503205776214,-0.0179804936051368,0.0499745085835456,0.1478570252656936,0.987581729888916,0.0,0.0,0.0,199.77078619490152,-948.4752558774494,-204.7724512116356,1.315413094,0.1188503205776214,-0.5466061777080706,-2.374238489192905,0.10529949251893216,7966.346506375944,-4892.122984644432,846.4243731899608,-0.020850874618705554,0.1042134394475914,0.2961373862126382,-0.48883200241127156,2.3243420783635713,-0.5746023928159616,387505.24150359526,-836722.9228400907,317507.42067447276,0.309703705460506,-1.2822424752377946
9458,1724813249041134813,-0.1862409710884094,-0.1516843289136886,0.1185697391629219,-0.0164717696607112,0.0493746250867843,0.1479506343603134,0.987624168395996,0.0,0.0,0.0,353.8656726262409,-1219.0719588307984,0.08651253564892158,1.315825889,0.1185697391629219,6.770315582435321,-3.969589733870311,0.7305482698089449,6965.703094744217,-3711.0474773823153,1530.2220357808765,-0.018021527621077327,0.10258097647628399,0.2964725143831287,-0.33816951886394975,1.7624758936532885,-0.6336581582833674,186006.7870482078,-190398.83591003914,427143.10059051384,0.22747006714187343,-1.1182183485695543
9460,1724813249041758066,-0.1863294839859008,-0.1508804559707641,0.118218146264553,-0.0158588979393243,0.0475396886467933,0.1484895199537277,0.987643301486969,0.0,0.0,0.0,293.5535284157023,-900.0518293473492,201.25290388156952,1.316449142,0.118218146264553,0.9868056650785503,-6.137871535727607,1.698897058491308,-7960.120500833212,-2799.2158603229705,1291.6714472466383,-0.01729272454652232,0.09877480749629926,0.2976044357332673,-0.12808165885098255,1.1363603433047453,-0.49889891931616503,-93238.8077284441,466301.10400601075,273379.88619136414,0.2968840313106885,-0.565685799642602
9462,1724813249045603788,-0.1864913552999496,-0.1501514464616775,0.1178473234176635,-0.0123989852145314,0.0465669929981231,0.1492097675800323,0.9876306653022766,0.0,0.0,0.0,18.775112778688772,-187.95462343207484,80.62295404691034,1.320294864,0.1178473234176635,1.6840966521098162,-0.7724212694997423,0.4484366666098475,93.54899169143256,1029.545751419414,-246.02048594798956,-0.010643769877289957,0.09582868059519078,0.29937875894339844,-0.03209068483158273,0.15573504322691756,-0.08008022624468447,-52496.429252246,139691.0545239102,-24909.05730951057,0.024842504230401578,-0.10463577853496592
9464,1724813249055909820,-0.1865458786487579,-0.1494807451963424,0.1174734309315681,-0.0110343359410762,0.0454218573868274,0.1496740132570266,0.9876298904418944,0.0,0.0,0.0,1.231789937200218,-4.260150344384749,2.278686314878777,1.330600896,0.1174734309315681,0.22419412607400444,-0.260102072055043,0.09857682902981839,-80.9772408064228,22.747210649798117,-19.956762260248162,-0.00823453460816933,0.09315775918931313,0.30042459022830914,-0.009425634380681558,0.07013991289877985,-0.03029659088666037,-827.6114806240167,8541.526533535742,-3728.7288949603108,0.017518125385315154,-0.027472058360666074
9466,1724813249064987576,-0.1866645067930221,-0.148803561925888,0.1172462403774261,-0.0109607251361012,0.0441990420222282,0.1498239338397979,0.9876634478569032,0.0,0.0,0.0,0.712334315995603,-0.9434862168870937,-0.6013440512428061,1.339678652,0.1172462403774261,-0.025725044686943963,-0.2692042269836404,0.029279033214222015,-0.2208026278790971,6.17408597350973,0.7126359205934323,-0.008441677657536027,0.09071628731241303,0.30071195210013896,-0.005979046710968383,0.06381212688589954,-0.03001546340266703,-33.55020757287464,205.466466855271,-178.52210010594717,0.011842114216308723,-0.036682804275422774
9468,1724813249076122731,-0.1866342574357986,-0.148240327835083,0.1168438792228698,-0.008941801264882,0.0439325757324695,0.150576502084732,0.9875812530517578,0.0,0.0,0.0,0.6620893759175783,-0.8395693698577134,-0.694183265257466,1.350813807,0.1168438792228698,0.3448412839681813,-0.10242837087083057,0.1512170659233657,9.613814962052123,-8.446336222164284,9.689485911680677,-0.004448939173651779,0.08958661207554874,0.30241000478586816,0.006496662936765318,0.049940432054917494,-0.045348187285940256,-37.58906919142808,2.558647738002122,75.3279170263016,0.020819604092015654,-0.015538695732189975
9470,1724813249084679922,-0.186553806066513,-0.1478171944618225,0.1163952350616455,-0.0075403889641165,0.0427269451320171,0.1514919996261596,0.9875058531761168,0.0,0.0,0.0,0.12291737351687124,-0.8622186607438527,0.5006013566266054,1.359370998,0.1163952350616455,0.2714850005415725,-0.32874143575087506,0.22583784830051107,-11.894065781637494,-13.923509314038782,3.494000692940152,-0.001954130387426589,0.08677971194110959,0.30435912567417056,0.009148476819952123,0.0454271919445457,-0.04679842504474507,100.49953305026764,348.61699356584177,-230.08719598927516,0.028242621906579047,-0.010195281789878045
9472,1724813249095215669,-0.1864607036113739,-0.1473907381296157,0.1159752160310745,-0.0067104874178767,0.0411887094378471,0.1524945646524429,0.9874228239059448,0.0,0.0,0.0,3.3027388964667876,7.367237209183969,-6.719342952834747,1.369906745,0.1159752160310745,0.10308516698507927,-0.31298252311468905,0.1948561149368707,-11.870065851618598,3.6235192391272517,-4.314788993980166,-0.0006924800971142132,0.08348491339209493,0.3064238843115206,0.008018096781297057,0.03200015079569685,-0.03283212355658205,-20.383724232176718,-61.76234864748534,51.4235827478891,0.023887620945124408,-0.006977511504306815
9474,1724813249116000155,-0.1863276213407516,-0.147073209285736,0.1155812293291091,-0.0061942306347191,0.0396881476044654,0.1529952138662338,0.9874102473258972,0.0,0.0,0.0,-10.331870833485311,-28.47609356265184,24.556390247547597,1.390691231,0.1155812293291091,0.02504086145706686,-0.1504253647175446,0.048831110848833945,13937.587357710654,-7126.713574245737,1981.0139837362995,-8.858621523917556e-05,0.08035880129993629,0.30744347954864343,0.21648447196957932,0.5394566009339314,-0.5023556433235399,-1999.5708351860485,-5113.901086901271,4662.805865043549,0.012212976361121957,9.928470726014834e-06
9476,1724813249116486100,-0.186220034956932,-0.1468051075935363,0.115331619977951,-0.0043779835104942,0.0390618182718753,0.1531814932823181,0.9874160289764404,0.0,0.0,0.0,-11.318817244674976,-30.99967657748246,26.858137483476135,1.391177176,0.115331619977951,6.956336045687821,-3.6946750725727315,1.0340820259871866,13502.554450947484,-6902.215119345859,1919.7159574371854,0.003331595411448678,0.07856257385467727,0.30794463382496357,0.2112324110924304,0.5250178627298412,-0.48988693436423514,-1925.6852245899508,-4915.997347237883,4490.574524466312,0.41735186868989355,0.004309937584254574
9478,1724813249125535657,-0.1860213428735733,-0.1465525925159454,0.1149043440818786,-0.0001552502071717,0.0387470871210098,0.1541108936071396,0.987293541431427,0.0,0.0,0.0,-10.999846836353605,-28.78056577025929,26.027112511659237,1.400226733,0.1149043440818786,0.9027056787595078,-0.21147985241521663,0.24311407867469523,-376.0990688869953,201.29883041281636,-41.99453638221058,0.011670656820858874,0.07663233127955063,0.3101369155228495,0.022704687137203194,0.02759527401526718,-0.04469322489403105,537.5691703799587,1508.42068919669,-1291.8047718174716,0.03295269624496341,0.008745464787974992
9480,1724813249135241086,-0.1857931911945343,-0.1462879776954651,0.1144968271255493,0.0014694751007482,0.038162924349308,0.1555306911468505,0.9870924949645996,0.0,0.0,0.0,-0.5539192487489019,-0.9922226259808278,0.999257535468135,1.409932162,0.1144968271255493,0.3006586777111057,-0.16888660142940315,0.3081992714425032,-44.43551100644659,0.3244412277637796,-6.136593966851571,0.014814161981267365,0.07495373822327535,0.3131146711469862,0.018296178535972984,0.020832754677751808,-0.03324053292067308,554.4397443813658,1445.6098275151978,-1329.9765896222423,0.03382068453204083,0.010750788680669383
9482,1724813249145091127,-0.1856650710105896,-0.146147072315216,0.1142568588256836,0.0018389406614005,0.0371888019144535,0.1561020910739898,0.9870389103889464,0.0,0.0,0.0,-0.3095752596623853,-0.9240345478042348,0.38266062742800777,1.419782203,0.1142568588256836,0.03887561392288398,-0.20631946132047252,0.11936802307577117,-29.397065567911845,-3.672690278519343,-9.532976196679128,0.015281898323323906,0.07290402769976621,0.3142629063696742,0.011843488906501776,0.008105807635774731,-0.02520494722659805,25.206421736729702,32.93338191279746,-62.3197822791171,0.018521880296262887,0.006128427632612681
9484,1724813249155967851,-0.1855502277612686,-0.1461333632469177,0.1139725893735885,0.0003837965195998,0.0356064960360527,0.1568684130907058,0.9869774580001832,0.0,0.0,0.0,-0.030607455633225866,-0.2534270635982705,-0.29182800467215086,1.430658927,0.1139725893735885,-0.3147401248583199,-0.24473395947905702,0.13143244126558198,22.570169711233945,-1.6730923572112584,-3.331215607320561,0.011958423304409596,0.07022290709131902,0.31565968284889334,0.012626133273968776,0.0024756046509430973,-0.026244943976414525,4.015518102320298,29.728096586275228,-35.414931886523206,0.01223633318934895,0.007781851677713041
9486,1724813249164352186,-0.1854310035705566,-0.1461047530174255,0.1137518361210823,0.0015109018422663,0.0347369723021984,0.1571429520845413,0.98696368932724,0.0,0.0,0.0,-0.13675328350458293,-0.2105245079280698,-0.4168591080595798,1.439043262,0.1137518361210823,0.2304909454983487,-0.24674871091248665,0.07480370465139284,23.458181757798222,2.2029782617518068,-3.7584159877649976,0.013932539072466749,0.06814613721094433,0.31626146809893096,0.011706635600654103,0.0020584005285106954,-0.029959855760426368,-10.514077241455295,-8.79299920724975,-2.19326246808025,0.016334945794078258,0.010607302897491351
9488,1724813249176228702,-0.185334250330925,-0.1461030840873718,0.1133349388837814,0.000579826766625,0.0335067324340343,0.1576525419950485,0.9869258403778076,0.0,0.0,0.0,-0.22552223419662976,-0.5489657061028314,-0.2289292980216937,1.450919778,0.1133349388837814,-0.19027553887189116,-0.17948117020166465,0.0805641109454403,-1.2514447629015124,9.195760502246696,-12.217108711081087,0.011735155640033237,0.06600240861342173,0.31719288770811205,0.009626829843966789,-0.0031464769218949584,-0.034469608279543706,-5.303073529850558,-24.52362330570949,25.239943880585383,0.010082264201033496,0.005351616206388021
9490,1724813249185376723,-0.1852357536554336,-0.1461550295352935,0.1130240708589553,0.0007886501844041,0.033217117190361,0.1571014523506164,0.9870233535766602,0.0,0.0,0.0,-0.25873542183103265,-0.7453127584103107,0.06831691262368556,1.460067799,0.1130240708589553,0.03909989280019242,-0.07047145947278749,-0.12070214903879975,28.356700156726916,-3.5510040082534893,-6.41521643988653,0.012019708898037211,0.06537089351006253,0.31607871690455824,0.007208589309135149,-0.00894857358082124,-0.035501330601301895,-0.36007296269935196,-8.207146512851622,22.412081837424815,0.010670315048039447,0.009735759157359695
9492,1724813249194542730,-0.1852023601531982,-0.1462670862674713,0.1126847118139267,0.0024485657922923,0.0323456041514873,0.1568856984376907,0.9870839715003968,0.0,0.0,0.0,-0.23199885595928516,-0.6987942967049174,0.18116321072832764,1.469233806,0.1126847118139267,0.32916807121698016,-0.24507129050488294,-0.036363137045076994,11.371325452155679,-15.758922226630139,6.679474808910723,0.015013475094016272,0.06312928814837528,0.31571437789083623,0.004888544097327419,-0.016800154865534545,-0.03321192957320385,-8.01295564616235,26.02674430641957,7.649040650159826,0.002003625031906824,0.004848063870795851
9494,1724813249205518183,-0.1851323395967483,-0.1465115994215011,0.1123702898621559,0.003787687048316,0.0304766818881034,0.1568675637245178,0.987142026424408,0.0,0.0,0.0,-0.46358625976138823,-0.1377904961318248,0.20384182557590336,1.480209259,0.1123702898621559,0.18752071191092196,-0.3747990008867943,0.003805290438361877,-9.116471078483446,0.0033850204960685915,2.9109587542727007,0.017070120945239846,0.059015547492402017,0.315690063477812,0.002619749604303223,-0.022395869822029013,-0.03212522915932858,-6.603758873737512,43.08084723225042,22.332310883348335,0.0008388713606173501,0.011190580477248474
9496,1724813249214576932,-0.1851367205381393,-0.1467153578996658,0.1120532751083374,0.0045904084108769,0.0292905233800411,0.1569539755582809,0.9871608018875122,0.0,0.0,0.0,-0.41501935724707606,0.19240299041961328,0.5576688940062838,1.489268008,0.1120532751083374,0.13326907183194794,-0.28636907163152,0.02457570518021814,-1.8018361296972394,7.962634780005249,-1.350032476600828,0.018287585131032395,0.056417872091381424,0.3158670951538683,-0.003500326653020025,-0.02086235773014611,-0.029494887996042607,20.894271760415723,7.825595327053221,-9.271548405720864,-0.005461764539867791,0.004430898249040422
9498,1724813249225644119,-0.1852162480354309,-0.1469241976737976,0.1118012219667434,0.005705595947802,0.0282232817262411,0.1567041575908661,0.9872257709503174,0.0,0.0,0.0,0.026241191525319563,-0.10802110502173023,-0.19841666142246894,1.500335195,0.1118012219667434,0.16994032309088447,-0.22257182218721028,-0.03962057495679528,2.5948493558672334,5.061204009936823,-1.5100231833457878,0.020141513250651832,0.0539635079260683,0.31538062527911964,-0.004570154989051112,-0.01842042397550081,-0.019708863555575107,21.67331607708136,-12.713234266008458,-66.20223541144779,-0.011437705493098218,-0.002298936369188047
9500,1724813249237184750,-0.1852375119924545,-0.1471313685178756,0.1116106659173965,0.0069502089172601,0.0274129658937454,0.1566363126039505,0.987251341342926,0.0,0.0,0.0,0.05736722852921325,-0.08105747302873811,-0.9369731723866028,1.511875826,0.1116106659173965,0.1912379058381164,-0.17262651857273148,-0.005413033158822327,11.48646613806335,-10.64104070770922,17.554497921915548,0.022342963956496507,0.05197305960647961,0.3152756747895657,-0.0027882012584772298,-0.023622347088757323,-0.035027735764154855,7.051542321353745,38.391633921760196,39.42084008782635,-0.006450405814035521,0.0028661266756119562
9502,1724813249244525959,-0.1852623969316482,-0.1473312675952911,0.111267052590847,0.0083155715838074,0.0264303926378488,0.1572899371385574,0.987163782119751,0.0,0.0,0.0,0.12946887341510896,0.3691570715993996,-0.16463149705753433,1.519217035,0.111267052590847,0.32058486282591264,-0.3206471994569629,0.19159361407461778,5.877914336795443,-11.31431413174746,13.881201419578165,0.02476510046823029,0.04958665967446861,0.31662819498279,-0.0028202202342297866,-0.02249099419562839,-0.040083070935071685,13.647437370541846,40.871681890996186,89.95673600002205,-0.00936522892310444,0.0026618127204569436
9504,1724813249256854709,-0.1852853745222091,-0.1475104391574859,0.1109120771288871,0.0095119401812553,0.0248857010155916,0.1578260958194732,0.9871074557304382,0.0,0.0,0.0,0.37693999808942075,0.44953045060627916,0.6286831549495218,1.531545785,0.1109120771288871,0.14994947630088531,-0.27692883237090365,0.09451103981074173,35.89073824841171,16.888923591339257,-7.224364617803433,0.02666538015897263,0.04614363062179553,0.3177064012639574,0.001546897661015123,-0.013487245505535483,-0.03126361796481092,-8.365737229849751,-16.4453023074419,30.04615646729485,-0.004975521106477416,0.0012516959519704867
9506,1724813249264402041,-0.1852579414844513,-0.1476074010133743,0.1106647029519081,0.0119917457923293,0.0249444581568241,0.1579215079545974,0.987063765525818,0.0,0.0,0.0,0.18240765563974132,0.21931004715041652,0.6969734128693075,1.539093117,0.1106647029519081,0.6506005561701761,-0.08781476948613684,0.04299010324982295,25.043363315481184,13.293815895237266,-2.8255770038314445,0.031589669604625024,0.04547170093851232,0.3180117822267675,0.004496751099401841,-0.01139174603904447,-0.026919192765396005,-26.458075093990846,-20.626665866313097,-6.737757991188145,0.0009259784455272578,0.0057083242322912755
9508,1724813249275344877,-0.1851950585842132,-0.1477089673280716,0.1104630604386329,0.0135690476745367,0.0244757793843746,0.1582840383052826,0.9869970083236694,0.0,0.0,0.0,-0.1179566563856818,0.15030203086841193,0.37278284367051995,1.550035953,0.1104630604386329,0.26951705919119556,-0.1289781061601855,0.07554681228773874,-20.062367877213422,-0.7149966513869241,-1.0608636887157472,0.034573863656165646,0.04403374337623208,0.3187921269105886,0.003185715202043582,-0.009917455166373657,-0.01736700171275274,-1.4070157415286184,-1.4667211968568683,-38.41549823890335,0.0033566081799310935,0.007376079106124012
9510,1724813249285002008,-0.1851861178874969,-0.147810161113739,0.1103043779730796,0.0146174132823944,0.0241039637476205,0.1584001928567886,0.9869725108146667,0.0,0.0,0.0,0.09039372818173874,0.17738234470530279,-0.07311051308850902,1.559693084,0.1103043779730796,0.20158588980203349,-0.10991768898724319,0.03090493624376024,-2.292757090697691,1.9612785129301304,-1.7683198892196947,0.036531942384582156,0.0429623122103287,0.3190528799167934,0.0020623677246334182,-0.008333227187142356,-0.01802937858579856,15.258672710292023,-1.0084205309893033,-11.358496745244587,-0.001699778107215865,0.0032893840622252595
9512,1724813249294336131,-0.1851566135883331,-0.1478685885667801,0.1101216748356819,0.0157167539000511,0.0238435380160808,0.1585537046194076,0.9869373440742492,0.0,0.0,0.0,0.17583673480307155,0.13357266931605144,0.13495650345876675,1.569027207,0.1101216748356819,0.22296284040094758,-0.09172306841822293,0.040151072617643745,-2.349155847312373,-0.4757018136971247,0.30725634180496475,0.038627677175752606,0.04209268588332764,0.3193955653535237,0.004771096408404674,-0.006557212472743323,-0.01875259017433173,-5.81650375779109,-1.4653003976356844,19.1571070663025,0.001858339177596182,0.003933946541036009
9514,1724813249304533793,-0.1850900202989578,-0.1479387730360031,0.1099395900964737,0.0165623426437377,0.0233378279954195,0.1587053090333938,0.9869111776351928,0.0,0.0,0.0,-0.050263887226502824,0.15459565856909904,0.2953991246419194,1.579224869,0.1099395900964737,0.1473195282426377,-0.12359081970161667,0.03567146878062272,-5.778323797948577,0.6204135587545383,-2.162779470432872,0.04014300651218378,0.0408189976327978,0.3197096562762487,0.005290128851330955,-0.005826766924123206,-0.015009570567629638,-17.296206105237328,4.324976455171511,-1.6625178423186675,0.0047615436005236335,0.0074284349811704065
9516,1724813249315644475,-0.1850462555885315,-0.147990733385086,0.1098072752356529,0.0171885695308446,0.0230382233858108,0.1586347967386245,0.9869188666343688,0.0,0.0,0.0,-0.18341517236038335,0.23004888608847635,0.0663435726377658,1.590335551,0.1098072752356529,0.10296392758494305,-0.07135762918315353,-0.009222247073501768,-1.3143454378979786,1.0903407108176664,-2.8855820773447904,0.04128156164125932,0.04003099478398157,0.31957490964789326,0.0035070626271114236,-0.0031047519509233013,-0.012594812428145197,-9.67553801676125,1.9552013503130823,-16.912756934952704,0.002745098263767011,0.004590699164937184
9518,1724813249325056146,-0.1850166916847229,-0.1480074226856231,0.1096832677721977,0.0177726112306118,0.0227065421640872,0.1584891676902771,0.9869396686553956,0.0,0.0,0.0,-0.25607338907761407,0.2098969298988757,-0.0633113738817811,1.599747222,0.1096832677721977,0.1119425162171086,-0.08988290992902936,-0.027172129334712827,-0.6283675302795153,-0.6325155663839324,-0.7777762615510123,0.042323604857275286,0.039196477580483,0.3192838559587822,0.0015979866570674517,-0.0010587315168200107,-0.013174195759077634,-0.7783091284278054,-1.2131675256987098,4.137524356834948,0.0029402943430935466,0.0028686905438951925
9520,1724813249334957917,-0.1850169450044632,-0.1480104625225067,0.1095528379082679,0.0182705614715814,0.0223767943680286,0.158358946442604,0.986958920955658,0.0,0.0,0.0,-0.19146558179429168,0.2075517539367,0.1642693972823237,1.609648993,0.1095528379082679,0.08923658256436584,-0.08223022418936654,-0.023107904343447346,-13.433053441573271,-0.769124013559578,0.26697843628892004,0.043196973748785714,0.03839277107688058,0.31902019623210437,-0.0014921325244277028,0.0009415424444760845,-0.013819334277211048,16.371373420220053,3.070168318551854,13.530423674637017,0.00038511012528327483,-0.0005866081421531051
9522,1724813249345752191,-0.1850503087043762,-0.1479856073856353,0.1093960553407669,0.0173654854297637,0.021640345454216,0.1582539528608322,0.9870085120201112,0.0,0.0,0.0,0.10111746785343331,0.27960634574005017,0.19907997583318326,1.620443267,0.1093960553407669,-0.1868495805308711,-0.10867723343402308,-0.02191437908974138,-11.435677854700058,1.475827178511182,-4.236413961616197,0.0411692544920854,0.03723069737709268,0.31873417586669656,-0.0021395979929188513,0.003247103559830933,-0.009346490775816285,22.537880475678786,2.0823912613216926,-10.331819450967629,-0.0016714609241053674,-0.004351057037888862
9524,1724813249355179010,-0.1850626468658447,-0.1479472219944,0.1093505769968032,0.0165729336440563,0.0212248787283897,0.1578127145767212,0.9871017932891846,0.0,0.0,0.0,0.2759754859687941,0.261425425305581,-0.009923329714579654,1.629870086,0.1093505769968032,-0.1782310524848902,-0.0624443299054572,-0.09763725915700841,22.890068283273195,0.21124612353272987,1.7490514414117615,0.039454222560939785,0.03667961662098638,0.3177901407897937,0.00013988773624618034,0.006426378742903971,-0.009242211451884863,4.703354220875301,-9.416851891760505,-3.773114081478038,0.00020594570126768666,-0.00273561554233075
9526,1724813249364957738,-0.1850465834140777,-0.1478604972362518,0.1092153862118721,0.0179541483521461,0.0209093689918518,0.1578661501407623,0.9870758652687072,0.0,0.0,0.0,0.18152125730417357,0.09338184182151105,0.13980581094367234,1.639648814,0.1092153862118721,0.26852236963145454,-0.10798491707434914,0.018690191401237326,9.741643729225155,0.4802039450458824,2.782263070678851,0.04208508168945674,0.035617092448931256,0.3179298316981749,0.0031851583061524025,0.008213552925469436,-0.00955211927647337,-7.292720487360303,-4.70411563667234,3.840435746765454,0.004822290647243852,-0.0018469535456462135
9528,1724813249375034971,-0.1849984675645828,-0.1477845311164856,0.1091635003685951,0.0179559420794248,0.0206608045846223,0.1576240211725235,0.9871197938919068,0.0,0.0,0.0,0.13260585947352602,0.17558539006339835,0.059379213497754824,1.649726047,0.1091635003685951,-0.0065881771718437265,-0.04979558086408301,-0.04791677150036368,-10.323380110151014,1.3356138950704461,-2.2074353207694295,0.04200087316825487,0.03513603176822801,0.3174260042604172,0.003665433532460405,0.008226390012155527,-0.006362284076991465,-0.7870925282059309,10.17497338119715,-6.776632467969856,0.007065692286153583,0.0019539509333694905
9530,1724813249386471573,-0.1849709451198578,-0.1476815193891525,0.1090749874711036,0.0185772534459829,0.0202286429703235,0.157512754201889,0.9871349930763244,0.0,0.0,0.0,0.17639063859678672,0.31813989649801877,-0.0024902767165546624,1.661162649,0.1090749874711036,0.09569549523875837,-0.09213240266485932,-0.016024501690302333,0.6677165723488656,1.0489650608050969,-3.0905521735700634,0.043087411326485775,0.03409109704358461,0.31719794394290235,0.006284542770622181,0.012496939270205232,-0.009020950114038584,6.290417962087361,14.92673126806189,8.014089084334026,0.005356697426579575,-0.0008634643457595207
9532,1724813249394736312,-0.1848958432674408,-0.1475573927164077,0.1089927777647972,0.0188179444521665,0.0200435183942317,0.1571913808584213,0.9871854186058044,0.0,0.0,0.0,0.2430834110470262,0.456209727500012,0.14391907570703166,1.669427388,0.1089927777647972,0.05178607858174267,-0.055088279138413604,-0.07668084342651832,-5.321800184755883,3.4709758933664268,-2.6884235839434276,0.04349328267847135,0.03366365866388764,0.3165447009528606,0.007428085723151234,0.014796173871387097,-0.007667961943509383,7.486612319945685,7.964538470982047,3.8477912575467053,0.013637928268629229,0.003528345489878399
9534,1724813249407033338,-0.1848348528146743,-0.1473795175552368,0.1089401841163635,0.018760897219181,0.0198454149067401,0.1570399105548858,0.9872146844863892,0.0,0.0,0.0,0.3244805780431925,0.3942125909454717,-0.06248657930648205,1.681724414,0.1089401841163635,-0.013819777762014939,-0.030907390433008296,-0.024647446630343323,6.589928200982193,-3.3225127957034326,-4.155670327440504,0.043312652442068125,0.033297103181304834,0.31622526968468573,0.012333299433670675,0.023663209328288914,-0.006260221093313589,-30.39505806624844,-18.454305372943224,-30.218546488742877,0.009349434640401617,4.4173763504428604e-05
9536,1724813249414440143,-0.18471060693264,-0.1471632122993469,0.1088849678635597,0.0191225130110979,0.0196139141917228,0.1566884517669677,0.9872681498527528,0.0,0.0,0.0,-0.0657817657882463,0.19768716883290993,-0.3462405565253316,1.689131219,0.1088849678635597,0.08819169819336452,-0.07911204399942384,-0.09284486259003029,7.220523911460396,-1.594028511443753,-2.9541753093763496,0.043942327782748966,0.032741681265703926,0.31551225446214753,0.014404681584560208,0.02512484827945638,-0.007512540321077843,-38.70221150095692,-14.618224690395213,-19.028172274607343,0.025239134385305773,0.00659128876092152
9538,1724813249425455580,-0.1845907568931579,-0.1469532698392868,0.1088012680411338,0.0194623619318008,0.0195805374532938,0.1565554440021515,0.9872832298278807,0.0,0.0,0.0,-0.26295750853320615,0.23185288579552554,-0.2399667908991887,1.700146656,0.1088012680411338,0.06039028711574226,-0.01616665994603346,-0.022944740759339475,13.346511625459453,15.227997486745899,8.310323013457257,0.04459904294101336,0.032574955816104104,0.3152517098522548,0.00802097724415951,0.027308190346508,-0.014228864885080128,17.670987131021754,-19.062375833133622,44.15387455809419,0.016492179248643487,0.004121281534157714
9540,1724813249434583373,-0.1845391690731048,-0.1466416120529174,0.1086212396621704,0.0206911191344261,0.0206681452691555,0.1568508893251419,0.98718923330307,0.0,0.0,0.0,0.16738471802307786,-0.10978464011401923,0.4240522158802631,1.709274449,0.1086212396621704,0.30225197270985393,0.19478945109376908,0.06777020247299048,0.6332094666551211,1.3590853095959898,-0.13514646051241685,0.04738135594269854,0.034322638619460256,0.3159518169830518,0.008015140953029132,0.029678976596465567,-0.013622563733505011,39.980172600814825,-18.216400777900347,51.942874573500106,0.016648593664772313,-0.006108604048675295
9542,1724813249444682024,-0.1844318211078643,-0.1463917791843414,0.1085518300533294,0.0208117049187421,0.0205164793878793,0.1566152125597,0.9872272610664368,0.0,0.0,0.0,0.4910643341629758,-0.07909584478975162,0.7161660975459334,1.7193731,0.1085518300533294,0.019673167089384255,-0.03451932182500804,-0.04614315962821407,-17.4319145471142,-12.82195474996384,-6.534831909227691,0.04756355533100546,0.03399654461771999,0.3154695232378744,0.01158279597633971,0.02444176684687349,-0.005344505679850897,11.527101539967916,11.448227095837193,-6.773684582758565,0.018004361673324868,0.002147308027885984
9544,1724813249456156595,-0.1842864900827407,-0.1461151987314224,0.1085104346275329,0.0206097140908241,0.0201862230896949,0.1562782824039459,0.987291693687439,0.0,0.0,0.0,0.35573315976427056,0.1619080905028336,0.17298962182378502,1.730847671,0.1085104346275329,-0.042801137270424186,-0.05276662731487187,-0.05925950652133604,-9.237076645289893,-3.1394933086540036,-9.339861645172626,0.047048559385971696,0.03342390227366355,0.31476126945061494,0.019013970152251147,0.029264476032176745,0.0015230722194026214,-27.754649732192004,-11.71296749382347,-56.07735698892837,0.019615172261318408,0.004451479129227014
9546,1724813249464351924,-0.1840935051441192,-0.1458451598882675,0.108552947640419,0.0200813598930835,0.0197573844343423,0.1555389463901519,0.9874280095100404,0.0,0.0,0.0,0.03485320410581727,-0.12557973557058433,-0.33773977315359777,1.739043,0.108552947640419,-0.14070036911472325,-0.08756396754906015,-0.18378047824840182,-2.445942412527577,-3.5424036564893835,-2.744943371311632,0.04584455232441623,0.03277699102566224,0.31322259641034517,0.020220830338957718,0.029078963292106685,0.0004501406835677457,-14.388649133907158,-14.557298943524982,-19.959598209689062,0.0323678105714488,0.01253010657251912
9548,1724813249475189003,-0.1839220523834228,-0.1455855071544647,0.1084899380803108,0.0200090035796165,0.0191150587052106,0.1553416848182678,0.9874731302261353,0.0,0.0,0.0,0.23381955202231564,0.010752481429026739,0.05299153379814172,1.749880079,0.1084899380803108,-0.03107147790642264,-0.1158705107463332,-0.03512578016387055,9.275437006752444,-1.504288129428386,3.5171516534559437,0.04549374717942346,0.03153997796466209,0.31278475304704884,0.018987675715793628,0.026242827363470056,-0.006173782084157864,7.815684059962743,19.743548500235086,42.26933191147409,0.02259812439878421,0.007457894477941124
9550,1724813249484792042,-0.1837127655744552,-0.1453140676021576,0.1084275916218757,0.0203321631997823,0.01858826354146,0.1549074202775955,0.9875448346138,0.0,0.0,0.0,0.21914868863495707,0.2613075340166482,0.5117862357695997,1.759483118,0.1084275916218757,0.05084733119083654,-0.12089007730303515,-0.08814821730595133,-3.917592243945693,-6.257763065794095,-4.018670051592932,0.04595418983588253,0.03041897235558408,0.3118856715919041,0.024191047663379095,0.028664580957080688,-1.2714470564390012e-05,-22.238893770024383,15.128301279019912,-17.164615346484737,0.029599789187535856,0.011826763836680269
9552,1724813249494566639,-0.1834524571895599,-0.1450299173593521,0.1084919348359108,0.0199658013880252,0.0173610858619213,0.1543507575988769,0.987661838531494,0.0,0.0,0.0,-0.20428744490889594,0.300108042299166,-0.3020993305154142,1.769257715,0.1084919348359108,-0.11129444897501399,-0.23911653268624453,-0.1124778814095611,-4.523934858091858,-0.5846268956638996,2.903049423505715,0.04483106457920481,0.028134002122365616,0.3106808262863665,0.023122547462740783,0.031309507284669635,0.0036984949908669407,-29.36730501452346,-15.306573897335616,-55.66374972887091,0.03404442578882594,0.016769285946897798
9554,1724813249504929976,-0.1832513809204101,-0.144680842757225,0.1084985733032226,0.0199275240302085,0.0167355015873909,0.1542222946882248,0.98769348859787,0.0,0.0,0.0,-0.3553242954321779,-0.07031600737452859,-0.5756875355811741,1.779621052,0.1084985733032226,-0.025622278929722277,-0.11870151864035566,-0.023146477116366252,14.563332151123772,8.939894930193795,8.65683648424476,0.04455742241698023,0.026915804714482586,0.31038612433518353,0.019961923404986592,0.03474393829368516,-0.006923327617366581,35.19541459855488,23.316493013002074,4.072340196493286,0.028735718121880468,0.008254734870461727
9556,1724813249514403521,-0.183057427406311,-0.1443425118923187,0.1083674803376197,0.020754711702466,0.016584139317274,0.1544804871082306,0.9876385927200316,0.0,0.0,0.0,0.40911297163994254,0.6620440142580626,-0.2732162469364003,1.789094597,0.1083674803376197,0.1668725699577996,-0.05721331642218921,0.05918393086671738,11.445764467832666,5.332712303875286,3.267339342521453,0.04615255767830341,0.0263489248403016,0.31092180677521924,0.016159764857388126,0.030598857821872105,-0.008486515535680361,30.57386384734329,31.148557501216192,31.47146033113595,0.030771509065235077,0.00806970906006417
9558,1724813249532672773,-0.1829141676425933,-0.1439636796712875,0.1084009706974029,0.0213161595165729,0.0166819933801889,0.1538194417953491,0.987728238105774,0.0,0.0,0.0,-0.798046350243963,-0.39507624999989943,0.28565950265448903,1.807363849,0.1084009706974029,0.06335523487685346,-0.0005796383209669001,-0.07219147554494112,-11.616721567934675,-66.88602654649718,-83.4524373178514,0.04727525014718635,0.02639993883871648,0.3096034564654293,0.052187458144736354,0.08143380670050249,-0.017290376985013012,-303.93450358251727,-391.95096446206765,91.3094397852231,0.013733433801771777,0.001252390075987655
9560,1724813249536163868,-0.1827023923397064,-0.1436388939619064,0.1083278506994247,0.0214119367301464,0.0162183716893196,0.1530938893556594,0.9878465533256532,0.0,0.0,0.0,-2.0177902236546426,-1.9862901115404465,0.6449357481893996,1.810854944,0.1083278506994247,0.018830460709665185,-0.2807740028016467,-0.41440718469421456,-7.864260338366268,-52.889954173597424,-61.505708506416575,0.047302280458850675,0.02548921176918775,0.3081114700655261,0.04755342853210642,0.07793471253507178,-0.015781063196930845,-252.9400031286844,-347.84101262336554,72.75933632953642,0.08652379235186033,0.028903040432713113
9562,1724813249545414833,-0.1825838088989257,-0.1432880312204361,0.1083084419369697,0.0217768065631389,0.0158209018409252,0.1526762843132019,0.9879096746444702,0.0,0.0,0.0,-1.9934326440522945,-2.5578506042205005,0.5788656894985527,1.820105909,0.1083084419369697,0.06594047778905575,-0.09911701522728208,-0.0881562077526666,3.3785157463032762,16.588745742784273,14.610821683422344,0.04789079196823256,0.024612124911271523,0.30725298173401816,0.011962414627248563,0.03543796398530308,-0.004603050127075292,121.13786393535776,127.50089097371905,-54.600847015936424,0.02373337620625123,0.0007199451056259123
9564,1724813249555406259,-0.1824735254049301,-0.1429608166217804,0.1082354187965393,0.0221387706696987,0.016067299991846,0.151858776807785,0.9880236387252808,0.0,0.0,0.0,0.4957119132375323,0.7586663179776871,-0.47881077711821673,1.830097335,0.1082354187965393,0.08120140791577993,0.03373894075171966,-0.16507400492571148,0.3056897250111814,4.452742025888691,-0.7620281704833705,0.04866161555396148,0.02502842411447442,0.30562133706704975,0.012050288134028087,0.03185124348910229,-0.0056117634392847116,146.5785698529963,194.04911025905105,-45.48835952082009,0.020556713791727035,0.00043765120796428485
9566,1724813249568453805,-0.1822990477085113,-0.1425605416297912,0.1081911101937294,0.0226060468703508,0.0157599132508039,0.1514771729707718,0.9880765676498412,0.0,0.0,0.0,0.6609177629370024,0.9411465064789031,-0.043709891977622206,1.843144881,0.1081911101937294,0.0643738093831779,-0.05885612871358594,-0.05683188269687687,38.761462933859384,2.0008104219547107,19.30570556557209,0.04948233514328763,0.02429779260095747,0.30484279675140186,0.026814425613689963,0.0607929402883709,-0.018297098235684928,-64.59628405651394,-142.5787275243936,100.65989469965193,0.022039775568623843,0.0034617073631928504
9568,1724813249575069566,-0.182076558470726,-0.142057329416275,0.1080200746655464,0.0241068787872791,0.0159305408596992,0.1518045365810394,0.98798805475235,0.0,0.0,0.0,-0.025599947492389696,-0.5273195462070137,0.8480334462858231,1.849760642,0.1080200746655464,0.45516297869107186,-0.015101295537622067,0.10782244430561255,17.50405705340892,1.5924191821335532,3.0033725271137826,0.052510721657277125,0.024161651826204205,0.30555027937729795,0.029608104866496454,0.06273553033968327,-0.015471499710235648,-78.99083848382703,-146.94634201994853,76.94044434733105,0.055562038207378234,0.008302613022286603
9570,1724813249585384944,-0.1818358302116394,-0.1416245400905609,0.1080274507403373,0.0239843614399433,0.0155265601351857,0.1507108956575393,0.9881649017333984,0.0,0.0,0.0,-0.4418750891351211,-0.8365397075700307,0.711246681237718,1.86007602,0.1080274507403373,-0.032807856320637804,-0.07943692965419605,-0.21318916201805252,-17.177665249542336,2.9865539835332298,-12.764734029915433,0.05211897782200741,0.023458345790286984,0.30331068757030916,0.022140449085856773,0.04409197608840998,4.650659414728864e-05,11.13613125334074,57.8125784611702,-39.20855710869199,0.03477662578160288,0.009827102678905597
9572,1724813249595623693,-0.1816212981939315,-0.1411513835191726,0.1080211326479911,0.0244304072111845,0.0158481132239103,0.1499126106500625,0.9882704019546508,0.0,0.0,0.0,0.1954314206637382,0.6475631105650863,0.04609776496893083,1.870314769,0.1080211326479911,0.09749093262182529,0.04487640178553755,-0.15734811895817327,1.351587001872184,4.088856824674648,0.9470290765923011,0.053079563399777055,0.024001894682818985,0.30172564248011985,0.020482680899784,0.04539295431103341,-0.0007313461416327272,50.3135808299926,101.60992487400573,-35.011099380292464,0.0337443410887308,0.006319472610475101
9574,1724813249606942814,-0.181395336985588,-0.1406478285789489,0.1080114245414733,0.0242550820112228,0.0157973691821098,0.1487782597541809,0.988446831703186,0.0,0.0,0.0,0.6156386198313237,1.2553671810538338,0.024616832272344038,1.88163389,0.1080114245414733,-0.02954448614649238,-0.00960747907643953,-0.2030251882712512,10.519340946838316,10.955641862727266,-3.4121957419788966,0.05268989018240934,0.024014769440612992,0.29942431430196814,0.027166396760515354,0.0592360585693914,0.0013179522977608826,-4.795985245390156,-56.93616911347498,-11.52551851968892,0.03220825358394688,0.005985695166093185
9576,1724813249615705622,-0.1811084151268005,-0.1400287002325058,0.1080377325415611,0.0250232052057981,0.0167960692197084,0.147793635725975,0.9885589480400084,0.0,0.0,0.0,0.2892372735027473,0.005930957041734519,-0.14169201569784484,1.890396698,0.1080377325415611,0.21013101507662027,0.19336919765946559,-0.22869796992377917,14.130943724651875,2.8087671665976774,7.262846176017288,0.05448362568661261,0.025814134951771418,0.297513331639162,0.032731790389611604,0.0704562813735965,0.0004724684937364998,-40.934479515436955,-146.88149103772884,-18.004911871627368,0.051921665513683275,0.010830033473044625
9578,1724813249625134645,-0.1807999014854431,-0.1393663734197616,0.1080165207386016,0.0259845703840255,0.01701071113348,0.1475138217210769,0.9885722398757936,0.0,0.0,0.0,-0.13413253770396505,-1.42261985659334,-0.3015783157281804,1.899825721,0.1080165207386016,0.20923822736390682,0.013336999108993575,-0.05680354362063595,-18.276975837038712,-29.854359790779966,11.78291897500766,0.05644286601178139,0.02596938594748734,0.2969853305404661,0.03194977510218244,0.05758120894132812,-0.0013222091825149107,-18.901557430111797,-34.07052683937712,-6.371829329894083,0.051884100281012605,0.010758929706936442
9580,1724813249634558384,-0.1805060654878616,-0.138943001627922,0.1080127954483032,0.0256153997033834,0.0151977045461535,0.1474488824605941,0.9886211156845092,0.0,0.0,0.0,-0.06738397219567505,-0.6376332839374319,-0.2619304284575003,1.90924946,0.1080127954483032,-0.13424836385031433,-0.3693542522818617,-0.006489285422052506,-12.433045861465526,-14.100318468261529,2.787614564685538,0.055171558917319875,0.02249751688943788,0.296730061622514,0.03020356246221212,0.043636571563888005,-0.0052119404322299445,11.256456570251931,92.95116412094956,29.535250838194486,0.04295192660607809,0.016732467679643828
9582,1724813249645334716,-0.180192619562149,-0.1384886503219604,0.1078972741961479,0.0259170327335596,0.0141840307042002,0.1473776400089264,0.988638997077942,0.0,0.0,0.0,0.10534881954462771,0.482985461195359,0.3684699768877535,1.920025792,0.1078972741961479,0.027720079584797306,-0.19463236243915918,-0.007891106774712794,1.7821549913332828,7.759874153182711,-5.143456743235449,0.05546597609678908,0.020408006120301938,0.296529173464506,0.03093048896726458,0.047142497518478876,-0.006175922070265294,-3.9999019873922315,42.79552044230957,20.366657771584507,0.040347309141564834,0.015173467967755781
9584,1724813249654918553,-0.1798804700374603,-0.1379943937063217,0.1078768149018287,0.0257233474403619,0.0132372351363301,0.146884948015213,0.988730490207672,0.0,0.0,0.0,-0.10369715092644305,0.3715612325680855,0.2386505917920419,1.929609629,0.1078768149018287,-0.06811555798599028,-0.19231566545444392,-0.09991565309195505,-6.38927432798549,-9.152385403395241,-3.759106958180924,0.054792523289927605,0.018620446865700736,0.29547128440603915,0.0322631082061946,0.05311504762236119,0.0012584550045797727,-17.073004346684506,-15.831579024022243,-37.568855387225895,0.04620797522856568,0.01613714830428493
9586,1724813249664413548,-0.1795770227909088,-0.1374755501747131,0.1079206839203834,0.0255294907838106,0.0114554855972528,0.1464672237634658,0.9888197183609008,0.0,0.0,0.0,-0.22122236418684715,0.18168117837502162,-0.34405115043282697,1.939104624,0.1079206839203834,-0.09481835601386224,-0.36758773867416833,-0.0806438635407988,5.680967143330679,0.3769610646971593,1.1754117940236637,0.05387609586465444,0.015176935439772362,0.2945170128077715,0.028995000567502593,0.05427595500238347,-0.001527761136896011,14.988831737264805,-8.55251086210625,-23.009309611723282,0.04636902882542979,0.014922137264436506
9588,1724813249675117474,-0.1793024241924286,-0.1368990242481231,0.1078301444649696,0.0259938724339008,0.0107987700030207,0.1460295915603637,0.9888796806335448,0.0,0.0,0.0,0.2694416921324325,0.22824486613505357,-0.12745877483536922,1.94980855,0.1078301444649696,0.06847672632966605,-0.1362583119938721,-0.07837059550057818,6.0632078040019515,11.790568415753,0.22475159207764595,0.05459579315113085,0.013766054097951003,0.2936001819367251,0.028110908532942958,0.056937616636295374,-0.00582116678356126,23.25989892921929,-3.2547929246546348,17.67017620117298,0.0402562922011418,0.008783552193125366
9590,1724813249684645072,-0.1790137588977813,-0.1363304555416107,0.1077970489859581,0.0262920092791318,0.0103367362171411,0.1456551998853683,0.9889320135116576,0.0,0.0,0.0,0.299564199659623,0.13274044541017904,0.019145699065715616,1.959336148,0.1077970489859581,0.048287826310386944,-0.10721057805234535,-0.07612430967509554,5.902079838593116,-0.21517914683307104,2.186331213987615,0.05504550899441334,0.012785871353176787,0.2928199875204319,0.03366350459156209,0.05893909197440461,-0.004714867818742086,-15.208305601508483,11.166046147002163,-10.21815921459475,0.0462744397125941,0.011748757156129557
9592,1724813249694610718,-0.1786431968212127,-0.1357507705688476,0.107737123966217,0.0273340847343206,0.0097730793058872,0.1454589217901229,0.988938331604004,0.0,0.0,0.0,-0.04348129598839279,0.4648985900484863,-0.34959242434963655,1.969301794,0.107737123966217,0.19071618189300368,-0.14337814665556203,-0.034003741072744516,-4.019873899397229,0.33363028461219635,3.01635402958579,0.05694106020073358,0.01137821800936683,0.29240162672375847,0.03369654872625816,0.05945585178828683,-0.005534862561717091,-23.323852182360607,22.121468031278148,-27.135656092483025,0.05243786063470456,0.01873535862645027
9594,1724813249706619368,-0.1782890111207962,-0.1350181549787521,0.1076775789260864,0.0266772005707025,0.0091814929619431,0.1453617811203003,0.988976240158081,0.0,0.0,0.0,-0.16296209603883138,0.5683501330776073,-0.5326998460717662,1.981310444,0.1076775789260864,-0.12253771618304016,-0.0820272860653512,-0.015293905496573024,6.263662291728441,-6.515518964640435,4.284942809377136,0.05546694944337969,0.010405053746315547,0.2921629201741751,0.03249722058290594,0.0710156077082047,-0.01360110349030208,-23.749391671593834,-51.51424923793639,48.105444799809035,0.04586503799981503,0.01060344745592758
