seq,stamp,px,py,pz,ox,oy,oz,ow,lx,ly,lz,ax,ay,az,timestamp,lyap_z,wx,wy,wz,aa_x,aa_y,aa_z,roll,pitch,yaw,vx,vy,vz,jx,jy,jz,forward_velocity,forward_velocity_1,deviation
5562,1724814846337366908,-0.7525712251663208,0.3161990940570831,0.1252282410860061,0.0360562466084957,-0.0859257876873016,0.3306157290935516,0.9391539096832277,0.0,0.0,0.0,0.2113913235347162,-0.39743932345916766,-0.33342658638551237,0.0,0.1252282410860061,0.0,0.0,0.0,7.671065751579005,0.2639075707496719,-9.033556458386999,0.011100221007512342,-0.18631262707076895,0.6759374729490077,0.0050872709240281835,0.041422476144867076,-0.001743759063920268,7.381240274203945,48.84284850779786,25.208117934790618,0.0,0.0,0.19125408532699456
5564,1724814846347817962,-0.7525180578231812,0.3166320025920868,0.1252100169658661,0.0364873073995113,-0.0857559368014335,0.3301888406276703,0.939302921295166,0.0,0.0,0.0,0.28853306422739644,0.1130199238096472,-0.06997518461064717,0.010451054,0.1252100169658661,0.08017072240730276,0.0027581122729136414,-0.09441018635865127,7.4362911389346005,1.8416698907011695,-5.47262467453696,0.012123981775277154,-0.18627233385245615,0.6749337797352016,0.007296533061420973,0.03726881631367185,-0.0052284183232709225,-4.80311444389176,60.797640120053224,24.829568639638083,0.02901515080950099,-0.021811287400424352,0.19125408532699456
5566,1724814846359043048,-0.7524095177650452,0.3170002698898315,0.125109314918518,0.037310741841793,-0.0852109342813491,0.3296794891357422,0.9394990801811218,0.0,0.0,0.0,0.08771769138090046,0.9396109479853845,0.2041749000291312,0.02167614,0.125109314918518,0.16081318280386694,0.04245321950589933,-0.11290869146890149,-0.5823095850572111,0.12246849853458786,-8.309656911173608,0.014166453864528196,-0.1857791794885912,0.6736506234913073,0.011465396660057081,0.04469179841816029,-0.0028376085040342502,-14.794652283900069,17.78654949236438,-18.96807619183909,0.025884581919110285,-0.0118890201991568,0.19125408532699456
5568,1724814846367610315,-0.7522995471954346,0.3174608647823334,0.1251251101493835,0.0377866439521312,-0.084940917789936,0.3288048207759857,0.9398109912872314,0.0,0.0,0.0,-0.018793155652416016,0.7267953141656802,-0.2420530881861874,0.030243407,0.1251251101493835,0.10504156132579205,0.021180334895060448,-0.22765892381438413,-7.5342010816648655,5.866111453389125,-1.9591991494721386,0.015432190471217785,-0.1855688811960189,0.6716690592180605,0.01036204669241414,0.05456160024452217,-0.0011460150042834627,-2.1314617910971583,-28.465933932111444,-29.209940918934045,0.04309703525189728,-0.023944812318073005,0.19125408532699456
5570,1724814846377969804,-0.7522231936454773,0.3180361092090606,0.1250757873058319,0.0375839248299598,-0.0839881971478462,0.3283376097679138,0.9400680661201476,0.0,0.0,0.0,0.0881608323461548,0.38648894347972274,-0.25810291396099094,0.040602896,0.1250757873058319,0.014159415354076787,0.18653703709357136,-0.10471529095635194,2.5541495430008965,-0.2233588700139335,8.10030489845488,0.015775773910585426,-0.18361976550725612,0.6705963369698398,0.011545207888730147,0.056763991496620037,-0.009159035793387282,-5.789701533552625,-26.743413573444556,19.179847238661033,0.03873605406489422,-0.028317640124626675,0.19125408532699456
5572,1724814846387493672,-0.7520766854286194,0.3185875415802002,0.1249500513076782,0.0381576120853424,-0.0835709571838378,0.3281291127204895,0.9401548504829408,0.0,0.0,0.0,-0.10806767186674027,0.18525293443340285,0.10606047073528585,0.050126764,0.1249500513076782,0.13765996192219565,0.04269769146332857,-0.0605553248235577,10.236255201435757,1.361420375363636,-10.379914482076176,0.017192548502022245,-0.183203637946417,0.6700165750274456,0.012156759274510875,0.06196740245520438,-0.007104574437272859,-22.063181467418488,-40.620409257910794,-7.126310305042896,0.04480476464683734,-0.022492909636092174,0.19125408532699456
5574,1724814846397636911,-0.7519882321357727,0.3192600309848785,0.1249438598752021,0.0389172919094562,-0.0820369720458984,0.3266991972923279,0.940756618976593,0.0,0.0,0.0,-0.34762461421763746,-0.43732609813468937,-0.4562773869798299,0.060270003,0.1249438598752021,0.21198364820620302,0.2343706408099622,-0.32806484542943126,-4.87519835910231,1.0388704041171772,-2.1574953991628765,0.019946880733236985,-0.18076498329793045,0.6666785499538481,0.009199479308815484,0.059945523591638405,-0.007213386419983259,4.723013228121625,-2.729070305735098,-48.02768391090074,0.04696188518412286,-0.0343565335549634,0.19125408532699456
5576,1724814846408952935,-0.7518780827522278,0.3198581635951996,0.1247788742184639,0.0389154888689518,-0.0819114744663238,0.3264560997486114,0.9408521056175232,0.0,0.0,0.0,0.06360210062887306,0.2722088581912665,-0.9061878224885335,0.071586027,0.1247788742184639,0.00276504686514071,0.020682965564101187,-0.04677033951271954,-24.104497056701888,-3.2060027458412295,13.66707210904301,0.02007395854416462,-0.18052042283638117,0.666145518151009,0.0045578651526057,0.05199220449858721,-0.01800143586759706,41.44121246799703,51.08188858751264,15.807557296998807,0.03704369857304185,-0.02340145238275148,0.19125408532699456
5578,1724814846420487726,-0.7518863677978516,0.320447713136673,0.1245310008525848,0.0367567874491214,-0.0816374272108078,0.3262194395065307,0.941044807434082,0.0,0.0,0.0,0.6015942999833721,0.724803441854057,-0.07051468445151121,0.083120818,0.1245310008525848,-0.34130460670472706,0.1680366682570684,-0.020704880949571142,37.102104052569224,-0.14342743524420243,-4.4813093869851865,0.01617404206863842,-0.17857814630429844,0.6659385360505583,0.010862138984144565,0.06659645729009256,-0.027899685389622064,4.2229007732740875,-54.60806751528394,85.80621465280882,0.026700868672833732,-0.02945666771303794,0.19125408532699456
5580,1724814846427832213,-0.7517524361610413,0.3210092484951019,0.1242961138486862,0.0374984741210937,-0.0809650719165802,0.3260126113891601,0.9411452412605286,0.0,0.0,0.0,0.4342454379400784,-0.11512505858372624,0.6221562785874306,0.090465305,0.1242961138486862,0.2441883874112334,0.10657263604953379,-0.08514168648959086,36.16842642230254,-0.1325464510777543,-7.1396138618167235,0.018077663582490244,-0.1777848099840592,0.6653167940174225,0.015537977417917403,0.06938841662613271,-0.024734402973088265,-20.716612571662992,-71.84370566291608,38.04503272607393,0.05491779761093834,-0.0291696775127083,0.19125408532699456
5582,1724814846437974284,-0.7516326308250427,0.321613997220993,0.1241467520594596,0.0371942110359668,-0.0798848867416381,0.3254120051860809,0.941457450389862,0.0,0.0,0.0,0.2531134410707725,-0.24829164630138045,0.21998139069432066,0.100607376,0.1241467520594596,0.0010772444061510733,0.22057841213196666,-0.13466922026334732,-15.33943519867552,-11.195963267999865,3.919929857550966,0.018325101147417207,-0.1755232066184594,0.6639709933950501,0.017107448425413452,0.06128443412671203,-0.015746887291612666,-20.204713680557102,28.30850149772722,-59.218469624407625,0.04276945844973005,-0.025870771847338846,0.19125408532699456
5584,1724814846448019638,-0.7514081001281738,0.322246104478836,0.1239784210920333,0.0370679907500743,-0.0805375427007675,0.3253270387649536,0.9414361119270324,0.0,0.0,0.0,0.026815782983128034,0.44837327379965597,-0.5695457694071715,0.11065273,0.1239784210920333,-0.06713690299808182,-0.11512567872093589,-0.007703135500351718,-21.67922209771637,-7.225339421737792,0.6563574942045678,0.01766815496632264,-0.17667807986561967,0.6638711826260902,0.02062874963933581,0.06427002096586776,-0.020165297637555923,-16.88055904517723,21.611492049430726,-34.00352637393069,0.05255435620497712,-0.019453220261059237,0.19125408532699456
5586,1724814846457320378,-0.7512310743331909,0.3228554427623749,0.1237615197896957,0.035303771495819,-0.0809306427836418,0.3247264623641968,0.9416775703430176,0.0,0.0,0.0,-0.0815574775519754,0.23826772274456554,-0.501801479603376,0.11995347,0.1237615197896957,-0.39698026760536703,0.04323396183949339,-0.10478735011237846,-11.452589062781414,22.477429748663916,-4.537198172605616,0.01414857555840476,-0.17626053354680438,0.6628878810917772,0.01809046080326482,0.06974193348050939,-0.02657937971596347,4.630243033541039,-30.795458186872487,18.62730404324183,0.050373823538700416,-0.022651734992217374,0.19125408532699456
5588,1724814846468864413,-0.751035749912262,0.3237211108207702,0.1234079971909523,0.0336174964904785,-0.0791927352547645,0.3243219256401062,0.942026436328888,0.0,0.0,0.0,0.20519433723735747,-0.23480440397619917,-0.12423226257776965,0.131497505,0.1234079971909523,-0.18514124192257664,0.3808164013266244,-0.07261110124410025,-0.03895770600576398,-10.244374970077919,-0.16721700584829868,0.012148508626547023,-0.17185374761506267,0.6620956182794576,0.01989077113675819,0.06747665872866904,-0.02968089131687801,-0.31627635314081115,14.384400159591662,42.51344883952066,0.053332897290555924,-0.029170449000799695,0.19125408532699456
5590,1724814846478099284,-0.7508301138877869,0.3242887556552887,0.1231408640742302,0.032262984663248,-0.0796829313039779,0.323785662651062,0.9422168731689452,0.0,0.0,0.0,0.016430065952406814,0.3070427856909328,0.3408211673920648,0.140732376,0.1231408640742302,-0.32135531052116023,-0.0055065973586543825,-0.09598187017167288,-3.735217322865064,-14.033769472503575,5.647910941856125,0.00933478159582021,-0.17189506209450386,0.6611954288720636,0.02214950082166922,0.06502329045782496,-0.02976112592716529,-17.71484574024506,54.03869399572882,17.767741262465805,0.04955634143655755,-0.016765759220841697,0.19125408532699456
5592,1724814846489039944,-0.7505893111228943,0.3250462412834167,0.1228044405579567,0.030744019895792,-0.0790467709302902,0.3240952491760254,0.942214846611023,0.0,0.0,0.0,-0.1420549506668567,0.8381805965147469,0.1127870965626081,0.151673036,0.1228044405579567,-0.2194530276767401,0.20127611225200634,0.07181741334886219,18.679658170282934,9.259026167615561,0.8395880885615941,0.006795239337766106,-0.16969938906809248,0.6620108019867247,0.019371993634486273,0.07580569004219484,-0.021502141592810275,-7.941535044503405,-18.468094432497566,-38.148911140045975,0.05386608772567529,-0.021542480312677473,0.19125408532699456
5594,1724814846499074514,-0.7504191994667053,0.3258673846721649,0.122673787176609,0.0306871682405471,-0.0779791623353958,0.3238967955112457,0.9423738718032836,0.0,0.0,0.0,-0.16151388308522396,0.036085037607028525,-0.42929791214749,0.161707606,0.122673787176609,0.054185521632456296,0.20545198934843997,-0.05318692056439438,5.6084167675678795,0.7056198308234372,-9.402529394559986,0.007427351278634213,-0.16763401726820865,0.6614842756735851,0.01897562699520705,0.08286029572023068,-0.02627997036614982,-15.834644719164066,-48.57928828647027,11.722378174816516,0.06058048624993581,-0.03550255480768938,0.19125408532699456
5596,1724814846508116155,-0.750231146812439,0.3266249597072601,0.1223281472921371,0.0301085170358419,-0.0771556869149208,0.3234183192253113,0.9426246285438538,0.0,0.0,0.0,-0.41789081785604404,-0.14771206617571275,0.2123065934358005,0.170749247,0.1223281472921371,-0.07157791834190132,0.2141902580614802,-0.11331355611407466,-8.31383809439749,-0.03797236202818155,-6.869489634314133,0.0069501735850543145,-0.16569007389525905,0.6604594975998671,0.016521234751866842,0.07775298607921677,-0.029779932688776434,15.86329328935849,35.80984592965893,0.026044450541693465,0.06059275111463767,-0.030460586898514698,0.19125408532699456
5598,1724814846519511972,-0.7501043081283569,0.3274243474006653,0.1221101135015487,0.0293651111423969,-0.0762099549174308,0.3223682641983032,0.9430845379829408,0.0,0.0,0.0,0.3979914546864851,1.066673322192579,-0.8062328700328989,0.182145064,0.1221101135015487,-0.08595268934014298,0.19933110305622034,-0.19474996187844687,13.969856403335577,24.338713512514992,-13.821261131542109,0.006336673714292754,-0.16340381887657662,0.6582250519923654,0.009655766824756995,0.08206123840168544,-0.0187513685749483,65.31047878970467,41.12547639689095,-72.84664713760472,0.04791374307087215,-0.03189085460739213,0.19125408532699456
5600,1724814846529378326,-0.7500216364860535,0.3283357620239258,0.1219283640384674,0.0293102618306875,-0.0728000923991203,0.3207238912582397,0.9439159035682678,0.0,0.0,0.0,0.9886852792170568,0.9134440514157474,-1.3837470489705552,0.192011418,0.1219283640384674,0.18198681963928937,0.6585089962731075,-0.3881351719926945,5.59570820176924,-1.5316869729193954,15.362664722848464,0.008742860288784658,-0.15687802109385932,0.6543956566585103,0.02212847015118058,0.09846770081326639,-0.04185979718587696,-20.62621495072696,-73.87748199735721,58.41671018010982,0.059225425659328174,-0.04757352268134456,0.19125408532699456
5602,1724814846537898003,-0.7497319579124451,0.3292194902896881,0.1213992983102798,0.0291972160339355,-0.0715296417474746,0.3207819759845733,0.9439968466758728,0.0,0.0,0.0,0.22076476621895735,-0.1452160239093372,-0.025673566930056957,0.200531095,0.1213992983102798,0.07103890465058543,0.2918068858389017,-3.3050148437463144e-05,-5.18815895642837,-25.204843141539367,16.854795547634318,0.009344606633775171,-0.15439203443875088,0.6544181900391033,0.028525094372444215,0.10073656568190259,-0.04659812532936769,-64.25841782862307,-94.0506159670494,91.67231448579629,0.07949401401814132,-0.029375646687700305,0.19125408532699456
5604,1724814846548821701,-0.7494970560073853,0.3302780091762543,0.1211073845624923,0.0294555220752954,-0.0699042826890945,0.3197489082813263,0.9444608688354492,0.0,0.0,0.0,-0.11874654936222528,-0.7494736148212411,0.027067747479362136,0.211454793,0.1211073845624923,0.1240940313437515,0.26630222501550344,-0.21787403820158868,-86.66544832071246,-34.8209752637815,8.99974265254613,0.01106240509608135,-0.151458869778342,0.6520401574342104,0.023512868921578445,0.09338642504657457,-0.03944850599092575,19.08148479034491,55.67736998521187,-53.22819802520414,0.07099202681574687,-0.039003612207346355,0.19125408532699456
5606,1724814846557200749,-0.7492871284484863,0.3310379087924957,0.1206950545310974,0.0250463355332613,-0.0724302157759666,0.3195396065711975,0.9444686770439148,0.0,0.0,0.0,0.363536068681655,0.43042416919016446,-0.7920718341675475,0.219833841,0.1206950545310974,-1.1903093478006361,-0.23425850730405973,0.043549042596474095,-43.36134621426361,-10.463285970890706,7.08893189780979,0.0010344648671509037,-0.1534239296821068,0.6523974204362142,0.024703721290411096,0.08661415353042301,-0.04325435142484313,13.525903111895017,135.7806664317752,-58.137111259660855,0.06656519181540603,-0.029449206191702562,0.19125408532699456
5608,1724814846568275378,-0.749018669128418,0.3319374620914459,0.1203031986951828,0.0244346689432859,-0.0704730525612831,0.318379133939743,0.9450244903564452,0.0,0.0,0.0,-0.13118702009227579,1.860451424820618,-0.8559363063609564,0.23090847,0.1203031986951828,-0.009080781167167621,0.3711407659611519,-0.23086119483767129,52.23875625642063,42.31122625170698,-4.092971323939811,0.0013231441213652512,-0.14931066107872468,0.6498160287262276,0.03197066355182443,0.10951173623496757,-0.05697167255100055,-79.01017513265806,-11.212522942990738,110.65126046945264,0.062420766098250625,-0.02590976051358013,0.19125408532699456
5610,1724814846577593782,-0.748660147190094,0.3331797122955322,0.119603045284748,0.0237024333328008,-0.0674412325024604,0.3180000782012939,0.9453918933868408,0.0,0.0,0.0,-1.1366724296107662,0.6556154276932045,1.0879534316318313,0.240226874,0.119603045284748,0.05099522913445972,0.6685485319244887,-0.1068142260062441,-2.121708891253052,7.753012268956425,6.484676451204164,0.0019434018652179314,-0.14307921909266189,0.6488202092377393,0.024574720367319003,0.1252242146719027,-0.061947085977448246,-15.496442111507442,-113.36679880162569,130.08124802370045,0.09935926327253304,-0.041790596581040534,0.19125408532699456
5612,1724814846588120089,-0.748566746711731,0.3344016969203949,0.1191078051924705,0.022605849429965,-0.0652456656098365,0.3174350261688232,0.9457626938819884,0.0,0.0,0.0,-0.20100409707402267,-0.34830295588927473,1.523488809862384,0.250753181,0.1191078051924705,-0.07322753708831546,0.46284020460496145,-0.11973724597697366,-0.9393744109376873,-9.149365767703177,-11.585373785884624,0.0013498907720522638,-0.1382051581817022,0.6475554041209082,0.008531451455404238,0.11987123787362464,-0.031209438414969704,100.80320108260278,-88.01855521171426,-81.03309540837543,0.06988914271856614,-0.057905832600948115,0.19125408532699456
5614,1724814846597660492,-0.7484883069992065,0.3355780243873596,0.1189470067620277,0.0220534820109605,-0.0630934536457061,0.316044807434082,0.9463871121406556,0.0,0.0,0.0,0.863723006363702,-1.1244485661327017,-0.30805050036116266,0.260293584,0.1189470067620277,0.011730680793263481,0.4654176685452192,-0.3198276302631589,-15.9029704312009,-8.178904105642864,-1.9942936219096454,0.001878324780514729,-0.1337599490789197,0.6444828873828785,0.018054491761937186,0.11793377272333316,-0.02875083234783915,35.74813164454042,6.133233888252324,-93.09984398693143,0.07768103289953669,-0.06580934054755454,0.19125408532699456
5616,1724814846607587662,-0.7482075095176697,0.3366933465003967,0.1185387074947357,0.019742289558053,-0.0623138658702373,0.3152757585048675,0.9467462301254272,0.0,0.0,0.0,0.4350604474534222,-0.1598580303566317,-0.21090390046092145,0.270220754,0.1185387074947357,-0.40239863681513666,0.29694867407486236,-0.1435830917866528,-14.873944621204558,-19.424780155881148,10.74231548535182,-0.0019266884814183546,-0.13081211878716725,0.6430448647868705,0.02523992679005005,0.0972537968293743,-0.03765293560631644,-43.091542466753054,163.6124615448265,18.235362089455332,0.08387172057550338,-0.04056269594922128,0.19125408532699456
5618,1724814846620125366,-0.7479392886161804,0.3376736342906952,0.1181216761469841,0.0187880117446184,-0.0625364631414413,0.31450155377388,0.9470084309577942,0.0,0.0,0.0,-0.10379611888996809,2.9436167449503134,0.15152010308390285,0.282758458,0.1181216761469841,-0.16383519349305217,0.014543605053871372,-0.1199233379988125,2.162573063024066,30.447866856274334,-27.165533798927534,-0.0037830611330583884,-0.1306340672549215,0.6415278375881389,0.026122235788221815,0.12570465222013283,-0.029437138772605564,-41.20039590764276,-72.87770867847698,-24.798339966083685,0.05905107328163359,-0.026217158260938317,0.19125408532699456
5620,1724814846627937613,-0.7477121949195862,0.3388869762420654,0.1179103255271911,0.0174295213073492,-0.0608952641487121,0.3127299547195434,0.9477277398109436,0.0,0.0,0.0,-0.41700642437513247,0.8145865919525237,-0.3036369035848816,0.290570705,0.1179103255271911,-0.22903684083412182,0.5102692846359759,-0.47356993998903496,11.06001010493752,44.41912229939656,-10.579104221845679,-0.005091475303286344,-0.12666415322372568,0.6377795148771271,0.024463534761601125,0.15198373265914,-0.03070567046813455,-16.494087830605917,-241.46945438073683,-42.02522803292815,0.11148428819636097,-0.06639859786395513,0.19125408532699456
5622,1724814846637368250,-0.747533917427063,0.3402823805809021,0.1175791770219802,0.0168599020689725,-0.0575545206665992,0.3120169043540954,0.9481818675994872,0.0,0.0,0.0,-0.30390814125040977,-1.1090823126609077,-0.5151175799493308,0.300001342,0.1175791770219802,0.09619074177687591,0.7124605418104343,-0.17842642436226264,9.493851704610474,-7.9618880722561824,21.60841276538296,-0.003972012038973804,-0.11995290888589571,0.636053461707116,0.018200695089756636,0.1306444534603326,-0.03517730052343104,18.30137515905383,-74.31038878192572,4.734774827046163,0.0981594662776967,-0.06927658603436045,0.19125408532699456
5624,1724814846648979966,-0.7473326325416565,0.3415517508983612,0.1171698048710823,0.0156896188855171,-0.0567222759127616,0.3116221725940704,0.948381781578064,0.0,0.0,0.0,-0.0012004318825313831,-0.11802623134843593,-0.07183133999082525,0.311613058,0.1171698048710823,-0.15089173556997393,0.19964634607099005,-0.06602478316438104,-38.821709776188854,-14.562730470364535,-13.49348980083762,-0.005631290028356237,-0.11763835332932797,0.6352700265810952,0.01982147418611646,0.13426051195403232,-0.04174428053466972,-1.2162031997728384,196.57310651637232,10.74860653587714,0.07413906763015628,-0.04750487023949766,0.19125408532699456
5626,1724814846657765605,-0.74714195728302,0.3428971171379089,0.1167599186301231,0.0128710102289915,-0.056413248181343,0.3100766539573669,0.9489490389823914,0.0,0.0,0.0,-0.19326166253335525,2.3483382487326994,-0.1597166791571174,0.320398697,0.1167599186301231,-0.6085801142555286,0.2684710255748565,-0.3386167659110479,-26.149290379705526,-0.8186017289855063,-10.99869771673331,-0.0106277654373537,-0.11530391922726344,0.6322555398242458,0.018875098002997248,0.13036892068959638,-0.039093445612575994,-8.366195417897998,168.28096156613245,-32.894662276264604,0.10191916274563131,-0.06832564069609229,0.19125408532699456
5628,1724814846671985126,-0.7469386458396912,0.3442270159721374,0.1163780316710472,0.0101714478805661,-0.0568655915558338,0.3096971213817596,0.9490787982940674,0.0,0.0,0.0,-0.0016565769600984659,2.1533573358711102,-1.1542903689062989,0.334618218,0.1163780316710472,-0.3832884405911772,0.05770315698067356,-0.034076986014727376,160.04602835720343,145.14277137670294,-64.07694780674517,-0.01602077488938055,-0.11448994836309878,0.631756862430039,0.014158299984899259,0.2280005150837212,-0.051984236968431574,25.06803359128412,-569.2480528673667,28.916371449079136,0.06326636988323026,-0.04089542960284598,0.19125408532699456
5630,1724814846677423765,-0.7468619346618652,0.3457467555999756,0.1160430386662483,0.0112958075478672,-0.0531417541205883,0.3084024786949157,0.9497032761573792,0.0,0.0,0.0,0.15879513693910197,-2.0981774788553347,-0.7913793476226245,0.340056857,0.1160430386662483,0.7871069176687657,1.179834557219898,-0.5604089986760304,103.30858673060993,109.04422503707458,-56.1666747489664,-0.011389512421942046,-0.1081156099641906,0.6286018334426944,0.01483585837991086,0.22990877242257035,-0.058777331342347416,15.453691955574874,-527.2905127120309,81.42506669298668,0.16804741626795525,-0.14689247326525795,0.19125408532699456
5632,1724814846688645134,-0.7466785311698914,0.3471800088882446,0.1154487133026123,0.0076761818490922,-0.0534348897635936,0.3068830370903015,0.9502151012420654,0.0,0.0,0.0,0.006946399049654439,-2.124193348951417,0.46259153651297513,0.351278226,0.1154487133026123,-0.6442175483748005,0.15113051175602502,-0.2504511404812933,-10.33688711265409,-29.90357413739754,21.62087642043633,-0.018313176028950967,-0.10646165197297087,0.6257502177780276,0.017409875391429352,0.14966230305686068,-0.05706154469096614,-31.484990625818885,144.3752803458179,74.77188628750214,0.08193023936531264,-0.056294253292099895,0.19125408532699456
5634,1724814846697642423,-0.7465142011642456,0.3486848175525665,0.1149057522416114,0.0077109220437705,-0.0518809929490089,0.3064958751201629,0.9504258036613464,0.0,0.0,0.0,-0.4058456867021477,0.23304445476704494,0.8685858535423745,0.360275515,0.1149057522416114,0.10838151005411767,0.327690258120577,-0.09921488172716171,28.688838006164765,20.423352638112135,-4.53518824415568,-0.017238453023479733,-0.10352964649411528,0.6247999829001128,0.01586769495029472,0.16681539955667546,-0.050665378496022484,-9.018241825703733,90.89495381215559,-1.0795523684771844,0.10580534259457804,-0.07717433785306106,0.19125408532699456
5636,1724814846707455299,-0.7463841438293457,0.3503170907497406,0.1145121976733207,0.006073931697756,-0.049662247300148,0.3047285676002502,0.9511242508888244,0.0,0.0,0.0,-0.09983570451451362,-0.7061865695248057,0.36350292894124947,0.370088391,0.1145121976733207,-0.19828576596343633,0.5366607038088158,-0.37215302716044146,-7.0127462768863,0.32281395533002843,-7.652788300943382,-0.01880482333513056,-0.09833011584260984,0.6210346470481858,0.009376105002360191,0.1511925341513365,-0.040454429226805644,36.57891124159942,-39.49005165000279,-28.508542351822022,0.10311145548211834,-0.08215529761146714,0.19125408532699456
5638,1724814846718531456,-0.7463287711143494,0.3518023490905761,0.1140597611665725,0.0058036637492477,-0.0481450594961643,0.3036657571792602,0.9515438079833984,0.0,0.0,0.0,0.37275891478235235,-0.44066709634689794,0.33482165582156,0.381164548,0.1140597611665725,0.027074760881084417,0.27803383224368755,-0.2048560668388805,3.1783959005905054,-8.741954604514593,5.673603789124819,-0.018279075978766345,-0.09529317177988546,0.6186980190705172,0.015292749451390364,0.1544461785160749,-0.04489290829628523,154.91667464576255,2831.4489351154534,-991.7973789743567,0.07758643197799285,-0.06991606114325566,0.19125408532699456
5640,1724814846727948845,-0.7461023330688477,0.3534197807312011,0.1136045977473259,0.0050475215539336,-0.0468528717756271,0.3026387095451355,0.9519396424293518,0.0,0.0,0.0,2.7304510209762167,48.703763549936056,-16.925945961521325,0.390581937,0.1136045977473259,-0.08045835651610986,0.3126736190535901,-0.22693701949730616,-9.06154622361559,1.105133581268582,-1.6594357268777693,-0.018830530202757583,-0.0923887401895148,0.6164967990682243,0.017510672670107752,0.14441572227699684,-0.035850222203480664,-137.55664693730907,-2265.7044360936156,808.978381285264,0.11395427281056689,-0.07534287369787022,0.19125408532699456
5642,1724814846751162497,-0.7460697293281555,0.3552081286907196,0.1134866178035736,0.0027763219550251,-0.0452756807208061,0.3000630438327789,0.9528403282165528,0.0,0.0,0.0,-22.659494072575853,-432.14484553395596,153.02244681973934,0.413795589,0.1134866178035736,-0.15593836203072461,0.1910895012987343,-0.22624698292555454,-31018.025999890768,9010.978324708574,-9275.832448594185,-0.02196721373315336,-0.08806090271275811,0.6111336728277966,0.2236575505039582,4.12283851692348,-1.4522293861490994,-3032.862143026643,-53281.67361521907,19401.762211469002,0.044732048668584996,-0.04249605664771426,0.19125408532699456
5644,1724814846751528787,-0.7459865212440491,0.3567416667938232,0.1129463165998458,0.0005708747776225,-0.0452980585396289,0.2993252873420715,0.9530751705169678,0.0,0.0,0.0,-23.781608665160487,-451.84962148005087,160.19894138956695,0.414161879,0.1129463165998458,-11.69678775816158,3.5438319380964773,-3.677503518809163,-29607.155319923248,8600.124215146277,-8854.734700877463,-0.026130864452014173,-0.0867956019767212,0.6097505506323575,0.2151753126339102,3.9610599612829214,-1.3949417184542952,-2872.8151268610195,-50248.36782514123,18326.735521381157,2.446187909063112,-2.0765764752192117,0.19125408532699456
5646,1724814846757593837,-0.7458854913711548,0.3581079542636871,0.1125322431325912,-0.000764810363762,-0.0452367588877677,0.298126220703125,0.9534536600112916,0.0,0.0,0.0,-22.05982913114331,-400.38010302449203,144.2481491016499,0.420226929,0.1125322431325912,-0.4317165625623876,0.15653220905461251,-0.3942665497299235,1198.6168671316207,-352.03596524815003,352.1635262445736,-0.028540070804517672,-0.08591193160529735,0.6073251691538203,0.008228615325695188,0.19807127002134983,-0.041792588068224834,904.9545533827932,18531.997259424785,-6409.974995700923,0.13585296901788949,-0.10850254890754109,0.19125408532699456
5648,1724814846768443783,-0.7459598183631897,0.3597290515899658,0.1125927567481994,-0.0023639306891709,-0.0438015386462211,0.2968035638332367,0.9539305567741394,0.0,0.0,0.0,-0.18630240435423207,-4.323080912019236,1.330831723937227,0.431076875,0.1125927567481994,-0.21313992067764445,0.3442856834210426,-0.2451313160820079,18.370863478721365,-12.179594050253321,8.582168320720077,-0.030619254185500367,-0.08225673532978765,0.6045463465757729,0.002989021469225861,0.12524950295590997,-0.007322315488812237,1029.0566156278978,18562.066725890967,-6742.120568155458,0.07947724105027962,-0.09066544690744158,0.19125408532699456
5650,1724814846779465581,-0.745816707611084,0.3608390092849731,0.1123676225543022,-0.0022777307312935,-0.0444853641092777,0.2957022190093994,0.954241156578064,0.0,0.0,0.0,0.10552978243657504,-0.6105825846502952,-0.9862504455827732,0.442098673,0.1123676225543022,-0.030528489474910367,-0.12007082823812769,-0.2083481872047639,6.774276899101025,3.6674885838542135,0.08740919606893449,-0.030768272993781817,-0.08364999071387984,0.6022839453544576,0.004256610884461054,0.10434543657177997,-0.013324537723812035,6.17456166098235,238.49783059585133,-79.94547366399645,0.06580848549980511,-0.04438813573177005,0.19125408532699456
5652,1724814846790245535,-0.7458628416061401,0.3620022237300873,0.1122988611459732,-0.0031735559459775,-0.0425156913697719,0.294438749551773,0.9547189474105836,0.0,0.0,0.0,-0.0419734848803916,0.9236310549586282,-0.4744440370941607,0.452878627,0.1122988611459732,-0.06076358195197639,0.4023343400569858,-0.2416709516500746,-1.2531994476471247,-14.855631921240395,15.490810067218812,-0.03119957164883451,-0.07939562415515362,0.5995364959943386,0.0052942895773142595,0.11132252069219106,-0.02861301495924895,-51.44586794123567,48.77218834786862,171.78769073238234,0.05666683331237521,-0.06362896235438534,0.19125408532699456
5654,1724814846798459809,-0.7457594275474548,0.3629380464553833,0.1119246557354927,-0.0032741457689553,-0.0430447235703468,0.2944368720054626,0.9546954035758972,0.0,0.0,0.0,-0.7009300453923542,0.738715012498913,1.7147535264343112,0.461092901,0.1119246557354927,-0.06134617189042022,-0.11600649014018356,0.001883896444278744,39.117362048328296,-14.036922075256529,-2.1695258651038927,-0.031707117970396693,-0.08034756347895718,0.5995819920675665,0.004084271408778761,0.12063955403984039,-0.026602833949312732,-32.37368291880592,-90.6920092378169,108.72029611326725,0.07078468702851222,-0.04982469879339575,0.19125408532699456
5656,1724814846807466382,-0.7458066344261169,0.3640908896923065,0.1118722185492515,-0.0006160633056424,-0.0411095358431339,0.2931360006332397,0.955186367034912,0.0,0.0,0.0,-0.5200005979028746,-0.7514111537231072,1.1357176490875274,0.470099474,0.1118722185492515,0.6779629873667992,0.24210539815132115,-0.3318851694195545,15.15078660336442,27.282831813211857,-17.810350120682035,-0.025358592675109943,-0.07825319599375426,0.596522309090474,-0.007695897912732619,0.12338682942889534,0.0033582490870571746,54.13752611650652,-155.36783888714209,-174.43776456321314,0.06690844713923244,-0.07553706388152476,0.19125408532699456
5658,1724814846817833650,-0.7459157109260559,0.3653150200843811,0.1120165884494781,-0.0009467672789469,-0.0391933023929595,0.2917214334011078,0.9556995630264282,0.0,0.0,0.0,0.44758165740604194,-2.2418503856805354,-1.9871731356850426,0.480466742,0.1120165884494781,0.03626742202982485,0.37604314266086963,-0.2868327408769677,-39.187117329017894,-0.03569219828732173,16.134427852574785,-0.02474774001044649,-0.07443036282527357,0.5934429265071313,-0.0036838330632491534,0.10298967154953331,-0.0110121887777197,22.400122547766607,-43.19471402282368,-77.60940923722285,0.05818509590946348,-0.07557929592633003,0.19125408532699456
5660,1724814846828125895,-0.7458837628364563,0.3662208616733551,0.1116484403610229,-0.0019760022405534,-0.0381993502378463,0.2916911542415619,0.9557474851608276,0.0,0.0,0.0,-0.046620664759997765,-1.6588283191629456,-0.5010863238386198,0.490758987,0.1116484403610229,-0.13501886610445307,0.2433048246790815,-0.000318207509529996,-10.02994560692945,-30.923376560686744,16.9346617061068,-0.026132479171379102,-0.07192710430524926,0.5933757843722792,0.0015418630330970018,0.07711231484606529,-0.03760592315162903,-37.731252486610714,81.35176558521749,182.8652856839671,0.049082070996030104,-0.043839392663957,0.19125408532699456
5662,1724814846837532536,-0.7458826899528503,0.3668525218963623,0.1112789064645767,-0.002485335804522,-0.0393459312617778,0.2919550836086273,0.955619215965271,0.0,0.0,0.0,-0.31311631606328616,-0.6811863944983516,1.54985173823724,0.500165628,0.1112789064645767,-0.17251925422906497,-0.20255799279129655,0.06524228639407648,9.160028290248968,-8.569774447205582,-7.286129500340061,-0.027803843921436207,-0.07381525763320235,0.5940424513411183,-0.003662578383824666,0.06886264398582753,-0.024413346395238733,8.007763900574144,45.54444908093833,75.19119429457692,0.03467990878006551,-0.0343511046898243,0.19125408532699456
5664,1724814846847769889,-0.7459622621536255,0.3675765693187713,0.1111946627497673,-0.0023328617680817,-0.0385506711900234,0.2911440730094909,0.95589941740036,0.0,0.0,0.0,0.17372303258764046,-0.8654416176299282,0.7281729018986438,0.510402981,0.1111946627497673,0.06772722739378215,0.14232012050101164,-0.1681775144261688,10.30890522117196,12.70569056618816,-12.864344654567976,-0.026981522445490434,-0.07240598017129717,0.5922767977185837,-0.00419237156943808,0.06407079655658166,-0.0069049775375784606,21.55947989237869,-33.89008185701066,-77.31290973851827,0.032352230934360696,-0.04516827088866208,0.19125408532699456
5666,1724814846858089093,-0.7459682822227478,0.3681685030460357,0.111137181520462,-0.0021928122732788,-0.0382249467074871,0.2901761829853058,0.9562069773674012,0.0,0.0,0.0,0.1257997979290389,-1.3804617060126,-0.03895066068755676,0.520722185,0.111137181520462,0.037233621475430516,0.055178647411836465,-0.19757122808261557,-8.487601692737659,-5.760267181796651,4.74460844813941,-0.026448897809137,-0.0718912281997566,0.5902180652245912,-5.437285727083463e-05,0.05100683426060115,-0.009606028283773327,9.23572213887518,567.3788573958219,-246.08671497823872,0.03095855479222615,-0.03189201587317141,0.19125408532699456
5668,1724814846867656492,-0.7459641098976135,0.3686001300811767,0.1110094785690307,-0.0026360619813203,-0.0382457636296749,0.2897708714008331,0.9563279747962952,0.0,0.0,0.0,0.33728059363672697,9.52344695232641,-3.9168220059584185,0.530289584,0.1110094785690307,-0.09304654852099,0.023878823206534762,-0.08482447283375019,-9.883913340887828,-1.1602702080865726,8.475908116799808,-0.027280333648823644,-0.07168465783360421,0.5893986083061354,-0.0012919209089954364,0.036783960096282264,-0.008002373727985956,-42.95818055798054,-384.98486324014334,219.85281539395632,0.024418494022200796,-0.023636344758834447,0.19125408532699456
5670,1724814846890752497,-0.746090292930603,0.3689852356910705,0.1111226826906204,-0.0042376727797091,-0.0373589396476745,0.2889047265052795,0.9566193222999572,0.0,0.0,0.0,-4.282407951721268,-84.37586531432044,36.017167703060295,0.553385589,0.1111226826906204,-0.11318388752152268,0.11479221266101813,-0.07353220289452825,3905.0345968668976,10680.412609448163,2592.5893114133755,-0.029769422474326106,-0.06908293571958034,0.5876210240723098,0.032514692980839754,0.8705969620949645,-0.3261911017216903,-418.2026101927677,-10739.797983773286,4032.0751363176823,0.0050239877255061835,-0.014109722406045118,0.19125408532699456
5672,1724814846891109034,-0.7460784912109375,0.3693003356456756,0.1110045611858367,-0.0042266929522156,-0.0366123020648956,0.2890578210353851,0.9566019773483276,0.0,0.0,0.0,-4.432713509924154,-88.24173489331841,37.46742738646858,0.553742126,0.1110045611858367,1.300603241000861,3.9815169862235615,0.8650885332653643,3748.684875976573,10254.83910188128,2488.1061475153692,-0.029323947913649635,-0.06765488344732827,0.5878879985269374,0.030956229725179973,0.8398507430681277,-0.3130755867126346,-390.2680464211835,-10195.722209324018,3799.067917458079,0.4941104927655625,-0.43698282876585975,0.19125408532699456
5674,1724814846897647758,-0.7461332678794861,0.3695241212844848,0.1111431345343589,-0.0049512255936861,-0.0360306277871131,0.2884286940097809,0.956810474395752,0.0,0.0,0.0,-3.230840750537263,-77.30957549975537,30.103583786316594,0.56028085,0.1111431345343589,-0.16734286196928974,0.2374026720066386,-0.19364833029234893,-130.5991908837318,-358.9038316568444,-92.58613769610932,-0.0303302604542678,-0.06614102633321772,0.5865731265655901,-0.005415107369117322,0.022304768676555398,0.013646953567706177,247.7345766264161,3880.283368171336,-1857.0645835046278,0.01334127626175737,-0.02736129684822421,0.19125408532699456
5676,1724814846907954352,-0.7461409568786621,0.3695603609085083,0.1111612021923065,-0.0049024638719856,-0.0359635539352893,0.2883243858814239,0.9568446278572084,0.0,0.0,0.0,0.36098091044341696,-1.4405930660232324,-0.9099710279651432,0.570587444,0.1111612021923065,0.012111190894068128,0.010063403682624754,-0.021554893058456228,6.511232751784108,-10.862360814227007,9.063942775324684,-0.030190526595193702,-0.06604406856841517,0.5863473780449228,-0.0008355133913511281,0.0007792392880787702,0.0012128221264466887,162.78424101814443,3653.4344148334458,-1446.902078587501,0.0014369582209572214,-0.0026845130252143566,0.19125408532699456
5678,1724814846917851338,-0.7461500763893127,0.3695420622825622,0.1111680716276168,-0.0050424928776919,-0.0359598398208618,0.2882985472679138,0.956851840019226,0.0,0.0,0.0,0.20709972931977283,-0.5200115697508706,-0.38336363691373665,0.58048443,0.1111680716276168,-0.027040358165548943,0.008954979901961249,-0.004395041420068224,0.1897996633065394,-6.651620845874023,3.622687812183488,-0.030455094178325797,-0.06595680263306188,0.5863011282680353,0.00194492848922323,-0.0073206133668293205,-0.004975752727985672,46.34040138084484,-110.37400299721193,-167.52335729345523,-0.0017408865399730358,0.00020373594335974498,0.19125408532699456
5680,1724814846927803431,-0.7461020350456238,0.3694144487380981,0.1110618114471435,-0.004797747824341,-0.0365192852914333,0.2885452210903168,0.9567575454711914,0.0,0.0,0.0,1.2876351881353483,-3.6538942433273567,-4.2595508916235945,0.590436523,0.1110618114471435,0.016336726304261074,-0.1226879087795344,0.05056087987686743,3.604584648185983,-7.915106236769088,2.7270005060156275,-0.03032850822630258,-0.06716194925681648,0.5868423776322009,0.003267064802058073,-0.009509531522094328,-0.006369854095702898,-26.62223211050494,80.68792262790811,77.2501334416256,-0.0037904050710298896,0.011861672969479119,0.19125408532699456
5682,1724814846949948062,-0.7461065649986267,0.3693671226501465,0.1111329942941665,-0.0040462147444486,-0.0367155782878398,0.2882872819900512,0.9568313360214232,0.0,0.0,0.0,-5.963619519267354,17.625162550907362,20.449259809013483,0.612581154,0.1111329942941665,0.05900570803578361,-0.03619150657479659,-0.02677527625808038,-7008.787164444453,-14647.397427685937,5678.174891135962,-0.02898335250724507,-0.06798063562796862,0.5862722537160027,0.08868276188559321,-0.2596298732835294,-0.30368095903725134,-893.5631815179331,2599.5835395961185,3064.9924629272136,-0.0011313162735214414,0.0007750310743507559,0.19125408532699456
5684,1724814846950203863,-0.7460836172103882,0.3692999482154846,0.1110544055700302,-0.0041266260668635,-0.0372477769851684,0.2884574830532074,0.9567590355873108,0.0,0.0,0.0,-6.193866657093499,18.29498065306238,21.239047547671362,0.612836955,0.1110544055700302,-1.7545646937467647,-3.826302878516732,1.4424960361861072,-6880.407694773069,-14378.607150019614,5574.169459998525,-0.029459419488993156,-0.06894819732772767,0.5866705238454727,0.08712824303759481,-0.2550358846554184,-0.29834992184344905,-871.8104206151372,2535.6371517105617,2990.514089485778,-0.0916643862480044,0.24202887510829885,0.19125408532699456
5686,1724814846958861306,-0.7460856437683105,0.3693095743656158,0.1110722124576568,-0.0040769446641206,-0.037060547620058,0.2884438931941986,0.956770658493042,0.0,0.0,0.0,-5.451735674705033,15.964126692788046,18.709300396802995,0.621494398,0.1110722124576568,0.02335160941549695,0.03818481324656931,-0.004027247020421388,112.53367594919305,243.27283831260095,-94.09334980144222,-0.029254187198203198,-0.06861878586671954,0.5866259088098424,-0.0007189550104200748,0.0017293616978797388,0.002284040598824255,293.977487512064,-866.4003551521178,-1002.1936678842067,0.0005605825882891427,-0.0009585624721193785,0.19125408532699456
5688,1724814846969099931,-0.7460988759994507,0.3693347573280334,0.1110983490943908,-0.0039116274565458,-0.03664505854249,0.2880426943302154,0.9569081664085388,0.0,0.0,0.0,0.0798735142473403,-0.13749881108868822,-0.14874896293819193,0.631733023,0.1110983490943908,0.0515123667921321,0.06965286912934102,-0.08359549061260949,-9.566098605279196,-7.045135566547768,4.351821137805013,-0.028666853779401962,-0.06793071338471371,0.5857476216314536,0.00031597947921824243,-0.0006373701960349365,-9.19650321558052e-05,247.70182445521007,-729.6082674448584,-857.1444588025836,0.00045540697274029976,-0.002614417861575737,0.19125408532699456
5690,1724814846978077409,-0.7460833787918091,0.3693046569824219,0.1110767051577568,-0.0043893530964851,-0.0371285565197467,0.2882409691810608,0.9568278193473816,0.0,0.0,0.0,0.0006198869222601121,-0.05150573160917939,-0.0924350074769637,0.640710501,0.1110767051577568,-0.1313188671666205,-0.07324499876480665,0.050902765347780314,-2.3997672223960747,-4.311857501767108,5.2398461744255,-0.02987831087388979,-0.06857462123975203,0.5862248353788407,0.0008661006934111981,-0.001134514501041295,-0.0007715350011499034,-4.900191857369346,1.5272969300500412,4.376506865137529,-0.0005810835663470515,0.003460362714638529,0.19125408532699456
5692,1724814846990478358,-0.746087372303009,0.3693285882472992,0.1110952198505401,-0.0036362570244818,-0.0364401116967201,0.2879700362682342,0.9569389224052428,0.0,0.0,0.0,0.007136783023481027,-0.17048671607806154,-0.07064559063752002,0.65311145,0.1110952198505401,0.14667419371452525,0.07208550465936532,-0.05099612036218435,-7.312612029900467,-4.988630846534308,4.58471982017827,-0.028014501710896523,-0.06769935777208114,0.5855651967538255,-0.0001652798216582596,-0.0017069227609667337,-0.00220453418174138,2.5226757481123947,4.18501495297169,14.080378802736341,0.0008973276795494006,-0.0014380927943318752,0.19125408532699456
5694,1724814846999256450,-0.7460878491401672,0.3692910075187683,0.111052893102169,-0.003981243353337,-0.0368854328989982,0.2882437705993652,0.956838071346283,0.0,0.0,0.0,0.04169067351810279,-0.04812943321272356,0.12952570087290077,0.661889542,0.111052893102169,-0.10224586830946865,-0.0755220742816043,0.06879425664974088,-7.12390153505552,-5.477077580361792,4.163724080425738,-0.028954436030364055,-0.06834482996486069,0.5861891604751398,0.00045849716934753815,-0.0039760007500042605,-0.002545613489703946,-0.5422399522775669,21.55108652592351,15.94743289208841,-0.0027372270591402566,0.002666552045971833,0.19125408532699456
5696,1724814847008192298,-0.7460790872573853,0.3692582547664642,0.1110508516430854,-0.0038405740633606,-0.0369411706924438,0.2883330583572387,0.95680969953537,0.0,0.0,0.0,-0.003894178171342636,0.21369124304842188,0.20966366697980315,0.67082539,0.1110508516430854,0.02724131450963523,-0.021325580325927806,0.019741018517495386,3.4456711991507647,4.124877253870048,-4.569396753789372,-0.028723480693443295,-0.06853024016856332,0.5863715235095748,0.0005638764176794098,-0.0024925159209807646,0.00014348006068320984,-3.222416609390939,12.856772015793895,-3.1998793014745175,-0.0012242398699809393,0.002852813119563446,0.19125408532699456
5698,1724814847017554830,-0.7460778951644897,0.3692464232444763,0.1110558435320854,-0.0040545896627008,-0.0370151400566101,0.2882618606090545,0.9568274021148682,0.0,0.0,0.0,-0.015632630613238156,0.17276149505217303,0.060341380618674036,0.680187922,0.1110558435320854,-0.04884622117100442,-0.0017387259286018562,-0.014014378369152725,1.4808658095891793,2.075924759596818,-3.271511671036465,-0.029171833386816542,-0.06855030883694323,0.5862405232849792,0.0003735335885117763,-2.4140446923226477e-05,0.0012111459125998536,3.311433110068772,-50.46886384057232,-56.05780218255044,-0.0005551465413163152,0.0007635287004215484,0.19125408532699456
5700,1724814847029151050,-0.7460700273513794,0.3692639470100403,0.1110796257853508,-0.0034915711730718,-0.036715917289257,0.2880224585533142,0.9569131731987,0.0,0.0,0.0,0.08833663126135045,-1.0745722698976605,-1.1657936755657274,0.691784142,0.1110796257853508,0.10631952418200756,0.0221025974918741,-0.04715639440705613,6.884912352175866,0.5639215607077819,-0.6240357676279347,-0.0279009604628854,-0.06830970024653231,0.5856852250224511,0.00025972553127928677,0.0006739110863156483,0.0011396716997498224,-2.8551507507671197,44.42014598575766,59.12809004923266,0.001537444681029455,-0.00041675520095343677,0.19125408532699456
5702,1724814847051268785,-0.7460819482803345,0.3692435324192047,0.1110663935542106,-0.0035780330654233,-0.0370639748871326,0.2883694767951965,0.9567949771881104,0.0,0.0,0.0,-0.47348698967365976,6.3194449189633985,7.096875893714184,0.713901877,0.1110663935542106,-0.015431645740005757,-0.028367212779375553,0.03328267495487667,-7569.328483363948,-2253.361023988858,-328.67764964920025,-0.02829405615817301,-0.06891619826619011,0.5864405402221514,0.006354090972763515,-0.070964162661312,-0.07356480561207945,-89.42486087197972,888.093601676821,953.3404084258946,-0.0009986269520007363,0.0001048945095625698,0.19125408532699456
5704,1724814847051537284,-0.746080219745636,0.3692242503166199,0.1110464036464691,-0.0038191527128219,-0.0372265316545963,0.2883522510528564,0.9567928910255432,0.0,0.0,0.0,-0.49770615651862904,6.559702218415672,7.354736552601935,0.714170376,0.1110464036464691,-2.072442700758582,-0.6407296805808902,-0.05605010874777204,-7364.560889756148,-2191.872219035795,-320.2424582574014,-0.028849803051295097,-0.06908858866579794,0.5864303506376071,0.006224518764820441,-0.06923624290722441,-0.07162516052849444,-85.94220220309649,856.6704358850619,917.6875622851935,-0.03943690306502231,0.05042274814380893,0.19125408532699456
5706,1724814847058489230,-0.7460753321647644,0.3692069947719574,0.1110570430755615,-0.0035395161248743,-0.0367514826357364,0.2882396578788757,0.9568462371826172,0.0,0.0,0.0,-0.3283988956805342,5.64899931580869,6.050129916940353,0.721122322,0.1110570430755615,0.11523335685657692,0.10825906514613334,-0.03789052690108383,183.28308277088453,57.49034671562866,3.5541583970742185,-0.02802911101370878,-0.06834376963743076,0.5861449498435394,4.1772833718312086e-05,-0.0012735437720117204,0.0030314510615481183,29.16308799612904,-311.0860635810488,-354.9849385448243,-0.0006809422414332636,0.0018420669859456984,0.19125408532699456
5708,1724814847068502706,-0.746084451675415,0.3692116737365722,0.111109048128128,-0.0032178659457713,-0.0368669442832469,0.2883045971393585,0.9568233489990234,0.0,0.0,0.0,0.03298859300167745,-0.06348523375827866,0.08213544740472978,0.731135798,0.111109048128128,0.05528444643925433,-0.040797503041338286,0.011285665419625642,-9.623543439005186,-18.858423694254668,9.274604964024975,-0.027484054477283047,-0.06874899846759171,0.5862695268886005,0.004844168096596491,-0.004233200464661024,-0.004013796830904859,-8.433308293858918,-275.5204387296043,-268.0887125522385,-0.00014217497002698139,-0.0013905763554784274,0.19125408532699456
5710,1724814847078951887,-0.7459710836410522,0.3691161870956421,0.1109667122364044,-0.0032489006407558,-0.0383977778255939,0.2890712916851043,0.9565317630767822,0.0,0.0,0.0,-0.5406090359631738,0.2737414474887604,0.8562810638540179,0.741584979,0.1109667122364044,-0.08492793221079556,-0.28117166957529904,0.15577774794202412,2.8502562805177707,24.373847579452196,-13.051799790226909,-0.02849167168488165,-0.07164032508231619,0.5879831783778962,0.00031916447268542925,-0.0023659817559185115,0.005411733721849998,0.6032082766027953,-6.715572866928586,-20.725257918863633,0.002973423615272224,0.015081713234072343,0.19125408532699456
5712,1724814847087816010,-0.7460474371910095,0.3691461384296417,0.1111578047275543,-0.0033286400139331,-0.0370855145156383,0.2883904874324798,0.9567887187004088,0.0,0.0,0.0,-0.11795034050092101,-0.0789612032202574,-0.04036943418749522,0.750449102,0.1111578047275543,0.0626701275880678,0.29113997885971415,-0.16203840092399735,19.51521831545427,23.55261369800426,-14.880159580520765,-0.02782983001646693,-0.06910108696168528,0.5864709956185359,-0.005281661530396775,0.0007751967504461277,0.012657864840072364,44.043199983630615,-36.27133739555987,-72.74114827773188,-0.0038032596288465844,-0.010592411571307355,0.19125408532699456
5714,1724814847097635819,-0.7460630536079407,0.3691254258155823,0.1111852824687957,-0.0020810356363654,-0.0363242849707603,0.288065105676651,0.9569194316864014,0.0,0.0,0.0,0.27496117968443873,-0.3968619097042774,-0.4455724447319114,0.760268911,0.1111852824687957,0.2854624361838388,0.07626813176971879,-0.07999181371517053,-1.0765167058337162,-15.461336502661638,7.824248950042978,-0.024971219960505615,-0.06837314108758534,0.5856640603641248,-0.0008494005987174091,-0.0047141937613091045,0.0029294395257633,21.281009493846312,-12.798322950647208,-11.508895016765619,-0.00229417796782674,-0.0003575100003850958,0.19125408532699456
5716,1724814847107348304,-0.7460641860961914,0.3690546154975891,0.1112149953842163,-0.0018452345393598,-0.0363158360123634,0.2880311608314514,0.95693039894104,0.0,0.0,0.0,0.3017152208695293,-0.3331206019741654,-0.27151649237463427,0.769981396,0.1112149953842163,0.04671642794784399,-0.012225929274477403,-0.009099522728535854,-11.771276276326658,-6.921639788688839,3.3254197460484285,-0.024511630386385482,-0.06849402807685367,0.5855783872621977,0.0001266176362690885,-0.007011041728937073,0.003838443028242544,5.353958573816842,3.611516046453719,2.969798329082245,-0.003907528871094639,0.003705177287565998,0.19125408532699456
5718,1724814847117882539,-0.7460600733757019,0.3689839541912079,0.1112643331289291,-0.00140213558916,-0.0365142524242401,0.2879467904567718,0.95694899559021,0.0,0.0,0.0,0.3878140441059468,-0.32879621978727896,-0.41105530802619167,0.780515631,0.1112643331289291,0.06907669711799516,-0.06012130262364158,-0.019469970885978682,2.1806144321048704,-14.205226766891597,8.51370764234026,-0.023770882188916518,-0.06913212695235438,0.5853881880243897,0.005604045219193665,-0.011624334238337752,-0.003193318013342328,-36.14748660130485,25.239262230882936,56.11205733949883,-0.0030491891537733295,0.0036895166154370307,0.19125408532699456
5720,1724814847127983926,-0.7459529638290405,0.3688189089298248,0.1111557781696319,-0.0005561434663832,-0.0378160588443279,0.288731575012207,0.9566627740859984,0.0,0.0,0.0,-0.40663064322119047,0.16665471289819078,0.827581104160029,0.790617018,0.1111557781696319,0.09166559635950108,-0.2971700027471919,0.15853254143101028,0.7173012225832642,0.18166037120060974,3.1152309547864467,-0.022963129718153976,-0.07209571936487254,0.5870634389194883,0.008241453353939221,-0.01388849472106557,-0.004861393870378983,-40.96456436631695,20.901647350410894,51.67710026833656,-0.0009958111665664762,0.018611718897451914,0.19125408532699456
5722,1724814847137877879,-0.7458943128585815,0.3687052428722381,0.1111647114157676,-7.29714593035169e-05,-0.0380091704428195,0.2889782786369324,0.9565808176994324,0.0,0.0,0.0,-0.4467591059814181,0.10069637448937097,0.6513758019505111,0.800510971,0.1111647114157676,0.08404305861342742,-0.066199255701569,0.048776563174891666,2.82224082601277,30.060514259103776,-17.777355344990774,-0.02216768557243308,-0.07273964029308304,0.5875620272418453,-0.002252499603208946,-0.008452481591699978,0.012946830746872529,43.98411991533638,-32.843933483294535,-81.46443350495545,-0.0013652037759126119,0.01120652697586639,0.19125408532699456
5724,1724814847147633937,-0.7459949851036072,0.3686519861221313,0.11140688508749,0.0002328156115254,-0.0364421233534812,0.2881230413913727,0.9568997025489808,0.0,0.0,0.0,0.44450117885811613,-0.47155978526926,-0.7557628244468046,0.810267029,0.11140688508749,0.1461387433188137,0.2916801686179284,-0.18896212010462718,5.504767558368895,-7.826117659309103,1.485291674990024,-0.02060589191593924,-0.06993406441678232,0.5856532145200027,-0.0007054912450996653,-0.011786916616358667,0.008252694690890294,20.348100581445202,0.7061669658489915,-26.068592885398523,-0.009853699251234409,-0.007296028664085531,0.19125408532699456
5726,1724814847158274988,-0.7458909153938293,0.3684531152248382,0.1113023832440376,0.0016720690764486,-0.0377127081155777,0.2888059318065643,0.9566431641578674,0.0,0.0,0.0,-0.16309747183025333,0.2249368300665312,0.3382861049911562,0.82090808,0.1113023832440376,0.1947330520954277,-0.3081827317065552,0.1269082567717081,-3.7488565272134355,-14.276436884183834,9.489029487467143,-0.018635121177782064,-0.07318633219881808,0.5870713848088178,0.0073430898727764315,-0.018311063200691535,-0.0029766509695425825,-49.72091350451359,60.45100175091541,66.62388791530537,-0.0029219830430118215,0.019149170062805206,0.19125408532699456
5728,1724814847167782759,-0.7458418011665344,0.3682822287082672,0.1113322228193283,0.0021846329327672,-0.037984125316143,0.2890282571315765,0.95656418800354,0.0,0.0,0.0,-0.5731500979638107,0.7571918947680404,0.664289104724987,0.830415851,0.1113322228193283,0.0884477246030236,-0.08630572887072975,0.04556660892171486,-6.8529594824703475,29.468337803376926,-16.396668273530253,-0.0178272166566667,-0.07399886501608371,0.5875206649442887,-0.0020186583819281623,-0.00905304205757318,0.012078345158013093,12.03143586683898,2.2544343433297627,-44.80932005098701,-0.005415589398100443,0.014004943211955381,0.19125408532699456
5730,1724814847177729014,-0.7459366321563721,0.3682850003242492,0.1115453764796257,0.0021439157426357,-0.0366007946431636,0.2880959510803222,0.9568994641304016,0.0,0.0,0.0,0.12045104014488117,0.22059165462868208,-0.604400965827921,0.840362106,0.1115453764796257,0.06529648845315351,0.2705966063313603,-0.19910817053977406,-2.115349106989061,8.118136434492833,-5.567022218071322,-0.017030200146642957,-0.07134237200191268,0.5854883873887039,-0.003437800751914466,-0.003774910082755767,0.009121792294827902,39.301788757957645,-43.02173850805076,-51.09002040447431,-0.006244903145740695,-0.0095544568727014,0.19125408532699456
5732,1724814847192200680,-0.7458580136299133,0.3681450188159942,0.1114182099699974,0.0027926578186452,-0.0378818437457084,0.2889412045478821,0.9565929770469666,0.0,0.0,0.0,0.04841136389580869,-0.17189871373451504,0.26628436799435184,0.854833772,0.1114182099699974,0.03915373895234572,-0.19654139111966856,0.1210810509026506,-2.595391202687038,10.426329015757386,-4.939665400778809,-0.0165947452150235,-0.07415678804066807,0.5872929197013488,0.0038458567285886147,-0.007111515177832928,-0.006092230704529911,-21.818751402406214,-7.910504301343099,70.43996865225108,-0.0014862077363946003,0.01048172020600483,0.19125408532699456
5734,1724814847197946370,-0.745839536190033,0.3681100010871887,0.1113893538713455,0.0028835125267505,-0.0379712283611297,0.2890284061431885,0.9565628170967102,0.0,0.0,0.0,-0.11536980368163126,-0.173526105236608,0.6944503705986592,0.860579462,0.1113893538713455,0.0224417470785826,-0.03921386446985732,0.030958427204632464,-1.8288154522847433,14.98859753052017,-8.529432402946327,-0.016479312159909634,-0.07437912613913299,0.5874749978471955,0.0030863048011156025,-0.007965370202562383,-0.001556558818657905,-10.677685754992101,-43.66075367827135,51.86772646093992,-0.0010725558154179458,0.0063971077768617025,0.19125408532699456
5736,1724814847207429326,-0.7458122968673706,0.3680051863193512,0.1114288344979286,0.0030968859791755,-0.0383548662066459,0.2893126308917999,0.9564610123634338,0.0,0.0,0.0,0.06239226284284659,-1.2664656112225665,0.8317840732826629,0.870062418,0.1114288344979286,0.02199921496601874,-0.09104561326067803,0.06207082653596566,-0.7936819949796259,-2.3247798584876795,1.3223708391296198,-0.01631586679978403,-0.07523275385496862,0.5880794816084688,0.002255592303134435,-0.010000908045394219,0.0035427500084801444,12.960452879714706,-35.71974225851379,-7.349991926873484,-0.003418379742565263,0.008204833435906504,0.19125408532699456
5738,1724814847225747586,-0.745792806148529,0.3678592145442962,0.1114717721939086,0.0029842893127352,-0.0386026054620742,0.2894541621208191,0.9564085602760316,0.0,0.0,0.0,0.09510127923703982,0.8935322551627998,-0.07539553549618816,0.888380678,0.1114717721939086,-0.018973152236972993,-0.02248584614121979,0.016991788990229698,261.62461113665154,-31.143996969374484,-45.399973129313814,-0.016687456664869548,-0.07563946028046585,0.5883983808589138,0.00870607417920155,-0.07041924172227709,0.029184676994901793,-45.7187181585884,496.36674235146035,-186.7590773187207,-0.0033505185756048388,0.005127372173463776,0.19125408532699456
5740,1724814847227849865,-0.745772659778595,0.3676961064338684,0.111539602279663,0.0036150738596916,-0.0385182648897171,0.2893886268138885,0.9564295411109924,0.0,0.0,0.0,-0.012473407309851761,2.0283412447953575,-0.501125590578793,0.890482957,0.111539602279663,0.5946955885727045,-0.09637619798222721,-0.08881137300935209,229.9739097150369,-28.792732051229027,-40.43976445492719,-0.015423318233996333,-0.07584503046054025,0.588214344282196,0.008843990297247473,-0.06752945050064518,0.028670259370929596,-46.83842172246484,455.51633923178474,-173.8995450252966,-0.03253267528169468,0.04861007456735285,0.19125408532699456
5742,1724814847237370761,-0.7457203269004822,0.3674868047237396,0.1116575673222541,0.0042748665437102,-0.038799975067377,0.2891916036605835,0.956475019454956,0.0,0.0,0.0,-0.27162333488548285,2.7310910466849894,-0.9232110569828513,0.900003853,0.1116575673222541,0.11380611550655621,-0.09648943568069271,-0.04747354574385475,-15.90888308965512,1.486777779956593,3.749238533777135,-0.01430627207077017,-0.07677031257232385,0.5877747735858716,0.005358675620843911,-0.020029345153158573,0.012842159929274288,-10.155143600368822,-69.4577821403183,13.522385005363006,-0.0066431700224247265,0.01584041955273561,0.19125408532699456
5744,1724814847249075576,-0.745659589767456,0.3672804832458496,0.1118143871426582,0.0067566493526101,-0.0384014323353767,0.2892180681228637,0.9564688801765442,0.0,0.0,0.0,-0.14494289733092297,-0.1434965406871347,0.06758004839367893,0.911708668,0.1118143871426582,0.4254781536132706,-0.05752156781705852,-0.012116176676976833,-0.40480477059763764,0.2549908917932049,0.7167971218503386,-0.009315783777867482,-0.0774452332725721,0.5876406150849289,0.0035384329145884408,-0.02055356510647499,0.012673690624620981,8.35707947040563,-94.86477814929518,46.58326316587487,-0.004400900087054949,0.013135252951496718,0.19125408532699456
5746,1724814847259242567,-0.7456381916999817,0.3670456707477569,0.1119368448853492,0.0077702333219349,-0.0385311134159565,0.2891283333301544,0.9564830660820008,0.0,0.0,0.0,-0.0817530283614933,0.22310210711514644,0.20503244169218116,0.921875659,0.1119368448853492,0.1826329183823104,-0.08207822016390522,-0.02517524083407198,-20.456517883625434,-4.1559734286109995,-2.7509663270357243,-0.0074395316913448825,-0.07828183216008404,0.5873908686964294,0.002158140424000976,-0.02288422076552976,0.014084699195556993,7.9021238433388685,35.524442528375886,5.252488151726491,-0.010071718169622686,0.013700679476741027,0.19125408532699456
5748,1724814847268056844,-0.7456187605857849,0.3668455779552459,0.1120765805244445,0.0080689927563071,-0.0390491522848606,0.288873016834259,0.9565367102622986,0.0,0.0,0.0,0.0007891880129675538,0.5321492221182809,0.18815679837260513,0.930689936,0.1120765805244445,0.028527392180930037,-0.13201130886960538,-0.06062941022305952,-7.153092993048626,2.4653897412486923,-3.3211560132269864,-0.007146521148656426,-0.07944928065042953,0.5868633084957529,0.0018502594561908836,-0.01746116527512598,0.016398157459390106,5.574510198617646,9.717533448751047,-19.90749634155914,-0.00944298995109189,0.013279132626232511,0.19125408532699456
5750,1724814847277719770,-0.7456046342849731,0.3667323589324951,0.1122408062219619,0.008434023708105,-0.0390516929328441,0.2884909212589264,0.9566487669944764,0.0,0.0,0.0,0.014505724523698887,0.3575667750457905,-0.19481193127891883,0.940352862,0.1122408062219619,0.06884185760300779,-0.022060651479278416,-0.08529347315099785,0.2927024718656377,0.001979427334140027,-4.332227325810871,-0.0064157143416487955,-0.07966803503206024,0.5860379776136996,0.002236266745335058,-0.013199442866106637,0.017429111904296413,-2.0981947190155292,-5.487939169572787,-34.57552474459382,-0.003892948034408203,0.006502009347240146,0.19125408532699456
5752,1724814847287694431,-0.7455743551254272,0.3665854334831238,0.1124191209673881,0.0088146748021245,-0.0396637618541717,0.2877905666828155,0.9568310976028442,0.0,0.0,0.0,-0.04264284827617072,0.4323486670823943,-0.4876191626508873,0.950327523,0.1124191209673881,0.03181767485371477,-0.1391798381647969,-0.14683144273712473,5.416777545845188,-0.5342187644861559,0.9454071953276495,-0.005981080464100062,-0.08106536101330125,0.5845773186044133,0.002118998995797483,-0.010492298203139683,0.012381510531908724,-0.3015636395359813,1.7143761951243057,-2.152631755191594,-0.0041311206650526565,0.009379553520225922,0.19125408532699456
5754,1724814847298101098,-0.7455622553825378,0.3665222525596618,0.1124883070588111,0.0097940433770418,-0.0394953116774559,0.2875305712223053,0.9569067358970642,0.0,0.0,0.0,0.01315070730605944,0.3874034229716703,-0.21467319370256222,0.96073419,0.1124883070588111,0.1873009975846693,-0.02305567110658093,-0.059744393639057966,2.111815041731165,3.7752601015233074,3.841099403838896,-0.003981410791683429,-0.08130839276448487,0.5839547647488109,0.0013398848557955034,-0.004245531807264058,0.007507048412492168,4.437210264189176,-13.86526155248181,25.111244314105118,-0.0018293818173661354,0.0038472954176509352,0.19125408532699456
5756,1724814847308229977,-0.7455469369888306,0.3664972484111786,0.1125728115439415,0.0102894622832536,-0.0396515019237995,0.2872268259525299,0.9569863080978394,0.0,0.0,0.0,0.04898425247399463,0.15285089888205317,0.028666107007679797,0.970863069,0.1125728115439415,0.08221726609785232,-0.05760553470572603,-0.06547068536433555,-1.6169738948203385,-1.4799838652165986,-0.05138279545578106,-0.0030945773038749415,-0.08189421684892483,0.5832914950716438,0.002340808177116571,-0.0024200745463041073,0.00783399725629863,0.810682074942747,-12.921385177511919,10.387124952139498,0.0005854472443048508,0.002033323638715928,0.19125408532699456
5758,1724814847318409978,-0.7455146312713623,0.3664731085300445,0.1126473546028137,0.0111358426511287,-0.0396789200603961,0.2869594395160675,0.9570558667182922,0.0,0.0,0.0,0.029335221264486733,0.1260337136686964,-0.005120158239739769,0.98104307,0.1126473546028137,0.15535974987619228,-0.052914550167555106,-0.06073523869763435,1.4691799061780797,4.100245267236164,-0.30002887743142903,-0.0014622000739892788,-0.08243428756034413,0.5826723049174569,0.002329592022874749,-0.0011441069426929573,0.008088854623509611,1.0782292868660273,-5.015857023158352,-7.85881831133827,0.0019433618123808165,0.003436059941036705,0.19125408532699456
5760,1724814847327848330,-0.7455000281333923,0.3664730489253998,0.1127304062247276,0.0116635290905833,-0.0394341424107551,0.2866652607917785,0.957147777080536,0.0,0.0,0.0,0.06583754588797537,0.05785192308233841,-0.11902219308760686,0.990481422,0.1127304062247276,0.11920946927986334,0.017632793660484092,-0.0702630826692401,6.130308295122257,-1.3192274476485335,1.0631283734106485,-0.0002823103693538245,-0.08226842940090978,0.5820066554594134,0.0028728143198719636,5.150871827908077e-05,0.0077766480808803,26.2767604079195,-50.91523684619508,36.33246325765388,0.002007745164217751,0.0006861707484106146,0.19125408532699456
5762,1724814847337353294,-0.745460033416748,0.3664740920066833,0.1127945333719253,0.013019822537899,-0.0394199155271053,0.2865283489227295,0.95717191696167,0.0,0.0,0.0,0.5301001905863648,-0.8443109808300616,0.6896080316950327,0.999986386,0.1127945333719253,0.2728197714649299,-0.07908076764558451,-0.040318966186622486,11.672451592151164,-7.72459438232221,2.629859274121204,0.002342640930238346,-0.08301970158582743,0.5816213857591237,0.003577880816051149,-5.7401099192944116e-05,0.005822689442643192,64.66988993352686,831.2343836821656,1896.401534070442,0.004123338441505828,0.0029846936650780673,0.19125408532699456
5764,1724814847373889112,-0.7454177737236023,0.3664485216140747,0.1128775030374527,0.0143270213156938,-0.0393552184104919,0.2862705588340759,0.9572331309318542,0.0,0.0,0.0,5.115404685528688,159.5928393088831,324.3568312748952,1.036522204,0.1128775030374527,0.06890730950367734,-0.017164886033600293,-0.017334276271737017,204.10132214046894,-4396.890811739664,-771.3095493707128,0.004913315670648607,-0.08364454782172616,0.5809836773992646,0.08697459513678041,-0.1478698606412081,0.15673617852559119,-32318.593497756534,18059.705468496657,-129708.25277219992,0.0007704512790915185,0.0011953878935118208,0.19125408532699456
5766,1724814847374315268,-0.7453802824020386,0.3663847744464874,0.1129450649023056,0.0144786369055509,-0.0397347137331962,0.2861946225166321,0.9572377800941468,0.0,0.0,0.0,-8.81862801580155,167.3570331769498,268.3921040398393,1.03694836,0.1129450649023056,0.15692858326974177,-1.9127903772501926,-0.3498695513449964,7338.8189296705705,350.59021672248446,-5825.868941734531,0.004993092434914192,-0.08445893054234078,0.5808298962830704,0.0891686365773694,-0.07904501504447126,0.2965545400581959,-33273.50138982575,-10266.204823759792,-187436.10453542357,0.004871918352158257,0.14467222144634095,0.19125408532699456
5768,1724814847374617874,-0.7453530430793762,0.3663760125637054,0.1130644604563713,0.015097769908607,-0.039670705795288,0.2857533395290375,0.9573627710342408,0.0,0.0,0.0,-19.01126005013136,158.12962244789202,199.61581909080329,1.037250966,0.1130644604563713,3.910248160516827,-0.7755590876035754,-3.196977605783569,11307.234416400494,3467.500814074808,-8575.482366351393,0.006258482840100809,-0.08468818556795389,0.5798577721191988,0.08349888769708969,-0.027143569546080215,0.36494357549878664,-30899.32802966346,-31641.867591817463,-215353.1185537929,0.09259885683791452,0.06434337597030657,0.19125408532699456
5770,1724814847378046197,-0.7453199028968811,0.366353303194046,0.113165371119976,0.0153680657967925,-0.0399030447006225,0.2853675484657287,0.9574638605117798,0.0,0.0,0.0,-16.830534363116417,5.034274031409074,-75.43786325718864,1.040679289,0.113165371119976,0.10241087141878791,-0.17587891498219252,-0.23652595542008667,-840.48704130291,135.2349452933504,656.9037519086146,0.006678992320385612,-0.08528589381340193,0.5790400270574992,0.00764665220038907,-0.004917343062297519,0.024503466718217126,864.8511237728867,-33874.128363813375,-58942.887028032375,0.006957070990490553,0.009698348329411634,0.19125408532699456
5772,1724814847388673098,-0.7453051805496216,0.3663572669029236,0.113263338804245,0.0158152151852846,-0.040023323148489,0.2850635647773742,0.95754212141037,0.0,0.0,0.0,-0.10435351332425757,0.22011619644513214,-0.614219836824113,1.05130619,0.113263338804245,0.07160567706176707,-0.04598009993912341,-0.0619899802382692,2.1585864804128994,4.269455962801549,7.587937457592643,0.007496714776043519,-0.08576984054968197,0.5783754034208772,0.0031987777458937217,0.0008555577715192442,0.00893928001713018,762.5895715417238,-238.61518442773632,3409.015701214243,0.0021486692247107086,0.00032821353218553283,0.19125408532699456
5774,1724814847398410280,-0.7452578544616699,0.3663699030876159,0.1133478879928588,0.0165750160813331,-0.0401783660054206,0.2847724258899688,0.9576093554496764,0.0,0.0,0.0,0.08222534068902829,-0.1904478547876544,0.17590029502396165,1.061043372,0.1133478879928588,0.13774593630692356,-0.07537398655089811,-0.06693958137702874,6.517791995937656,0.33120528840315555,-0.6709137987985665,0.00889477074188362,-0.08649839618418781,0.5777151085774465,0.004985902382550478,0.00011602152892820072,0.010545584774506622,5.372544287242977,-22.713353882406537,38.006532877942284,0.005512545309519544,0.002760643563005063,0.19125408532699456
5776,1724814847408636025,-0.7452055215835571,0.3663583993911743,0.1134757250547409,0.0176292601972818,-0.0400549583137035,0.2844406962394714,0.9576942920684814,0.0,0.0,0.0,-0.010913352249920072,-0.21382572406131056,0.1012929659214854,1.071269117,0.1134757250547409,0.2014446781078342,-0.036012848744074066,-0.07554624415235525,2.76040665002202,-2.648445878233115,0.17530969075755598,0.011022137591265848,-0.08685894432934944,0.5769360452084483,0.0047387593234233805,-0.0030610247221858344,0.012461716907911757,-0.23038491777799752,11.303369388922995,-4.641258671067211,0.004746403574286332,0.0040539586335071,0.19125408532699456
5778,1724814847417750891,-0.7451654076576233,0.3663147687911987,0.1135889887809753,0.0186536908149719,-0.0402853973209857,0.2841809689998626,0.9577422738075256,0.0,0.0,0.0,0.05911646614238303,-0.0003864703908900563,0.08055763999276233,1.080383983,0.1135889887809753,0.19842219889839904,-0.1129444519796662,-0.06568572935606717,-2.6469594327573978,-2.8903257235933366,-0.33771983926267257,0.012884246273080302,-0.08788117946628411,0.5763226733081129,0.004746980954710267,-0.004223019893085933,0.012685534703251733,0.14898309962285472,18.709453560600018,7.176963582955374,0.002168004080021811,0.005461514151069855,0.19125408532699456
5780,1724814847429249731,-0.7451058030128479,0.3662743866443634,0.1137386187911033,0.0195219200104475,-0.0404177345335483,0.2837084531784057,0.9578595161437988,0.0,0.0,0.0,-0.04846187408514363,0.1464669569644544,0.30019618622581135,1.091882823,0.1137386187911033,0.13439783433128713,-0.06567100105616062,-0.09016123341850653,4.320559843693008,-3.8595186687471053,0.8116167299588217,0.014522307086325929,-0.08862204950882017,0.575271625647262,0.006271230391092786,-0.002383751222485131,0.014424243708138107,-12.974898551590018,8.719643614518382,5.163291952405016,0.0035806792568098375,0.005382986395428831,0.19125408532699456
5782,1724814847438238742,-0.7450417876243591,0.3662608861923218,0.1138781979680061,0.0207775421440601,-0.0407759472727775,0.2834707796573639,0.9578883051872252,0.0,0.0,0.0,-0.1905263080609516,0.1963779941821881,0.24866932301036143,1.100871834,0.1138781979680061,0.2427215595851435,-0.15637412167592354,-0.06220527274315542,-2.1642273667613603,-9.356540485922457,0.8343919418550088,0.016756176055922993,-0.09001878503884563,0.574688240950198,0.004563588318717393,-0.0011619212954840918,0.018169654765825882,-3.3086845798073377,11.801012241581759,-13.305196513265665,0.0065361504903042105,0.005741414491797596,0.19125408532699456
5784,1724814847449394003,-0.7450262904167175,0.3662526309490204,0.1141174584627151,0.0213093608617782,-0.0420704968273639,0.2829954624176025,0.9579612016677856,0.0,0.0,0.0,-0.05445274945298509,0.4145236620646095,-0.0045907097638357985,1.112027095,0.1141174584627151,0.02179417195792858,-0.25058892773639874,-0.08440012321799852,3.4186046305629816,3.233144328924075,-1.4486925750098436,0.01708992239012403,-0.09279784208497788,0.5736954425634218,0.002430515810090128,0.0018656128438898634,0.018617961574086905,6.355063937809019,11.697048466165416,0.800874965867088,0.0027493711329626366,9.424086760413797e-05,0.19125408532699456
5786,1724814847458309057,-0.7449972033500671,0.3662878274917602,0.1142632737755775,0.0224313978105783,-0.042378582060337,0.282623827457428,0.9580317139625548,0.0,0.0,0.0,-0.03942741099782043,0.462814823300092,0.17000919164976003,1.120942149,0.1142632737755775,0.21773142405453855,-0.13855617282231927,-0.09346125889622055,4.652627045645059,1.4717974783809726,-0.7643495671252003,0.019111147853272024,-0.09401779431516505,0.5728362606364236,0.002919472601632833,0.006580833037364897,0.018257999596086982,0.5199121097486037,-1.4411301425917777,12.546975393529983,0.0063956765480778005,-0.0005364238013466187,0.19125408532699456
5788,1724814847468275357,-0.7449719309806824,0.366382747888565,0.1144664287567138,0.023139975965023,-0.0434490442276001,0.2821417450904846,0.9581089615821838,0.0,0.0,0.0,-0.04723098539283137,0.3720442910442692,0.21664370137078592,1.130908449,0.1144664287567138,0.07106739505847386,-0.24750166293608816,-0.09827093082581612,-2.040219312264602,2.450121050570404,-3.347191451106692,0.01991756849160015,-0.096464882669676,0.5718041962383384,0.00147617716154258,0.010457035804751769,0.022296379963187896,10.957765893201236,-10.81154161318403,-17.407166995906465,0.00921582799908711,-0.0044768139150849606,0.19125408532699456
5790,1724814847478478365,-0.7449679374694824,0.3664991855621338,0.1147138923406601,0.0241877902299165,-0.043571300804615,0.2813787162303924,0.9583019018173218,0.0,0.0,0.0,0.1872074156185752,0.2439373278407383,-0.1916615398319903,1.141111457,0.1147138923406601,0.18265379115403615,-0.08272867529878607,-0.16234404550582798,35.667902067912465,8.227190796188093,-0.5501698109512709,0.02194382730819696,-0.09727411239247125,0.5701226117231599,0.0020136039982077136,0.01407661956995554,0.022537225789005078,10.642354590938975,-18.30441429165591,-29.236394306577285,0.008813897189317957,-0.007545840296253453,0.19125408532699456
5792,1724814847488123649,-0.7449337244033813,0.3666592538356781,0.1149156168103218,0.0277907233685255,-0.0428862795233726,0.2809926867485046,0.9583483934402466,0.0,0.0,0.0,0.17738460224205543,0.014969951560684591,-0.375346549501148,1.150756741,0.1149156168103218,0.7521818437401436,-0.0756106309049954,-0.11540731707633953,12.717374473685918,-1.6999495508395643,0.7739609910487069,0.029309664185330285,-0.09797464260219439,0.5689857762534841,0.005045960380741121,0.015419009668381278,0.018725782026413285,-8.056490351684795,-11.874972720520754,-10.649294016749666,0.013918142848672209,-0.007396100280328923,0.19125408532699456
5794,1724814847498267396,-0.7448665499687195,0.3668031096458435,0.1150822192430496,0.0298737008124589,-0.0428911596536636,0.2803244292736053,0.9584811925888062,0.0,0.0,0.0,0.020579525705050783,0.021076088410749594,-0.39381557504599884,1.160900488,0.1150822192430496,0.3869373210472156,-0.11886226867641958,-0.15121327406457738,-36.63710924813717,-2.3331771518773303,-1.7896690972135776,0.033389983480476955,-0.09913167886581217,0.5674071980276799,0.00538376244112726,0.014245836788447264,0.015129745643601922,-0.3791871063933314,14.762566310430845,-2.9183932402865658,0.014767106484186799,-0.0031754093100578567,0.19125408532699456
5796,1724814847507802155,-0.7448263168334961,0.366939514875412,0.1152148768305778,0.0302164126187562,-0.0433923974633216,0.2796155214309692,0.9586548805236816,0.0,0.0,0.0,0.15210807849656507,0.28874565056267154,-0.4314793727900171,1.170435247,0.1152148768305778,0.03196285024758968,-0.1238050230587018,-0.1526812128337104,-15.725899842103901,1.2207366249723934,2.6042481782210443,0.0338442438294517,-0.10026252146215069,0.565905042242244,0.005465964639114418,0.015672219707095536,0.01102251878401983,7.897159120411195,23.606499103791066,12.626331014622245,0.012568660086201285,-0.005085654740636961,0.19125408532699456
5798,1724814847518210042,-0.7447552680969238,0.3671181499958038,0.115296758711338,0.0309322904795408,-0.0436694175004959,0.279156357049942,0.9587534070014954,0.0,0.0,0.0,0.1672997323618221,0.48369531763194085,-0.11174095858947647,1.180843134,0.115296758711338,0.11259141128812426,-0.09134153210448127,-0.09424061045751843,13.322880885762341,2.9939545657253004,1.999883819921588,0.03511847136598407,-0.1011788389483978,0.5648869747366507,0.008679237115821081,0.020258301673059975,0.006523598055201418,-16.12656904712008,-5.257184864159443,32.935210900539964,0.01567204619008074,-0.00402014527158108,0.19125408532699456
5800,1724814847528843126,-0.7446428537368774,0.3673671782016754,0.115351527929306,0.0326533876359462,-0.0434938818216323,0.2786467969417572,0.9588524103164672,0.0,0.0,0.0,-0.19521700212210408,0.16720837673796463,0.2625176007965947,1.191476218,0.115351527929306,0.31482777164650394,-0.060866297367363195,-0.11224757096393896,-4.54140491677493,-3.7446675086175274,-5.121596878441425,0.03858993841306653,-0.10178159386434728,0.5636639761601823,0.00892172298469518,0.02586924266640267,0.008817302463591581,-19.900514194602255,-29.837380300301888,19.215784481868347,0.021862072552220124,-0.004026842052182731,0.19125408532699456
5802,1724814847537977760,-0.7445743083953857,0.3676227033138275,0.1154608428478241,0.0332646891474723,-0.0439971014857292,0.2778280079364776,0.9590460658073424,0.0,0.0,0.0,-0.2656252881533333,-0.10591818712678935,0.3126322019345069,1.200610852,0.1154608428478241,0.08845270870279656,-0.14694929249219016,-0.1859330855374126,-18.13330580515553,-2.8177750696076034,-2.878784713064859,0.03957774594338053,-0.10305654323235423,0.5619052289292606,0.005427593215816984,0.0245678272541614,0.011582589428244638,7.174817923266519,-10.019197851677799,2.0363780672104337,0.022372560935849193,-0.009461095168366513,0.19125408532699456
5804,1724814847549270420,-0.7445420026779175,0.3678525984287262,0.1155862733721733,0.033309455960989,-0.0444751754403114,0.2770150899887085,0.9592576026916504,0.0,0.0,0.0,0.023167002229004252,0.058486139443389984,0.2874667827169475,1.211903512,0.1155862733721733,-0.02350051098913161,-0.08654592859363443,-0.14601754756688426,4.335099630018508,5.843552858168676,-3.65611346218615,0.03948753881925489,-0.10396794706427026,0.5602099038107753,0.004059810135622399,0.023882017486197782,0.015251340734899088,22.4494442571363,-2.3397084965536266,-21.685015512084743,0.014322173937219079,-0.00921205829313466,0.19125408532699456
5806,1724814847558207434,-0.7444972395896912,0.368090957403183,0.1157518848776817,0.0338905304670333,-0.044429488480091,0.2760494351387024,0.959517776966095,0.0,0.0,0.0,0.20170266303817427,-0.08194084456558337,-0.04394384625906389,1.220840526,0.1157518848776817,0.1160213428432475,-0.03082349067497,-0.2295507548454383,2.7661435580435025,2.652182166834809,-3.4830182252031356,0.04073967268550641,-0.10416093850834612,0.5581378695675466,0.005287370682076187,0.025247899585526312,0.0175558259280999,16.31628262944912,-7.867914542935358,-32.99712070179079,0.020200906465587615,-0.011216897639463156,0.19125408532699456
5808,1724814847567627028,-0.7444446682929993,0.368314653635025,0.115907572209835,0.0340527966618537,-0.0445651188492774,0.2751231789588928,0.959771692752838,0.0,0.0,0.0,0.3190499330156443,-0.07816592642803932,-0.3141985021062383,1.23026012,0.115907572209835,0.014543765421761942,-0.04141223210112916,-0.20414157954779807,-8.518949699063663,-1.8833776378500493,2.61354356460439,0.04107949137904516,-0.10447204452338826,0.5561899550093943,0.007826167550980756,0.02214514812184909,0.0141455287456278,7.074082232644477,16.267441990231923,-21.609966349795727,0.018907058012976142,-0.009003833717439376,0.19125408532699456
5810,1724814847578997734,-0.7443248629570007,0.3685444593429565,0.1160357147455215,0.0339314527809619,-0.0450111627578735,0.2741377353668213,0.9600370526313782,0.0,0.0,0.0,0.3255907723364838,0.32459190417514505,-0.4627293517040317,1.241630826,0.1160357147455215,-0.05138328206586359,-0.07324912255664318,-0.17557586500465241,4.007834036611814,1.249331421341167,0.3750659251312509,0.040708719532628126,-0.10522261109178017,0.5541498851040169,0.012133795690019156,0.02470468327349451,0.011229580243938386,-10.731574845679683,-4.309545102078693,-16.248756403051296,0.020669875210874322,-0.0025540683255512752,0.19125408532699456
5812,1724814847587724404,-0.7442082762718201,0.3687901496887207,0.1161334440112114,0.0342166014015674,-0.0450721532106399,0.2733603715896606,0.9602457284927368,0.0,0.0,0.0,0.15621302565177586,0.020892791363521956,-0.6258660988609479,1.250357496,0.1161334440112114,0.04926569563316813,-0.03522705241458101,-0.18661627718487436,22.802866352831956,10.598892785143118,1.0376186330422934,0.041312026887139267,-0.10546300331947284,0.5525009913343324,0.014618514236715896,0.028203638403436315,0.005809906952083388,-21.684090526513835,-22.182996955350276,22.595174612181626,0.027181372849518038,-0.004318286692096727,0.19125408532699456
5814,1724814847598163577,-0.7440399527549744,0.3690851926803589,0.1161267980933189,0.0361776240170002,-0.0436663478612899,0.2727507054805755,0.9604122042655944,0.0,0.0,0.0,-0.09855908367202015,-0.05310583841310068,0.1256176051728488,1.260796669,0.1161267980933189,0.4280377120274002,0.15336376363388377,-0.14702822709115554,7.148082384204386,4.179252527275096,0.6825176378339606,0.045934092079366225,-0.10379661093034767,0.5510294174909857,0.014644400752374054,0.023675693161543165,-0.0007837956242324751,-19.67598419080845,8.861515055614248,67.03242807494641,0.028315607950143186,-0.0011919832224767432,0.19125408532699456
5816,1724814847608406072,-0.7439048290252686,0.3692815899848938,0.1161172911524772,0.0371620804071426,-0.0430649183690547,0.2719650268554687,0.9606244564056396,0.0,0.0,0.0,-0.2525619631314826,0.19794875159357983,0.762406836383502,1.271039164,0.1161172911524772,0.208452677925357,0.056617716543861996,-0.17128896159565998,-32.41298179734872,-5.794584657040884,-10.996177233245144,0.04824829687963271,-0.10313473960190009,0.5492948586833885,0.012619517822166415,0.026957004610995483,0.008112826351858615,-4.340662596930742,-14.041778312694051,-3.090232785382918,0.021054084646963216,0.0011695817542598083,0.19125408532699456
5818,1724814847617624617,-0.743793249130249,0.3695946633815765,0.116267092525959,0.0363851636648178,-0.0430849902331829,0.2704101204872131,0.9610922336578368,0.0,0.0,0.0,-0.2038404225773352,-0.2513675195183833,0.19244705402535928,1.280257709,0.116267092525959,-0.18140163334107579,0.033492029994256545,-0.34424008765091535,-12.344132940196614,-6.775500023948464,4.483852910499836,0.04690187327494951,-0.10267544187928031,0.5461230541092779,0.00983602923148652,0.0277661419866142,0.014260035081347766,14.107809697316322,-28.269305756208993,-60.26831577189543,0.029500193629354847,-0.008496008148678083,0.19125408532699456
5820,1724814847627414858,-0.743720531463623,0.3698020875453949,0.1163860112428665,0.036542572081089,-0.0434257090091705,0.2701222896575928,0.9611517786979676,0.0,0.0,0.0,0.026010912506988948,-0.31528407027497873,-0.3813826178002868,1.29004795,0.1163860112428665,0.009107529959676624,-0.07720632671733403,-0.058653998013177965,17.272494509937122,-3.751914779965614,15.871405940685158,0.04705401467441585,-0.10340349279327182,0.545510620047701,0.008860408424691713,0.02177901895837664,0.011211785861561019,14.886516930680102,1.8649547560779753,-34.68472863071195,0.01850357045262541,-0.005527192967718285,0.19125408532699456
5822,1724814847639786972,-0.7435885071754456,0.3700807988643646,0.1165101081132888,0.0376920737326145,-0.0431273393332958,0.2697539925575256,0.9612242579460144,0.0,0.0,0.0,0.07586812100011231,-0.1609784755128576,-0.43639961780835523,1.302420064,0.1165101081132888,0.18861767942795754,-0.0055024604510327466,-0.07022062565315974,-7.2163968424071605,-0.9360511593218321,-0.45542152910892275,0.04947801866652373,-0.10342957500149681,0.5446348937621669,0.011146948390255318,0.022510211726014973,0.00539841745687486,26.129941208549443,30.943650581166246,26.29102696785478,0.021723188954649565,-0.003304914503356775,0.19125408532699456
5824,1724814847649468153,-0.7434769868850708,0.3702985942363739,0.1165272817015647,0.0375792607665061,-0.0434792675077915,0.2694020867347717,0.9613115191459656,0.0,0.0,0.0,0.4962569565790788,0.2785247066335269,0.05098418458775228,1.312101245,0.1165272817015647,-0.045828790353524225,-0.06556036235603456,-0.07099738030999682,-8.196239704836962,-3.632720989717189,0.46353057461458547,0.04910906570523858,-0.10402964010198021,0.5439132466939715,0.011056119058910241,0.019284539347699692,0.001427160447166731,6.74995655289782,9.727410111808823,36.42429903231392,0.021566742853123214,-0.0020346364277801566,0.19125408532699456
5826,1724814847664692886,-0.7433197498321533,0.3705152869224548,0.1165407076478004,0.0392760932445526,-0.0434619635343551,0.2690825760364532,0.961333990097046,0.0,0.0,0.0,-0.27903140585547437,-0.42741658744295563,0.2722745790924943,1.327325978,0.1165407076478004,0.212957403050097,-0.05931475537735511,-0.05092113466356213,-79.37718810297127,-75.02393748393959,-21.26049305469858,0.05243727089426813,-0.10489218835177963,0.5430886893923,0.030717803421566714,0.03817103395304855,0.0132454128163495,-194.70325956367768,-212.78464641515748,-67.81733654521412,0.01620039276346045,0.0013260077284614116,0.19125408532699456
5828,1724814847668050971,-0.743201494216919,0.370661199092865,0.1165943443775177,0.0392503626644611,-0.0441018342971801,0.2688247561454773,0.9613780379295348,0.0,0.0,0.0,-1.0393574507437338,-1.2652278263269938,-0.016458907355416885,1.330684063,0.1165943443775177,-0.12498143429621149,-0.3671244864783996,-0.13903972262424102,-71.52485652283988,-58.00261886062353,-17.25291012296746,0.05207376463527817,-0.10609895530163756,0.542555068544056,0.028617574313877014,0.0355003211624485,0.013786444248775176,-171.48277745051223,-190.23539317603712,-66.14706420650359,0.05398863233691754,0.006361507653923657,0.19125408532699456
5830,1724814847677462568,-0.7431061863899231,0.3707855939865112,0.1166664361953735,0.0391584374010562,-0.044242113828659,0.268522709608078,0.9614596962928772,0.0,0.0,0.0,-1.2042640327937524,-1.4926329896339945,-0.1158216230866837,1.34009566,0.1166664361953735,-0.030305476728035043,-0.025161304025617774,-0.06434032436403202,7.712200217159045,21.097124983867594,4.661574175917529,0.05185431304207526,-0.10630398031358171,0.5419344911785053,0.00791701477109541,0.011197165874765602,0.008947620099680975,33.87751243091259,37.34490388650674,8.686682466872817,0.016218255898006854,0.0012656103884783685,0.19125408532699456
5832,1724814847691226782,-0.7430416941642761,0.3708990514278412,0.1168155148625373,0.0394444651901721,-0.0444460213184356,0.2680827677249908,0.9615614414215088,0.0,0.0,0.0,0.2966880061463637,0.2595166878317203,0.3911248523473023,1.353859874,0.1168155148625373,0.02859622212653573,-0.04149598477262882,-0.06611013781961374,21.14121624516514,-3.2873440537319443,0.1924251252369391,0.052348313641911656,-0.106826992594999,0.540990750651103,0.011374639628229488,0.0125861470457167,0.01537138046973574,13.045901679891342,28.068541905231744,-0.8935227159688885,0.009369131622450561,-0.0009817970421719061,0.19125408532699456
5834,1724814847697530639,-0.7429506778717041,0.3709909319877624,0.1169255226850509,0.0401492416858673,-0.0444670990109443,0.267909824848175,0.9615795016288756,0.0,0.0,0.0,0.10176186121007352,0.14997326600555472,0.27657856830453464,1.360163731,0.1169255226850509,0.21054929987309495,-0.06828354923241269,-0.06397034232698252,8.195240167762442,-2.7952436850348383,-5.493217777705109,0.053721304472947665,-0.107235460986776,0.540562793839067,0.013376235262960279,0.014680008734698546,0.017618782513434184,-34.5296516790075,-18.231461987457916,-23.948853848413734,0.021633870630604304,0.00362981835115227,0.19125408532699456
5836,1724814847707450167,-0.7428345680236816,0.37113818526268,0.1171029135584831,0.0401460714638233,-0.0448158867657184,0.2668890953063965,0.961847186088562,0.0,0.0,0.0,-0.29707215787120134,-0.0442083308797282,-0.05117212700403673,1.370083259,0.1171029135584831,-0.030773298182939654,-0.07331320350597424,-0.20950258245138198,-7.397556325277308,3.294495625896892,-6.7196457337758755,0.05364428789393603,-0.10785012411468804,0.5384362485475465,0.01101790407349057,0.013323984179598014,0.01911462534959707,-5.476161078654981,-5.488283997911067,-17.41896186291362,0.019483681772204383,0.001157207418242417,0.19125408532699456
5838,1724814847719298634,-0.7427137494087219,0.3712745308876037,0.1173468232154846,0.0408525988459587,-0.0444710031151771,0.2659195065498352,0.9621020555496216,0.0,0.0,0.0,0.1295714696560637,0.09013599038061204,-0.036469760521865346,1.381931726,0.1173468232154846,0.12118564745285502,0.01952285242795382,-0.17658444284496866,-4.783553283912809,-1.6815129934836612,7.830217796648273,0.05530463022559646,-0.10750525307319901,0.5363476898455564,0.006658445066946683,0.014109207824489545,0.015649933909768876,38.27734598456722,3.291899191777685,20.048568548806863,0.01676970229201852,0.001470262250823682,0.19125408532699456
5840,1724814847727932925,-0.7426785230636597,0.3714127242565155,0.1174508929252624,0.0408020168542861,-0.0447207987308502,0.2655832469463348,0.9621854424476624,0.0,0.0,0.0,0.4743458813300945,0.06792944993662464,0.2549741527158139,1.390566017,0.1174508929252624,-0.030911846355317442,-0.054875824020259124,-0.0771889727867559,-1.6810668144972611,-5.216642397276394,0.5061799713091393,0.055112513286205596,-0.10794155652602809,0.5356519975696051,0.01090752790793914,0.015037620198661727,0.016945471711848903,8.801802315484256,7.794253225754115,6.322430781813585,0.012907994615959461,-0.005526439875534102,0.19125408532699456
5842,1724814847737527317,-0.7425010800361633,0.3715466856956482,0.1176656335592269,0.0414971858263015,-0.0448441430926322,0.2647205293178558,0.9623876810073853,0.0,0.0,0.0,0.22691938710248383,0.25322675849746434,0.023176604657007882,1.400160409,0.1176656335592269,0.12284053148396944,-0.0686779800891072,-0.1896652397291157,6.062535704459841,1.4887051154959818,-1.0231907698230724,0.05649248040806166,-0.1084979600052046,0.5337874385387269,0.015269124051926042,0.015267211169454953,0.02051046296513892,-17.255422836112245,23.847968360513608,-28.77296836867022,0.025313924780800523,0.007221614044675462,0.19125408532699456
5844,1724814847747669438,-0.7423807978630066,0.3717155158519745,0.1178535893559455,0.0419246815145015,-0.0448304414749145,0.2643170058727264,0.9624806642532348,0.0,0.0,0.0,0.14339863069965209,0.5437147629981409,-0.3181018154819659,1.41030253,0.1178535893559455,0.07751622709999713,-0.022195741929272948,-0.08532728470481377,-1.9372384443992958,-2.4824140342006538,6.837152178008207,0.057374240437957205,-0.10867345662653324,0.5329054038057642,0.015129593145211118,0.02029378859115738,0.017010352470890666,-10.005782465055692,1.0476179426894898,-9.153626809454847,0.020572009708121595,0.0004340557407475407,0.19125408532699456
5846,1724814847757494292,-0.742201030254364,0.3719496130943298,0.1180062294006347,0.0424741469323635,-0.0452509149909019,0.264070600271225,0.9625046253204346,0.0,0.0,0.0,0.028240201799967668,0.2913800634677648,-0.1748940501301106,1.420127384,0.1180062294006347,0.08257842967745663,-0.11383110104107512,-0.05099281954999333,5.5987400899727575,-0.2835653132450755,-1.9319741123685743,0.05824750194760662,-0.10976103492378372,0.532337331296248,0.018034199716687738,0.02609350608573635,0.014142064678498656,-22.017583018450317,-19.433141872358874,29.051808968808686,0.029392892701302062,0.0024618385351264614,0.19125408532699456
5848,1724814847767471400,-0.742023766040802,0.3722329139709472,0.1181332021951675,0.0434473827481269,-0.0450943410396575,0.2635066211223602,0.962623119354248,0.0,0.0,0.0,-0.2957523566906431,0.16081839704291978,0.26162313471793275,1.430104492,0.1181332021951675,0.1899422249347202,-0.02503578864362694,-0.12524941820425103,0.08809189124774308,4.10913036097361,-4.08035174903962,0.06028179417802868,-0.10993637134240991,0.5310674748539523,0.015606748667458703,0.025971953419597682,0.01358302535074074,-16.742734610148958,0.3440939604957052,29.070827975156178,0.03091776429752143,-0.0001025082368626833,0.19125408532699456
5850,1724814847778917051,-0.7418735027313232,0.3724983632564544,0.1182999163866043,0.0438219532370567,-0.0452112853527069,0.2628054022789001,0.9627922773361206,0.0,0.0,0.0,-0.2808321482649797,0.34110024002962613,0.4015903865683592,1.441550143,0.1182999163866043,0.05081128865920947,-0.040908666372277074,-0.12780291898163834,-18.56887919135345,3.729930963116653,-10.099559001150894,0.06102794172886389,-0.11031505363984964,0.5295698659621147,0.011532979779431685,0.030084195730072594,0.020748398406732704,32.05449993349248,16.544133963510287,-23.128944497784445,0.024509421128733708,-0.0014996729766908886,0.19125408532699456
5852,1724814847787379926,-0.7417858839035034,0.3727960884571075,0.1185141950845718,0.0432526282966136,-0.0452307350933551,0.2616606950759887,0.9631288051605223,0.0,0.0,0.0,0.18286258213096485,0.48607338845469883,-0.015395630197227561,1.450013018,0.1185141950845718,-0.14646420830952983,0.02267483801670889,-0.275075396263838,-8.096388651119936,2.7646021041602973,-6.342016843632004,0.06004413492175196,-0.109982667686409,0.5272436885616636,0.009626206612271204,0.032857099328104766,0.0227425660544176,49.00571560033069,7.147655043527379,-35.498054766934104,0.029266438464642514,-0.010609010304982711,0.19125408532699456
5854,1724814847799321329,-0.7416831851005554,0.3731493055820465,0.1187423467636108,0.0434109903872013,-0.0453074909746646,0.260712206363678,0.9633753299713136,0.0,0.0,0.0,0.6705684931408462,0.40321850074125365,-0.20719858577704997,1.461954421,0.1187423467636108,0.013210408549687023,-0.024324958509112145,-0.16444727536714976,21.570655073427996,3.2881361330154055,9.107371142487924,0.06042045537052079,-0.11015442208864794,0.5252540629542147,0.018687443213870836,0.0413308030472912,0.018328887834716312,-12.960101939222248,-57.06837881414671,1.0318286115519903,0.024238226785697297,-0.008814409377394099,0.19125408532699456
5856,1724814847807583823,-0.7414711117744446,0.373557984828949,0.1188893467187881,0.04432874917984,-0.0448589399456977,0.2604059875011444,0.9634372591972352,0.0,0.0,0.0,0.25590231691838117,-0.3549005972880188,-0.10094790007605237,1.470216915,0.1188893467187881,0.23831218291700995,0.0441427659852211,-0.0900945393694011,10.892858275833994,-0.2749350312144778,1.7240493852648173,0.06246904922156706,-0.10974465114884933,0.5245289950678318,0.023723545394830126,0.042910775145482916,0.017545421964556773,-37.45406061646966,-55.6449080262763,-6.403731149449252,0.04865304245135487,-0.004059652629791136,0.19125408532699456
5858,1724814847817422656,-0.7412604689598083,0.3739034235477447,0.1190590932965278,0.0451685898005962,-0.0449062101542949,0.2596763968467712,0.9635930061340332,0.0,0.0,0.0,0.036570920158462306,-0.4793275355806659,-0.38963820728671217,1.480055748,0.1190590932965278,0.15391898007180374,-0.058868080196356476,-0.15836251840278784,-2.973753317766546,-7.891384833979947,0.23789649258711476,0.06415920211992336,-0.11022410979260641,0.5229277370173481,0.02209844804222172,0.033020642237673314,0.0164804414646893,-7.567730418268659,18.807349397995978,-27.420815182641377,0.03776150502986695,-0.0003656375415841649,0.19125408532699456
5860,1724814847827795067,-0.7410237193107605,0.3742230832576751,0.1192215904593467,0.04625940695405,-0.0452021062374115,0.2593058943748474,0.9636272192001344,0.0,0.0,0.0,0.11908869875884509,0.05969568712338402,-0.6530509707437916,1.490428159,0.1192215904593467,0.1843512243236204,-0.11252572990006286,-0.07742022022891001,22.66586014696999,-7.2509101537002225,7.75969262605374,0.06616896337226594,-0.11133650899184538,0.5220450156569768,0.02468381790684049,0.0337993898220148,0.009361913313013837,2.7721008952731445,30.956991466167544,-11.351009680765525,0.03667531274279773,0.0031429867910269093,0.19125408532699456
5862,1724814847837106938,-0.7407783269882202,0.3745627403259277,0.1192560642957687,0.049012865871191,-0.0454099215567112,0.2593554854393005,0.9634678959846495,0.0,0.0,0.0,0.10157008405867152,0.17232430441925212,-0.6413412776330709,1.49974003,0.1192560642957687,0.5603668779983678,-0.1974151740414407,-0.0055301411808892495,37.35553227864546,-8.389529941199061,7.189533786733008,0.07140705959864975,-0.11316690981720673,0.5218660863978366,0.024704600912119234,0.03422666958973547,0.0035586947050484097,46.2634237458818,415.67974663146373,443.08728828395164,0.04118356694090649,0.004077380375461856,0.19125408532699456
5864,1724814847964476652,-0.7405028939247131,0.3750039339065552,0.1194594278931617,0.0520408004522323,-0.0445531159639358,0.2586099803447723,0.963549554347992,0.0,0.0,0.0,89.87139805012072,756.2381620840354,825.5457827045261,1.627109744,0.1194594278931617,0.04870356154123059,0.00011560043644621483,-0.014429514048153472,845.5955065681505,-1446.3916196650782,-298.3324422674074,0.07781847292718268,-0.11301523736419358,0.5200226953965805,0.21070752628463651,0.27645594328299694,-0.10972296612705179,-10340.769995654307,-325556.84877815656,-266046.38105627144,0.0037549186246956566,2.818037470072322e-05,0.19125408532699456
5866,1724814847965553332,-0.7402741312980652,0.3753040730953216,0.1193402782082557,0.0527690462768077,-0.0452235788106918,0.2584135234355926,0.9635313749313354,0.0,0.0,0.0,78.63716793604647,402.7005727120686,536.6185403262753,1.628186424,0.1193402782082557,0.9668719768955315,-1.5703635992956708,-0.33835268818658043,7063.363548456394,13911.082508065354,-19008.23157430224,0.07891613804447913,-0.11467229771248824,0.5195238776485782,0.3082749255447652,1.0975479476452392,0.786647365529717,-33893.85366447538,-718328.9021010521,-1151988.0957332877,0.3080504685130841,0.04970202983738341,0.19125408532699456
5868,1724814847965969036,-0.740130603313446,0.3758917450904846,0.1198113113641738,0.053497064858675,-0.0434991940855979,0.2562801539897918,0.964140236377716,0.0,0.0,0.0,60.78201508891425,41.49723957458514,-84.09360477872622,1.628602128,0.1198113113641738,4.8999549613531,6.6794063122181555,-11.24273122251268,-4178.467113532706,351.2723518314848,-8914.332385837854,0.08145697295011702,-0.11153019520489874,0.5150591414488701,0.339041636584966,1.2071850733190672,0.9622270266860653,153929.52722726835,-482527.8469198774,-1614069.513625626,1.1167497463683165,-0.4705593898460742,0.19125408532699456
5870,1724814847966365923,-0.7399984002113342,0.3762926161289215,0.1201284602284431,0.0532281696796417,-0.0436185263097286,0.2546846270561218,0.9645724892616272,0.0,0.0,0.0,196.47718718001312,-3.608681040829879,-770.5124580210722,1.628999015,0.1201284602284431,-1.926813115938073,-0.5678888784671131,-8.219008953740445,-17613.38070199408,-7280.428735333456,4783.873644027188,0.08105836259169012,-0.11149008157921007,0.5117692227579848,0.358152439425794,1.139442760621705,0.7369424161808524,244392.30626333915,48524.644641174586,-683996.8117214157,0.869091788713438,-0.2579007266668807,0.19125408532699456
5872,1724814847966725123,-0.7398616075515747,0.3767439723014831,0.1203729659318924,0.0518154688179492,-0.0438641943037509,0.2533362805843353,0.964993178844452,0.0,0.0,0.0,252.56437291602947,66.54275513875473,-676.3174991376698,1.629358215,0.1203729659318924,-8.38767077245439,0.3864612941284655,-7.422186496724619,-4778.764061411084,-2681.2126018545414,4899.21960580296,0.07834131734632736,-0.111139430166236,0.509106135335704,0.47694640317172343,1.192461352010639,0.3942186605109441,-201480.6138106173,-52014.42835674109,770218.8652521307,1.0146392922767913,-0.32936558951661155,0.19125408532699456
5874,1724814847967118546,-0.7396325469017029,0.3771854937076568,0.1204046159982681,0.0511321052908897,-0.0446114987134933,0.2524425685405731,0.965229630470276,0.0,0.0,0.0,19.194139767560614,-60.48995257332922,-154.40224970808833,1.629751638,0.1204046159982681,-4.576317462356978,-2.9686074894811787,-4.339505736242895,8547.053072800374,-922.6131891820561,1925.9607742309727,0.07674188941902797,-0.11217160550525535,0.5073023738817223,0.5426340516286245,1.1837118937585842,0.24785135754126486,-489222.3027621977,-368361.34523134056,618972.9411104599,1.056494559412543,-0.051180329745411805,0.19125408532699456
5876,1724814847967505245,-0.7394377589225769,0.3776665925979614,0.1205640882253646,0.0508855171501636,-0.0447180494666099,0.2513332962989807,0.9655270576477052,0.0,0.0,0.0,-130.47477035064645,-220.21777318181057,-184.00823210892204,1.630138337,0.1205640882253646,-1.704718660660612,-0.43469134055493985,-5.840909263364689,3924.6742113490845,1921.1320980289497,1383.866042084263,0.07633778463630732,-0.11216647540992189,0.505023036358743,0.49389040702612874,1.1457818080318702,0.2708643477926387,-241257.5845355701,-302825.00483307854,9697.873054262396,1.0823823781496464,-0.19647569860137207,0.19125408532699456
5878,1724814847967930426,-0.7392323613166809,0.3781077861785888,0.1206130906939506,0.0506639368832111,-0.0451432317495346,0.2507252693176269,0.9656770825386048,0.0,0.0,0.0,-164.899602061427,-297.4416784107907,-139.55960082018572,1.630563518,0.1206130906939506,-1.672831489021724,-1.783078014319604,-2.7904750915283727,9490.102585479022,-2681.762821171746,4988.591806943299,0.07576670312111194,-0.11283228841702697,0.5037745969593086,0.4363467516224091,0.995054102940685,0.07878395214325451,71582.75911500202,93558.35371099942,168328.33376881343,0.9310835049859757,-0.09396545034190247,0.19125408532699456
5880,1724814847968352094,-0.7390679121017456,0.3785095512866974,0.1206310614943504,0.0520980879664421,-0.0453464239835739,0.2504297196865082,0.9656679034233092,0.0,0.0,0.0,-70.92235598597603,-142.9134324413783,-41.90587286980301,1.630985186,0.1206310614943504,6.266087969674171,-2.7091649503057034,-1.6010309796480429,4356.730516406788,921.461498487686,-695.1264842467158,0.07849557131166282,-0.1139192311849709,0.503008518304127,0.3544521773103497,0.8934943673762064,0.15049397090322714,160457.48696068462,287899.45524578926,-67625.03445047699,0.8006530675633832,-0.12848141460442852,0.19125408532699456
5882,1724814847968772693,-0.7389337420463562,0.3788604736328125,0.1207396164536476,0.0525953359901905,-0.0454085618257522,0.249753788113594,0.9658130407333374,0.0,0.0,0.0,-29.618286581671384,-54.78569920553264,-195.8790267138872,1.631405785,0.1207396164536476,2.02759796452876,-1.0136186131212652,-3.3684496524332355,2872.46487847317,3744.217554479782,1261.522514856572,0.07951404460487689,-0.11423240636010797,0.5015530341485872,0.37634792443611786,0.8744737069221173,0.043940632774422284,-142995.08788323594,-45333.441431924,136614.6739907377,0.7058306189855725,-0.1444681515547944,0.19125408532699456
5884,1724814847969192517,-0.7387517094612122,0.3792444169521332,0.1206683218479156,0.0543332397937774,-0.0448596067726612,0.2497294098138809,0.9657488465309144,0.0,0.0,0.0,-190.72520418242433,-180.61802628799092,72.12978140299082,1.631825609,0.1206683218479156,8.660119922507462,0.4380061142528656,-0.5492793280851163,1950.7753696428022,525.9551296812681,4592.138681096256,0.08317441506936912,-0.11403040380808893,0.5013367819550518,0.3296867704076476,0.8474660145452617,-0.014216246353456086,-270144.36016824044,-272507.65597186773,537319.9893484437,0.795111936369196,-0.05771368693358899,0.19125408532699456
5886,1724814847969712150,-0.7386472225189209,0.3796416521072387,0.1207610145211219,0.0545965023338794,-0.0451111160218715,0.2498400658369064,0.9656936526298524,0.0,0.0,0.0,-258.0341517182951,-304.7157150064242,286.33775705714277,1.632345242,0.1207610145211219,0.7674612167118955,-1.174301257028502,0.47150556356858014,-13296.685932039429,-2673.1803801046276,1694.6539994804273,0.0835510064278098,-0.11465888945264566,0.5015313937346365,0.17939572999532416,0.6788185228009258,0.15875289444981977,-105124.83555286018,-201585.83875791501,349799.55466638814,0.5606776351618787,-0.2081613952812864,0.19125408532699456
5888,1724814847973332868,-0.7385447025299072,0.3799390196800232,0.1208406239748001,0.055252369493246,-0.0449538081884384,0.2495205402374267,0.9657463431358336,0.0,0.0,0.0,-22.911104763889924,-95.2881266011074,-22.151407939822757,1.63596596,0.1208406239748001,0.3620153121604104,-0.01492453741510824,-0.19880222639260975,-123.22481176501849,122.60739881575073,-90.21263361898531,0.08494489248563125,-0.11465217498803316,0.5008048650129228,0.03203644058980615,0.07594875422456226,0.021612305990769798,38497.409237940105,41101.40203084439,-45796.90622010751,0.06636401530097216,-0.01661828901099764,0.19125408532699456
5890,1724814847977943901,-0.7383751273155212,0.3802529275417328,0.1209380775690078,0.0550030246376991,-0.0464610531926155,0.2492865324020385,0.9657496213912964,0.0,0.0,0.0,-0.6644438454029815,-4.069338625441107,-1.9326424588168234,1.640576993,0.1209380775690078,-0.2722136861156027,-0.6099205124969715,-0.05739379643074715,-88.70978919305576,-62.66885979895672,13.087054290652812,0.08374805348431884,-0.11743223445631876,0.5003007914291898,0.03084637358299247,0.05477610379703712,0.01181326552286599,3307.3561609264707,13500.144451010601,3028.384275133134,0.06695379634962935,-0.0023977129992703485,0.19125408532699456
5892,1724814847987545622,-0.7381975054740906,0.380512923002243,0.1208651289343833,0.0542440079152584,-0.0460280887782573,0.2479705363512039,0.966152012348175,0.0,0.0,0.0,0.7549011599491997,-0.05866236357708399,0.023531575448232367,1.650178714,0.1208651289343833,-0.14754921478185473,0.11532507775623699,-0.28323734259534805,16.32209449802165,49.15288825831997,-11.356558482541509,0.08263843925468918,-0.11610275822308003,0.49766470787776046,0.016341949607998174,0.026148286930052222,-0.002894847816027557,21.998260655380633,217.00320224948115,113.71177911550816,0.02810482465351135,0.003507168912667363,0.19125408532699456
5894,1724814848005954854,-0.7379727959632874,0.3809614777565002,0.1209778189659118,0.0564750507473945,-0.0445861890912056,0.247569054365158,0.9661946892738342,0.0,0.0,0.0,-3.281167224336798,-3.1476790176716065,-1.0604380506002187,1.668587946,0.1209778189659118,0.2707642279347949,0.08909092371001942,-0.06294453831299571,-2645.732158222889,-1582.4262078729926,-746.0082370069056,0.08774048449921446,-0.11437000110503093,0.4966428641881735,0.11020187029544104,0.1282331177420133,0.05243564982094995,-846.8388192285665,-908.745203872802,-433.8489410126841,0.022893995386391613,-0.0014739570046608142,0.19125408532699456
5896,1724814848007257028,-0.7378202676773071,0.3811380267143249,0.1210503652691841,0.0546965710818767,-0.0464285649359226,0.2466963976621627,0.9664334654808044,0.0,0.0,0.0,-4.441706114758644,-4.399271426451756,-1.659922729309623,1.66989012,0.1210503652691841,-3.420228308419304,-2.1171278773561935,-1.104193405443395,-2491.5262353706044,-1488.2975065962798,-702.5405737030017,0.08348061203278229,-0.11699384267941106,0.4949633755311466,0.1051573740843752,0.12333358922179594,0.050680257455607114,-795.9570825478198,-859.2825532305069,-412.27265146922133,0.17283460904353473,0.033537722092534965,0.19125408532699456
5898,1724814848017924076,-0.7377450466156006,0.3813835084438324,0.1211513206362724,0.0545688085258007,-0.0464114286005497,0.2460976839065551,0.966594099998474,0.0,0.0,0.0,-4.606970277182979,-4.663421685073651,-1.8546463957923434,1.680557168,0.1211513206362724,-0.029217102129054227,0.004272996796004952,-0.11498034567142101,172.82836732878704,103.54137489863582,51.74213934085096,0.08331205778209895,-0.11684624395051438,0.4937365186767697,0.00816202570414859,0.020770942416636018,0.0057216550379441955,181.51232194189893,194.13286654102896,83.79311483930783,0.018102508909307143,-0.005492889435648819,0.19125408532699456
5900,1724814848029735304,-0.7376341223716736,0.3815995156764984,0.1211699545383453,0.0552639625966548,-0.0463431812822818,0.2458947151899337,0.966609537601471,0.0,0.0,0.0,0.11337507416873249,0.4922784604982118,0.4696482963531864,1.692368396,0.1211699545383453,0.11488472675904791,-0.019552180593199624,-0.0399577064606506,-42.23907562708283,1.780124555387921,-34.3497928343058,0.08472651271009699,-0.11703675899088184,0.49324348895233966,0.012416811197326183,0.030446371165488983,0.014681345469307772,143.93749374112485,113.81099132830002,13.899513300518663,0.01699961522310976,-0.0006704258942968825,0.19125408532699456
5902,1724814848037351941,-0.737524688243866,0.381891131401062,0.1213461384177208,0.05359473451972,-0.0466349683701992,0.243966743350029,0.9671779274940492,0.0,0.0,0.0,-0.04628237682974595,-0.2258560073175231,-0.3227712645878255,1.699985033,0.1213461384177208,-0.4742251754217789,0.01265750556784617,-0.5015014866397348,-27.012723636402413,1.8169245771521196,-21.128795743817406,0.08156033008886023,-0.1166234767434427,0.48941892118802566,0.0120678605173552,0.03259027525285596,0.0168393709051724,-3.5386595619179957,-61.48622091494658,-82.15958710028886,0.033163310758637154,-0.0071463843778811174,0.19125408532699456
5904,1724814848047703711,-0.7374321222305298,0.3821483552455902,0.1214319318532943,0.0534087494015693,-0.0466592833399772,0.2431292086839676,0.9673978686332704,0.0,0.0,0.0,0.16221215026682345,-0.4008985699502918,-0.8654593004662254,1.710336803,0.1214319318532943,-0.04572335643785969,-0.0024678327470396663,-0.16494315494602008,39.20381954909744,-1.1580583191462503,23.886258583774612,0.08128652378305043,-0.11651005370077196,0.487703357591665,0.011582170190298058,0.02311456016530755,0.004970817724746723,3.730101153846086,6.703142989855679,-1.4918713473789325,0.020374306605123793,-0.0044996188496128735,0.19125408532699456
5906,1724814848059355318,-0.7372625470161438,0.382394939661026,0.1214463487267494,0.0555803477764129,-0.0461852438747882,0.2432301938533783,0.967272937297821,0.0,0.0,0.0,-0.009548939852650928,-0.01312527062432789,-0.2148757677752486,1.72198841,0.1214463487267494,0.3823398440108071,-0.011986319338725595,0.00024446679396586575,17.052892503821077,-5.5672691729493655,3.4539195608196045,0.08574243995301692,-0.1166494741143593,0.48769452480474196,0.016214880846213475,0.025190585040672175,-0.0014271053508068121,-18.63899607775174,7.084214083382632,43.544777047939476,0.022763134298117587,0.00262583777909723,0.19125408532699456
5908,1724814848068221570,-0.7371075749397278,0.3826454579830169,0.1214157193899154,0.0574077628552913,-0.0461433492600917,0.2431109547615051,0.9671981930732728,0.0,0.0,0.0,-0.20110301153159743,-0.12705566546437608,0.0882748981526821,1.730854662,0.1214157193899154,0.4007209381642145,-0.09339649432603031,-0.04147971944489462,-13.788746569946005,-2.1734334429472493,-3.946429066410955,0.08934692848393928,-0.11744222779154607,0.48725275229086923,0.013383268988157226,0.02378355900280482,-0.0010773074304637476,4.284041928736952,-10.590666107644765,-29.312970456718258,0.028071541874315493,0.0021128777719905357,0.19125408532699456
5910,1724814848079917861,-0.7370142340660095,0.3828546404838562,0.1214397996664047,0.0574134439229965,-0.0461857840418815,0.2426764816045761,0.9673048853874208,0.0,0.0,0.0,0.24846114744353498,-0.2160680738744476,-1.2344306689045077,1.742550953,0.1214397996664047,-0.005299911842174878,-0.01067739598977213,-0.07591907217087261,-25.388111804250826,-0.06809800340294636,-0.15600671512772202,0.08939061558911862,-0.11748735283493321,0.48635091942272074,0.012855923360433508,0.022785656377852348,0.0007084906235466093,15.214928148160812,-4.899941930163045,-51.226983822656806,0.015549353972335507,-0.001611557279524998,0.19125408532699456
5912,1724814848088072800,-0.736881673336029,0.383068323135376,0.1214378997683525,0.0568479038774967,-0.0465334877371788,0.242392361164093,0.9673928618431092,0.0,0.0,0.0,0.24050439191968054,-0.24061612677951716,-1.300455094045217,1.750705892,0.1214378997683525,-0.1593151131899564,-0.051831481774128954,-0.061336603456632714,-14.383012855206873,-12.01425369307053,11.351865690436505,0.08815474270239759,-0.11786402666624783,0.4858114931907569,0.016551168959537677,0.020280212009236465,-0.017245084761977836,-21.45021944747809,15.773034401333792,106.4123209177499,0.026397261429366724,0.0018621286092072402,0.19125408532699456
5914,1724814848097797675,-0.7367172837257385,0.3831968605518341,0.1210729032754898,0.0559439435601234,-0.0480421967804431,0.2430195659399032,0.9672144055366516,0.0,0.0,0.0,-0.20554025858240954,0.13060475288790174,1.0623524644434164,1.760430767,0.1210729032754898,-0.2469653158571454,-0.24947368492997404,0.15996940660596334,5.160652584726036,-2.2479706976141274,-0.9803081245899126,0.08559270176314294,-0.12041594968583559,0.48716034224482707,0.016424218099576393,0.01871277783006775,-0.01944171117259419,-26.59269826714356,442.81548317029007,573.9182165571953,0.016463278685628187,0.011012247282959513,0.19125408532699456
5916,1724814848108829080,-0.7365421056747437,0.3834720551967621,0.1210848093032836,0.055979948490858,-0.0482700727880001,0.2422123849391937,0.9674034714698792,0.0,0.0,0.0,-0.25771472306962323,10.07897050946899,11.53484444234145,1.771462172,0.1210848093032836,-0.012674665310340796,-0.04808609699345342,-0.147876954250277,15.980902138392132,13.160899825930498,-17.141723771201644,0.08565537320049355,-0.12080496601804153,0.4854774740635855,0.011748152952904434,0.023804743202164858,0.008397746252231109,34.57592419323076,-59.09338885883568,-103.09515457587389,0.025628705562190848,0.0020455690251383967,0.19125408532699456
5918,1724814848127292701,-0.7364528775215149,0.3838762938976288,0.1214660257101059,0.0570257343351841,-0.0475992336869239,0.2411085218191146,0.9676513671875,0.0,0.0,0.0,1.595347963466068,-20.707437464937243,-22.89206612556802,1.789925793,0.1214660257101059,0.11991381887003842,0.03746194047412333,-0.131713938942247,521.9453596438929,5444.980128058153,-5804.804882152115,0.08815516621779575,-0.11990481688767242,0.48309757226371425,0.012125043569312766,0.5071065651366098,0.4998470015536043,-23.4684505222981,-4918.448748427207,-5001.525623704092,0.016815787607306495,-0.007420226564429567,0.19125408532699456
5920,1724814848127966144,-0.7364445328712463,0.3842297196388244,0.121814414858818,0.0569388084113597,-0.0462289899587631,0.2398264110088348,0.9680414199829102,0.0,0.0,0.0,1.5765016062739259,-24.099588259933473,-26.33736192881475,1.790599236,0.121814414858818,0.484058522064263,3.8379779777642646,-4.1835251946816,500.2167534362597,5245.6338187203555,-5594.921678507102,0.08878805757332948,-0.11708132353081066,0.4805013611568277,0.013238104928015915,0.49200968199114925,0.4832143950866654,-37.57234040477584,-4717.127152500129,-4781.448062009949,0.3122598276522505,-0.2677028697525303,0.19125408532699456
5922,1724814848137605960,-0.7362000346183777,0.3844473958015442,0.1217656582593917,0.0561626181006431,-0.0488270595669746,0.23992420732975,0.9679349660873412,0.0,0.0,0.0,-0.10860129499236776,-25.42991571452271,-26.273891407520814,1.800239052,0.1217656582593917,-0.28296965360117515,-0.4830467524189093,0.06307481944086973,-29.705927474906936,-218.97856317923794,224.58546883379583,0.0860363709060703,-0.12177311266653754,0.480701982984572,0.01790821285746702,0.027583403508343096,0.0030990490330493614,-102.59508311140846,999.4930594319025,1104.6499441599121,0.03207218096206463,0.012052357735858372,0.19125408532699456
5924,1724814848148762342,-0.7360965013504028,0.3848197162151336,0.1219055503606796,0.0563355199992656,-0.0485344268381595,0.2387575805187225,0.9682281017303468,0.0,0.0,0.0,-0.3208301715534281,0.40764054953624473,0.22772386279902418,1.811395434,0.1219055503606796,0.029425533638957082,0.03416129618318973,-0.21950243924099638,13.93303455605701,22.09576235367837,-14.20915658604768,0.08665848714376423,-0.12118223536595848,0.478277286759969,0.009039277764635756,0.03758928445961729,0.01380607698833014,35.42268238617825,1017.2622385667687,1032.9030246084337,0.024941469779107727,-0.008274977448368397,0.19125408532699456
5926,1724814848157517608,-0.7360190153121948,0.3851777911186218,0.1220351308584213,0.0565607175230979,-0.048153068870306,0.2376502007246017,0.9685063362121582,0.0,0.0,0.0,0.3633977561479087,0.3908946865189207,0.04640719591812181,1.8201507,0.1220351308584213,0.054749712668097056,0.060898896716188755,-0.2675054441109639,4.489540993835321,3.025403140065218,2.012708312204542,0.08741546282688095,-0.1204474589131344,0.47597355904831135,0.009488071069828408,0.0377967913445314,0.010770352782730974,48.68386996535677,-1.013166962314898,-7.24788691740374,0.028191814337928812,-0.012222609516388074,0.19125408532699456
5928,1724814848168829143,-0.7359023690223694,0.385560005903244,0.1220980659127235,0.0571761280298233,-0.0474178083240985,0.2369748502969741,0.9686719179153442,0.0,0.0,0.0,0.48345793829191364,0.39257957125416487,0.16115172583822812,1.831462235,0.1220980659127235,0.12887343334607246,0.09470457010626512,-0.13519870855602834,-15.066762773027394,-4.092833549876867,-8.912654783876002,0.08904529622058388,-0.11924560903046963,0.47453424943961175,0.018160290122438028,0.04758463892273923,0.017040675824679496,-5.422571640249092,-14.73174669472184,-56.39704329527447,0.025099215836392363,-0.006948952260559259,0.19125408532699456
5930,1724814848177924274,-0.7356798052787781,0.3860936760902405,0.1223369836807251,0.0565166138112545,-0.0474764108657836,0.2353235185146331,0.9691102504730223,0.0,0.0,0.0,0.3168635654804949,0.149769649294762,-0.8384025235347728,1.840557366,0.1223369836807251,-0.16626586772819626,0.005693080959602292,-0.3669763814774056,-16.886341258530802,-8.60814849083898,-5.956023475905263,0.08793029598686702,-0.11889907758831796,0.47119053131228616,0.020486266861460933,0.04769820597933361,0.015631053963967467,-7.089497511521355,-4.8103811480746135,-59.25573104749236,0.051214056898755154,-0.007146149156207577,0.19125408532699456
5932,1724814848190930649,-0.7354874610900879,0.3865098655223846,0.1223424300551414,0.0560631230473518,-0.0481256581842899,0.2347506731748581,0.9692435264587402,0.0,0.0,0.0,0.4334796129925831,0.4942806588827251,-0.6671430058535461,1.853563741,0.1223424300551414,-0.09641343714891801,-0.08434679188724904,-0.08123553116151368,59.65091080037292,6.756834370022586,15.816777270901035,0.08681407164771048,-0.1198997494287946,0.4700340512069745,0.025744411702049774,0.052199576307572215,-0.00798478908501643,-49.358613110458336,-77.98400714087798,96.36512507290301,0.027528894913008316,-0.0016721290849186865,0.19125408532699456
5934,1724814848197894223,-0.7352673411369324,0.386948674917221,0.1222554966807365,0.0578101985156536,-0.0476543679833412,0.2348604500293731,0.9691375494003296,0.0,0.0,0.0,-0.1276832839269536,-0.43826674882872907,0.31408697964378735,1.860527315,0.1222554966807365,0.521341991357505,0.013706195036000325,0.00596749142329518,42.63043111834034,13.763006209825324,2.9931580204238166,0.09043846899804507,-0.11980834997382897,0.47008422080739987,0.028871864063056307,0.056194033728846904,-0.00834830252635399,-64.89108351388506,-91.23126636228238,93.80213442639383,0.05482604882330472,-0.00023959437239977487,0.19125408532699456
5936,1724814848207538649,-0.7350254654884338,0.3873995244503021,0.1222302243113517,0.059151567518711,-0.0466050170361995,0.23454050719738,0.9691851735115052,0.0,0.0,0.0,-0.5438849681461448,-0.7479589008054819,0.5895319475568577,1.870171741,0.1222302243113517,0.3169545334016569,0.14219704022778867,-0.09245525051858222,-22.433574440124197,0.8183129252853791,-5.186037602541955,0.09358648723454711,-0.11836082524691331,0.46931693809696,0.01993591765296543,0.038451045436049824,-0.0004264589313467404,-20.66065005752051,27.68276065824071,6.436821605470282,0.04289650463931526,0.0008649659503361661,0.19125408532699456
5938,1724814848220779422,-0.7348549962043762,0.3877578377723694,0.1222644597291946,0.0592714585363864,-0.0470583364367485,0.2340621352195739,0.9692715406417848,0.0,0.0,0.0,-0.40854833602015383,0.7055237103369141,0.27260111489657657,1.883412514,0.1222644597291946,-0.0026476476369460644,-0.07427678923842719,-0.06988422634330155,9.89614268319253,0.99134117117369,-14.443250381360128,0.09367236883776482,-0.11925347829166169,0.46829648726771517,0.019690430519290203,0.0483936125501927,0.0031646273007268633,-38.56344160164943,-28.53524222412741,12.940855706657821,0.023842342715040002,-0.0011870165483188766,0.19125408532699456
5940,1724814848228011885,-0.7346856594085693,0.3881921172142029,0.1222896352410316,0.0600236281752586,-0.0468302220106124,0.2332621961832046,0.9694291353225708,0.0,0.0,0.0,-0.8801838619250694,-0.04725290052608777,0.5118796608406018,1.890644977,0.1222896352410316,0.20337882335777419,0.0013973053509046798,-0.23813785604130042,2.655174622452139,7.786372859422051,-10.567681522332137,0.09534848741606736,-0.11908088336868793,0.46657056849109846,0.015194867861701766,0.053317003659884676,0.005141683702318822,-17.114879848884456,-76.68219493133243,24.640463947388113,0.04799527284355888,-0.0069497993282153,0.19125408532699456
5942,1724814848237350936,-0.7346428632736206,0.3886089026927948,0.1223576813936233,0.0596409998834133,-0.0466800890862941,0.2324239015579223,0.969661295413971,0.0,0.0,0.0,-0.4600198614352251,-0.43295917697290554,0.6401761719189942,1.899984028,0.1223576813936233,-0.08332822957777147,0.04183520797049084,-0.1837262397411789,-9.599764777895128,4.251027320718632,1.1850334078567357,0.0947697401081737,-0.1185290828665715,0.4648876943115738,0.0038562384736238187,0.04409673836012473,0.012798531538956048,58.97774810426453,-11.531804832015196,-21.776887595333545,0.024796488625810558,-0.016754629170172376,0.19125408532699456
5944,1724814848247972738,-0.7346106767654419,0.3890708684921264,0.1225602179765701,0.0599495470523834,-0.0460790954530239,0.2312981337308883,0.969940185546875,0.0,0.0,0.0,0.3354123712400766,-0.19582131160583138,-0.020175495040395286,1.91060583,0.1225602179765701,0.06960914989293655,0.08603497326612085,-0.22720835745938303,10.729122173665539,-2.2386047001891587,2.2325600538405457,0.09578352644960748,-0.11738979614075437,0.46255603027396786,0.00807996044227366,0.0461945483648023,0.017427469210328006,266.23249856461644,374.73934391374013,-153.33316878899564,0.024200656190268063,-0.01823735728249802,0.19125408532699456
