seq,stamp,px,py,pz,ox,oy,oz,ow,lx,ly,lz,ax,ay,az,timestamp,lyap_z,wx,wy,wz,aa_x,aa_y,aa_z,roll,pitch,yaw,vx,vy,vz,jx,jy,jz,forward_velocity,forward_velocity_1
8752,1724815090880694393,0.0596247650682926,-0.2472266256809234,0.0995962768793106,-0.0136745870113372,0.0090370057150721,0.0863856971263885,-0.99612694978714,0.0,0.0,0.0,0.024486995652950393,0.33889563772097137,0.5791146308755358,0.0,0.0995962768793106,0.0,0.0,0.0,3.7465527778240855,-14.06604783987592,-4.724481337470948,0.028812095770960697,-0.015642070273672933,-0.17323566840972637,-0.0019416203227855585,-0.0006378838563617899,-0.00906089483967447,4.759707124678269,-5.756843310909683,-14.77988179632235,0.0,0.0
8754,1724815090888286492,0.0596100240945816,-0.2472314685583114,0.0995274856686592,-0.0137483552098274,0.0094482842832803,0.0865258947014808,-0.9961100220680236,0.0,0.0,0.0,0.060623163354513156,0.2951891133770573,0.4669043050695587,0.007592099,0.0995274856686592,0.028444199597965462,-0.10679082773907413,-0.03586873003773185,1.8999898832812139,-1.7202791577730576,-5.148771999780169,0.029032794755931256,-0.016444625026267968,-0.1735313823262126,-0.0017557126275757895,0.0019350453758839592,-0.004664199229718946,1.6642715953095353,-3.9573183148006734,-21.622588876854863,-0.0019510739261428534,-0.0018298814479282344
8756,1724815090898032795,0.059595238417387,-0.2471804171800613,0.0995370373129844,-0.0138814048841595,0.0093021783977746,0.0869661793112754,-0.9960711002349854,0.0,0.0,0.0,0.038114352283910545,0.27913509155162264,0.17054978219143652,0.017338402,0.0995370373129844,0.023858348872940454,0.030909945072388707,-0.09135883946247657,0.7489359470157249,4.799059013659671,0.1784157531708589,0.02927966812917752,-0.016117534462809998,-0.17441271182100943,-0.0007127343195358904,0.004265202940700874,-0.0015175556119295663,-0.7916813243957579,-5.552957971882796,-15.793657423302193,-0.002386885444027539,-0.0006082426098768388
8758,1724815090908896499,0.0595972351729869,-0.2471458613872528,0.0994903072714805,-0.0141211953014135,0.0094848060980439,0.0870651751756668,-0.996057391166687,0.0,0.0,0.0,0.04789300867429208,0.1715136324379944,0.17592661854827718,0.028202106,0.0994903072714805,0.04676124496861215,-0.029926854375090465,-0.018316881432658666,-1.1283920378702255,1.0994462153894027,-1.1553813601438128,0.029791064483938475,-0.016436633835131383,-0.17462125397830444,-0.0011329762210885441,0.007782665391742327,-0.0015090508681900872,7.479645366524538,-16.805013206506253,-7.998410403479975,-0.00044226823805116103,0.0008236802131060103
8760,1724815090918833544,0.059574007987976,-0.2470266968011856,0.0995006933808326,-0.0141744296997785,0.0092730177566409,0.0875638201832771,-0.9960149526596068,0.0,0.0,0.0,0.1820226921913517,-0.05818193742017769,0.01924638910868237,0.038139151,0.0995006933808326,0.00612956027655956,0.041892578827432844,-0.10141235828750014,-2.909222315964966,0.6695458691923064,-4.097294633975291,0.029868108199389988,-0.015990475696490213,-0.17561627214115225,0.0001298662597530864,0.008102979428688428,0.0018310965821743963,4.253633332859032,-11.832810593277308,-22.055074183118467,-0.0043793811975368635,-0.00023448798528613945
8762,1724815090929560990,0.0596039742231369,-0.2469848096370697,0.0995294377207756,-0.0141055863350629,0.0094039067625999,0.0880791544914245,-0.995969295501709,0.0,0.0,0.0,0.1205975684081741,-0.05446103800478469,-0.2901653197304341,0.048866597,0.0995294377207756,-0.011417334430118085,-0.026870057354063486,-0.0959753009133169,8.080018563465147,-3.0165098242671693,2.472138467188009,0.029762359673036493,-0.01624790343368245,-0.17665412342256992,0.002718730702631067,0.006431750649644741,-0.0016321878965355197,-5.833199418541719,4.039167722235681,2.321030872852871,0.002107011734448791,0.0033767624686011437
8764,1724815090938271266,0.0596271269023418,-0.2469109147787094,0.0994847267866134,-0.0146506847813725,0.0095755783841013,0.0883383005857467,-0.9959367513656616,0.0,0.0,0.0,0.06903048019185917,0.00683476056399962,-0.04954367348812424,0.057576873,0.0994847267866134,0.12767542044221822,-0.029144725904612288,-0.06054286662511344,7.54188210314179,0.756463590201711,2.6307221329601784,0.030883196381659806,-0.016485654390864454,-0.1771889636599872,0.0029152928942839385,0.00667402002939621,-0.003928495535852949,-1.225317378202341,1.388547821154733,20.855619058456973,0.0010363447451917096,0.004217697803162466
8766,1724815090952329410,0.0596739463508129,-0.246858149766922,0.0994568318128585,-0.0149548137560486,0.0095641277730464,0.088728167116642,-0.9958977103233336,0.0,0.0,0.0,0.1583304529517514,-0.10180926636232712,0.0900533523626802,0.071635017,0.0994568318128585,0.04249785405421707,0.004578793465905495,-0.056168324311862416,-6.045861777383371,-3.575176935869528,-5.984621465199501,0.03149358323617404,-0.016396694175522846,-0.17797631071583775,0.004939971144790611,0.006294091982113059,0.0002325601627806151,-2.602610219708298,-17.53938805957404,-21.819014560461287,0.0025804374058891136,0.003982680419807279
8768,1724815090958518861,0.0597089082002639,-0.2468122690916061,0.0994643121957779,-0.0149645479395985,0.0096646854653954,0.0890697240829467,-0.995866060256958,0.0,0.0,0.0,0.11781935092102902,-0.2371045614367554,-0.13151231223389023,0.077824468,0.0994643121957779,0.005112950153840879,-0.0338292056591186,-0.11036627658281394,-3.6716492529369678,-3.599848163774984,-4.631631932649807,0.03153659592256037,-0.016584448395598302,-0.17866575425487216,0.005958941865803702,0.005460158108917312,0.00022875377341780023,5.965262909683034,-15.428925524103652,-38.188761077522,0.0042607970653842165,0.006844346875358352
8770,1724815090968133700,0.0597708374261856,-0.2467889338731765,0.0994518771767616,-0.0149810658767819,0.0098015461117029,0.0895182341337204,-0.9958243370056152,0.0,0.0,0.0,0.36202941067773403,-0.28941192821200634,-0.5344096936127483,0.087439307,0.0994518771767616,0.005185620696705749,-0.029524907654125545,-0.0932899237728891,0.7691228474053133,0.17698410521420238,3.4471717822288572,0.03160159376175482,-0.01683987509242669,-0.17957138974291248,0.006392592581756951,0.0016514482476335246,-0.0029907876777519604,22.437408750196273,5.447882247928279,-2.691275080777798,0.005881339062842095,0.006797247631820169
8772,1724815090982842585,0.0598637759685516,-0.2467820942401886,0.0993696898221969,-0.0152060240507125,0.010064915753901,0.0895559266209602,-0.995814859867096,0.0,0.0,0.0,0.625411038027321,0.03572360739305146,0.30835538018145137,0.102148192,0.0993696898221969,0.03363514538147143,-0.033012645770188385,-0.0049824106689019005,0.13832287787179443,-14.445529318591142,1.8536638289023357,0.03209784147236061,-0.017322872561051625,-0.17966009590232876,0.018849077248946244,-0.00020416672676759617,-0.015341783562117683,-43.2128110134063,15.13380014358935,108.16351561403837,0.0060360288007162925,0.006425919118542329
8774,1724815090988134381,0.0599873773753643,-0.2467844486236572,0.0992699339985847,-0.0152553021907806,0.0104317935183644,0.0895686894655227,-0.9958091974258424,0.0,0.0,0.0,0.28037773463362314,0.10253722921614133,0.977576734547973,0.107439988,0.0992699339985847,0.030948142582275413,-0.13650573235516594,-0.0030741032576085993,1.1780859391019565,-9.720937368685897,-2.087707747851178,0.0322623122790057,-0.01804433619744028,-0.17969960806951576,0.02173701006754669,0.00029306545408580575,-0.01152434333214103,-39.78980876421265,6.1830196522558865,49.93492903778481,0.022716695532392122,0.023341266683800883
8776,1724815090998175147,0.0601747669279575,-0.246767446398735,0.0992938056588172,-0.0156124215573072,0.0106935948133468,0.0899216830730438,-0.9957690238952636,0.0,0.0,0.0,0.36499095716053553,0.04187278060600479,0.02096450499900182,0.117480754,0.0992938056588172,0.07489517265517734,-0.04671387221432643,-0.07068068494202734,1.2463410222044087,7.012162081009296,-4.601758116183042,0.033027552347548235,-0.01848996402822764,-0.18042433112318013,0.019496694479177012,0.001485973290419551,0.003172064026792043,24.625719097225033,-2.904203616660154,-87.72549462916612,0.01809694096441757,0.018602163880898623
8778,1724815091009432757,0.0604047775268554,-0.2467533349990844,0.0993395447731018,-0.0158991087228059,0.0106661552563309,0.0904537439346313,-0.995716631412506,0.0,0.0,0.0,0.8466770890329527,0.04878107804864054,-0.8713529620098558,0.128738364,0.0993395447731018,0.04941281818426511,0.007858831651798787,-0.09558246543330448,15.47643217291318,1.1651280475155712,13.709448355194306,0.03360359116047697,-0.018365700983443436,-0.181497013720198,0.031028736978808702,0.0009863097234195095,-0.014801694026564505,-30.39463176212648,11.015669434447004,74.11691489513116,0.01994097326133201,0.02021996345784396
8780,1724815091017944558,0.0607370883226394,-0.2467466592788696,0.0990921482443809,-0.0171426516026258,0.0108132939785718,0.0899169892072677,-0.9957430958747864,0.0,0.0,0.0,0.11698412120834956,0.20948864719576105,0.7466278652450038,0.137250165,0.0990921482443809,0.295314686870444,-0.005923345201748785,0.12357548580797041,10.297779044997082,-2.8936414683426683,5.5868061876452835,0.03609793498197019,-0.018452741593930882,-0.18044740607700505,0.037091854817188796,0.0020011116511735594,-0.017551075873857513,-77.95745046039117,5.747477718692131,119.96558049277607,0.03772372060805969,0.03925641097391911
8782,1724815091028507665,0.0611033402383327,-0.2467095702886581,0.0990576893091201,-0.0179654750972986,0.011161814443767,0.0903422236442565,-0.995686173439026,0.0,0.0,0.0,-0.6046367650672921,0.09804133349897079,1.094634577463578,0.147813272,0.0990576893091201,0.16037636300742136,-0.0531957501772537,-0.08169289892280021,-37.5241486786012,4.131835095718142,-16.765382727596617,0.0378085336925784,-0.018982386655936503,-0.18133063385978013,0.03052346305086573,0.005397234931701078,0.004357246302606477,-30.371098309381523,-18.65636926623507,-47.52763656171632,0.03340311929831661,0.034811497549051135
8784,1724815091038390655,0.0613666363060474,-0.2466387897729873,0.0991712063550949,-0.0158461537212133,0.010615118779242,0.0914560481905937,-0.9956264495849608,0.0,0.0,0.0,-0.5539375982160034,-0.16129052224324414,-0.11918844558807996,0.157696262,0.0991712063550949,-0.4393261611572954,0.06722582837528424,-0.22272236673437112,-10.535597796038697,-1.2205154564287986,2.5874236926610164,0.03350717538480212,-0.018239944222074332,-0.18350708903518811,0.02470676704713437,0.004299855588314472,0.006119263166601385,-1.494646839638886,-7.759992949684128,-70.26602496230564,0.025092490473551776,0.027215438329487383
8786,1724815091048301115,0.0615922659635543,-0.246624618768692,0.0991785153746604,-0.0155883291736245,0.0109774908050894,0.091610349714756,-0.995612382888794,0.0,0.0,0.0,-0.6345854432843486,-0.05453898411379199,-0.2932811785939235,0.167606722,0.0991785153746604,-0.04540068805077713,-0.07809146963799699,-0.029551427902854838,19.924516599487205,-12.771677426504459,10.391833569433922,0.03306316323293626,-0.01900369079539144,-0.18382559785789454,0.0195610314920609,0.0022019742885852622,0.001981729704216839,-8.164778684269375,6.0945666746816105,-2.7890578263211623,0.022131880387254544,0.02262131557091911
8788,1724815091058179824,0.061753936111927,-0.2465952634811401,0.0992103442549705,-0.0152899231761693,0.0118692992255091,0.0917081162333488,-0.995597779750824,0.0,0.0,0.0,-0.7155100634181442,-0.04038758695589231,-0.17531848026245223,0.177485431,0.0992103442549705,-0.04377969175096082,-0.18563496643234995,-0.016499686914296638,2.2455209948191226,3.873946534921166,-0.226899242716883,0.032635121283047575,-0.02083118235001419,-0.1840487797836994,0.012156162496433698,0.0032106114060130864,0.00030759738599073216,6.275206515682061,-3.438764124387999,16.774221502286494,0.015609021242025204,0.016541994739572633
8790,1724815091067957705,0.061832059174776,-0.2465615570545196,0.0991851463913917,-0.0152815077453851,0.0118898982182145,0.0918726176023483,-0.9955825209617616,0.0,0.0,0.0,-0.5141387564547091,-0.121156051069999,0.03547316285344963,0.187263312,0.0991851463913917,-0.0016789935664413592,-0.004904211686496765,-0.033700903142659396,2.1264445923291473,8.803219207897362,0.1747188221290928,0.03262560631255347,-0.020868360071169663,-0.18437977304362438,0.0054897084673473096,0.0014366793170701442,-0.0014632601655417687,24.643090866716427,-0.8352379902502467,9.956282237890624,0.007167000920254082,0.0085502432000453
8792,1724815091078859944,0.0618615187704563,-0.2465703338384628,0.0991827324032783,-0.0152416583150625,0.0120310885831713,0.0919201374053955,-0.9955770969390868,0.0,0.0,0.0,-0.19626059346797675,-0.040003510983444616,0.002989657736394799,0.198165551,0.0991827324032783,-0.004986863022855553,-0.026603415366102976,-0.008287618194418046,-0.577743337936035,0.9930696533368433,-0.48011380615136323,0.03257333785607814,-0.021155299798246128,-0.18447957141398505,0.0019223851429037708,0.0008484047880621404,0.0015562191613618381,21.695050469556794,1.6322956443093917,-9.60813960644461,0.002798671406426344,0.0025145901280179466
8794,1724815091088524886,0.0618734173476696,-0.2465479671955108,0.0992130041122436,-0.0151854455471038,0.0119814556092023,0.0920983329415321,-0.9955620765686036,0.0,0.0,0.0,-0.050514907529816785,-0.07401960597560371,-0.14666685306017635,0.207830493,0.0992130041122436,-0.012921208435191282,0.008556628668627693,-0.03701382938721187,0.13187340654609114,-0.08927235431683966,1.5695469296679303,0.032455946050225046,-0.021061014171718892,-0.1848345060376968,0.001147522391761413,0.0005813452094649563,-0.0007622781969987003,8.331313685042222,-1.9373370707233701,3.275280980551347,0.0008506104294852121,0.0015499210745739532
8796,1724815091097798665,0.0618833154439926,-0.2465579956769943,0.0991712808609008,-0.0151587221771478,0.0120987715199589,0.0920174121856689,-0.995568573474884,0.0,0.0,0.0,-0.03330346567582676,-0.07790694306557751,0.05064004001916976,0.217104272,0.0991712808609008,-0.003219676434043699,-0.02543726552571906,0.017956362606400985,0.1905250633867107,-1.7087791104583765,2.1713572337736635,0.032422725336904906,-0.02130219169245436,-0.18467569522756036,0.0009429650001333556,-0.0005178758569712727,-0.0012929164692314643,2.334734479849618,2.8126316631624575,11.482529905363483,0.0011516276543373325,0.0009721355552886579
8798,1724815091108383504,0.0618917942047119,-0.246556669473648,0.0991963297128677,-0.0150885190814733,0.0121975606307387,0.0920431241393089,-0.995565950870514,0.0,0.0,0.0,-0.002806066049211367,-0.009091433503915579,0.05386608028260379,0.227689111,0.0991963297128677,-0.01153971358647929,-0.019883671719184027,-0.004438886670821465,1.972866880525616,1.5830356312973541,-0.39289741786210197,0.03230172365806066,-0.021511022131743975,-0.1847294387291864,0.0004545892038838595,-0.000851731058963523,0.0005461744178107963,3.801437752401765,7.7583723585385895,-1.9333478865007172,0.0008151109469890399,0.0007460863770794751
8800,1724815091118559038,0.061893031001091,-0.2465748935937881,0.0991840809583664,-0.0152710089460015,0.0121815260499715,0.0919977873563766,-0.9955676198005676,0.0,0.0,0.0,0.04487707657082869,0.08215062759840291,0.012299746330498254,0.237864645,0.0991840809583664,0.0355229787588212,0.006577510662954046,0.008416561072972993,-1.0678617570532094,1.1617096342763378,-1.0376149611299057,0.03266130758780024,-0.021446911841046568,-0.18464167068305068,0.0008499229524936425,-0.000724639437377661,-7.839771456996658e-05,0.275321202392934,5.577980196852701,-3.803930347974199,0.00042237500866155504,-0.00017537261619039436
8802,1724815091128752190,0.0619091317057609,-0.2465713918209076,0.0991947725415229,-0.0151044139638543,0.0121449092403054,0.0921297445893287,-0.9955583810806274,0.0,0.0,0.0,0.00264631380440343,0.10440518152596348,-0.023605072700996644,0.248057797,0.0991947725415229,-0.03349142467652173,0.003728086956661137,-0.025654887640495217,-1.7807070591190057,-0.08243801851638088,-0.39173817149018103,0.032325496613716066,-0.02140043421466681,-0.1849018528362769,0.0013688887896754487,0.0008240259688552243,0.0007993025083283811,-5.471478783290049,-9.770936582437507,-7.648895394450515,0.0015115801569020922,0.0015868906896649652
8804,1724815091138443218,0.0619204565882682,-0.2465589791536331,0.0992002189159393,-0.01508364174515,0.0121197216212749,0.0921405926346778,-0.995557963848114,0.0,0.0,0.0,-0.06261758161845354,-0.10042711996817642,-0.13575035521840834,0.257748825,0.0992002189159393,-0.0047726478153601246,0.004745231445588539,-0.002263221095688928,3.056608917989696,0.8362094050225939,2.1848646384082957,0.0322796794229097,-0.021353762169379224,-0.18492228091154575,0.0009498207564293537,0.0013979250632374374,-0.0004403009829685445,-3.5050453869975837,-15.68509377180167,-1.431886684146947,0.0009249539640454465,0.00136780266361474
8806,1724815091150544569,0.0619286447763443,-0.246540293097496,0.0991797447204589,-0.0152991162613034,0.0119842542335391,0.092010959982872,-0.9955683350563048,0.0,0.0,0.0,-0.05623307232047836,-0.20786415437860487,0.00015188014414177498,0.269850176,0.0991797447204589,0.03362434512283595,0.025914563580972483,0.020717950491980865,-1.316396019268445,-5.671790799301496,-0.4094463370931948,0.03268105199579352,-0.021048469497950247,-0.18466146622756707,-0.0001007107234656246,-0.0022298267023899143,-0.00220150298057753,3.918266693493745,15.984325767122272,18.954326887189055,0.00034591324541447915,0.0009924470347266513
8808,1724815091158280319,0.0619240216910839,-0.2465762048959732,0.0991601943969726,-0.0152841573581099,0.0121955350041389,0.0919905081391334,-0.9955678582191468,0.0,0.0,0.0,-0.009155245753812819,0.038732631418932045,0.18497336348687926,0.277585926,0.0991601943969726,0.0012409737812656399,-0.054658862414425115,0.006134896848298921,-3.2344278780990967,-6.512553858798947,-1.5011166984860016,0.0326899350752934,-0.02147262056188834,-0.18462783253489165,-0.0003845057757343451,-0.0033832794801256227,-0.0014798856305919816,5.924421276449759,23.447731219143314,10.623900375863915,0.00021044661311994637,-0.0013674393842437774
8810,1724815091174918821,0.0619252510368824,-0.2465874403715133,0.0991730540990829,-0.0151134766638278,0.0123739885166287,0.0920375809073448,-0.9955639839172364,0.0,0.0,0.0,0.08364483355355651,0.12718919303387122,-0.11308224151026758,0.294224428,0.0991730540990829,-0.01851405205889929,-0.02333506968342399,-0.005097992605638669,-8.730569311634234,12.793771668506377,-14.648793986434963,0.03238400439912876,-0.02185791940980956,-0.18472529063606014,0.000448415543942815,0.00398339377779422,0.0048791069310709645,6.230626812008161,-29.82622973042774,-37.39340204633034,0.0002135051475517203,-7.207793838514838e-05
8812,1724815091178923790,0.0619274079799652,-0.2465669959783554,0.0991965532302856,-0.015001356601715,0.0122838551178574,0.0921918973326683,-0.9955524802207948,0.0,0.0,0.0,0.10922799280235483,-0.02614195678641592,-0.2816204841208134,0.298229397,0.0991965532302856,-0.06075153366884814,0.03842212110808964,-0.07723680469377356,-5.536107540587882,9.86313022931481,-10.55877854325188,0.0321473194231445,-0.021694139435815378,-0.18502955491783862,0.0008157869363487613,0.004188578351275396,0.003948770289868175,12.712616785449613,-26.38709494450993,-30.498372549739855,-0.0002824001222650724,0.0013046769052317228
8814,1724815091188873004,0.0619423761963844,-0.2465479671955108,0.0991884171962738,-0.0150404926389455,0.0122916037216782,0.0921818912029266,-0.9955527186393738,0.0,0.0,0.0,0.3920314340680399,0.005401571170023184,-0.29874723410732373,0.308178611,0.0991884171962738,0.007999762526903244,-0.0007946521214526878,0.001933641331020491,4.309879152459704,-1.5007842062519956,3.983771017199995,0.032226498877450244,-0.021702660529475955,-0.18501057589712763,0.0023350274401063853,0.0020160984825254857,-7.224678858319677e-05,22.36275284325719,7.2415960037893345,9.041133536306495,0.0011089415511301552,0.001851057793983205
8816,1724815091203021347,0.06199212372303,-0.2465173602104187,0.0992023944854736,-0.0151773607358336,0.0121094305068254,0.0923300459980964,-0.995539128780365,0.0,0.0,0.0,0.5864624879125826,0.18976847299667976,0.04570956226813919,0.322326954,0.0992023944854736,0.016659148371366107,0.027082243773525205,-0.02165213994620573,-0.12911082784236405,-6.145195166411848,-2.2346765659546772,0.03246851647667333,-0.021309783747138704,-0.18530442726600835,0.012696918169831761,0.006594484961098601,-0.0021782633476785662,-32.46716952735002,-18.14610402295741,28.162239924686485,0.0030777216375291795,0.003825466073700759
8818,1724815091208345516,0.0620781183242797,-0.2464733719825744,0.0991844534873962,-0.0152114909142255,0.0121696181595325,0.0924223959445953,-0.9955293536186218,0.0,0.0,0.0,0.3210192158016836,0.030690985846627744,0.2032959023031825,0.327651123,0.0991844534873962,0.014486810129785335,-0.021895594408173086,-0.034687228643664865,0.8376451340423661,-6.358555343633089,-2.0091532947000728,0.032549675059011636,-0.021420297333106263,-0.18549286040880977,0.015527002247393007,0.0073367099750552,-0.0015450849313043413,-42.362423142554725,-14.742026738922135,10.123861398908788,0.014275432089187532,0.017479448340616283
8820,1724815091218433444,0.0622228123247623,-0.2464170455932617,0.0992037430405616,-0.0154342828318476,0.0123472418636083,0.0926557630300521,-0.9955020546913148,0.0,0.0,0.0,0.03690793917167223,0.1712908871956545,-0.06681014922011536,0.337739051,0.0992037430405616,0.04674648175774202,-0.03174501786765258,-0.04656182859649699,-1.267112119169113,-0.7683453447598585,-1.0432911385721282,0.0330316064812457,-0.021724967681893,-0.1859729348221275,0.014741251483577411,0.005568323057913105,0.0021184110934848732,-8.600724086643284,15.23269948070215,-19.60522989029529,0.01310200105680195,0.01506806919848464
8822,1724815091228372333,0.0623732209205627,-0.2463618516921997,0.0992268174886703,-0.0153731629252433,0.01252331584692,0.0929343625903129,-0.9954747557640076,0.0,0.0,0.0,0.14298593308928575,0.3353702347378695,-0.1914558647471416,0.34767794,0.0992268174886703,-0.00956833708922702,-0.037344651824807035,-0.055620623127595435,6.310350582799425,7.952705587112371,4.4437066916015,0.032948873616093076,-0.022077692864333247,-0.18653779148228,0.016232184764488622,0.010664574055034848,-0.0027558627264063773,4.892509837284567,-14.822389371148024,20.63443717892996,0.013888781907406856,0.015828047850237205
8824,1724815091238138356,0.0625422894954681,-0.2462086528539657,0.0991511791944503,-0.0162378530949354,0.0120087852701544,0.0927245691418647,-0.9954870343208312,0.0,0.0,0.0,0.1352955435377543,-0.11004499033655801,0.32841948317500236,0.357443963,0.0991511791944503,0.16698674858001944,0.12204365832564315,0.03916567290807647,5.516834419798787,5.344092381589757,0.8944554189797524,0.034570597127555586,-0.020899405596519698,-0.18611522746595233,0.017561184056896106,0.01223755951879646,-0.001756673977347134,-0.1669185295292559,-30.3645322641977,14.980146352574899,0.013945262773865416,0.02010761279494026
8826,1724815091249013863,0.0627362951636314,-0.2461173385381698,0.0992045998573303,-0.0166706163436174,0.0117857763543725,0.0930284783244133,-0.9954540729522704,0.0,0.0,0.0,0.14099566574317002,-0.2556524962663777,0.028053695681486274,0.36831947,0.0992045998573303,0.07485029233275586,0.0472253130480476,-0.057820224192926595,-5.619783844913689,-2.535093991509476,-5.857389269362793,0.03539722078020902,-0.020364121469709683,-0.1867257889580469,0.01902304288851564,0.007757315699324252,0.004553441013884552,-13.014892259509704,0.4515032886605308,-33.83956372115841,0.01606667935648787,0.01894635130955916
8828,1724815091259615810,0.0629502162337303,-0.2460417002439499,0.0992491692304611,-0.0169444326311349,0.0114557268097996,0.0934857949614524,-0.9954105019569396,0.0,0.0,0.0,-0.13691690216346775,-0.10782479662594752,-0.3950073588651292,0.378921417,0.0992491692304611,0.0447472630237209,0.06524926181562497,-0.0882895036587033,1.5912501967838955,-8.765317511466229,8.915628795946212,0.03588985196629984,-0.01963943652720211,-0.18763678136790377,0.02058585821919312,0.006662352883386902,-0.0008558538434906282,154.70676769126908,36.84423055951025,204.89317554394756,0.01857152713963953,0.021035384751643783
8830,1724815091268175127,0.0631292387843132,-0.2459879368543625,0.0992068797349929,-0.0172872506082057,0.0118460869416594,0.0931913331151008,-0.9954276084899902,0.0,0.0,0.0,2.4374672636943933,0.3657863581236367,3.0503440477923145,0.387480734,0.0992068797349929,0.08898400558244667,-0.08209405189637545,0.06949078623694983,3.7439935500229296,-10.601250824885863,11.898996757829769,0.03664011062800382,-0.020363207401272114,-0.18706772644013037,0.017449189873170456,0.005708036585200915,-0.003440720936318753,32.66018852845593,4.008603003933121,78.07912452576127,0.01927781888509762,0.021841597007388882
8832,1724815091288836947,0.0633168816566467,-0.2458985894918441,0.0992106050252914,-0.0182962510734796,0.0116407414898276,0.093283362686634,-0.9954034090042114,0.0,0.0,0.0,-10.260147070006155,-2.111273143648212,-11.518772699933152,0.408142554,0.0992106050252914,0.09530415577884413,0.02870599231093081,-0.010586339844693952,-11481.855904198861,-222.66292950849788,-4113.997304266189,0.03861320897283789,-0.019762282202749705,-0.18726404447934716,0.20766256594194488,0.03707105772230079,0.2267886504338037,-1898.9564477908934,-319.85818032825364,-2194.8625316812177,0.00811977337768418,0.009717531128772824
8834,1724815091289426249,0.0634425953030586,-0.2458761930465698,0.099348060786724,-0.0162886977195739,0.011469742283225,0.0940416976809501,-0.9953689575195312,0.0,0.0,0.0,-11.400793856742434,-2.3031272762715878,-12.837248621544274,0.408731856,0.099348060786724,-6.86396476462705,-0.10634229212466728,-2.504054707594556,-11050.93865849893,-214.92855553247338,-3959.527484842316,0.03459745820412562,-0.01977090527787673,-0.18874129884669924,0.20128905983244555,0.03576588196599784,0.21961972757415094,-1816.2174547907998,-303.84105966585474,-2101.3853523045873,0.20697906055496515,0.21055729306998974
8836,1724815091298590936,0.0635717064142227,-0.2458675503730774,0.0994178652763366,-0.0160470623522996,0.0116568785160779,0.0943573489785194,-0.9953408241271972,0.0,0.0,0.0,-11.032104815816389,-1.9919630926513634,-12.716880602433319,0.417896543,0.0994178652763366,-0.04933718244812812,-0.04680086259305517,-0.06787258835122331,401.3009167140257,6.79040005442052,143.67430394619663,0.034158011161213704,-0.02017818687425627,-0.18937782730463595,0.01336244597402425,0.0020669190617716993,0.006172221264328925,499.1105575132217,105.74968132799256,557.9975165041781,0.013809395720160184,0.013810176512601456
8838,1724815091309155796,0.0637040436267852,-0.2458320260047912,0.0994654819369316,-0.0161783043295145,0.0115146422758698,0.0945513471961021,-0.9953219294548036,0.0,0.0,0.0,-0.17037978627609796,-0.0003184135525641646,-0.18584800992136707,0.428461403,0.0994654819369316,0.0218178477590387,0.02851411702563103,-0.03761328452337809,3.4589478017353823,0.8138285367949376,4.6092129821055945,0.03439625812950192,-0.019863497187501265,-0.18976472069146014,0.012185977073282839,0.001544631749265335,0.0005922390956323298,511.0892048518987,97.3525639151863,602.5364592724562,0.011754263678301497,0.01281341256853085
8840,1724815091319340150,0.0638248100876808,-0.2458341419696808,0.0994330793619155,-0.0162907298654317,0.0116565003991127,0.0944178476929664,-0.9953311085700988,0.0,0.0,0.0,-0.04103995555118173,0.09615318711982662,0.2213825053599378,0.438645757,0.0994330793619155,0.024881533869368443,-0.025195319258569573,0.026460856490294934,-2.2231730899488826,0.014959122250938872,-1.1540291921687085,0.03464445072910033,-0.02012924294789099,-0.18950419522663864,0.009871307662096207,0.0020236060793390465,0.0020602055417113796,13.436197201105227,1.3668481999988207,-0.5943907357498315,0.011618484055840553,0.011688035883463246
8842,1724815091331511331,0.0639160573482513,-0.2457770556211471,0.0995343998074531,-0.0160917919129133,0.0113101946189999,0.0949962213635444,-0.995283305644989,0.0,0.0,0.0,0.1332049627723556,-0.005112749382122195,-0.3761169719702496,0.450816938,0.0995343998074531,-0.03889016975441789,0.051913824743611704,-0.09588377818030282,-2.1920764391420478,-3.6460479176482723,2.304794573181365,0.03419376950368813,-0.01945760466874024,-0.19064900351648706,0.012080734434041673,0.003908424728550131,0.005878240539397339,-16.26499984599192,-7.176015175897884,-34.8665112121748,0.006633108592915987,0.008032105118953381
8844,1724815091338746294,0.0640231743454933,-0.245752140879631,0.0995664075016975,-0.0159369483590126,0.0113569870591163,0.0950927883386612,-0.9952760934829712,0.0,0.0,0.0,-0.11599245478192516,-0.05211040509836273,-0.5671981003703114,0.458051901,0.0995664075016975,-0.041643401315687924,-0.017392429961728365,-0.026065742536725688,5.103432534307705,-3.139386845227609,8.043794874312397,0.03389624708147943,-0.01957694818984993,-0.19084181802384065,0.012836638286378932,0.0031834418593899017,0.00019036991198895237,-26.077903632326475,2.5857019324374932,11.66391638266382,0.013967402150506339,0.015071057565417581
8846,1724815091347833204,0.0641173496842384,-0.2457261830568313,0.0995198190212249,-0.0162517987191677,0.0112634375691413,0.0949575528502464,-0.9952849745750428,0.0,0.0,0.0,-0.25748432356719203,0.0750331745873608,-0.026666135497893796,0.467138811,0.0995198190212249,0.06731914035103936,0.027578940042131937,0.0286950198828296,4.4974690130603845,2.1255991868076585,1.7899192827466615,0.03450273231749622,-0.01933540303707401,-0.19057260061869027,0.009266402491263204,0.003258823626859808,-0.0024646665230050324,0.5471233237838704,5.758561184601363,40.3908933514244,0.009534187590516463,0.01084400205897218
8848,1724815091359022686,0.064205914735794,-0.2456841766834259,0.0995289236307144,-0.016339162364602,0.0112008210271596,0.0950092375278472,-0.9952793121337892,0.0,0.0,0.0,-0.029278432835880552,0.026024290383955817,0.16220216334422516,0.478328293,0.0995289236307144,0.01439131637128661,0.01246052209422494,-0.00964840392064418,-4.157798930184799,-2.4564568705109036,-1.7090339002468353,0.03466574913299902,-0.019192326390747003,-0.19067569246376648,0.008251102006872735,0.005017952857308217,0.0008953861343599101,12.225975961868794,0.4905504231610167,15.23196525772967,0.007074408350817798,0.008458084763210359
8850,1724815091368694424,0.0642885267734527,-0.2456250786781311,0.0995382666587829,-0.0162291135638952,0.0112890722230076,0.0950688794255256,-0.9952744245529176,0.0,0.0,0.0,0.020678782346743863,0.07148510864926949,0.2957519876274911,0.488000031,0.0995382666587829,-0.021037127987618254,-0.02053808440904524,-0.01181796378042134,-2.0692188752559884,-1.4028153430856467,-0.8732558500930749,0.03446462002357701,-0.019386896850227712,-0.19079681316891753,0.00848171410464671,0.004172935672093203,0.001309795382302248,7.963234954010735,8.469613798484131,8.03370650192463,0.007245179146455732,0.009514411564855435
8852,1724815091378319347,0.0643695890903472,-0.2456034719944,0.0995541661977768,-0.0161007475107908,0.0113461269065737,0.0951980575919151,-0.9952634572982788,0.0,0.0,0.0,0.12412407384747909,0.18910749716593764,0.3177652367285609,0.497624954,0.0995541661977768,-0.025686571753767335,-0.014796781530871142,-0.02643871317070833,-6.031048723834218,3.8431241063770587,-5.890078278579926,0.0342224281739761,-0.019520490895160135,-0.19105605184723892,0.008650429093842948,0.006382539183432456,0.006578789836133581,17.87224564028058,-12.143358488027104,-61.61120008604841,0.007873338133620565,0.008649501407497042
8854,1724815091388623852,0.0644612461328506,-0.2454920560121536,0.0996763110160827,-0.0153741342946887,0.0109509322792291,0.095895767211914,-0.9952124357223512,0.0,0.0,0.0,0.3868877694656351,-0.20480875658397737,-1.0220382960317633,0.507929459,0.0996763110160827,-0.14903931025336986,0.060621652494759926,-0.13535453215162646,2.267171169436954,-2.2423887379010816,1.168333000501978,0.0327129999647111,-0.018849495362640356,-0.19242939947475302,0.01110543086674376,0.007884801782838124,0.007319499387962836,20.320603782171986,-23.62830321928962,-74.55768864233013,0.006885112872294211,0.010495950431388859
8856,1724815091398057652,0.0645851045846939,-0.2454429566860199,0.0997062027454376,-0.015333835966885,0.011149525642395,0.0960068926215171,-0.9952001571655272,0.0,0.0,0.0,0.5338565495310564,-0.3016243753637554,-1.2463811985776951,0.517363259,0.0997062027454376,-0.004683009751866462,-0.04311092928656077,-0.022954980155303895,17.44001919658302,-3.529936065601386,16.717277242924794,0.03267319932673394,-0.019248900119191597,-0.19265917920151296,0.01603902669482915,0.0029246982195356708,-0.011770032193207491,-3.182611800378515,4.813896001825951,68.02637117162054,0.011948571488508511,0.013797060517949884
8858,1724815091408535214,0.0647870153188705,-0.2454388439655304,0.0994090437889099,-0.0163830537348985,0.0112329265102744,0.094909481704235,-0.9952877759933472,0.0,0.0,0.0,0.28218577155653357,-0.07574384075198519,0.5347111083176121,0.527840821,0.0994090437889099,0.20292522711371724,0.0067832589547738905,0.20808964978056863,-3.396586066746267,3.906069401807118,-5.642464167002781,0.03475736582378092,-0.019251363729868572,-0.190477352317398,0.021759224683498335,0.0023728660088000453,-0.015785594640510325,3.8537190322507513,24.283519539804637,158.44342720912576,0.018298470951512803,0.01971511054437993
8860,1724815091418567120,0.0650292038917541,-0.2453960180282592,0.0993714779615402,-0.0161374043673276,0.011009314097464,0.095481127500534,-0.9952396154403688,0.0,0.0,0.0,0.5885784833850949,0.19404050472179626,2.0132828883968448,0.537872727,0.0993714779615402,-0.05409679660448781,0.0377471557494749,-0.11452002426214788,-17.247020797779644,-2.6491832602788024,-16.21456677252114,0.03423628979396048,-0.018833289248283425,-0.1916126699577035,0.02205660089257977,0.0013913626991026717,-0.0016041840708158617,19.8757273233349,25.385518084353315,34.1909436793735,0.022812424543112792,0.024599207013167944
8862,1724815091430817460,0.0652682110667228,-0.2454220205545425,0.0993838459253311,-0.0152411852031946,0.0114107662811875,0.0959535092115402,-0.995203733444214,0.0,0.0,0.0,0.6725049815343747,0.482476298373019,0.7387948474118085,0.550123067,0.0993838459253311,-0.14011746049031334,-0.08050897919209198,-0.07464509415276602,-7.878720211506691,17.232144909128248,-57.41251376679365,0.03253808551527138,-0.019788475448401482,-0.19255966568548996,0.03762820039527348,0.008134741165381598,0.03202962460952641,-71.03631153150317,-27.60546214066897,-219.03849444176012,0.01957200578642532,0.018715370671479492
8864,1724815091437710607,0.0655978620052337,-0.2453261613845825,0.0997249484062194,-0.0146377421915531,0.0108192879706621,0.0983740910887718,-0.9949830174446106,0.0,0.0,0.0,-0.1192606075282372,0.09378966368241126,-1.2171269420296549,0.557016214,0.0997249484062194,-0.1977499909002872,0.1425554606433304,-0.7057095052039141,3.3604415022363625,14.344160870382218,-32.39349347492901,0.031267817199062825,-0.018651147745012375,-0.19739129102379507,0.03994204070061347,0.01119681454774657,0.029338667043048883,-76.24129873599836,-46.889601650809865,-174.2272126606368,0.04508232871152085,0.04839621562800052
8866,1724815091448869436,0.0659012049436569,-0.2452501654624939,0.0996884182095527,-0.0149109400808811,0.0109743950888514,0.0983649343252182,-0.9949782490730286,0.0,0.0,0.0,-0.2723576486004309,-0.2578728766258477,-1.1828753788194806,0.568175043,0.0996884182095527,0.05148473014722251,-0.022828723421463897,0.001426019052852453,6.6258779808393555,-7.710058152866759,23.3159821489135,0.031842183879864185,-0.018906267847926008,-0.19738345379690742,0.030393209847845437,0.005913140511932369,0.0008224285081981364,21.848151560381737,-9.728025600540324,60.210196562153854,0.025254326775495994,0.0280634667683415
8868,1724815091458082666,0.0662056356668472,-0.2452025115489959,0.0997271537780761,-0.0148654486984014,0.011147454380989,0.0987733826041221,-0.994936466217041,0.0,0.0,0.0,0.19949478268391463,-0.18177445694241762,-0.19348361513064016,0.577388273,0.0997271537780761,-0.006968114614764436,-0.03977191011388824,-0.08844398850910297,2.462583002457316,0.5884210335959752,-1.6036283907071982,0.03179374120426268,-0.019246584667863387,-0.19820967412117663,0.03232146811360748,0.005177521428615606,0.0003655820719936642,15.847051496037896,2.8338135313473263,58.6436879943911,0.03145241991999926,0.03329910689328224
8870,1724815091467920827,0.0665160417556762,-0.2451515197753906,0.0996904224157333,-0.015399632975459,0.0112409433349967,0.0988589599728584,-0.9949187636375428,0.0,0.0,0.0,-0.01615309704338741,-0.210896380246779,-0.12862162981643022,0.587226434,0.0996904224157333,0.10978125365526743,-0.008481639248210607,-0.01859242354467702,6.347202898970002,-5.062198826957163,5.339619471495551,0.032877363419198134,-0.019324070132360958,-0.19839521564482926,0.03418120208092068,0.0023183642454913667,-0.0030496554298222733,1266.8366164377019,614.1285333029783,-177.7818724453309,0.02983303694622688,0.032039212013167014
8872,1724815091478238657,0.0668971762061119,-0.2451585978269577,0.0996663570404052,-0.0159152019768953,0.0120706735178828,0.0987745523452758,-0.9949093461036682,0.0,0.0,0.0,27.000334750996828,12.803022987894407,-3.9580430807142806,0.597544264,0.0996663570404052,0.11554161763490085,-0.14990584801515158,0.017451301916467155,0.5946097030911006,-6.701822504093366,2.5255479699428474,0.03406692773177323,-0.020875934163654318,-0.19826700589815577,0.03179424529628072,0.0010050413429425475,-0.002012169108908113,465.4209458497153,233.76078939926208,-38.19332172810138,0.036294248959207236,0.03613663216945872
8874,1724815091498913696,0.0673413649201393,-0.24506776034832,0.0996380224823951,-0.0172435231506824,0.0121896797791123,0.0984538942575454,-0.994917631149292,0.0,0.0,0.0,-52.57394017729075,-24.934033620650098,9.046200920290516,0.618219303,0.0996380224823951,0.12933979389550662,0.001741929684586872,0.029572312538578536,68266.76355607761,7491.0238984621,42151.1356650303,0.03672826034718369,-0.020861583797824552,-0.19765460678539415,1.7182080197299001,0.8013976652580368,-0.25198837577266886,-12798.553944907966,-6144.945028616654,1924.3394558956643,0.020170243393003235,0.021958193414923426
8876,1724815091499171575,0.0677899122238159,-0.2448585331439972,0.0995722338557243,-0.0195541121065616,0.0121909528970718,0.0970053300261497,-0.995017111301422,0.0,0.0,0.0,-55.903205461517096,-26.532580273777704,9.546614189287945,0.618477182,0.0995722338557243,17.9534834536993,1.9575910817751425,11.035042912468628,67656.7291311104,7424.0593891344815,41774.35825812621,0.04129891422342623,-0.02046813641407664,-0.19479074041738587,1.7042188362265909,0.7947629799715098,-0.24958756328123388,-12627.48689161892,-6064.438093225908,1896.3693967291895,1.5438869260413661,1.8695132879282919
8878,1724815091511367357,0.0682993382215499,-0.244726151227951,0.0997159928083419,-0.0203138645738363,0.0120230987668037,0.0972407758235931,-0.9949809908866882,0.0,0.0,0.0,-46.853946068938924,-22.98300129134625,7.223156075367654,0.630672964,0.0997159928083419,0.12094672633562781,0.038648361351928735,-0.04105039185103774,-539.4493400960973,-77.95591480557837,-323.31131891827624,0.04278367354937949,-0.019976166092497465,-0.19527124327692905,0.06723228396223391,0.007061626131633858,0.003404734330079151,4894.838565147912,2331.615432779354,-694.2275128178388,0.03909835079611453,0.042735200912379596
8880,1724815091518040819,0.0688409879803657,-0.2446928769350052,0.0997081026434898,-0.0198906511068344,0.0126196946948766,0.0974668338894844,-0.9949599504470824,0.0,0.0,0.0,0.9764145029649525,0.028438995963207647,0.7508517881120813,0.637346426,0.0997081026434898,-0.10949831127161438,-0.1916847051089841,-0.06286451046489047,-12.228571023181136,-16.289019808724156,-3.3279079344521634,0.04206268981055762,-0.021236420225537865,-0.1957447092402996,0.07360770833830976,0.005613644068746204,0.0022334975154225667,4561.990484030852,2197.4858645720274,-612.777736891236,0.07860212368269688,0.08059561013676599
8882,1724815091529747300,0.069547489285469,-0.2446142733097076,0.0998043939471244,-0.0210895109921693,0.0127720087766647,0.0980525761842727,-0.9948757290840148,0.0,0.0,0.0,0.8814544926816668,0.0694202991489643,0.9101202346011985,0.649052907,0.0998043939471244,0.20534718712359384,-0.008099953774397069,-0.10303669115881046,-55.821380654067696,-0.022059656365787106,-28.115353622061946,0.044492288975852376,-0.021278967117256294,-0.19695413980321935,0.08547086038550322,0.010986243825879427,0.03004639896047312,-84.97155363861783,-28.891942402086976,-139.4300789463159,0.0580325259318183,0.060234472823017575
8884,1724815091537661734,0.0703583508729934,-0.2445044666528701,0.1001589521765708,-0.018403373658657,0.0128336697816848,0.0998957529664039,-0.9947450160980223,0.0,0.0,0.0,-0.2023036395208755,-0.3325676784849604,-1.0122407283085275,0.656967341,0.1001589521765708,-0.6790406527589753,-0.09230448754077544,-0.45762989998493875,-30.698189520499284,-9.789314508668905,-4.6152121499369505,0.03919678304435769,-0.021857360699355996,-0.20060431740188595,0.09174115797818105,0.009451437398187323,0.029406728677838778,-86.70670994242883,-21.378160187351785,-144.23480899757456,0.09859013470692819,0.10181725316047803
8886,1724815091548042625,0.071164846420288,-0.2444665729999542,0.1002546399831771,-0.0188522972166538,0.0138340126723051,0.0996909514069557,-0.9947437047958374,0.0,0.0,0.0,-0.4184967801858619,-0.15399667963232477,-1.1661964772519493,0.667348232,0.1002546399831771,0.1057995823630607,-0.18235204226265478,0.04166168093536206,43.09707800549546,1.9188101970929092,25.611182986958223,0.04028693059499811,-0.02376602435084399,-0.20024727475929308,0.07609907792336879,0.004111330167836158,0.006216591800110471,7.941153206806275,23.130977145027963,40.920060650566484,0.07560960117593449,0.07655017920991837
8888,1724815091558682516,0.0719571784138679,-0.2444178014993667,0.1002880558371543,-0.0199330877512693,0.0141978291794657,0.099315233528614,-0.9947550296783448,0.0,0.0,0.0,-0.020287075704389146,0.15677312753199496,-0.12282990684877479,0.677988123,0.1002880558371543,0.20984481515596562,-0.046413883347327115,0.06894414417304572,4.238847946221105,-2.298760629032154,1.0674802136202866,0.042502529165653564,-0.02428979384563876,-0.19953455147982915,0.08351480979906611,0.006403333539406475,0.005452350014294893,2893.706602142167,301.5553042670853,923.851010344311,0.07213696884766745,0.07377097183840499
8890,1724815091567829780,0.0727922543883323,-0.2443449199199676,0.1003561094403266,-0.0207771565765142,0.0151432575657963,0.0990142449736595,-0.9947538375854492,0.0,0.0,0.0,48.91109112453268,5.056926999474807,14.821911815127773,0.687135387,0.1003561094403266,0.20505241708571592,-0.18599179904786628,0.06693867104371623,-0.9136300398301977,-7.945292014343136,-0.36896146029521226,0.04436466879409079,-0.026016092888775925,-0.1989965311398357,0.0776886715056736,0.007376208872551082,0.003927711598476824,1126.4923936613845,98.25198210278262,360.32546379521455,0.0880795198847247,0.09077029596980132
8892,1724815091589733529,0.0737804099917411,-0.2442143708467483,0.100257933139801,-0.022587452083826,0.0150764416903257,0.0984257459640502,-0.9947738647460938,0.0,0.0,0.0,-147.90039923434415,-15.73494218557039,-44.07904647740452,0.709039136,0.100257933139801,0.1645999837039192,0.023579616794496928,0.05100429222142747,-34882.073359519265,-17951.588030058756,-19571.949602377234,0.047940638757100605,-0.025551707009342693,-0.19785635456592546,3.7478196893879385,0.3777993872733987,1.1147349965938247,-28666.08890376275,-2870.2644991520647,-8811.764182398969,0.04293324089547502,0.04553638450001389
8894,1724815091589979994,0.0747143849730491,-0.2441202253103256,0.1005357801914215,-0.0214968174695968,0.0155051378533244,0.0990456342697143,-0.9947298765182496,0.0,0.0,0.0,-155.02016699870597,-16.447689449522404,-46.26781778597815,0.709285601,0.1005357801914215,-8.529342490768485,-4.450669650468514,-4.827072537426225,-34504.48919538271,-17757.532944941628,-19360.15734835984,0.045870781575478956,-0.026591649667639182,-0.19909659103150334,3.710492568571635,0.37383073763186864,1.1036081702128895,-28221.577840180507,-2823.6026404634176,-8679.465006782406,3.6677617709173345,3.748750295379887
8896,1724815091601268040,0.0757612064480781,-0.2441152483224868,0.100730113685131,-0.0219951886683702,0.0160572864115238,0.0991593822836875,-0.9946988821029664,0.0,0.0,0.0,-129.29028713076414,-13.02179682092195,-40.227355245560624,0.720573647,0.100730113685131,0.0973304374955251,-0.08908591772370793,-0.01985751772834455,359.26966210145423,163.01397192923275,199.6731157080583,0.04697678301974109,-0.027585769588759423,-0.19936726601019975,0.11486934276071992,0.009597692088760823,0.0011930729557105835,10730.582800468688,1097.7254445387164,3300.5764946650074,0.09125322341525889,0.09032727831055042
8898,1724815091609051338,0.0767740458250045,-0.2439914047718048,0.1006534099578857,-0.0247560795396566,0.0164365079253911,0.0978755131363868,-0.9947549700737,0.0,0.0,0.0,-0.41582867709905713,-0.21547687323962256,0.30343091831253755,0.728356945,0.1006534099578857,0.720321956953326,-0.01909304200689158,0.320335540895746,-19.844753360499514,5.550672696050335,2.903337018981163,0.05251443031851382,-0.027858171133569004,-0.1968835208093155,0.12418008471641917,0.011529482591322804,-0.003672114608837873,9011.16768416533,887.8131469345628,2871.2280175569936,0.12418054816089087,0.13102176303819174
8900,1724815091618324591,0.0778598636388778,-0.2439329028129577,0.1006876677274704,-0.0221447739750146,0.0161931701004505,0.0983967334032058,-0.9947690367698668,0.0,0.0,0.0,-0.23166474686230654,-0.35225384507748037,1.1179657007215038,0.737630198,0.1006876677274704,-0.5672963480206841,-0.005649263391965941,-0.10356948349328109,-70.40231868180986,0.9337241371538061,-29.28883925409437,0.0472805390900419,-0.027862586528539585,-0.19784571321564673,0.10251310230735866,0.004408443822666364,0.009400269903044212,61.67897194760066,17.953958921132276,8.850286686966223,0.11362599772056844,0.11585798689240683
8902,1724815091632307917,0.0789859443902969,-0.243911325931549,0.100939430296421,-0.0214071571826934,0.0161168929189443,0.0995696783065795,-0.9946697354316713,0.0,0.0,0.0,1.5126029499662277,0.5883814245686135,-0.4237713257812543,0.751613524,0.100939430296421,-0.1084231980496025,-0.0034732091241060623,-0.16681653360167387,92.4613706409282,-33.500893985366986,41.76956231064421,0.04582935682073981,-0.02780254539363882,-0.20017901221186216,0.14365572937868976,0.008247215515410744,0.018881988443368414,-140.77767338225325,-4.937621895866954,-59.46677514444802,0.07908543987866472,0.07854220702064633
8904,1724815091638586188,0.080065794289112,-0.2438406497240066,0.1010604500770568,-0.023298168554902,0.0172959361225366,0.0988523587584495,-0.9946789741516112,0.0,0.0,0.0,-0.11968540990619969,0.3538449853011836,-0.6539551448071802,0.757891795,0.1010604500770568,0.6402055347404434,-0.3086730488689481,0.225915280471618,86.48243214994268,-15.779696035109655,38.07295345073503,0.0498105949939896,-0.029806063261294192,-0.19885435940667617,0.14912228415105,0.012825943156844488,0.013115519475048742,-173.87571331186663,-46.55991525691533,2.5024922483685152,0.16688522299822392,0.16998628170421545
8906,1724815091650598574,0.0813313424587249,-0.2436505258083343,0.1010764092206955,-0.0289705041795969,0.0163307096809148,0.0979981273412704,-0.994630753993988,0.0,0.0,0.0,-0.229126745105388,-0.4169704353376069,0.27628375606307976,0.769904181,0.1010764092206955,0.9261500992575951,0.25638240691288444,0.12059602321240258,-147.20167278208956,-20.48167293409861,-19.35261684701952,0.0608901562142757,-0.026811153881371737,-0.1972368942708942,0.12492169627476635,0.00844720534692911,0.011339707141136302,-13.811982159313441,-22.549928057827792,18.609072427802097,0.10020905607316588,0.10629361721794928
8908,1724815091658591389,0.0824338868260383,-0.2436222583055496,0.1012202873826026,-0.0242613479495048,0.0169248152524232,0.0984628200531005,-0.9947010278701782,0.0,0.0,0.0,-0.3645260032705133,-0.37586971359941895,0.11214409233016276,0.777896996,0.1012202873826026,-1.1598604521067515,-0.2664190086541545,-0.09038006081642722,-94.18568025604472,-25.57061893656128,-14.52370483308499,0.05164300803544088,-0.02889660212286655,-0.19807825533466528,0.13258614700106808,0.004835484723306749,0.01580355226895902,185.98669774910374,20.657498231957554,-37.67791248786473,0.13501266355214478,0.1351859900701554
8910,1724815091669816991,0.0838378071784973,-0.2435474991798401,0.1013630479574203,-0.026612414047122,0.0167271476238966,0.0987830236554145,-0.994612455368042,0.0,0.0,0.0,4.922616125578098,0.10063606891927945,-0.5810728522569399,0.789122598,0.1013630479574203,0.4126058367708711,0.07462319564316858,-0.0662441075590256,66.20799757803584,5.259783344606843,8.09849751440817,0.05629460832623829,-0.02802001566081136,-0.19877588135938065,0.10762880802119357,0.0018143503234551162,0.010025502617825754,178.0600605931971,23.226557149188867,-9.423733219942115,0.12159511398006254,0.12336607787135404
8912,1724815091684071347,0.0850564017891883,-0.2436093389987945,0.101457230746746,-0.0265154968947172,0.0189332012087106,0.0977263301610946,-0.994679868221283,0.0,0.0,0.0,2.1586371203467465,0.08379966665043437,0.23177664596259123,0.803376954,0.101457230746746,0.019279311649481382,-0.30509878559007386,0.15686283061235634,155.83722772083885,70.55913105418705,80.83275836468603,0.05650928051772281,-0.032488138549260914,-0.1967877041871009,0.3071398195723134,0.009941707062083083,0.0005416899329233615,-1384.2268303526216,-60.25639407277163,76.45284331888969,0.08485746891864535,0.08267289546450388
8914,1724815091687777417,0.086408257484436,-0.2435587346553802,0.1014533936977386,-0.0279321298003196,0.0190065111964941,0.0967395305633544,-0.9947361350059508,0.0,0.0,0.0,-4.118354018629528,-0.19643741301034695,0.5338365136057734,0.807083024,0.1014533936977386,0.7735697822843689,0.05005472540305327,0.5192405405884705,129.97269016305066,66.24043776047512,62.25638299345159,0.05931347082982158,-0.03241432065181746,-0.1948548243087044,0.3037333713429131,0.009783629894102752,0.002265085654407528,-1307.2677303500313,-48.17008661721221,59.40546881297959,0.3550010596907026,0.3603352455199631
8916,1724815091699131278,0.0877338051795959,-0.2435822933912277,0.1015939116477966,-0.0260619409382343,0.0201175417751073,0.0968624874949455,-0.9947530627250672,0.0,0.0,0.0,-5.5192242988687905,0.21130118069976506,0.4396500740490498,0.818436885,0.1015939116477966,-0.30926460581645077,-0.22709740207603324,-0.00952854846849828,-2.8843961942921297,-6.843995192344598,-20.75957528426479,0.05581075875117827,-0.034982258269597104,-0.1951113090404326,0.14569470690406838,0.002204163933726022,0.010719880712767527,274.96227486090714,40.59093734199318,-25.941972808448845,0.11529827435428228,0.11350786040990535
8918,1724815091708220540,0.089268684387207,-0.243531122803688,0.1016792953014373,-0.0275174751877784,0.0209948848932981,0.0968976393342018,-0.9946923851966858,0.0,0.0,0.0,-0.12152191746427121,0.6142892469630965,0.07545505844344136,0.827526147,0.1016792953014373,0.3374868047628059,-0.1614850344740241,-0.010399366337147536,24.106273424516814,25.36426895305287,3.5469063528501765,0.05888465269830188,-0.03644221304344485,-0.19528994742385455,0.15665149042920312,0.010519691489911054,0.012496597449024094,349.8476937813848,-6.2889288032213475,-20.11946044505516,0.1647979166782407,0.16618367798285177
8920,1724815091718401072,0.0907241851091384,-0.2433682680130005,0.1018418967723846,-0.0278949923813343,0.0194897223263978,0.0965095311403274,-0.994750201702118,0.0,0.0,0.0,0.6577436115070094,-0.027010631103076277,0.09810599409957566,0.837706679,0.1018418967723846,0.046407024852315466,0.3036477616521564,0.06724724098073845,6.0423640605097155,18.284738703330525,0.7825439628117073,0.059326844674169085,-0.033396752952337204,-0.19442338390770272,0.14028294238950334,0.013345970970185306,0.011896212592812816,58.058580044181696,-76.37136347811241,-8.010189711683754,0.13764161530974672,0.14254591995399077
8922,1724815091729718061,0.0922779738903045,-0.2432505786418914,0.101925253868103,-0.0310851372778415,0.0188552513718605,0.0964784324169159,-0.994670867919922,0.0,0.0,0.0,1.0822311140153449,-1.059611394042562,-0.1213061613184343,0.849023668,0.101925253868103,0.5504969397158382,0.16582870293472213,-0.010001707237490528,7.044391373782801,-6.063164437612846,-6.408965325756075,0.0655566907175142,-0.03151666518749787,-0.19441924247523415,0.17622821540648914,0.009207993633150835,0.014982589667106971,-156.86771559454795,-33.089583402546275,-90.97915137529274,0.13286742239177524,0.13630672356281143
8924,1724815091737586861,0.0938776805996894,-0.2431846410036087,0.1020848229527473,-0.0327153094112873,0.0184070579707622,0.0966575965285301,-0.9946095943450928,0.0,0.0,0.0,-1.2156114008496806,-1.001812859721437,-1.2288963851810046,0.856892468,0.1020848229527473,0.4007651095972975,0.15157500549267186,-0.05815127074094825,-42.97411131234064,-23.40470256204574,2.3511537999729115,0.06872187527159906,-0.030295940846741573,-0.19479595782628217,0.17328733781783523,-0.002926747468034563,0.011872238502800503,-101.00591392105719,67.51829369706076,-12.694646912989441,0.19835396212341264,0.2000912810837529
8926,1724815091748699765,0.0953324139118194,-0.2433946132659912,0.1020848229527473,-0.0299631096422672,0.0206548329442739,0.0962269157171249,-0.9946939945220948,0.0,0.0,0.0,0.6597752718829213,0.6928949463405714,0.6399028907133618,0.868005372,0.1020848229527473,-0.45261497455348526,-0.4474143130310338,0.10091218997669472,17.433413176304832,-2.2943890331139816,16.152188835833986,0.06366606000066677,-0.03533131155258275,-0.19400546570064295,0.14656562526375616,-0.005579750199611766,-0.014867591362762944,87.746487040786,71.97018789560101,219.78660027041803,0.13200932524041473,0.12477529338818578
8928,1724815091758917950,0.0969771891832351,-0.2433265298604965,0.1017932146787643,-0.033044084906578,0.0209271926432847,0.0947203487157821,-0.994735300540924,0.0,0.0,0.0,0.7952453707418119,0.6716901814317926,3.3707357299399168,0.878223557,0.1017932146787643,0.6108161399394479,0.014004990376012072,0.2832345692521984,25.38781358321343,46.33157855081896,-32.65489659241863,0.06980502666018117,-0.03538152164612758,-0.19110639914387978,0.18209835486392123,0.010253478200793253,0.020290685024436428,790.8402606760106,-81.23848993187381,101.16214234723179,0.15566184542486594,0.16054934625586767
8930,1724815091767885609,0.0987765043973922,-0.2432063221931457,0.1023594662547111,-0.0342462658882141,0.0190030392259359,0.0964498296380043,-0.9945670366287231,0.0,0.0,0.0,14.00694191105795,-0.6798578784998955,2.9707651229114473,0.887191216,0.1023594662547111,0.21922384068521591,0.4387374506433863,-0.4070301743804929,-37.52324947980162,34.25001317592784,-58.55012544801786,0.0718829338786807,-0.031198560739650646,-0.1944707103313147,0.16812080678593033,0.009368333381454486,0.049967225645403124,6377.698103334707,1805.9980241956603,283.22742433537206,0.19614751762217175,0.1965172817745583
8932,1724815091802117984,0.1002815663814544,-0.2434130609035492,0.1023481115698814,-0.0296109486371278,0.0203089527785778,0.0966614335775375,-0.994669497013092,0.0,0.0,0.0,873.2217383844204,316.83848642261194,55.50559426598318,0.921423591,0.1023481115698814,-0.26242459695548626,-0.1023121368238513,-0.003959073138549333,8037.930264433495,876.8913201512356,-2729.3394162148834,0.06291170277372243,-0.034683871730693955,-0.19484200937920765,2.6816585251441722,-0.08984751638007538,0.10742721749625161,-525137.1411987798,-27819.634963881457,-17478.492040431855,0.044265252834491994,0.04196944197246491
8934,1724815091802761795,0.102039985358715,-0.2434719204902649,0.1024185791611671,-0.0312414951622486,0.0202962420880794,0.0971985459327697,-0.9945674538612366,0.0,0.0,0.0,528.4702927369076,298.47874536203653,44.02253377058335,0.922067402,0.1024185791611671,5.009978591549982,0.4730490931103294,-1.7943277811311482,19576.472605459756,6366.275415618386,4933.765971727558,0.0661762774008086,-0.03430543623148921,-0.19597581251763665,3.2535323793293003,0.11800802491654849,0.14381407878560992,-626281.4529289857,-64681.28407282324,-24145.042095680932,2.6989540370197616,2.65476439869081
8936,1724815091803260472,0.1038641780614852,-0.243332177400589,0.1025035679340362,-0.0361163057386875,0.0193602032959461,0.0961512774229049,-0.9945228695869446,0.0,0.0,0.0,181.08724189274218,252.2549523469776,29.545051439425535,0.922566079,0.1025035679340362,19.17070499794532,5.761611459101696,3.6458952859012723,25727.936046237668,9634.978786691398,9938.044598151535,0.07566985890161435,-0.03156831502779503,-0.1939575726193016,3.3780944348908717,0.2574381616137851,0.16094062827215994,-646747.0990037355,-89272.2422649472,-27302.227461320766,3.5390783418712437,3.633139190040332
8938,1724815091808718544,0.1055768728256225,-0.2432884871959686,0.1028151959180831,-0.0366939231753349,0.0183319691568613,0.0964679941534996,-0.9944906234741212,0.0,0.0,0.0,-370.17670974706135,-30.655028838769205,-16.15027424181715,0.928024151,0.1028151959180831,0.1724494051501154,0.3906427366406243,-0.13426035649073653,-2258.6793857566586,-666.2355716538162,-438.11656435124456,0.0766284445987016,-0.029386593930119352,-0.19452634323587709,0.26253207622206665,0.0006877201595472116,0.035516048985064774,-51459.21232008239,-32167.058235851615,-4840.045685721412,0.30787085747415044,0.3067790471269009
8940,1724815091818507519,0.1072468683123588,-0.2434102147817611,0.102784015238285,-0.0340814925730228,0.0207970198243856,0.0963931009173393,-0.9945422410964966,0.0,0.0,0.0,-4.1565931761924455,-0.26906583764766107,-1.5198831355335225,0.937813126,0.102784015238285,-0.48233044985159557,-0.5515983718410687,0.04449974520520467,-36.1570837646685,-38.740638975213294,8.271187720825568,0.07190580215195792,-0.034803613697401065,-0.19449252089494984,0.16140703942983503,-0.0117238783200726,-0.0026794248819417277,20346.70632480262,1699.4649499404773,890.8248321877321,0.1695727924476429,0.16506783305495246
8942,1724815091829900825,0.1089639291167259,-0.2435343563556671,0.1027601957321167,-0.031196417286992,0.021835658699274,0.0964595600962638,-0.9946082234382628,0.0,0.0,0.0,1.6418023175338838,0.4671844494159325,0.623437566497636,0.949206432,0.1027601957321167,-0.4867494208212894,-0.23030442252057398,0.006260362496822087,155.43499592791687,67.6303909444228,-11.202207348276694,0.0663640842934942,-0.03742620270072938,-0.19460270028874196,0.1959192875188407,-0.0015441012233416984,0.01159081800073114,22.48880446758129,-37.017507693233256,26.570397739415235,0.14978697541026556,0.14578716472971356
8944,1724815091838037805,0.110820859670639,-0.2434925734996795,0.1029340177774429,-0.0382353328168392,0.0202570892870426,0.0967658087611198,-0.9943662285804749,0.0,0.0,0.0,-1.002084976034845,-0.42468457272606963,-0.09918638646679268,0.957343412,0.1029340177774429,1.6835625478322542,0.5491449741730267,-0.1304870419329465,66.07753725823943,19.742651857837153,-1.6324200549772012,0.08008909956871664,-0.0328921157742545,-0.19533519147898876,0.20121613292641793,-0.00022002554714362077,0.01300795270045807,-205.69984929363034,-75.33310994596945,-48.3643879081801,0.22345418689823163,0.22370935881680476
8946,1724815091848482291,0.1125605851411819,-0.2435666620731353,0.1029578819870948,-0.0364538356661796,0.0214802734553813,0.0965615957975387,-0.9944272637367249,0.0,0.0,0.0,-1.5521733019621173,-0.7520136133072676,-0.06213409589506469,0.967787898,0.1029578819870948,-0.3162041936560709,-0.2641846608213479,0.055881235572342314,-140.4442904782545,-49.94774792537882,1.3493670812184053,0.07677395299828384,-0.035688633515485096,-0.19496929267988,0.16858855853802712,-0.01253063843788027,0.008307424521005302,42.44937751201469,35.13192385586535,-0.990734649540979,0.1647637963862386,0.161843979740804
8948,1724815091858103188,0.1142004579305648,-0.2437354028224945,0.1030911803245544,-0.0304168723523616,0.0232805088162422,0.0971422791481018,-0.9945332407951356,0.0,0.0,0.0,-0.3008196962126819,0.17507692130193975,-0.11188523190144575,0.977408795,0.1030911803245544,-1.215234674607972,-0.497257928148969,-0.07731356747581539,21.710352269531512,-1.0154059221475702,0.05227594578528594,0.06512336878465898,-0.04040794661699839,-0.19605119766179313,0.16758433378498783,-0.015984538884030286,0.01114743617521885,179.93667065670326,83.83159419133962,-27.285619092858205,0.17102083365080709,0.16295982273139709
8950,1724815091868641098,0.1159333810210228,-0.2438859045505523,0.103177398443222,-0.0320795401930809,0.0247272010892629,0.0967001914978027,-0.9944890737533568,0.0,0.0,0.0,2.1709579552807945,0.913854675391693,-0.6546710408240352,0.987946705,0.103177398443222,0.34271480195520765,-0.24005699778886724,0.08363640937208779,71.33271684315197,26.23688267604972,4.298263194014275,0.06870522603704789,-0.042990908795786556,-0.19534031057702103,0.16214694615835423,-0.007975105025302298,0.00526978101697928,157.65117255802386,15.915007762529605,1.9706188361829042,0.1642912099520637,0.1579926075737068
8952,1724815091880522682,0.1178291365504264,-0.2438961714506149,0.1032010018825531,-0.0331131443381309,0.0242514964193105,0.0967303216457367,-0.9944639801979064,0.0,0.0,0.0,3.0137807631310025,0.37696683799490427,0.0851729617545719,0.999828289,0.1032010018825531,0.1652923131547893,0.09619016465768016,-0.012323134549983255,51.95468867229876,61.045063447102116,-23.470778606812484,0.07067198286680894,-0.0418405959747866,-0.19540685175255085,0.2239372129704531,0.00494327269549899,-0.003806986486523556,-400.39556177765,-75.56345649634392,90.94469608172496,0.15663133784261052,0.1561072082605449
8954,1724815091887889558,0.1197729334235191,-0.2438332289457321,0.103146493434906,-0.0365100875496864,0.0219767000526189,0.0975044891238212,-0.9943223595619202,0.0,0.0,0.0,-2.0887555613823654,-0.31845069366863776,0.8861356501728103,1.007195165,0.103146493434906,0.8535533018823914,0.695470054507697,-0.25554585086760545,33.69636968063926,34.06110263812051,-14.798635211284235,0.07701887589549627,-0.03659221919359272,-0.19690746301074688,0.23615116987386742,0.0044759708070465365,0.0006988999031900534,-414.13426627653286,-77.29699839044801,32.80684778872101,0.2566433326210559,0.2606034625663093
8956,1724815091897586914,0.1217093169689178,-0.243841752409935,0.1032566428184509,-0.0387418158352375,0.0201094131916761,0.0981875732541084,-0.9942102432250975,0.0,0.0,0.0,-2.5497150128404646,-0.8497330992571774,0.2351761092706649,1.016892521,0.1032566428184509,0.4178602756457587,0.42215325401924414,-0.16651105729328566,-46.091434292615126,-33.4203417586214,10.220325233090271,0.08111541530186485,-0.032383699255766854,-0.19819457136555368,0.16806871413755298,-0.001867480538515487,0.012796011969639753,93.22934686867913,-22.72857397163739,-76.91525311772094,0.19621066552244512,0.19495907993660544
8958,1724815091911833732,0.1234420835971832,-0.2438890486955642,0.1034690290689468,-0.0367637015879154,0.0210839621722698,0.0982642024755477,-0.994257628917694,0.0,0.0,0.0,1.7247843273772325,-0.5025540546580074,-1.0654847998213288,1.031139339,0.1034690290689468,-0.26312536932634834,-0.16356616239606023,0.0008425240142785507,-63.54751465770487,-46.399517534397724,-0.41386728933340056,0.0773725053961366,-0.0347076366747859,-0.19836718447967278,0.22532443832215243,-0.018067311797310026,-0.005041326237250843,772.5952796649985,103.1365058118347,124.26413677472985,0.12033903631434374,0.11779163981986208
8960,1724815091918082986,0.1251344531774521,-0.2440423816442489,0.1033828407526016,-0.0344368815422058,0.0223178770393133,0.0984729379415512,-0.9942933320999146,0.0,0.0,0.0,7.848312609680663,0.35788885727366154,0.30196055393060683,1.037388593,0.1033828407526016,-0.7034191514823412,-0.46802178625748275,-0.035078305663567004,-33.560098824928765,-26.656857431367683,-5.2199781504902125,0.07299250228582826,-0.03760769523211855,-0.198805740318962,0.22981461268025294,-0.019468534768392942,-0.011188476592894236,485.93335409631067,110.00549359308931,172.27941645236325,0.26961349411591834,0.26122822646550975
8962,1724815091935528855,0.1271470934152603,-0.2441352158784866,0.1033144369721412,-0.0389836020767688,0.0214973799884319,0.0992015078663826,-0.9940710663795472,0.0,0.0,0.0,-7.730986832885549,0.9288391484982981,1.040979599212008,1.054834462,0.1033144369721412,0.5080138065408267,0.14140808927577816,-0.10042811696982042,-211.08241711327668,49.89356601189524,-160.1335314451191,0.08191180017669057,-0.03501253575855861,-0.20036267691302093,0.7139789029367591,0.015125800198561024,0.05669332777696212,-4170.5687797618375,-270.4811907161329,-525.8765096298421,0.11390879693128925,0.11214496134407767
8964,1724815091937756106,0.1289075165987014,-0.2440957129001617,0.1034579426050186,-0.038977600634098,0.0211867038160562,0.0997465699911117,-0.9940233826637268,0.0,0.0,0.0,-17.951848619006512,0.2401938995544767,-0.29185483469006385,1.057061713,0.1034579426050186,-0.0418847537910394,0.25678765606042336,-0.5015537495035016,-199.80553662033492,46.30523024389341,-144.64693629600467,0.08185551021545126,-0.0343511493858427,-0.20142986460821502,0.6866705355595553,0.01689482608728099,0.05820146252336289,-3868.776684315156,-294.3236492751484,-540.485879383217,0.7726306657512005,0.7742371250909413
8966,1724815091948806212,0.1308084279298782,-0.2439551502466201,0.1037595123052597,-0.0410757102072238,0.018770882859826,0.1004651635885238,-0.9939151406288148,0.0,0.0,0.0,-21.217182822304395,-2.1970567114119097,-3.0880808604563548,1.068111819,0.1037595123052597,0.3318691252513172,0.4670288965579834,-0.15632620007559245,-12.97676757330303,-45.41913132178565,25.53429246644671,0.08556363782931105,-0.029064065123190132,-0.20272041313111708,0.1763116997438381,-0.010826870696977409,0.0018537581504345368,1007.7504795094867,5.214308851382999,26.334078643977115,0.16666577091035176,0.16970988177540772
8968,1724815091958881146,0.1326241195201873,-0.244280532002449,0.1035445258021354,-0.0396306850016117,0.0215817596763372,0.1003639996051788,-0.9939269423484802,0.0,0.0,0.0,0.9072854709215203,-0.07056790673699354,-0.25639737694327247,1.078186753,0.1035445258021354,-0.22877034390221745,-0.5825488899249792,0.0485000173374786,-30.575836932707354,-9.814255046612324,-10.033119661556832,0.08325903093798839,-0.03495351366697767,-0.2027283457128018,0.19190793639820036,-0.030099126665422915,-0.010783837901849225,956.9092234318865,197.68985293483297,200.4839212715453,0.18217307277883954,0.17111724669607217
8970,1724815091967969526,0.1344640851020813,-0.2445360720157623,0.1035330519080162,-0.0383456796407699,0.0209317095577716,0.101692110300064,-0.9938563108444214,0.0,0.0,0.0,-0.5544894810299876,1.6164387766304553,0.9050609268799622,1.087275133,0.1035330519080162,-0.30111128055781466,0.10188301115238535,-0.29161701357484837,16.88963046477763,33.60600187468301,-4.634040007885398,0.08061067452425409,-0.03381376035474944,-0.20529553957603486,0.19490064334145618,-0.01563631150561484,-0.0049323455116985215,-93.62562887435018,41.439382417256795,38.897612482000355,0.20377381429314942,0.19251193570227362
8972,1724815091978368514,0.1364009976387024,-0.2445501685142517,0.1034380942583084,-0.0391959622502327,0.0212634857743978,0.1014223396778106,-0.9938435554504396,0.0,0.0,0.0,-0.7283448165778941,0.33179140097533416,0.2517912382704366,1.097674121,0.1034380942583084,0.1701961066972055,-0.044849231121147415,0.05033959619284602,38.094216406227616,11.981665364841648,2.1342901586857295,0.08236403691204588,-0.03432120189585472,-0.20481143333481722,0.17861878737592907,0.0014715087833909735,0.007587495151584633,10.137230683716826,-128.1595809799094,-61.94700297920042,0.1822215631641289,0.1824468935436817
8974,1724815091989362879,0.1382759809494018,-0.2445011287927627,0.1037158519029617,-0.042205337435007,0.0193521454930305,0.1028280109167099,-0.993614912033081,0.0,0.0,0.0,-0.3047261347054242,-1.1309877689636538,-0.41912327247516346,1.108668486,0.1037158519029617,0.5049983256745517,0.3901694550343448,-0.28362046924031287,-27.85372945567503,-18.576699629430227,5.756555490243123,0.0880041157544119,-0.029781781205261856,-0.20755479952159356,0.18034455171318164,-0.010146828027437493,-0.000711927610171692,162.88388098472646,-17.651913687008438,-16.70684104592558,0.16663974225992373,0.16651952577526763
8976,1724815091999335012,0.1401630789041519,-0.2447344362735748,0.1034738048911094,-0.040544006973505,0.0208096448332071,0.1024258807301521,-0.9936962127685548,0.0,0.0,0.0,2.4443429450119956,-0.26326290616218107,-0.18488443115894343,1.118640619,0.1034738048911094,-0.30013643127250506,-0.3209903040064515,0.10059775639248769,-60.51599620083718,-28.75162043613134,4.3397508858430776,0.08498839735708281,-0.03305743977591245,-0.20683156354425983,0.1731297830002161,-0.02209663086305369,-0.0018545820632311916,162.98106256678062,73.24494156251767,3.6363037747726636,0.18910238224307785,0.18158506430167168
8978,1724815092011539196,0.1420354098081588,-0.2449847012758255,0.1037859991192817,-0.0360994972288608,0.0204799193888902,0.1046923249959945,-0.9936382174491882,0.0,0.0,0.0,2.750214090224606,0.42496498748769396,-0.43702796048695897,1.130844803,0.1037859991192817,-0.7366453107348728,-0.036165219051953704,-0.35708688537519534,160.0675131803948,42.37086674744455,42.248421678712134,0.07614320164601068,-0.03314664997086465,-0.21121328743907622,0.25027526122685195,-0.011343689140559832,-0.00516092980578442,-478.5639741065165,-17.224229137020835,87.03814610972054,0.15506990219247596,0.14445479569335903
8980,1724815092018025674,0.1439927369356155,-0.2450266927480697,0.1036465391516685,-0.0393376313149929,0.0198533274233341,0.1039728075265884,-0.9936035871505736,0.0,0.0,0.0,-2.0902534364501753,0.05944290637580091,0.4988380251022442,1.137331281,0.1036465391516685,0.9767766753079495,0.30428793654059805,0.19190018042714055,104.54511470697562,29.057178567851004,34.47423747790633,0.0824340388793475,-0.03127768629511915,-0.20981539357249634,0.25580324197554116,-0.01015965966004373,-0.008568368446417285,-478.2010831516783,-46.06071528408722,112.25352572112203,0.2956682794070167,0.2946896217513858
8982,1724815092028317289,0.1458750218153,-0.2451914399862289,0.1037695184350013,-0.0366532988846302,0.0183732360601425,0.1053767651319503,-0.9935868382453918,0.0,0.0,0.0,-2.634926849563268,-0.246560311043034,1.1311572767812543,1.147622896,0.1037695184350013,-0.5535119520329271,0.22075556081297845,-0.27238661790095015,-39.61686338685906,-11.304177620308451,-12.800512043713749,0.07681601894409401,-0.028789975906344793,-0.21243029320735396,0.18624348543466063,-0.011557911017602507,0.013288804397607379,115.39368267626844,-18.824283004922677,-24.674459733628325,0.18242731024538422,0.17485056674365895
8984,1724815092038804983,0.1478640735149383,-0.2452650964260101,0.1039232015609741,-0.0377219282090663,0.0181151740252971,0.1056639924645423,-0.9935210347175598,0.0,0.0,0.0,0.3741834715796468,-0.32739389281329057,-0.04797246844456671,1.15811059,0.1039232015609741,0.19674809544901703,0.06813297367136224,-0.061293257388627245,43.22868629916593,5.689207853814061,7.619606803272712,0.07889607940793701,-0.028027583153135065,-0.21301581403987888,0.20268392876554842,-0.015326836860522164,0.014543323198148883,120.47336172506648,17.80472733611445,-42.922202233242984,0.1871911486364157,0.18318707760323727
8986,1724815092048274185,0.1498947143554687,-0.2454812228679657,0.1040599718689918,-0.0395902097225189,0.0168921388685703,0.1060317605733871,-0.9934307336807252,0.0,0.0,0.0,0.09193010961208614,0.0593222264661738,0.13985232899758349,1.167579792,0.1040599718689918,0.36406243118287296,0.2950644620253976,-0.09608125568234505,-20.900927511395555,6.548973466413478,-3.440961968234967,0.08236160983438555,-0.025169357908760362,-0.21369788942809428,0.19602394479983598,-0.018153642194434383,0.012656226089309719,2.4783979463482346,34.41423309887701,19.537920888545074,0.21470496061564628,0.2041186874268951
8988,1724815092059130991,0.1517935842275619,-0.2456201761960983,0.1041751280426979,-0.0378385260701179,0.0158611107617616,0.1067348271608352,-0.9934406280517578,0.0,0.0,0.0,0.5207244663131565,0.35297256044365644,0.3482696052156026,1.178436598,0.1041751280426979,-0.3429675578618786,0.14937238270707764,-0.13054074535048563,-2.640930971056899,16.43834712029063,-4.358660523424289,0.07866923075009524,-0.023438912689586127,-0.21498046871541573,0.2069212225979058,-0.013055184813097753,0.01839610730921759,-122.3232490055505,-2.9702416404503422,-32.879183857808485,0.17380644086586008,0.16770947256877
8990,1724815092067905987,0.1538364142179489,-0.2457365542650222,0.104391798377037,-0.0384230688214302,0.0136648965999484,0.1074175909161567,-0.9933772683143616,0.0,0.0,0.0,-1.7003406250451176,0.11401100838018674,-0.30958845844433663,1.187211594,0.104391798377037,0.07700608103877665,0.5053813621816218,-0.17719004057857002,15.44720486461913,12.623127851077554,-2.6954289754483023,0.0793703685131899,-0.018895292686590466,-0.21618067536674643,0.20806493638827117,-0.01078508387373489,0.020172564664752812,108.17336565066663,-42.24596453155205,-33.59446862229728,0.23065276228220324,0.22365130953309656
8992,1724815092079204652,0.1558274030685424,-0.2458223700523376,0.1045539751648902,-0.0373478941619396,0.0121397385373711,0.1083332672715187,-0.993338704109192,0.0,0.0,0.0,4.777916214409871,-0.5817357553517652,-0.08722988301030543,1.198510259,0.1045539751648902,-0.22001072492365628,0.24141871747109092,-0.16951801884870535,-0.7894585036215647,-14.495019905002916,4.959530522594381,0.0769141724525342,-0.016026391534873573,-0.21787750984000098,0.16222039930987986,-0.011601882445845924,0.009225490798104197,268.97290462064547,-11.002738892694818,25.06833562298936,0.1738980224271672,0.16993633469077263
8994,1724815092093669212,0.157914713025093,-0.2460643798112869,0.1045924574136734,-0.0392324291169643,0.0109155643731355,0.1083919480443,-0.9932738542556764,0.0,0.0,0.0,3.031901363682522,0.19563997310557824,0.3751498990683242,1.212974819,0.1045924574136734,0.24073630437130097,0.19595460122035005,-0.01851606520272043,-208.03887418519446,79.3096901049025,-101.45165135372795,0.08039696771503156,-0.01317971211548584,-0.21792179777378312,0.3949413739719212,-0.02945008737773236,0.02428977961412926,-1413.2894186219883,122.60747143805074,-103.99869100946118,0.1445319526518085,0.13721124614644767
8996,1724815092098062231,0.1599840968847274,-0.2462107241153717,0.1047280207276344,-0.0372357629239559,0.0091985082253813,0.1096973568201065,-0.993224799633026,0.0,0.0,0.0,-4.901265565287254,0.8261352677427772,-0.2631229388986809,1.217367838,0.1047280207276344,-0.9932468434430244,0.6543721406358802,-0.6134801955008028,-172.79649884592993,71.70268903695244,-87.28747308713466,0.07606227007654268,-0.010103215314283421,-0.22038410461771507,0.39083973159241703,-0.026683309576389647,0.0250488267154223,-1380.7095467991212,93.01377550719101,-117.40603115451168,0.4672388725187008,0.4515928224884761
8998,1724815092109891252,0.1620521247386932,-0.2463151961565017,0.1048392653465271,-0.0399263277649879,0.0067193852737545,0.1102332100272178,-0.993080735206604,0.0,0.0,0.0,-7.6919587580437305,0.317614234171528,-0.763685100545172,1.229196859,0.1048392653465271,0.4059199470189384,0.46262428099772696,-0.11245011710832026,37.79335294500838,-8.788330692002017,12.445640381184688,0.0808704869447592,-0.004543385218334135,-0.22128121771487075,0.20648742900096373,-0.010657693317833505,0.008051875047745405,166.6974352057522,-55.638750996844394,16.764503547083635,0.172543196694128,0.1684248753058014
9000,1724815092119153230,0.1641942113637924,-0.2464271485805511,0.1049040332436561,-0.0409471429884433,0.0047669489867985,0.1111316829919815,-0.9929503202438354,0.0,0.0,0.0,-3.2282289321848485,-0.2894448437867763,-0.17995669105374565,1.238458837,0.1049040332436561,0.1722522808572969,0.43504866190807306,-0.21408928293833784,-30.623976351889066,-11.980032595318267,-4.641628330280677,0.08246993299343777,-0.00036563722616419884,-0.22292878946112393,0.19248329596137914,-0.015237434592743071,0.005860701557235615,2391.9448080362354,-56.20034218987931,120.25184819990054,0.22822916991309003,0.22276151637563976
9002,1724815092133068540,0.1660616248846054,-0.2467050403356552,0.1049619168043136,-0.0384804978966712,0.00388815975748,0.1121312752366066,-0.9929404258728028,0.0,0.0,0.0,69.98797646343644,-0.8761646095575416,2.6898175704883838,1.252374147,0.1049619168043136,-0.3666863647111933,0.08012671133497176,-0.1462950598193395,-22.715283626559636,-18.28079288709008,3.715679372986979,0.07736684288331552,0.000908312715777064,-0.2248690194219034,0.11168114247292715,-0.014978849476102951,0.004540288485653798,-42934.686584479336,-203.59680804504418,-749.4230809207722,0.13526891134943025,0.12631076388603463
9004,1724815092162800155,0.1679516732692718,-0.2468333095312118,0.1051210835576057,-0.038114495575428,0.0038496665656566,0.1137480288743972,-0.9927708506584167,0.0,0.0,0.0,-4268.192069557252,-17.184456951525533,-80.29961556289697,1.282105762,0.1051210835576057,-0.02472086694008652,-0.004418978331389465,-0.10927175616711221,-12956.257725972615,11311.861543265697,-34805.849466624306,0.07662871616779945,0.0010272241648700794,-0.22811835819301737,7.007387902365849,-0.09786739299511282,0.26141118092334636,-611012.6756931916,13992.303499264068,-33431.538220300456,0.06289355863013227,0.060862965739231854
9006,1724815092163050134,0.1697179675102234,-0.2468579709529876,0.1051869690418243,-0.0377508774399757,0.0034072750713676,0.1148382276296615,-0.9926607608795166,0.0,0.0,0.0,-4421.909950801262,-13.656113218360044,-88.72119731788413,1.282355741,0.1051869690418243,-3.290768675940152,2.8470899504669305,-8.883160274047157,-9516.391268062507,8548.491098524411,-25725.52151064476,0.07580291196803367,0.0019059523375477426,-0.23027828863756908,5.9309712184262295,-0.10219340486122519,0.24115103198634458,-410512.2117413285,14808.453605253186,-29653.456419393133,6.90125747850588,6.852707302907762
9008,1724815092163910639,0.1714601814746856,-0.246956393122673,0.1053280904889106,-0.0374282039701938,0.0025652039330452,0.1162020042538642,-0.9925169348716736,0.0,0.0,0.0,-4169.667082237957,1.1420325721039486,-102.2838985938914,1.283216246,0.1053280904889106,-0.9673957808312673,1.7358688410686836,-3.256166442605341,2340.2753146999307,-1149.5723804967736,5679.031418902326,0.0749630922658066,0.0036064557619276635,-0.232959859133385,1.782640170635224,-0.10313461818751168,0.14207526809995885,362177.27077970555,14991.390594522465,-11153.408195041338,1.9957508869540084,1.9413150987911338
9010,1724815092169032767,0.1732126474380493,-0.247141882777214,0.1053873971104621,-0.037612959742546,0.0021093166433274,0.1171833127737045,-0.992395520210266,0.0,0.0,0.0,-209.45341638710647,10.680903329822646,-18.920842613331516,1.288338374,0.1053873971104621,0.051707139038030314,0.17059502522280523,-0.3926535728812651,123.31026573634955,-221.26794465527226,393.77202255190656,0.07521993677472502,0.004628686204670521,-0.23489982008006066,0.27796136493413126,-0.029116260274254735,0.010039017178182785,550721.025602035,1075.1231689557724,11907.272022170584,0.34111170480347575,0.3241694150588497
9012,1724815092181326776,0.1747362464666366,-0.2472904175519943,0.1054653897881507,-0.0335195586085319,0.0019066657405346,0.1198189109563827,-0.9922279715538024,0.0,0.0,0.0,-2.503518815747629,0.6710246941915919,-1.4171516006923264,1.300632383,0.1054653897881507,-0.6645964814547392,-0.06150223557010938,-0.4285303121688165,180.0323890423847,1.494050523244089,45.396759454963686,0.06702577481948083,0.004248872640182847,-0.24020867765906062,0.19065412543663385,-0.009043623796891609,-0.020245777038205404,6187.104550298319,-356.66612713800123,598.7568619914952,0.12321823933199937,0.1174246843779398
9014,1724815092188245158,0.176315039396286,-0.2473411560058593,0.1052218005061149,-0.0387085750699043,0.0024438709951937,0.1195512786507606,-0.9920701384544371,0.0,0.0,0.0,-1.147743386058746,-0.015190148085136579,-0.4866818329153658,1.307550765,0.1052218005061149,1.5086924681443732,0.028151727669416066,0.07364555260327185,150.77832885520075,10.306256314376526,36.489168800633394,0.07746578472383489,0.004406350674461624,-0.23968640636923025,0.1912354730592858,-0.00814535495852109,-0.025976920764232414,96.79149399733711,-66.57563047325468,95.42837839551513,0.2235728927184136,0.22043506911645336
9016,1724815092200795239,0.1778734624385833,-0.2474618554115295,0.1051059663295745,-0.0368063077330589,0.0015303174732252,0.1213386282324791,-0.9919273853302002,0.0,0.0,0.0,-2.1908440062610968,-0.10828197310650345,-0.1783830281455705,1.320100846,0.1051059663295745,-0.3179647037630814,0.09710790725406011,-0.29019030628594805,-28.533783444835127,-24.50639718054416,29.93024970461525,0.0734570619564413,0.0058961603243688045,-0.2432261367118893,0.1487885454477169,-0.011637716816959909,-0.02430537390098131,61.73439253623438,22.285175791711673,42.09030388293161,0.12288983123245205,0.1183156963805162
9018,1724815092208338557,0.1791074126958847,-0.2475588023662567,0.1048542708158493,-0.0366927571594715,0.0023944308049976,0.1206111833453178,-0.9920186400413512,0.0,0.0,0.0,-1.0684193324224367,0.1944937084278315,0.21857446783720882,1.327644164,0.1048542708158493,-0.00265907511938886,-0.22377461472349125,0.20272877691139704,30.336239086266573,-27.17492845691575,41.46595288212493,0.0734440138872943,0.004100485231621331,-0.24182488838537394,0.13766389632012643,-0.011683783800322978,-0.027063636039588168,344.90080461872367,-17.29513503471658,38.09943889151209,0.16203527972917453,0.15620139900752744
9020,1724815092226316323,0.1804718226194381,-0.247718796133995,0.104637786746025,-0.0370956361293792,0.0029075753409415,0.1212960034608841,-0.9919187426567078,0.0,0.0,0.0,13.534356987093034,-2.577218451755621,0.2812114756687245,1.34562193,0.104637786746025,0.05157261181744947,-0.05404724602152792,-0.0749302265323876,-4.688082716286311,29.53991713924494,-27.217081873767444,0.0743659812217877,0.0032309534852832467,-0.24324002434930678,0.1358664974642121,0.0004076913898387602,0.0018977260490977699,277.82789467808755,-161.8562453288302,-91.94388481572909,0.07584212633412607,0.07169802572358962
9022,1724815092234517238,0.1818104088306427,-0.2476806342601776,0.1047054976224899,-0.0371668189764022,0.0017763933865353,0.1226476803421974,-0.991752564907074,0.0,0.0,0.0,13.813451468519169,-3.9333254421846844,-0.8298097177002678,1.353822845,0.1047054976224899,-0.01569724431348995,0.26339750837770515,-0.34217626036914817,177.37917178313933,-58.7339591828922,-20.093259351989204,0.07422561535229166,0.005593392037344562,-0.24587814826647814,0.29786679929976856,-0.03288538516098072,-0.0007706646253140548,-302.02137486473794,1.7738062796976237,-84.38138925760273,0.15713356605717235,0.15933945372087666
9024,1724815092237804947,0.1829671710729599,-0.2478382289409637,0.1046910658478736,-0.0384801253676414,0.0020109585020691,0.1232874244451522,-0.9916226863861084,0.0,0.0,0.0,12.37756537728823,-3.707206158970012,-1.0398880339565453,1.357110554,0.1046910658478736,0.8120758763101565,-0.05813442802616751,-0.391769505094876,238.7439130740779,-92.89914642556963,-14.09749755344744,0.07688827987440607,0.0055000346833899705,-0.2471769386100578,0.335451694530733,-0.04565047811014508,-0.004163693383347211,1818.3613992623823,357.2003487414223,284.77545534711544,0.35289769109953606,0.32949185179762086
9026,1724815092301361910,0.1841462552547454,-0.247933343052864,0.1047040149569511,-0.03780223056674,1.8769251255434934e-05,0.1255872696638107,-0.9913620948791504,0.0,0.0,0.0,2898.7120358368866,373.3703655469377,445.46197699809716,1.420667517,0.1047040149569511,-0.0287120404017911,0.05673341508110903,-0.07514527789937114,5531.013280040059,4877.301294551167,-8681.24666530632,0.07502984057922027,0.00945788460282769,-0.25166563953254034,2.283986202910455,-0.06568181513637228,-0.07990530101801596,-2944628.909501745,-1028201.9749400943,431109.23921719997,0.018337130346080623,0.01759183471274014
9028,1724815092301833106,0.1852303743362426,-0.2479645162820816,0.1046660840511322,-0.0384789295494556,-0.0004957605269737,0.1265460848808288,-0.9912140965461732,0.0,0.0,0.0,1500.76945729814,-114.72687030379237,650.0803929955146,1.421138713,0.1046660840511322,2.5968471802057613,2.3719300024791363,-4.196057874608319,6273.325097455621,25931.959070867546,-18400.60702402258,0.07623443949678521,0.010721730834635053,-0.253552849130312,3.6598667884179577,0.11155421584669512,0.13155491100781092,-7990039.500730646,-1720415.4050945365,-5309803.033397491,2.2445488468730472,2.211196862162145
9030,1724815092302063537,0.18622687458992,-0.2479187846183776,0.1047202944755554,-0.0391052477061748,-0.0017016951460391,0.1275863051414489,-0.9910548329353333,0.0,0.0,0.0,-906.4458722516019,-588.3045518568714,-1220.7528395724164,1.421369144,0.1047202944755554,4.121433961607664,10.716005216660207,-9.524132965475857,-7575.367574386688,1363.0928058114746,-12260.05085523702,0.07716007592984533,0.013351931243919972,-0.25555196803680796,3.8457622137314615,0.02980237072267755,0.3040386058374054,-6463164.418371854,-653361.4552864839,-3663123.561582269,4.130386540714829,4.232351393452942
9032,1724815092302315658,0.1870644092559814,-0.2479577958583831,0.1048159226775169,-0.0389136299490928,-0.001957265427336,0.1287804096937179,-0.9909074306488036,0.0,0.0,0.0,-1437.1103164052238,-366.3347580052392,-915.1811199668298,1.421621265,0.1048159226775169,-1.703267615782646,1.4468563924492446,-9.618792681512998,25492.96313301232,-29796.313326676503,36900.03928712346,0.07669807459033796,0.013902011919655418,-0.2579420749023184,3.144644304486235,-0.18294048099556903,-0.5469696985331893,1936113.5430534177,1517723.392160678,9147282.126928136,3.2459387411915213,3.169900084558279
9034,1724815092302565564,0.1878063529729843,-0.2480105012655258,0.1044497862458229,-0.0409153066575527,-0.0011163774179294,0.1277108192443847,-0.9909665584564208,0.0,0.0,0.0,47.71278695623823,170.82267222996416,3336.4309026465808,1.421871171,0.1044497862458229,16.705256188275712,-4.273282851517651,8.836277998359455,7134.89338121346,116.26433901086875,-16037.85838617072,0.0809009541138642,0.0126635785069673,-0.25582457840445894,3.118367288612376,-0.1562135036156178,-0.16625790446198607,3170570.8699041,1164424.5319830128,11671705.40287098,2.943953860554422,2.8307064761818936
9036,1724815092302803227,0.1885812580585479,-0.24803526699543,0.1047038361430168,-0.0413238890469074,-0.0012520062737166,0.1295070797204971,-0.990716278553009,0.0,0.0,0.0,174.94937919450564,224.93078329863644,4903.16019326799,1.422108834,0.1047038361430168,3.364560706289468,0.9540307976880241,-15.291321557687777,-54445.515868041395,21324.67737838605,-98384.20875457207,0.08165400701365261,0.013184620365127278,-0.2594286514661674,3.164256324986976,-0.10117836245726108,1.0364646201483239,517654.5193332742,219897.80450098845,6372695.075987618,3.1637748173040894,3.1155983295540524
9038,1724815092310409402,0.1892157196998596,-0.248068019747734,0.1046794727444648,-0.0412830710411071,-0.0015372880734503,0.1303464323282241,-0.990607500076294,0.0,0.0,0.0,-199.05545940249087,6.178973973548539,-66.15273151220008,1.429715009,0.1046794727444648,-0.01888966560778445,0.0638423332469265,-0.22547152349650704,-233.49412753345769,-39.16814480454393,952.581828461943,0.0814877929019603,0.013808339044537671,-0.2610985124810692,0.08035571256553276,-0.005997253167603134,0.00018421540962787475,-10007.19037897401,-14457.870149889864,-313932.08420134475,0.0817348867635013,0.07949133718469317
9040,1724815092317652624,0.1897766590118408,-0.2481231242418289,0.1047041714191436,-0.0405247695744037,-0.0028569740243256,0.1317951828241348,-0.9904441237449646,0.0,0.0,0.0,-1.4024615315875943,0.10599919811948676,0.9679884816071213,1.436958231,0.1047041714191436,-0.2524356293853864,0.3172320817201097,-0.4175172445540987,-17.050970255971446,18.770840368789315,-12.203218732044101,0.0796166746776804,0.01634201247509817,-0.263928277677935,0.06215653741269245,-0.004935649651081064,0.004472143725263056,18695.565931173845,-574.1620638319408,6317.871027418904,0.07668037844868157,0.07274664945766153
9042,1724815092333354626,0.1902322918176651,-0.2481096684932708,0.1048105508089065,-0.040560632944107,-0.0033664517104625,0.1327246725559234,-0.9903169870376588,0.0,0.0,0.0,-0.32329241930569275,0.08614070141390173,-0.20410364751849297,1.452660233,0.1048105508089065,-0.0030337949544640753,0.06012375604690554,-0.12201089436017813,-224.83624486940693,-36.23583898009148,-133.0386686378942,0.07953805875994618,0.017435385440283224,-0.26576327666139515,0.07792253585034459,-0.004652077241345864,0.03247009374929277,-231.45398601276423,26.485759242610968,-194.36666066404018,0.027651349083379156,0.02819224067558463
9044,1724815092338272892,0.1906908750534057,-0.2481410354375839,0.1050098314881324,-0.0368998646736145,-0.0035880240611732,0.1351862996816635,-0.9901264309883118,0.0,0.0,0.0,-1.9240829956562173,0.2591550283698342,-1.3444833144425254,1.457578499,0.1050098314881324,-1.4796731607244895,-0.14869104834577726,-1.0102721414497675,-150.29644590510165,-22.828294068039995,-91.71682155248844,0.07217412483685344,0.017082738079084243,-0.2707739702637431,0.07428765281730154,-0.004123533712139249,0.028404947498303912,-235.5406360103369,22.798281986475253,-157.17415402171673,0.09084391277617544,0.08800506722897125
9046,1724815092347802325,0.1910488456487655,-0.2481387108564376,0.1050568521022796,-0.0362164378166198,-0.0037051846738904,0.1363311260938644,-0.9899942278862,0.0,0.0,0.0,-2.508050304127453,0.2478341849082341,-1.4631615721629545,1.467107932,0.1050568521022796,-0.14345692197409907,-0.003810451335720153,-0.2430722374680313,79.7946393723412,14.810056603250178,45.4363278021353,0.07076739087095742,0.017211928209827386,-0.27308731674166814,0.03407211385533948,0.001146839914625275,0.0060295696061629656,54.85996497578385,-19.046161764345243,35.50092483365456,0.036016625660916096,0.036220716989007744
9048,1724815092358258864,0.191365048289299,-0.2481163591146469,0.1051324680447578,-0.0363051816821098,-0.0044976179488003,0.1371850967407226,-0.9898696541786194,0.0,0.0,0.0,-0.6018289418865304,-0.1562246215295942,-0.5417191064221103,1.477564471,0.1051324680447578,-0.002391168098820423,0.14653734147118325,-0.17037751841680637,4.377442939981686,-1.5184409496565279,9.174315154696746,0.07071227148309472,0.01886628995124344,-0.27475635489814937,0.02749083165266697,0.00023618438457972957,0.0008827839500344936,104.89604391075626,-14.83156243673261,60.30316501380903,0.02838400013050154,0.029673875985492953
9050,1724815092368775688,0.1916250884532928,-0.2481339871883392,0.1050745993852615,-0.0360023118555545,-0.0043496824800968,0.1374532878398895,-0.9898442029953004,0.0,0.0,0.0,-0.31738692959181725,-0.0603544899803909,-0.20176508775622914,1.488081295,0.1050745993852615,-0.05274917179411239,-0.03757946592697303,-0.05038728846873036,-1.5382763179224503,-8.495093350539419,6.748663387358476,0.07014712263151032,0.01850934509707126,-0.2753128811176756,0.021453070084684,-0.002138075423518515,-0.005338088694148091,12.96039397408096,14.939888323722357,18.47029947455395,0.024348284355934478,0.02334129487303221
9052,1724815092381086037,0.1918420195579528,-0.2481669634580612,0.1050112545490264,-0.035839557647705,-0.0043034111149609,0.1376653462648391,-0.9898208379745485,0.0,0.0,0.0,-0.3608153353188879,0.20748315554945967,-0.17402870341908966,1.500391644,0.1050112545490264,-0.02485349136775274,-0.012299489908589744,-0.034468308666849294,-11.588470385116246,-5.811486504086922,-6.6444459806349085,0.0698331618372841,0.018387978418483712,-0.2757468198338977,0.021245167137198706,-0.0004976351554795144,-0.0022056742066229873,-33.945097273287104,21.84633229403133,-15.525352901909397,0.017777085525130926,0.01622934601186107
9054,1724815092387849212,0.1919991672039032,-0.2481622248888015,0.1050072610378265,-0.0352825075387954,-0.0041180863045156,0.1380373537540435,-0.9897897839546204,0.0,0.0,0.0,-0.7034109938586062,0.355565231280471,-0.34508727627581226,1.507154819,0.1050072610378265,-0.1547063732321,-0.08082706744762544,-0.10889887767393905,-10.280306479145345,-3.6752770214532773,-4.914190373693598,0.0687728322090646,0.01789364231260597,-0.2765195104720962,0.01752700953645192,0.0011814056370731407,-0.004974737270491136,-29.10882396611853,21.981955674410266,-5.361634787467594,0.022168822414615885,0.022542104699552645
9056,1724815092399785431,0.1920881122350692,-0.2481379956007003,0.1048555225133895,-0.0347621105611324,-0.0042670262046158,0.1382645517587661,-0.9897758960723876,0.0,0.0,0.0,-0.5969457631245421,0.6197711319091811,0.010782525630804063,1.519091038,0.1048555225133895,-0.08951197384509828,0.011331234124875484,-0.03924078861768716,6.4430404009474,-0.3039090059274998,1.5190189615847483,0.06769616739858468,0.01806051646097424,-0.27697768165697956,0.005894231181834186,0.007685959923007246,-0.00773827725245102,22.441401814759903,-5.360339261086992,14.486756936932098,0.006841108291147703,0.007737522119938411
9058,1724815092409235347,0.1921321600675583,-0.248023048043251,0.1048196107149124,-0.0346277169883251,-0.0040491102263331,0.1385400146245956,-0.9897430539131165,0.0,0.0,0.0,-0.28371226929315174,0.3634112342226389,0.03300816587391403,1.528540954,0.1048196107149124,-0.02128535192373166,-0.05157831710248845,-0.05718265704335926,6.926488694039302,-1.5688545002726868,-0.3938847286116842,0.0674848252821337,0.017610716554049752,-0.27754985671672255,0.0030784034896989,0.014102575240389825,-0.0058235534007344825,22.67906033372386,-25.869648782382175,2.079062535235445,0.0012166436133086152,0.007827316838299408
9060,1724815092418278149,0.1921463012695312,-0.2478787451982498,0.1047494411468505,-0.0347869098186492,-0.0039350064471364,0.1387576907873153,-0.9897074699401855,0.0,0.0,0.0,-0.1692088452996974,0.14036828039824922,0.049447441686717775,1.537583756,0.1047494411468505,0.038811316183888146,-0.0217349425483406,-0.04772359971920461,2.4338267734774885,2.9161037195975403,0.7626821767396588,0.06782801228850815,0.017443797739457326,-0.2779937974815813,0.0006362581613164053,0.01465785781785911,-0.0069927401902489805,15.165275127345819,-14.992804434738224,6.256610440136518,-0.0027396807334084347,0.005905323321959808
9062,1724815092429688423,0.1921402066946029,-0.2477302104234695,0.1046806946396827,-0.0348242335021495,-0.0039727818220853,0.1389999836683273,-0.9896719455718994,0.0,0.0,0.0,0.0398666550264961,0.10855593330908753,0.18474313175449744,1.54899403,0.1046806946396827,0.005939754227497888,0.006008039231602461,-0.043100730655103794,-4.854898995037991,2.331557066624183,-3.916846480660894,0.06788727486515904,0.017545537412900155,-0.2784798497456549,0.00015762377679173767,0.017396362682692512,-0.0038550786055422392,16.341566178373768,-16.40668839044689,-4.103765886619745,-0.003985691646571232,0.003082605102734687
9064,1724815092437832555,0.1921455115079879,-0.2475630789995193,0.1046619117259979,-0.0346547812223434,-0.0041108895093202,0.1393992751836776,-0.9896211624145508,0.0,0.0,0.0,0.16143405968770452,-0.10422624451468354,0.05854096468196589,1.557138162,0.1046619117259979,-0.0450740118416628,0.024416148666791964,-0.1001234165101444,2.5634828925925857,0.9998953181593988,1.1278793584975086,0.06750604442149455,0.017799089077108407,-0.2792800716552754,0.0009578823033757899,0.01751636419440672,-0.0028750776994428406,9.54011193945155,-19.085277982169046,-10.812832155316261,-0.004989113552318293,0.006297432427582129
9066,1724815092448734558,0.192160427570343,-0.2474159747362136,0.1046222671866417,-0.035270869731903,-0.0041114832274615,0.139232337474823,-0.989622950553894,0.0,0.0,0.0,0.18682542651499,-0.20952787114371108,0.009005806631479707,1.568040165,0.1046222671866417,0.11169749871620459,0.016923071228945267,0.030813869971298636,5.07035781665703,-2.4535610591121024,4.622811511274993,0.06872999613208697,0.017960293166611154,-0.2789323348940218,0.003639756345853229,0.014643999225476989,-0.003138630868402714,-6.897601843802182,-8.998306977699308,-0.4629824789140171,-0.002334099969844594,0.005043562492350358
9068,1724815092458548699,0.1922162175178527,-0.2472620904445648,0.1045958623290062,-0.0356401838362216,-0.0039449450559914,0.1391848474740982,-0.9896169900894164,0.0,0.0,0.0,0.037615425699529526,-0.2920020776120267,0.04051426329717771,1.577854306,0.1045958623290062,0.07920900849380025,-0.02276103647675963,0.010914797359094433,-4.128126601392425,-1.0443610753266561,-2.150944143655727,0.06950898448497142,0.017730045312484486,-0.27884083688699707,0.0049505051668390365,0.013064244332579023,-0.002757101995802813,-9.057242879126735,0.4480507974058341,-0.2684253994593171,0.001196854178966549,0.009793792187595289
9070,1724815092470189129,0.1922637075185775,-0.2471461296081543,0.1045628488063812,-0.0357595011591911,-0.0039695212617516,0.1392751187086105,-0.9895999431610109,0.0,0.0,0.0,0.01704494049409902,-0.1645755218097773,-0.010642566669407091,1.589494736,0.1045628488063812,0.019865500723749284,0.006490852996589864,-0.015826188848292472,-4.386223938095905,0.8593378906181559,-1.6133887278272914,0.0697370617925981,0.017818236403497095,-0.27901941679255915,0.004063738734318534,0.007856072701297734,-0.00226287177467821,-7.444944837235167,9.124268099137758,-5.985125651871462,0.0012286718999953755,0.006676171184138453
9072,1724815092484885657,0.1923231333494186,-0.2470697462558746,0.1045402288436889,-0.0355186276137828,-0.0039246180094778,0.1394724696874618,-0.9895809888839722,0.0,0.0,0.0,-0.19772110591535996,-0.06429924964134082,-0.12811244030444968,1.604191264,0.1045402288436889,-0.03138882280983505,-0.011562714769052409,-0.026848356482126006,9.805415956819552,-1.7039741077464696,1.463589297509388,0.069268557310962,0.01767611662298352,-0.27942489959575734,0.006044024570456941,0.010685573958163275,-0.0034045618036131486,-25.89222242705992,-45.84858693942526,2.3273964228902564,0.002480067608586884,0.005325509022992601
9074,1724815092489385215,0.1923530846834182,-0.2470141053199768,0.1045223399996757,-0.035581350326538,-0.003871981985867,0.1395126581192016,-0.989573299884796,0.0,0.0,0.0,-0.3297624520140612,-0.343158483897043,-0.10342269790947559,1.608690822,0.1045223399996757,0.031043630180004177,-0.01988496567837809,-0.017213419503660062,8.628915745126173,-2.0711887431539,2.4900482683756393,0.06940677093848252,0.01759222492036867,-0.27950839015026924,0.0046963595476636755,0.010042448286055716,-0.004050481207284129,-13.820745153931878,-47.83576857918807,8.840883921788173,0.0030561157913528677,0.009824010149221206
9076,1724815092498137420,0.1923608183860778,-0.2469657659530639,0.1044856160879135,-0.0356307215988636,-0.0036788615398108,0.1394739001989364,-0.9895776510238647,0.0,0.0,0.0,-0.18643053061372455,-0.5211220246135357,0.031048984258609164,1.617443027,0.1044856160879135,0.017251504110934006,-0.04178528908666912,0.010517005247075304,-0.7663277842602946,-1.5282576627659958,0.5367426642373107,0.06955890617551054,0.017221000910902475,-0.2794419059026894,0.001295198179033008,0.0036303522785328113,-0.004272495457017023,18.146504585425323,4.854341486882593,18.80772292420955,-0.0006016715936423675,0.0023864291770947206
9078,1724815092508718387,0.1923797875642776,-0.2469515651464462,0.1044394299387931,-0.0356988906860351,-0.0034295774530619,0.1395743042230606,-0.9895619750022888,0.0,0.0,0.0,0.0282165633680085,-0.1475585480492709,0.27410035579795355,1.628023994,0.1044394299387931,0.01949824613484817,-0.04549639942358666,-0.017467404952302697,2.697407315953285,-0.7432905723075005,-0.4409461193842634,0.06976152069112497,0.016753638270299333,-0.27965984105743424,0.0019087833637012608,0.0008219081974498721,-0.0032223068589090076,7.087912020905766,24.59996778467735,16.378668083240523,0.0014255903806346829,0.002107809018424639
9080,1724815092517757506,0.1923979371786117,-0.2469481527805328,0.1044191271066665,-0.0359460413455963,-0.0031434241682291,0.1396040171384811,-0.98954975605011,0.0,0.0,0.0,-0.009631065455997664,-0.007861987472495072,0.37124637912655234,1.637063113,0.1044191271066665,0.06307000631656745,-0.055246388640902665,-0.00443522114290797,-3.1957181653086275,0.3435236387403944,-2.600363179381388,0.07033037660137069,0.01625828903658313,-0.2797347773889929,0.0019339310373105434,0.0003982608529611298,0.0006054839937963408,-1.135719522883153,8.07208545957535,-9.704661037874528,0.0018618907755587662,0.0020425491906299192
9082,1724815092528968607,0.1924185901880264,-0.246943399310112,0.1044655665755271,-0.0354525372385978,-0.0030520297586917,0.1401069611310959,-0.9894968271255492,0.0,0.0,0.0,0.020065556363133175,-0.020019663596844303,-0.02193754866925987,1.648274214,0.1044655665755271,-0.08422086115580904,-0.031619898699653974,-0.08979371806630478,0.2874769174448494,0.6489891205963718,0.10174727430547259,0.06936959182876293,0.015974921491786913,-0.28076391948758656,0.0016533514406980032,0.0008525001597394777,0.004041403637621066,0.74715585348357,-3.441319376428086,-27.14874370468845,0.0015861942475740199,0.0018713563260283322
9084,1724815092537836065,0.1924319267272949,-0.2469328343868255,0.1045006960630416,-0.0354844406247139,-0.002891386160627,0.1402653604745865,-0.9894736409187316,0.0,0.0,0.0,0.013352869735450967,-0.06706602767074889,-0.20711357470362904,1.657141672,0.1045006960630416,0.012490848010141624,-0.03609407289778072,-0.03477695717391182,6.184001950796324,-3.1332665117297522,6.205588941028485,0.06947512190224278,0.015677018640326237,-0.28109375690758204,0.002147549249137626,0.0002503884156954683,0.0015434728325693925,-5.985313375961843,-2.4895303172730294,-0.6427220427886655,0.001052208806396908,0.0017589716965318953
9086,1724815092548008350,0.1924612820148468,-0.2469412684440612,0.1044881790876388,-0.0355165973305702,-0.002375369425863,0.1401407122611999,-0.9894915819168092,0.0,0.0,0.0,-0.10854120327673035,-0.059530280711510994,0.022530514492861767,1.667313957,0.1044881790876388,0.020290515599200896,-0.09864121730957849,0.02836258809828461,-1.0101049574104703,-1.8596711144070963,1.7895261717529494,0.06968483840041527,0.01465598326897222,-0.2808757110030274,0.0017888559477370336,-0.000422079682504517,0.00030696979539523994,-11.245093453022495,3.8041441835246914,12.13663019690921,0.0030202655697222818,0.0025488063807063135
9088,1724815092558764184,0.1924680471420288,-0.2469411790370941,0.1045089662075042,-0.0354065336287021,-0.0020122225396335,0.1401679068803787,-0.9894925355911256,0.0,0.0,0.0,-0.22109992200496686,0.016225312530017102,0.034350667610382225,1.678069791,0.1045089662075042,-0.010782002991340604,-0.06986409759857487,-0.0026290659329850463,1.6896615901711773,-2.5354940172065987,0.8807797939720308,0.06956772705389086,0.013908326186743786,-0.2809562373772355,-0.0002119913040985466,-0.0009875714986975481,0.0021879807626099534,-4.09324622978068,7.980725452882432,-4.5607016780482335,0.0005750693321055898,0.0005950730284286664
9090,1724815092567652723,0.1924599856138229,-0.2469572722911834,0.1045302897691726,-0.0354919396340847,-0.0014088007155805,0.1400443762540817,-0.9895079135894777,0.0,0.0,0.0,-0.21068042915344032,0.09404875033465501,-0.04775984967076147,1.68695833,0.1045302897691726,0.03786807396307197,-0.13067780034142226,0.03283443217686942,3.916614161389659,0.19958181165837097,0.12166547243032044,0.06990710549526234,0.012729275770453363,-0.28074596185720346,-0.0024348912634195585,-0.0003379823117359848,0.0014610399686842968,6.331782937422318,2.844972365732567,-0.09939920999525542,-0.00040029902466135636,-0.001390516887975414
9092,1724815092577870494,0.1924171596765518,-0.2469434291124344,0.104534201323986,-0.035760298371315,-0.0011360178468748,0.1401105374097824,-0.9894892573356628,0.0,0.0,0.0,-0.08538084216850104,0.05369447408074643,0.05856214097911998,1.697176101,0.104534201323986,0.05960207082124706,-0.04593185345584794,-0.011356690901853962,-0.38715647397799663,4.29510759193394,-2.124542150820737,0.07051425028906502,0.012269251978785282,-0.28089466348618214,-0.004124725334946788,0.0008692611584404375,0.0013726817126529234,8.338583826143795,-3.154985787281059,10.254657124712068,-0.004406992629700963,-0.003653957265961366
9094,1724815092590721505,0.1923652291297912,-0.2469401061534881,0.1045678406953811,-0.0357993729412555,-0.0007721029105596,0.1401430368423462,-0.989483654499054,0.0,0.0,0.0,-0.041649945199126626,0.02599006357106385,0.18790525749415077,1.710027112,0.1045678406953811,0.013989477331233716,-0.05536855980552224,-0.003094660758822206,-2.586029077453316,-1.6078146591634723,0.2864120522058156,0.0706929669591471,0.01156228971996098,-0.2809845698269307,-0.003928909431572869,0.0005174814081438939,0.003211565113300452,5.600830098972343,6.283950779576289,0.9162693779247872,-0.00398419902457278,-0.0038327737032408642
9096,1724815092603260167,0.1923173367977142,-0.2469304502010345,0.1046153753995895,-0.035682339221239,-0.0002439893287373,0.1401862949132919,-0.9894819259643556,0.0,0.0,0.0,0.055466055414467585,0.2080336970702949,0.08747154865575735,1.722565774,0.1046153753995895,-0.006650826330032866,-0.08621470059181975,-0.0038647860884521803,13.840673287363831,-13.409050534916247,-17.263143148650723,0.07060818631093883,0.010487388162406915,-0.2811091721749173,-0.005147098293193153,0.0014962092612478273,0.006115880528740902,18.640814823943053,6.573897135739717,-26.71512156388502,-0.003922832765896439,-0.0034918870816705136
9098,1724815092608323231,0.1922885626554489,-0.2469213902950287,0.1046510934829711,-0.0358578078448772,0.0002204257907578,0.1405189931392669,-0.989428460597992,0.0,0.0,0.0,0.1721209361035849,0.2250752732995812,-0.08603059087494616,1.727628838,0.1046510934829711,0.09508732685329409,-0.17649015562208886,-0.12643717824400091,10.839424211743053,-9.725895003794626,-12.720581135682048,0.07108256526062194,0.009641364377036636,-0.2818110504201273,-0.004554245392216494,0.0028152279243958134,0.006264032835566091,22.57375757812293,0.3266507514819672,-30.31614151430122,-0.00602433315679408,-0.005035334873655883
9100,1724815092618041091,0.1922653615474701,-0.2468748986721038,0.1046972200274467,-0.0359096750617027,0.000809327699244,0.1407117694616317,-0.9893988370895386,0.0,0.0,0.0,0.38278620074653064,0.1715619257126261,-0.306924215402089,1.737346698,0.1046972200274467,0.027802529556497164,-0.11984264967413305,-0.03576831665749034,-1.378549441236486,3.8337659411219827,7.454759184035789,0.07134884333076343,0.008504434582614937,-0.28224062599823135,-0.0018552244430081188,0.004341398820953302,0.0032775613667923587,11.06338269744505,-6.373009946117493,-4.111972367692895,-0.0036656664970608223,-0.0010166755279880826
9102,1724815092632626605,0.1922499537467956,-0.2468212693929672,0.1047128662467002,-0.0367304719984531,0.0017265939386561,0.1405088454484939,-0.9893963932991028,0.0,0.0,0.0,0.31177949500182534,0.059643610686027526,0.04068960750454336,1.751932212,0.1047128662467002,0.12908940721153017,-0.10760833025017673,0.03190883111087504,2.4847401513795724,-31.235438598505198,-5.575419286393421,0.07323438611549857,0.006905395675278554,-0.2818898020196531,0.006027553145013798,0.00716144638871441,-0.0011904697156168709,-31.020909161216352,-16.944058371964633,37.59945540132274,-0.0020448467381711122,-7.549302417742969e-06
9104,1724815092638065216,0.192297101020813,-0.2467752546072006,0.1047018021345138,-0.0369590036571025,0.0026972810737788,0.1405938267707824,-0.9893736243247986,0.0,0.0,0.0,0.09003302502333613,-0.051309135303032494,0.27309629028283106,1.757370823,0.1047018021345138,0.13355914383556028,-0.34253023349480793,-0.01912997300313661,-2.9389906493229034,-23.326759921607472,-7.278866078970636,0.07395932065754829,0.005055199542945947,-0.2821305354000414,0.0072594662946885435,0.0072146853389591925,-0.00026543416511337625,-33.34390053483932,-20.190378101939334,32.2460022864571,0.005980968780126989,0.010710245786588257
9106,1724815092649789445,0.1923465877771377,-0.2467221617698669,0.1047433987259864,-0.03688944876194,0.0033498571719974,0.1409156322479248,-0.9893284440040588,0.0,0.0,0.0,-0.11314195440344704,-0.28270407208482495,0.3861102757144509,1.769095052,0.1047433987259864,0.004048745893271375,-0.11385585221073956,-0.05124972463990643,3.6776534629076947,8.999527985238437,2.539737881282887,0.07400371033602719,0.0037683909429190514,-0.28282842863638036,0.004865600411712023,0.005068905722801276,0.005539912564112015,-17.005899918881486,-14.848008166197998,3.0296303868464953,0.0027760369552808084,0.005254294472822118
9108,1724815092658332888,0.1923921704292297,-0.2466754913330078,0.104803130030632,-0.0373650602996349,0.0038595299702137,0.1409159004688263,-0.9893087148666382,0.0,0.0,0.0,-0.25641630972425433,-0.37912352849018227,0.3708442264751674,1.777638495,0.104803130030632,0.12713464247155978,-0.10236825602641299,0.003315481923167011,5.040091025645761,-1.2502010803338663,4.333917366771752,0.07508975737374335,0.0028941330069581204,-0.282865326631359,0.004465752282090563,0.0020330519030835603,0.008159735140110591,-23.20413789742808,-10.141608731788136,13.556936420012644,0.0035784260032930104,0.006517861167297723
9110,1724815092668420230,0.192426860332489,-0.2466958314180374,0.1048993542790412,-0.0375923067331314,0.0046389121562242,0.1408293694257736,-0.9893090724945068,0.0,0.0,0.0,-0.5671153822882251,-0.4677979948319186,0.690346157249885,1.787725837,0.1048993542790412,0.06641290163427022,-0.1458842845043965,0.022582937786334082,-2.059940210734486,0.39381418151204794,1.9422064630272136,0.07575993629645468,0.0014095664064315773,-0.28274905691962143,-0.0006173666739908157,-0.00207452701583577,0.012665170180452101,-10.180854353392537,-16.35393746193015,32.57805821485844,0.003851518176819709,0.002552678088564447
9112,1724815092678536801,0.1923794597387313,-0.2467174082994461,0.1050591990351677,-0.0379533395171165,0.0051791626028716,0.1406322568655014,-0.9893206357955932,0.0,0.0,0.0,-0.4609022531396839,-0.709979832393521,1.0291014327069776,1.797842408,0.1050591990351677,0.08574759868506075,-0.09413606488051192,0.04255753411171207,0.8249638297264896,-0.4096102946164777,-0.7198631235360583,0.07662773415795107,0.0004272227184221053,-0.2823922554060427,-0.006995897738532264,-0.007421845578990727,0.02212169591316826,7.145105338718228,-11.601473954214853,-3.2880764296967726,-0.0039122874231874,-0.005423084291256012
9114,1724815092688226240,0.1922902315855026,-0.2468384057283401,0.1053322106599807,-0.0382522717118263,0.005954067222774,0.1406068801879882,-0.9893084168434144,0.0,0.0,0.0,-0.4227947889779119,-0.7078940168547715,0.6559733907910296,1.807531847,0.1053322106599807,0.0836604790973324,-0.14937702303171274,0.010578381596550251,-8.26440449151066,-6.510984135018473,-4.630033568535572,0.07743836746320512,-0.0010237526437046683,-0.2824014727478912,-0.00988782677268496,-0.015984694540351896,0.032968668985899896,4.638977328472915,28.63870037586418,-54.16229375764867,-0.0053353689366585,-0.012947501822700023
9116,1724815092698759182,0.1921783089637756,-0.2470468133687973,0.1057343408465385,-0.0375878252089023,0.0070564495399594,0.1409338116645813,-0.9892800450325012,0.0,0.0,0.0,-0.3658480583669249,-0.080799481225585,-0.0937461982003378,1.818064789,0.1057343408465385,-0.0955480938297975,-0.2272293256987502,-0.05341348053958016,8.333339498797468,-5.026624890608078,14.255856524500341,0.07643358857178352,-0.003366824840351499,-0.28314632858413097,-0.015764695042999932,-0.02142759988002041,0.03457109502791855,20.866293207691434,54.96557066891178,-36.724891982120994,-0.004546430758553891,-0.016647138178012014
9118,1724815092708696889,0.1919734627008438,-0.2472751438617706,0.1060440763831138,-0.0385050289332866,0.008519560098648,0.1396023482084274,-0.9894221425056458,0.0,0.0,0.0,-0.013532570106447928,0.42257468951497107,-0.13566609000637964,1.828002496,0.1060440763831138,0.22492660719318938,-0.2550108476986854,0.27888516103835626,15.884730472486975,2.453286983157316,12.827742390364376,0.07865670486158985,-0.006108135879845168,-0.2805795316215554,-0.017599205138616902,-0.018143034800122138,0.03133406642242509,-18.531238129307546,16.09864238947706,112.7873063534068,-0.013253943265543229,-0.02699924529536182
9120,1724815092722787408,0.1917856931686401,-0.2474342286586761,0.1064889132976532,-0.0392376706004142,0.0094580175355076,0.1392926275730133,-0.989428460597992,0.0,0.0,0.0,-1.3531714987158416,-0.04093811937711833,3.79118786966055,1.842093015,0.1064889132976532,0.12182633657371685,-0.11557735258812431,0.04786481196930449,-1.7579996308155348,2.4692285623421375,-6.400629887810139,0.08036952645376018,-0.007785105624919495,-0.2800365502751789,-0.014372157893012272,-0.010349510533410822,0.03321973440219228,21.928598108438855,7.832216425840704,-24.890797306796685,-0.009440266862174765,-0.016846063294050053
9122,1724815092734863473,0.1916013062000274,-0.2475494742393493,0.1069071516394615,-0.0400413312017917,0.0105800526216626,0.1388798058032989,-0.9894428849220276,0.0,0.0,0.0,0.12256842538819157,0.4751587630632792,0.3486868617201786,1.85416908,0.1069071516394615,0.15813005075837183,-0.16261834646668377,0.07401282075874617,54.90497367070612,-21.796836746406484,-40.3494266546934,0.08227267319024512,-0.009815008560778292,-0.27930518739046817,-0.047088233275445646,-0.016991986254517144,0.116854633826037,381.4117198290068,128.64626338527563,-957.4633357639088,-0.011705609701938582,-0.018401361269708726
9124,1724815092737961495,0.1914301365613937,-0.2476080358028412,0.107334516942501,-0.0405564196407794,0.0110288159921765,0.1390188187360763,-0.9893975257873536,0.0,0.0,0.0,1.5102020660512654,0.9419860129779781,-3.151957740078507,1.857267102,0.107334516942501,0.3694746110913262,-0.24437302672792752,-0.08478016302205915,47.73720828109647,-14.935918858202568,-36.65123579580713,0.08342062381846013,-0.010547750989469636,-0.27962962691901216,-0.04445792450788133,-0.01470512248762823,0.11270765554157691,356.65773476386573,117.31545485921232,-906.9751995515122,-0.04643031459991101,-0.06285137702677222
9126,1724815092747891600,0.1913322061300277,-0.2476204484701156,0.1076503470540046,-0.0414772555232048,0.011302525177598,0.1389346718788147,-0.9893680214881896,0.0,0.0,0.0,2.1473955177220607,1.0448025386796904,-5.060892760016426,1.867197207,0.1076503470540046,0.19158872948585876,-0.028137945459516252,0.01613235200175175,-8.590706983480525,8.812990252492842,10.862233637793533,0.08532165503570716,-0.010839668445185134,-0.27949350655672667,-0.008416954697835877,0.0011361924274329027,0.02369064655321118,-41.980886325674895,-35.62587604618615,96.95916644775639,-0.008789156351808611,-0.010899079467592875
9128,1724815092759041550,0.1912564486265182,-0.2475779056549072,0.1078129038214683,-0.0425688438117504,0.0120092257857322,0.138137087225914,-0.989425003528595,0.0,0.0,0.0,0.3503663313421864,0.07192382171746464,-0.3591678945616953,1.878347157,0.1078129038214683,0.21252454484482097,-0.09216218159943147,0.14600887513998623,15.147620176462556,2.5112356419639705,1.9317721988709056,0.08767378150726461,-0.012004072640639943,-0.2779602717712883,-0.0030285867666588473,0.005893884895190382,0.016131933575245228,-79.79988685952335,-53.19441319016016,239.1416878234648,-0.007405042486707542,-0.0060120111478092035
9130,1724815092768062433,0.1912566125392913,-0.2475095689296722,0.1079697608947753,-0.0445484332740306,0.0123462434858083,0.1377015262842178,-0.98939448595047,0.0,0.0,0.0,0.2243637254737276,-0.15935704666831602,0.46586215560932365,1.88736804,0.1079697608947753,0.44601837798869187,-0.00927274716966533,0.09252140703832556,0.3983604738940727,-2.1236997974920033,-6.799395996944901,0.09168732164900913,-0.012162135773308574,-0.2771364684262127,-0.0008379069017276919,0.003953411849307642,0.01521824908371805,-0.5176380990424541,-9.971862014428792,70.85438642390086,-0.0018435445706143055,0.0014351657958380187
9132,1724815092778342018,0.1912379711866378,-0.2475113570690155,0.1081007793545723,-0.0452026426792144,0.0132883926853537,0.1376660466194152,-0.9893575310707092,0.0,0.0,0.0,0.37659762054835083,-0.07834731590983011,0.952869264711723,1.897647625,0.1081007793545723,0.15158022108601688,-0.16361502528225216,0.012434136886921498,-42.266076721418855,-0.602470878615547,-21.146959298499482,0.09324586615543347,-0.01384864718565285,-0.277164489239321,0.001251966396139892,0.0029683611557906886,0.02665063863836714,3.124696950395368,-3.3778502397973647,-34.75851152819275,-0.0015199619854738132,-0.0022849898308906712
9134,1724815092788149713,0.1912789344787597,-0.2474528402090072,0.1084922775626182,-0.043305717408657,0.0131220323964953,0.13925102353096,-0.989222764968872,0.0,0.0,0.0,0.29790500569954304,-0.21682721591847343,-0.1566039830447683,1.90745532,0.1084922775626182,-0.39043006073030095,-0.03466428512432346,-0.3199476323991825,-11.077313379014116,5.672212559136895,-9.606211763849291,0.08946042777602424,-0.013900943080702029,-0.2803206661813823,0.0065671171784789095,0.002363510048066786,0.03450567181532982,-3.4665525276124356,-74.88189200747415,82.5365572645875,0.0029175708384012356,0.004132464732136206
9136,1724815092798028557,0.1913675963878631,-0.2474653422832489,0.1087793037295341,-0.0429863892495632,0.0133026279509067,0.1401125341653823,-0.9891125559806824,0.0,0.0,0.0,0.3090040039277189,-1.5611903301029384,2.605671332007646,1.917334164,0.1087793037295341,-0.06018328861770473,-0.05301642756262853,-0.17321087199022242,25.44104976976243,-1.0931999404021515,12.338965223222555,0.0888905388542188,-0.014270213126493646,-0.2820717685619182,0.0070818337182882996,-0.0013223747778572381,0.02343090237541845,-106.74934754137831,304.8119638411633,-1017.9067091696271,0.00938619223985394,0.007155462549853834
9138,1724815092826954313,0.1914121061563491,-0.2475084066390991,0.1089807525277137,-0.042939007282257,0.0135671012103557,0.1405439227819442,-0.9890499114990234,0.0,0.0,0.0,-11.915209887418797,44.597976001429856,-136.73307219248568,1.94625992,0.1089807525277137,-0.0008888841062414201,-0.019886070004684037,-0.029279796114286088,9501.317159802826,1045.406491529678,398.8487781392985,0.08887783425705337,-0.0147679842492071,-0.2829665722552675,0.03777852353050548,-0.14710682321720014,0.4144413864169678,-1189.9318463545642,4504.952733031299,-11894.271757416194,0.0019958819056337443,0.0007942804571454301
9140,1724815092827211267,0.1914218962192535,-0.2475465387105941,0.1090881749987602,-0.0432562790811061,0.0135800577700138,0.1405288130044937,-0.9890379905700684,0.0,0.0,0.0,-12.222719116605465,45.76218204424452,-139.80550707160035,1.946516874,0.1090881749987602,2.462195404842317,0.2511189194133336,0.0741050393062897,8482.62155511352,927.8496556000986,354.608259605142,0.0895101295530432,-0.014705408988240454,-0.2829418200880119,0.03468724293925973,-0.13553389233765145,0.3789643170836072,-1029.107367571493,3893.41198538107,-10022.89421617391,0.0841552838667857,-0.020808640608046134
9142,1724815092829458135,0.191432774066925,-0.2475982755422592,0.1091715171933174,-0.0430650487542152,0.0137263583019375,0.1406132280826568,-0.9890323281288148,0.0,0.0,0.0,-11.24132222132912,41.98738907816812,-124.32320057265835,1.948763742,0.1091715171933174,-0.15085536279840012,-0.15603812366424882,-0.06708014881438933,-923.1691201075723,-141.23316638878174,-47.78214587531503,0.08917387742796666,-0.01504116030729375,-0.2831232461365726,0.003447502630955057,-0.018502283886147275,0.030698474659274222,593.0582097204386,-2267.2483559943225,8283.875894629584,0.01163773930721469,-0.0031856189748077977
9144,1724815092838351298,0.1914143711328506,-0.2476035803556442,0.109219454228878,-0.0434126630425453,0.0138051472604274,0.1404426246881485,-0.9890402555465698,0.0,0.0,0.0,-0.4664186065859106,1.1544624272620603,-1.611495082211221,1.957656905,0.109219454228878,0.08025961232396848,-0.004855370751150704,0.03788720488408576,11.121790866144028,8.546367225478484,4.714185836961125,0.089882633801168,-0.015114291513268114,-0.2827914707810798,-0.002809975832102296,-0.0005858305203112479,0.004896541995551118,676.7637109628384,-2546.8418185448363,7597.727851757384,-0.0017390187449652413,-0.002364839539969091
9146,1724815092849039532,0.1913748234510421,-0.2476097047328949,0.1092654466629028,-0.0434394478797912,0.0139274438843131,0.1404618918895721,-0.9890346527099608,0.0,0.0,0.0,-0.10324657898629792,0.1981132816967837,-0.05719903515266839,1.968345139,0.1092654466629028,0.00816677266390426,-0.022100627625362773,-0.002788760312931805,-3.1266225663662093,0.3953199803931024,-3.086341919989473,0.08997070172787162,-0.015346877612874194,-0.28284238993863026,-0.004748061264203685,0.0007039039659701984,0.004241158813338863,29.35924829765628,-55.40388733665304,80.32769391121155,-0.0033267407275586864,-0.00388224573539859
