seq,stamp,px,py,pz,ox,oy,oz,ow,lx,ly,lz,ax,ay,az,timestamp,wx,wy,wz,aa_x,aa_y,aa_z,roll,pitch,yaw,vx,vy,vz,jx,jy,jz,fw
20,1724820559625520846,-1.508756399154663,0.2516132295131683,0.1277287900447845,0.014823236502707,0.0509274005889892,0.3989120721817016,-0.9154539108276368,0.0,0.0,0.0,0.373835586779769,0.3373134848424344,0.9516371285800498,0.0,0.0,0.0,0.0,4.271420623512134,-25.17027511932763,4.3163926994514386,0.0135666372507935,-0.1052640008490417,-0.8226015899060066,0.005257223947153,-0.0432620764746206,-0.0315448304543991,-2.586382772476089,-11.174599158394068,8.194176861833132,0.0
22,1724820559635543342,-1.5087037086486816,0.2511796355247497,0.1274126321077346,0.0151421660557389,0.0521670207381248,0.3986835777759552,-0.9154783487319946,0.0,0.0,0.0,0.3479135757881585,0.2253161094758264,1.033763233401065,0.010022496,0.0428102961134678,-0.2522689817023607,0.0432610285646812,4.44229060588275,-1.3391320499215624,-1.4592969243319576,0.0139530604855394,-0.1077980772004833,-0.8222004543252199,0.0090039896203109,-0.0398813534220412,-0.022007051139754,-16.84844267354259,-19.963118831890313,-17.05285551457118,-0.0003487458921802
24,1724820559646150492,-1.50856614112854,0.2507945597171783,0.1272862702608108,0.0146837346255779,0.0523590929806232,0.3988381624221802,-0.915407657623291,0.0,0.0,0.0,0.0090950261077707,-0.0850948112364453,0.5694601413095114,0.020629646,0.0918485098389825,0.001052894545832,-0.0370553207063352,-3.7921951316817584,11.06190059358736,2.1669736012109087,0.0149698250534217,-0.1077812544752033,-0.8225957884907004,0.0124033629612938,-0.0387486640298657,-0.0101198292541528,-27.49239125031487,-10.674177701533138,-42.441052268989104,-0.0001636254076955
26,1724820559655461722,-1.5084552764892578,0.2504137754440307,0.1272066980600357,0.0147525761276483,0.0523351989686489,0.3985737562179565,-0.9155230522155762,0.0,0.0,0.0,-0.2105196355526995,-0.03253552737814,0.1851657612827829,0.029940876,-0.0122452972130033,-0.0007355356920148,0.0627239501438058,-12.100049175836515,-1.0025218290142983,1.024218644707502,0.0147926260232893,-0.1077967893997979,-0.8220084828810341,0.0099429054854454,-0.0411093612620323,-0.0093229272643684,-3.8510930277821873,19.020855978621817,-17.11239460603168,-0.0001145937434488
28,1724820559665902739,-1.5083744525909424,0.2499820441007614,0.127100259065628,0.0154985524713993,0.0521263740956783,0.398804247379303,-0.9154222011566162,0.0,0.0,0.0,-0.0196748984834642,0.3226678552553417,0.2893545361217065,0.040381893,-0.1493611717781134,-0.0206915341925709,-0.0400526178093371,-6.4304971982452805,3.3470309423007287,-8.265611683727949,0.0132787651269006,-0.1080069272868706,-0.8224320454059992,0.0083738913957347,-0.0388616602508165,-0.0062237284897346,19.120530566557385,15.356115509916402,3.5330421347807768,-0.0001427241788183
30,1724820559675525025,-1.5082882642745972,0.2496301680803299,0.127075582742691,0.0160290915518999,0.0515868738293647,0.3993115425109863,-0.915222465991974,0.0,0.0,0.0,0.171776418836399,0.3049220360772473,0.2661911107644765,0.050004179,-0.1518061949686858,0.0581442191416275,-0.1055940150445502,1.7941299464680185,0.1170549459879837,3.968968140719285,0.0119271467290747,-0.1074346873870792,-0.8234468587286582,0.0093426954159383,-0.0348045336692717,-0.0035057599244812,11.139056896120303,-9.93672483885895,0.1102564402689072,-5.638841481032507e-05
32,1724820559685415299,-1.50819194316864,0.2493038773536682,0.1270313411951065,0.0165976509451866,0.0514630042016506,0.3991428315639496,-0.9152929782867432,0.0,0.0,0.0,0.1929173906171342,0.1243791391584772,0.2928740444153049,0.059894453,-0.1132400141255394,-0.0227963020168298,0.0432505998248615,11.803026440566269,-3.263319290337025,1.535575605341565,0.0107612689504663,-0.1076650033958471,-0.8230193243388998,0.0117643238669842,-0.0329752791027218,-0.0010385028858452,-11.74106811842278,-1.7792097424679962,-2.9312844764352093,-7.509933749708943e-05
34,1724820559695635304,-1.5080503225326538,0.2489670366048813,0.1270570009946823,0.0161592066287994,0.0516749732196331,0.3995103240013122,-0.915128529071808,0.0,0.0,0.0,-0.0736447250647556,0.2801876307495985,0.2034680504274535,0.070114458,0.0908549815160619,-0.0041830483031353,-0.0837737011395258,3.773128904867959,1.767628567468016,-4.243838229436232,0.0117824049580073,-0.1076980997424173,-0.8238809006617935,0.0131874998424308,-0.0323438477882085,0.0024131239929134,-0.9870195828759724,1.1111606339515818,-9.087691401912272,-9.926541249271669e-06
36,1724820559705371927,-1.5079281330108645,0.2486578226089477,0.1270795911550521,0.0162233859300613,0.0515789538621902,0.3997360169887543,-0.9150341749191284,0.0,0.0,0.0,0.1495322620239778,0.1598955232329868,0.1118348744420954,0.079851081,-0.0226527003242155,0.0125302235084383,-0.0491680718081273,-10.03078063132107,-1.0561019046152171,0.9795354728417291,0.0116134125940652,-0.1075704913873541,-0.8243608499384398,0.0104955787865392,-0.027589830366109,0.0031487655898443,24.74960327927331,-20.302845268354687,-6.118291226251433,-9.42221072345988e-06
38,1724820559716946564,-1.5078349113464355,0.2483958303928375,0.1271274387836456,0.0169053003191947,0.051517017185688,0.4001550078392029,-0.9148421883583068,0.0,0.0,0.0,0.4611553774901605,-0.1844673311612221,0.086326859911346,0.091425718,-0.1163680679766,-0.0378442247223586,-0.0732563166958811,21.03099945444801,6.497840784258045,-7.210273653096852,0.0103587577964606,-0.1079991874993257,-0.8252185335189169,0.0180880413472124,-0.0302572873910804,0.0049424235642732,-10.632450567693407,-9.845754367785304,-12.831305602805394,2.1134875256215376e-05
40,1724820559725565510,-1.5076146125793457,0.2480861246585846,0.1271752268075943,0.0157236456871032,0.0516173839569091,0.4007687270641327,-0.9145889282226562,0.0,0.0,0.0,0.1284837612788327,-0.1415718968485448,-0.0924730883928357,0.100044664,0.2518385317929003,0.0877956917223469,-0.1683202569635547,12.257974487791277,2.396979585692602,-1.5115870244671057,0.0126851131649242,-0.1072258178474158,-0.8266688629817033,0.0208124751860268,-0.0315520383262857,0.0052459524123937,-30.69755470872308,10.635826203284513,-15.0355170760925,7.765068650727997e-06
42,1724820559737011548,-1.5074485540390017,0.2477915734052658,0.1272307336330413,0.0162430144846439,0.0518243759870529,0.4009976089000702,-0.9144678115844728,0.0,0.0,0.0,-0.1027956997520358,0.0661847009378204,-0.1777836785580131,0.111490702,-0.0709016860111502,-0.0699127956750183,-0.0409432092807873,-0.2452049988227402,-1.1222285407159946,1.5728702769799892,0.0119252614239762,-0.1080202147202844,-0.8271500920391583,0.0194312819473196,-0.0330409979573751,0.0022465642539639,30.622856723408606,-43.11174566248599,2.1362955576834137,2.0610228307661528e-05
44,1724820559745407933,-1.5072550773620603,0.2474691420793533,0.1272335648536682,0.0158456582576036,0.0520025789737701,0.4013082981109619,-0.9143283367156982,0.0,0.0,0.0,0.4673948763541897,-0.6731318974619678,-0.1007816633776506,0.119887087,0.0992002353725636,-0.0013824204211126,-0.0865924237282408,12.70380582827295,4.467596536835021,-2.8281445400991387,0.012837039165041,-0.1080228139111418,-0.8278814682494624,0.0186782622939318,-0.0312764059591952,0.0012728185745642,34.944794307605605,-37.052221277692105,9.814996544661998,-3.592405615811021e-05
46,1724820559762357081,-1.5070878267288208,0.2471828013658523,0.1272871494293213,0.0155686102807521,0.0526025556027889,0.4016273319721222,-0.9141587018966676,0.0,0.0,0.0,-0.0681586984141695,0.443761420494777,0.0876128593657076,0.136836235,0.0560275781215343,-0.0520569090234487,-0.0452756438350687,-122.1826092752464,-33.83192293486074,-12.512259577636945,0.0138714926018505,-0.1088948130529789,-0.8286652048314275,0.0456600770149862,-0.0729063671790299,8.437736508426497e-05,-241.40247029288915,373.4292240561557,8.00824237812234,1.9019101139066416e-05
48,1724820559765603186,-1.5069173574447632,0.2469113171100616,0.1272855103015899,0.0162941981106996,0.0526030771434307,0.4017992913722992,-0.9140704274177552,0.0,0.0,0.0,-0.9822110241144362,1.847143257307613,0.1116768258783135,0.14008234,-0.4149667238918658,-0.1810532742897636,-0.095186058975291,-99.23527948653752,-25.893184008229433,-11.541957304528776,0.0125591861974963,-0.1094783904409725,-0.8289837849823307,0.0444067597206796,-0.0696629996572086,0.0004668383967878,-218.07462653233225,337.2301419713656,7.033353544088083,-3.535349729017813e-05
50,1724820559775740064,-1.5067238807678225,0.2466474026441574,0.1273210048675537,0.0161379352211952,0.0526975952088832,0.4022114276885986,-0.9138864874839784,0.0,0.0,0.0,-1.1823905392806515,2.255259102084332,0.1709495106881605,0.150219218,0.0308054976607556,-0.0052422897771944,-0.0908343888040432,17.90853928511075,8.809933251172975,3.0589299816863207,0.0129727534600927,-0.1095197736610405,-0.8299107262657697,0.0155801198340768,-0.024095499060639,0.0014043808065986,44.76896866607388,-63.91128691042438,12.481612317587036,1.8288692388305694e-07
52,1724820559787797233,-1.5065863132476809,0.2463846951723098,0.1273078620433807,0.016884908080101,0.0525089018046855,0.4023390710353851,-0.913827657699585,0.0,0.0,0.0,0.2826443055540237,-0.0092819982545111,0.416587600016682,0.162276387,-0.1270976519345036,-0.0214041879571956,-0.016240088553563,24.222770043786575,12.865514604912573,-16.623380490638436,0.0114622172545926,-0.1097754346299262,-0.8301108662984453,0.0251496283077869,-0.02902726445188,0.0045907787009138,-18.96856175797832,-36.165837418024495,-5.503575323844192,-4.360305613122171e-05
54,1724820559795555073,-1.5063226222991943,0.2461233735084533,0.1273718327283859,0.0157232172787189,0.0523821748793125,0.4032163619995117,-0.9134689569473268,0.0,0.0,0.0,-0.5657047708429306,0.467124998929714,0.2447283495750755,0.170034227,0.2470986192674266,0.1493142838601194,-0.2590595861845749,13.398416213726,9.972528829098312,-8.284215448968066,0.0135978705649034,-0.1085919959174227,-0.8321179488497329,0.0247914828427013,-0.0271038976840625,0.0085828804399543,-68.19644839539859,30.255048946899336,-22.902833639210723,2.31510827387275e-05
56,1724820559805556110,-1.5061932802200315,0.2459371536970138,0.1274620145559311,0.0158328413963317,0.0518195815384388,0.4034478068351745,-0.9133968949317932,0.0,0.0,0.0,-0.7171043679176663,0.3680337092244291,0.0060084655795392,0.180035264,-0.0680412839485867,0.0939049833975218,-0.0451725414729718,-10.031567258097596,-2.459690125916448,10.873563795151576,0.0129650639836223,-0.1076469191572339,-0.8325597041022612,0.0124355031792617,-0.0196060556221233,0.0075511379311432,17.019801202569212,-14.61024384986488,-9.292708841173672,6.588818819116274e-05
58,1724820559815968966,-1.5060691833496094,0.2457223087549209,0.1275247484445572,0.0153197469189763,0.0514665655791759,0.4036582112312317,-0.9133326411247252,0.0,0.0,0.0,-0.1912323321121194,0.1649204434921642,0.0672811850595513,0.19044812,0.0603705649606014,0.1016920269862025,-0.0459249364427781,-4.384443009721247,0.8505148782810892,2.209922700148182,0.0136435946807043,-0.1065817461198986,-0.8330264578814951,0.0105883268156219,-0.0199117294096318,0.0087973061459312,35.710019249792225,-31.742925253293333,6.846889041979265,3.73013025596309e-05
60,1724820559825510574,-1.5059797763824463,0.2455386221408844,0.1276329308748245,0.0156614352017641,0.0507387593388557,0.4037187993526459,-0.9133408069610596,0.0,0.0,0.0,0.0201669096139272,-0.2449486156791924,0.1410273857018338,0.199989728,-0.1276206674658174,0.1107051090146406,-0.0048850408112795,-8.437781846805706,0.4252208018391221,2.7800179242254957,0.0124293840959389,-0.1055249270667965,-0.8330595057909088,0.0086426692392933,-0.0166395192284891,0.0089811760924964,36.450000962743104,-24.71203424969297,12.394645900699402,8.763606371803118e-05
62,1724820559841428916,-1.505861520767212,0.2453431040048599,0.1277133077383041,0.0150573560968041,0.0501047372817993,0.4037240147590637,-0.9133836627006532,0.0,0.0,0.0,0.9800048453868532,-0.153824427784591,0.4622362225234431,0.21590807,0.0372111659232039,0.1036807019221812,-0.0010280347962512,-43.498586524994344,48.0939979713724,-11.489672369243456,0.0130212369996601,-0.1038744277312137,-0.8330548443068254,0.0149145147899503,-0.0361511070895517,0.0144595637014361,-7.281583658866026,162.6467818245398,-25.155822321168827,5.72626525498256e-05
64,1724820559845577944,-1.5057915449142456,0.2451673001050949,0.1277834773063659,0.015134866349399,0.0492638610303401,0.4038722515106201,-0.9133626222610474,0.0,0.0,0.0,0.8767117774989261,0.6907007392020506,0.3088384728082899,0.220057098,-0.2015039240277297,0.3557111245955818,-0.0613862108613833,-33.515879210196005,41.12072102744521,-12.26647569992351,0.0122096243160253,-0.1023954831941916,-0.8332922072903227,0.0196142991501488,-0.0356301475814007,0.0165050895535339,-40.783908155928096,162.67169298867293,-37.72527488791151,5.249886630392424e-05
66,1724820559856158399,-1.505509853363037,0.2449722290039062,0.1279471218585968,0.0140984337776899,0.0482079982757568,0.4044950008392334,-0.9131599068641664,0.0,0.0,0.0,0.0165162275470779,1.30895445699629,-0.1106371487089039,0.230637553,0.0919540788544384,0.2613140200995436,-0.1296249380681258,7.762632579603755,-8.18343032470386,-0.1078059803251565,0.0133179526276313,-0.099613373680615,-0.8346350906557886,0.0219822495552222,-0.0130740560078788,0.0148034719901755,-48.403194276026824,-20.478657589597923,-28.00713622106391,0.000128600202667
68,1724820559867729473,-1.5053142309188845,0.2448888123035431,0.1281100213527679,0.0140474680811166,0.0471163466572761,0.4047963321208954,-0.9130841493606568,0.0,0.0,0.0,-0.127264545156037,0.0734042400261574,-0.2874229969398616,0.242208627,-0.0709739530920881,0.1759670781224353,-0.0506216713685288,-3.767720011866469,0.0503329315356566,1.3638433904239138,0.0125520352769935,-0.0975698408179142,-0.8351971949809985,0.0195502462685226,-0.0083415087031646,0.014158399608009,-3.833176286359976,-66.85436852076894,-8.870978644168002,0.0001421830604508
70,1724820559876919247,-1.505115270614624,0.2448038905858993,0.1282407194375991,0.0137288561090826,0.0460973232984542,0.4051446318626404,-0.9129865169525146,0.0,0.0,0.0,-0.0997763800686413,-0.2495791977737785,-0.322181504894863,0.251398401,-0.0303292498913663,0.2306301942867183,-0.0779660845070583,4.819727450042993,-1.021495973361545,2.2417980792633014,0.0123401179567042,-0.095441646046726,-0.8358904644843701,0.0189858724390603,-0.010116285544873,0.0098261631367115,13.011415983420738,-1.8269114058235143,32.59092758991872,0.0001102588101844
72,1724820559887399376,-1.5049481391906738,0.244687408208847,0.1282911598682403,0.0133214574307203,0.0454960353672504,0.405110627412796,-0.9130378365516664,0.0,0.0,0.0,0.1563435796051158,0.1294926658359405,0.4540962992770324,0.26187853,0.0249258375251741,0.1366246571042055,0.0078839623500316,1.5668226743549722,-0.2012902401827343,5.4998099735914625,0.0125917993507564,-0.0940109492269745,-0.8357895925964063,0.0174816997346312,-0.0134066271546213,0.0082332991330051,6.809813145643625,23.63547098967482,32.183335925450045,3.100516914649488e-05
74,1724820559896657871,-1.504773736000061,0.2445445358753204,0.1283953636884689,0.0129034090787172,0.0446381233632564,0.4049657583236694,-0.913150429725647,0.0,0.0,0.0,0.0752015015512799,0.2457939797592495,0.4094520861745403,0.271137025,0.0091236355499727,0.2064816421824414,0.0367862696271172,-1.6306238388610046,20.080872082883467,-8.051497593812725,0.012642235903458,-0.0921036861530066,-0.8354233083668166,0.0213819194275828,-0.0085806038043596,0.0173948781623032,-29.83832099073396,-24.746017858850184,-48.390785567574184,8.28264729271662e-05
76,1724820559906184505,-1.5045450925827026,0.2445299476385116,0.1286212652921676,0.0118918726220726,0.042371530085802,0.4056476354598999,-0.9129694700241088,0.0,0.0,0.0,-0.4156384436312512,-0.3556614340784057,-0.4786341871976788,0.280663659,-0.0056642100722732,0.5206663952256422,-0.1494431698735485,-1.9793096196033015,0.2912265068032971,-2.23173241544131,0.0127105414185367,-0.0871258323265423,-0.8367894817483088,0.0187060995201733,-0.0089392175739941,0.0156093204643559,-26.27101329708597,-52.351358344415615,-61.254064204105674,0.0002087245849261
78,1724820559916862083,-1.5044087171554563,0.2443458437919616,0.1286909580230713,0.0117679685354232,0.0416540652513504,0.4054976105690002,-0.9130707383155824,0.0,0.0,0.0,-0.393945313207209,-0.7856039788292051,-0.7501077201630785,0.291341237,-0.0319091485911055,0.132575328414282,0.0339645156992357,1.176123791811354,-20.09737059266916,7.489109232494166,0.0123368762602698,-0.0857149024543291,-0.8364077069705382,0.0126553298876714,-0.0165427251984109,0.0070136354536929,22.09125757649421,-16.117149963888547,5.107868324677739,5.018391344016838e-05
80,1724820559928470586,-1.5042632818222046,0.2441626340150833,0.1287785172462463,0.011375730857253,0.0411661230027675,0.4055052101612091,-0.9130944609642028,0.0,0.0,0.0,0.1156651796522154,-0.6679281682616898,-0.3054747756557882,0.30294974,0.0276080290419546,0.1043467546086988,-0.0013637749414075,-3.7847483231791257,-13.789624038938396,14.679716299386296,0.0126574232431273,-0.0845034891264197,-0.8364083987331532,0.0102622280065531,-0.0265900698584573,-0.0010009418351248,53.29395010271175,61.1006810136967,68.95987721475423,6.772543787258402e-05
82,1724820559937468285,-1.504186749458313,0.2438480108976364,0.128709927201271,0.0118851074948906,0.0414343625307083,0.4044678211212158,-0.9135358929634094,0.0,0.0,0.0,0.6607039027627927,0.2372617256143998,0.5288133811309528,0.311947439,-0.0685974411421066,-0.0989390559091542,0.2543216443532195,-4.58892574699697,3.656759713308288,-1.058579142672547,0.0118462581411543,-0.0854216890051454,-0.8341229834006562,0.0135473175403575,-0.031221894081451,-0.0010649738374617,24.858481050198183,86.60684087492054,66.86116481921809,-9.07706007842804e-05
84,1724820559945820188,-1.5040345191955566,0.2436162829399109,0.1287518739700317,0.0118872467428445,0.0408174321055412,0.4044200181961059,-0.91358482837677,0.0,0.0,0.0,0.5914260353481586,0.852093864790807,0.886743280892839,0.320299342,-0.0596080912969001,0.1351026932776503,0.0169741939506225,7.470334019256228,15.7975186614043,-18.884933042468862,0.011335246925279,-0.0842950476250846,-0.8339676264932363,0.021357083764542,-0.0234101449695511,0.0075063980232092,-34.74982927250788,16.83230324517388,-4.654576540640374,1.9221847109287214e-05
86,1724820559955517616,-1.5037921667099,0.2434380799531936,0.1288526356220245,0.0112044224515557,0.0403198227286338,0.4046722650527954,-0.9135037660598756,0.0,0.0,0.0,-0.0434335420540262,0.3759573401657203,0.306648950027002,0.32999677,0.0848297183533393,0.1506473581485315,-0.0588172562158897,3.0600941053031985,3.6248402367503374,-4.547577556616213,0.0122042046155443,-0.0828275303579513,-0.834522587580178,0.0232228541854624,-0.0160841928810899,0.0145344082311922,-36.562112222246235,-56.87669034966866,-52.48594453242276,7.529049775871633e-05
88,1724820559965639017,-1.5035758018493652,0.2432994991540908,0.1290435194969177,0.010805276222527,0.0393401272594928,0.405010849237442,-0.9134013056755066,0.0,0.0,0.0,-0.1081468184585452,-0.2818745412640121,-0.1471123697754392,0.340118171,-0.0092148636078391,0.2086946984802098,-0.0703217641334229,-5.592385871816377,1.731828884390343,1.1618517812961238,0.0121671534483677,-0.0807067418222282,-0.8352109489248386,0.0202919375799339,-0.0162879370442059,0.0132215619607745,10.588659973591598,-44.99734670639265,-14.049489932670973,0.000169441252468
90,1724820559977443081,-1.5033512115478516,0.2430714964866638,0.1291219741106033,0.0105144921690225,0.0383454412221908,0.4051619172096252,-0.9133799076080322,0.0,0.0,0.0,0.250629591508988,-0.5377407444990241,0.1108111340858015,0.351922235,-0.0243018587211811,0.1740262930010656,-0.0249649200139658,-0.7443510317317384,-0.471062360578216,-1.7182643899684384,0.0119018448615868,-0.0786491127378621,-0.8354816264354448,0.0215130067814612,-0.0232184991142894,0.011245468105173,9.40971702612392,-3.0763355993173462,14.226827638354573,5.292411132420731e-05
92,1724820559987176775,-1.503121852874756,0.2428141683340072,0.1292683482170105,0.0102464258670806,0.0374548844993114,0.4055602252483368,-0.9132431745529176,0.0,0.0,0.0,0.1737889679764857,-0.4183945760868364,0.1881004647006228,0.361655929,-0.0272628811321194,0.1892337670617624,-0.0863230250077914,-6.260569450113462,1.1511683798218648,-2.1899907198791144,0.0117002180208343,-0.0767973883225276,-0.8363026170343675,0.0251339306575602,-0.0280562537513482,0.0145571827749897,-18.065259381358864,-0.3404021827465762,-20.48957631980328,0.0001195146615489
94,1724820559995719865,-1.5028953552246094,0.2425623387098312,0.1293891072273254,0.0103842476382851,0.0364763252437114,0.4058780372142792,-0.9131399989128112,0.0,0.0,0.0,-0.0568072823159354,-0.5157905009003438,-0.2001150768687286,0.370199019,-0.1254090255403585,0.1959851851177574,-0.0741873750923437,0.3499222127907297,-2.03259123498053,0.8868734847979307,0.0106756411397756,-0.0751160788365733,-0.8369193716218704,0.0251324236616881,-0.0310411597727817,0.0150234413823939,-15.123423034928996,-14.177763081528983,-43.72909686018354,9.5000036038636e-05
96,1724820560006399495,-1.5026453733444214,0.2422099560499191,0.1295614093542099,0.0098968502134084,0.0358931124210357,0.4062286615371704,-0.9130125641822816,0.0,0.0,0.0,-0.0598666235676508,-0.7042809394182252,-0.6442568467902605,0.380878649,0.0363750443857188,0.1365911526026736,-0.0718403713874352,10.258413860757988,-5.923747628511471,3.695214852897813,0.0111200985093065,-0.073649056592279,-0.8376726942910115,0.0237696924758239,-0.0387710849032156,0.0094860168838533,0.347355195063685,20.307762780720452,-0.1887498291055216,0.0001408059443005
98,1724820560015792376,-1.502419114112854,0.2417980730533599,0.1295955926179886,0.0093507971614599,0.0357353799045085,0.4062528014183044,-0.9130138754844666,0.0,0.0,0.0,-0.0513678618800448,-0.1999609913655669,-0.304025681785898,0.39027153,0.092330425641135,0.0779569431988422,-0.0084203802290927,1.3022373191042764,-7.659402517782409,6.877376109936556,0.0119925344336793,-0.0729159658227642,-0.8377436573893857,0.0237669372237263,-0.045225054813887,0.0023957187119787,16.281011524343427,40.5324845454412,55.30270533712689,2.0527989303815547e-06
100,1724820560026195404,-1.5021755695343018,0.2413117587566375,0.1296061873435974,0.0091528315097093,0.0359283536672592,0.4059354960918426,-0.913149356842041,0.0,0.0,0.0,0.2951656450016645,0.0700813537555307,0.4911314398538955,0.400674558,0.0522439050853274,-0.018050360404807,0.0645706251281869,-3.5697182495797652,1.075176248330452,0.1208020827683289,0.0124870664131694,-0.0731119419738068,-0.837072387618958,0.0226440849058704,-0.041692382549936,0.0044273437565749,26.96970754737012,5.575581415034558,38.493774525691464,-2.5919568042130264e-05
102,1724820560038084747,-1.501916766166687,0.2408847510814666,0.1297051459550857,0.0087476270273327,0.0352313667535781,0.4060900807380676,-0.9131117463111876,0.0,0.0,0.0,0.529654483331532,-0.1405859206672266,0.4332490838128948,0.412563901,0.0136563087134504,0.1347431287488591,-0.0276895444842074,-2.53692276482297,6.353553576268488,-9.08550948043075,0.0126718157243105,-0.0715059193083683,-0.837382221935944,0.0316307491469132,-0.0445211280295509,0.0142864480285904,-17.937980157715756,17.301169885232476,-41.55454761965357,6.484502000042198e-05
104,1724820560045798974,-1.5016233921051023,0.2404982298612594,0.1298452019691467,0.0085048917680978,0.0346985347568988,0.4064631462097168,-0.9129684567451476,0.0,0.0,0.0,0.202775659103584,0.1681644224805414,-0.0709358590296531,0.420278128,-0.0023671645222363,0.1512329586227218,-0.1044122282414243,-1.4335840500966264,1.9727463373727891,-4.662900841501718,0.0127097160956644,-0.0703291481299498,-0.8381748250591765,0.0345844119064935,-0.0451184431004438,0.0156465969195549,-22.851039103894543,20.83690967189692,-42.82971351042467,0.0001062342656817
106,1724820560056360092,-1.5013079643249512,0.2400938272476196,0.1299741715192794,0.0081660710275173,0.0338663384318351,0.4068446159362793,-0.9128328561782836,0.0,0.0,0.0,0.2437113775823463,0.1108135655359556,-0.1975400063154969,0.430839246,-0.0082025779125338,0.1696839968220545,-0.0772769140841041,6.077125817541743,4.122659058219754,0.6576253526322429,0.0126782543412313,-0.068526877284818,-0.83897003177646,0.0341218120721578,-0.0397914733753435,0.0113224963130811,-27.43346310765444,-17.12321414823628,-9.806257177012512,9.407692081328003e-05
108,1724820560066322462,-1.5009280443191528,0.2396833151578903,0.1300786137580871,0.0071574700996279,0.0330424346029758,0.4072376787662506,-0.9126963019371032,0.0,0.0,0.0,-0.323824449751017,-0.1696584480024294,-0.2747327498321527,0.440801616,0.1146427041901245,0.2330801866013216,-0.0886910618111953,1.9444149475364976,-3.3438605990131327,-0.865291337527621,0.0138778925279109,-0.0661933264675767,-0.8398247234946575,0.0392516828245703,-0.0423862108151134,0.0113458353590925,-9.2330435568741,-35.6114368902979,50.35848476838592,6.709199615398692e-05
110,1724820560075528794,-1.5005571842193604,0.2392830550670623,0.1301904022693634,0.0067331194877624,0.0326254181563854,0.4076308310031891,-0.9125389456748962,0.0,0.0,0.0,-0.0027140917426251,-0.5609618682820419,0.6832386063448584,0.450007948,0.0441786032999408,0.1197079288877042,-0.0942713745944241,-12.134234364324222,-13.81521213654094,1.2640466182052477,0.0143406332617903,-0.0650791119911543,-0.8406787284560131,0.0291346467666357,-0.0431756857198211,0.0064592879963849,61.03081563163988,-24.626386190136017,71.86807577158231,7.592887167916938e-05
112,1724820560090937687,-1.5003957748413086,0.2386255264282226,0.1301433593034744,0.0089569063857197,0.0327424891293048,0.4078746438026428,-0.9124066829681396,0.0,0.0,0.0,1.6121585820953823,-0.4793653968876938,0.9605177936083686,0.465416841,-0.2583463261679519,-0.1318705281149528,-0.0265611952051506,-136.24966038032454,107.32365670693028,-65.57133093204553,0.010388548200317,-0.0671058756417379,-0.8411140519608894,0.0573643336136626,-0.0640752501429915,0.0482971613100495,-157.56664739814272,139.562837519871,-283.91218978865646,-8.370870139918407e-05
114,1724820560095735037,-1.5000505447387695,0.2382861673831939,0.1304517537355423,0.0107436031103134,0.0304468385875225,0.4089454412460327,-0.9119874835014344,0.0,0.0,0.0,0.4643860451582398,0.3907068495884185,-0.8524335083700123,0.470214191,-1.086160894248489,0.5676817428086385,-0.4456296711890143,-79.94875341396502,88.94989433073243,-49.35095361541491,0.0053171641432291,-0.064365801349391,-0.8432350243938084,0.0647700120040539,-0.0650651062571681,0.0502843599308935,-177.84636883708217,120.09902635035051,-312.1644402234899,0.0002765120520354
116,1724820560105798267,-1.4995505809783936,0.2377511709928512,0.1306622475385666,0.0098878853023052,0.0293827764689922,0.409591943025589,-0.9117419719696044,0.0,0.0,0.0,-0.0291076886724708,0.3060066631361637,-2.606041769125407,0.480277421,0.0641819701927744,0.2623062255149321,-0.1400394095380267,49.24599680943183,-22.111855236613703,15.989859535947662,0.0060510547630366,-0.0617181921212493,-0.8446321130837349,0.0466596560773666,-0.0485302330184218,0.0149678062437246,51.06986146034711,5.899974680473878,42.58609012975212,0.0001648278130543
118,1724820560116763647,-1.4990750551223757,0.2372743785381317,0.1307552903890609,0.0104664210230112,0.0284101236611604,0.4103081226348877,-0.9114441871643066,0.0,0.0,0.0,1.7270376374597056,0.5417647559007408,0.4518839245314227,0.491242801,-0.1732459540247016,0.1182223646719626,-0.1364886216634799,10.509363814801404,-16.27133707849147,9.143951251085022,0.0042424443340053,-0.0604141431652934,-0.8461247348612566,0.067495713789853,-0.0611508641179359,-0.0028139641679656,10.880032855489532,48.46335964397531,172.21625155646603,5.21171298701303e-05
120,1724820560125827047,-1.498282551765442,0.2365877777338028,0.130645141005516,0.0098930271342396,0.0289302077144384,0.4102330803871155,-0.9114680886268616,0.0,0.0,0.0,0.7073908338461434,1.18299719051492,1.213763912910917,0.500306201,0.1629395945668149,-0.0527099758187262,0.0124611458828638,6.7817879648974655,12.136722822372812,-7.440459740522835,0.0057125178186249,-0.0608924396768663,-0.8460140772472629,0.0818515754122231,-0.043559939513031,0.0168149933886345,-93.6168233457008,-62.83439468541704,-43.79490481730048,-0.000173985493393
122,1724820560136685862,-1.4974664449691772,0.2365336269140243,0.131204605102539,0.0095398295670747,0.0262120403349399,0.4121566116809845,-0.9106859564781188,0.0,0.0,0.0,-0.0634882942261185,-1.237224071498673,-0.9251906665206292,0.511165016,-0.1577593282683096,0.4823396390275033,-0.3789402522884613,-1.7919781337171603,-6.6657125749263475,2.187274215807465,0.004237923381622,-0.0556343770382959,-0.8501097456899189,0.0781292198044951,-0.04057389831517,0.0176099391175279,6.142447585202522,-130.11903445351535,-55.47750678895291,0.0005239377861619
124,1724820560146697799,-1.4966567754745483,0.2357988953590393,0.1310678720474243,0.0093807503581047,0.0268375091254711,0.4121599495410919,-0.910667896270752,0.0,0.0,0.0,0.7100374508761602,-1.6836739647850787,-0.1744159033892249,0.521176953,0.0803845480789928,-0.1007760333013608,-0.0041190895432621,14.127200519491304,-22.77515012691933,15.263789452424032,0.0050453094313444,-0.0566431396849629,-0.8501557623418999,0.080071895974811,-0.0669202968913893,-0.0008693309663785,58.75141692179239,2.458854449881038,74.2606580734954,-0.0001986352955702
126,1724820560157610049,-1.4957925081253052,0.2351455390453338,0.1312104761600494,0.0086082369089126,0.0267514456063509,0.4126491844654083,-0.9104564785957336,0.0,0.0,0.0,1.1310111982045887,-1.097244777200987,0.6272847428555475,0.532089203,0.1196670088647611,0.0725221388898845,-0.1012794673750132,4.467102503034828,8.945254004009561,-1.8711535646282096,0.0064131159258786,-0.0558454409353752,-0.8512581393848248,0.0939570771660385,-0.0740199938429384,0.0171051371311463,-85.97641827344853,95.10015704983718,-23.886491682834027,8.175269021871575e-05
128,1724820560166280993,-1.4948761463165283,0.2344062477350235,0.1313866078853607,0.007768374402076,0.0266442876309156,0.4129063189029693,-0.9103505611419678,0.0,0.0,0.0,-0.4726645482455893,0.0123312617238049,-0.2506046142333769,0.540760147,0.1643763652151269,0.1022982689382495,-0.069049358499786,-8.599521422740043,-4.472951792352129,-4.093723477628323,0.0078712650767432,-0.054954161866473,-0.8518513827357023,0.1027895705921793,-0.0866114008100584,0.0155172043154081,1797.753364269252,-1737.9397805348624,-9.369705482599294,0.0001105619445039
130,1724820560175689623,-1.4939385652542114,0.2335775643587112,0.131483644247055,0.008028695359826,0.0266282968223094,0.4137146770954132,-0.9099816679954528,0.0,0.0,0.0,36.683281164042,-35.38846158561316,0.599200641656363,0.550168777,-0.056966819642682,-0.0205088717105486,-0.1873061978690164,-14.170099190686765,-7.563631368592166,-6.735721032681847,0.0074324650125664,-0.0551336296611259,-0.8536177463097433,0.0831176952384744,-0.0715445042240143,0.0124705317125621,-63.51434327925381,81.65765398132407,81.9274665125637,2.731014095687388e-05
132,1724820560196406689,-1.4929708242416382,0.2328495383262634,0.1318403929471969,0.0069796335883438,0.0262701883912086,0.4142720699310303,-0.9097471237182616,0.0,0.0,0.0,-147.67898208670886,141.6675411482929,1.9135659103652929,0.570885843,0.0762411781940766,0.0731873888069035,-0.0607529325748264,7790.761349143429,567.6217518858593,2965.484924985675,0.0090797752901909,-0.0536070627321092,-0.8548656662566277,2.611860225548753,-2.4920688759474388,0.0669898268283759,-26037.645112488943,24835.90230768523,-473.7810574840878,0.0002904696786645
134,1724820560196817056,-1.4918781518936155,0.2318069040775299,0.1318682879209518,0.0063367593102157,0.0264941118657588,0.4140341281890869,-0.90985369682312,0.0,0.0,0.0,-158.50328543508112,151.99178710962596,1.7147749061806783,0.57129621,3.336588382383942,0.3106978405594703,1.180239853066676,7574.401857536834,554.0885258405259,2881.5873641491544,0.0104229779739634,-0.0534842960979537,-0.8543794827964879,2.549065033245843,-2.431831906155212,0.0677692544032326,-25151.91554651559,23982.31517903313,-487.35709309684705,-5.398923686835516e-05
136,1724820560205655372,-1.4909743070602417,0.2310441732406616,0.1324279606342315,0.0063769342377781,0.0239953193813562,0.4160076975822449,-0.9090221524238586,0.0,0.0,0.0,-147.5770796923575,140.04831157910897,-3.151260352310614,0.580134526,-0.2554097271829511,0.5085531660805599,-0.4804192389445081,-210.37987620733549,-3.834494291410702,-86.44430682444515,0.0083810630211537,-0.0489498068337381,-0.8585886685427623,0.1047733546528917,-0.0979168744907088,0.0477913816414163,7456.238552302308,-7158.172527426804,-212.39770810956205,0.0005002781338177
138,1724820560215833204,-1.489878535270691,0.2299114167690277,0.1327323317527771,0.0064708264544606,0.0230407770723104,0.4168167412281036,-0.908675491809845,0.0,0.0,0.0,1.211997351789198,-0.8646711344831672,-1.349608104818854,0.590312358,-0.0990527149101668,0.1622115997671041,-0.1712176135316262,18.46161886095229,-29.153339879633258,30.321452153445698,0.0074562034530387,-0.0472850951323815,-0.8603201504262815,0.114441412914175,-0.1260824943985792,0.0052768368041169,7562.340516717355,-7114.33178068239,216.93591480449825,0.0002289714939923
140,1724820560226774005,-1.4885467290878296,0.2283580750226974,0.132500410079956,0.0060247932560741,0.0238470416516065,0.4160007834434509,-0.9090315699577332,0.0,0.0,0.0,0.9576843363278852,0.4590328114676403,1.4933261101709374,0.601253159,0.1393807330437748,-0.0994066819938652,0.1598358337439403,0.9104755285765536,24.996417271005303,-21.127604123571523,0.0088978529701307,-0.0483869440043827,-0.8585783260423477,0.1307839958053023,-0.1131653535750469,0.0237659117013171,-74.70647597416068,-50.43712694747833,-26.831978139936,-0.0003305401857447
142,1724820560235884193,-1.4872865676879885,0.22754567861557,0.1330580115318298,0.0050771464593708,0.0217705965042114,0.4177630543708801,-0.9082809686660768,0.0,0.0,0.0,-0.1132900120746649,-1.3008669469852308,-0.92582846445768,0.610363347,-0.0107372358350646,0.4993296954699531,-0.4224499106156541,-7.55328146663399,7.527472689186032,-2.3557163409306536,0.0089756809184077,-0.0438037322357557,-0.8623901670013607,0.1354423196201821,-0.1144574942675831,0.0358790595032374,-64.28137462593534,-77.77924338357934,-179.8753907197156,0.0004902833519185
144,1724820560245555453,-1.486006259918213,0.226179152727127,0.1331449747085571,0.0051135611720383,0.0218931529670953,0.4169409871101379,-0.9086554646492004,0.0,0.0,0.0,-0.1879880875029593,-0.8682908808702479,-1.7859015503374271,0.620034607,0.0078424191593735,-0.0253429603492603,0.1867986522045065,4.598416741628067,-35.31392881758295,39.509942557376704,0.008972204649627,-0.0440650316419646,-0.8605840988110195,0.1279337465976624,-0.1389381698508458,0.0037686301717414,33.906107467853445,80.90149846235127,48.63652279757274,3.748710481500664e-06
146,1724820560255937575,-1.4847276210784912,0.2247629761695861,0.1331258863210678,0.0051403013058006,0.0229224823415279,0.4153443276882171,-0.9093608856201172,0.0,0.0,0.0,0.6280033982581203,0.3748005154893299,0.2522690140396834,0.630416729,0.0854228372612288,-0.1809216931126148,0.3352405436905196,4.754097250930475,15.051098663947522,-17.459196239758896,0.0097030734820437,-0.0459758030333292,-0.857117763581581,0.1325397971869648,-0.1294184587097131,0.0023271963224562,44.7858095318074,39.28310320082286,136.48006461690295,-0.0001071190780893
148,1724820560265987187,-1.4833043813705444,0.2235303372144699,0.1331897974014282,0.0040874206461012,0.0219495482742786,0.4160197675228119,-0.9090814590454102,0.0,0.0,0.0,0.7491879441060556,-0.0130243611206273,1.0417773215050574,0.640466341,0.1067557132836193,0.2625221766416187,-0.1491421306720051,-14.505841180056212,8.03637893068669,-27.48987072648515,0.0108416798414018,-0.0433223004157854,-0.8585909045726561,0.1406443109267598,-0.1309255897768064,0.0086669945637876,13.614560635025612,-31.618612823762746,11.84456540104184,-1.978281913748456e-05
150,1724820560276092443,-1.4818930625915527,0.2221232652664184,0.1333008259534835,0.0050707557238638,0.0216206461191177,0.4170364439487457,-0.9086185097694396,0.0,0.0,0.0,0.902576706597702,-0.2616903577910268,0.4835493643041261,0.650571597,-0.2087961635152637,-0.0229769384602753,-0.2165030983105204,-26.052107132681904,10.4435980691125,-4.584577549255137,0.0088269069413267,-0.0435329671087481,-0.8607830602146089,0.1476331910396737,-0.1296656804927476,0.0233699386023156,4.224023918034867,-33.376529895294816,-83.52083324407366,2.3097717770657376e-05
152,1724820560285972669,-1.4803574085235596,0.2209346443414688,0.1336513459682464,0.0059777740389108,0.0187311507761478,0.4181749224662781,-0.908153772354126,0.0,0.0,0.0,0.8384826457234169,-0.6761677915643585,-0.6148410339963123,0.660451823,-0.4162110671235234,0.4540208458948033,-0.2416934280641896,12.696053611656875,2.0959744524399673,19.95749033040111,0.0048120023887545,-0.0390309501677277,-0.8631423897538342,0.1585888502462893,-0.1359836446293716,0.0187632957521346,-26.978573054919128,10.421548475699105,-27.575441992119934,0.0002741551015423
154,1724820560295653225,-1.4787921905517578,0.2194695174694061,0.1336744576692581,0.0058039953000843,0.0186199955642223,0.4174481928348541,-0.9084913730621338,0.0,0.0,0.0,0.3829550973859517,-0.0785395256625696,-0.0888934070012963,0.670132379,0.0262311541070788,0.0362779493041142,0.1649838689299272,34.9401165852731,-7.048313264064632,7.957386927011154,0.0050037727253938,-0.0386875954637814,-0.8615422121083998,0.1641414436361827,-0.1428775386829137,0.0114019064303576,-68.90829003104818,56.71883788921161,16.72854548284678,-6.0503431411894205e-05
156,1724820560305899081,-1.4770838022232056,0.2180974632501602,0.1338890343904495,0.003786874236539,0.0175407081842422,0.4180034399032593,-0.9082682728767396,0.0,0.0,0.0,-0.5600399785417078,0.4481983825764173,-0.3252549706944512,0.680378235,0.2674948677694531,0.3555848029458631,-0.1227549064036976,-6.331951777574439,6.317966078026168,-13.221569101507932,0.007790016827639,-0.035036358055618,-0.8627775927242025,0.1659979556618367,-0.1368113931981565,0.0177733769105916,-68.16882117718409,19.97619368734228,-44.88615680523021,0.0001358537115532
158,1724820560316405435,-1.4753477573394775,0.2166288495063781,0.1340416222810745,0.0040157586336135,0.0165410432964563,0.4185018837451935,-0.9080564379692078,0.0,0.0,0.0,-1.0191054311726973,0.3194256442651086,-1.0318915120478531,0.690884589,-0.1209357781006873,0.1542802090267711,-0.1015515083260689,-13.82317074327015,-10.4917764474672,2.0233229096575145,0.0065555494508016,-0.0334078207850061,-0.8638334213600467,0.1521282859410178,-0.1336523350365484,0.0041524319405228,292.20852666626905,-211.87778093323615,32.70807672993948,7.513965101411908e-05
160,1724820560329259272,-1.4735984802246094,0.2150073200464248,0.1339319050312042,0.0032071536406874,0.0158099923282861,0.4189390540122986,-0.9078710675239564,0.0,0.0,0.0,8.019242239012438,-5.543224518787051,0.9605824711566848,0.703738426,0.0654025886629139,0.1557398931680264,-0.0754626967842373,1.6591865778261954,-4.395589249379275,-0.7179077172506858,0.0074272116990215,-0.0313992322743923,-0.8647898849778201,0.1437626069039908,-0.1292517105135768,-0.0049509582881608,193.7414605659013,-87.42071193580912,108.91497566208731,-0.0001860986571486
162,1724820560341359770,-1.471771478652954,0.2134079933166504,0.1339128315448761,0.0034000959713011,0.0153770707547664,0.4195798337459564,-0.9075818061828612,0.0,0.0,0.0,4.560626821398181,-2.4013049356750713,1.753424540094528,0.715838924,-0.0607566634651125,0.0511859517040283,-0.1154480403495721,27.725162799007137,83.45741690365479,-35.26651839152608,0.0067353262193753,-0.0307699779328348,-0.8661830693738536,0.339562933295042,-0.2633719966377583,0.0256824561234907,-1330.8466102205657,992.607663940807,-216.53244334770596,-9.535429946006372e-05
164,1724820560345976751,-1.4698715209960938,0.211960881948471,0.1340794265270233,0.0025265605654567,0.0142554473131895,0.4202802181243896,-0.9072788953781128,0.0,0.0,0.0,-3.424801992175123,3.472737064867156,0.2568258003168559,0.720455905,0.134457767233155,0.5987489931387128,-0.3345780165412316,27.599249433921273,73.35594583612492,-33.34100736636305,0.0074009422760858,-0.0279947162865321,-0.8677089443777164,0.3401482303106391,-0.2591633798726418,0.0324071622900006,-1226.7700780448592,892.7002043553181,-290.21605286600715,9.743878024280538e-05
166,1724820560357262517,-1.4680014848709106,0.2105331420898437,0.1343437582254409,0.001867935527116,0.0134428720921278,0.4219235479831695,-0.9065298438072203,0.0,0.0,0.0,-3.398894906007765,3.0763886772393914,-2.0823239123376145,0.731741671,0.040888386259877,0.1785458481003436,-0.3213084571556779,-8.448989137524388,-2.5478971011692018,11.388345486869916,0.0079598143185905,-0.0259518944516292,-0.8713208747371812,0.203519594121488,-0.1493155386530631,0.0022098243577461,212.46903327616457,-188.16247646405913,33.54977496917259,0.0002005728926933
168,1724820560367246802,-1.4656354188919067,0.2088408768177032,0.1341784596443176,0.0010952921584248,0.0112700555473566,0.4224609434604645,-0.9063104391098022,0.0,0.0,0.0,0.5788960210699958,-0.1540927465049311,0.3797416339271074,0.741725956,-0.0448649384189983,0.4594768408989479,-0.1173974723746423,11.560140627630592,0.1563270558810643,2.5207289364874423,0.0075387575274002,-0.0213553974628957,-0.8724577655516818,0.246495441283514,-0.1773998473588527,-0.0133394535871662,37.35825876027573,-45.81159730576677,193.44790803616343,-0.0002308753697108
170,1724820560375818671,-1.4634524583816528,0.2072620391845703,0.134087786078453,-0.00016384931223,0.0106476573273539,0.4233356118202209,-0.9059104323387146,0.0,0.0,0.0,-1.7579116913769024,1.497213708414404,1.6468353418750064,0.750297825,0.2025085625224569,0.2548975063853688,-0.2275389858470843,14.628227752391524,-4.489328585612572,-11.011944181288202,0.0093137737541968,-0.0191540923929983,-0.8743901751932228,0.224041089178975,-0.1591542179204923,0.0041713863059262,20.52244255678815,-39.81463594741142,-18.959586056814437,-0.000146833362173
172,1724820560388931538,-1.4611289501190186,0.2056772410869598,0.1344383507966995,-0.0024568145163357,0.0074763796292245,0.4253133535385132,-0.9050119519233704,0.0,0.0,0.0,4.391353701682746,-3.687841263233727,-1.947291933855632,0.763410692,0.1088694355093067,0.5847228702834933,-0.3350830799759275,0.6404491993010737,-12.883109375354824,10.566801589297729,0.010807419103518,-0.0114428435180122,-0.8787071184673223,0.2182736436585202,-0.152185682571984,0.0178227432003943,140.20159509203475,-126.39100936128622,-143.04735510699993,0.0003111915831043
174,1724820560397750697,-1.4589602947235107,0.2041492760181427,0.1345426738262176,-0.0035627377219498,0.0067965746857225,0.4258260726928711,-0.9047725796699524,0.0,0.0,0.0,3.6778840707019858,-3.2068028268008213,-2.431574144923725,0.772229851,0.1606725559439681,0.2454987402951268,-0.1305710975159066,-0.3662640063572073,12.41267007047196,14.8746762272302,0.0122360826581998,-0.0092646281333814,-0.8798337906241747,0.285657344590831,-0.2097354803245572,-0.0170758574400995,-417.4853092971207,369.0406541632751,166.889154313778,7.206526330892158e-05
176,1724820560405628153,-1.4564303159713743,0.2022404074668884,0.1342047750949859,-0.0051466473378241,0.004487469792366,0.4260677099227905,-0.9046655297279358,0.0,0.0,0.0,-1.9791560246757651,1.9131888296105135,0.4437525426740221,0.780107307,0.1138794063289724,0.7012660786220367,-0.0719022210613718,-1.5053724991308686,19.436575187308787,1.1407168482124463,0.0131363902062545,-0.0037336866585354,-0.8803299963174018,0.2867467997619499,-0.2116452555310015,-0.025496162447733,-456.1531506040452,405.5054385173749,207.40319874053827,-0.0003590285231309
178,1724820560415722407,-1.4539810419082642,0.2005007863044738,0.1341724544763565,-0.0067235911265015,0.002990678185597,0.4267008602619171,-0.9043628573417664,0.0,0.0,0.0,-3.195037857277553,2.8445379155228387,0.498746366126876,0.790201561,0.1560469195280692,0.4004979002611806,-0.1419675319304671,-1.9068472062521955,-10.15003001629118,-11.03913420511972,0.0147139137886074,0.0003286077027367,-0.8817065551089486,0.2393796473884464,-0.1644502948310027,-0.0014506778829685,182.7959362681163,-184.00781462353433,-121.43020000869394,-4.290395103556744e-05
180,1724820560425709796,-1.451622486114502,0.1989362984895706,0.1341752707958221,-0.0081261806190013,0.00091703759972,0.4280033409595489,-0.9037402272224426,0.0,0.0,0.0,1.6272164229814567,-1.7232551275627117,-1.967791242305988,0.80018895,0.076880279517044,0.4932600971907644,-0.2927149384337643,-11.2325337942724,1.0901288768645472,-3.840853163955564,0.015473737641372,0.0052985621634712,-0.8845554771838797,0.2222668345429568,-0.1541330157888802,-0.0150801183324507,351.36892127363313,-309.3306087590651,-112.71965475160276,4.251256979545589e-06
182,1724820560438763317,-1.4489580392837524,0.1969671994447708,0.1337163299322128,-0.0084099452942609,-0.0016118013300001,0.4288728833198547,-0.9033243060112,0.0,0.0,0.0,3.970892373157799,-3.235652648415673,-1.148822050636971,0.813242471,-0.1261452003218251,0.3676277418708197,-0.1508659775467621,71.172979483108,39.8898686715235,19.603030404692703,0.0138124474884661,0.0101257266410032,-0.886454343541328,0.3005025685508684,-0.2236524350306581,-0.0510566328855315,-373.6329917467917,332.02244756892117,225.5444564851104,-0.0004376946021223
184,1724820560446054665,-1.4463744163513184,0.1950399577617645,0.1332793086767196,-0.012211687862873,-0.0032771488185971,0.4287561476230621,-0.9033318161964417,0.0,0.0,0.0,-1.0063468814558938,1.009357932160869,1.158765989876405,0.820533819,0.746016449430836,0.860138014902661,0.0276473649438084,48.655089261135544,30.116009990231845,-1.190045476442377,0.019255994076739,0.0163931122982187,-0.8861490610607484,0.3212183169258651,-0.2387323715361251,-0.0528871414701752,-525.3841625670448,418.53039172673755,211.77362382160896,-0.0004007039826682
186,1724820560455513953,-1.4437423944473269,0.193095713853836,0.1328655481338501,-0.0150305470451712,-0.0055436086840927,0.4299945533275604,-0.9026893973350524,0.0,0.0,0.0,-4.0465042217691725,2.959853615395682,1.8770182036598784,0.829993107,0.3354396319213937,0.6856648806189815,-0.2986634490448586,-65.16304684269016,-8.161280683642737,-20.846365390050437,0.022376140106862,0.0229364313030675,-0.8888391460337436,0.2644833019979984,-0.1914173685805611,-0.0246250020912972,-7.694793607334017,-10.376088864934662,-20.424517295590096,-0.0003592001098575
188,1724820560465746315,-1.4411884546279907,0.1912933588027954,0.1328251659870147,-0.0139527665451169,-0.0101366369053721,0.4315844774246216,-0.9019076824188232,0.0,0.0,0.0,-0.6530251436239407,0.4564951465105737,0.6015060222542141,0.840225469,-0.5721679175595221,0.715978231607238,-0.3608846718514142,-4.715394142120807,-1.833645611121586,5.334895450142082,0.0164268792859575,0.0303328675582732,-0.8923902442892946,0.2446762647176399,-0.1837343941525064,-0.0177131141989388,242.1185039480708,-162.44984222006195,24.427149996619704,3.67130802041965e-05
190,1724820560477074695,-1.4384783506393433,0.1891167312860489,0.1324518471956253,-0.0176811199635267,-0.0123475724831223,0.432358056306839,-0.9014440774917604,0.0,0.0,0.0,0.967002232652554,-0.3528472020848578,2.7479803639517577,0.851553849,0.4277284438651648,0.6350537453563633,-0.1572752909263395,-3.909747169453796,-21.3495038821133,-3.757592007926118,0.0212164907236798,0.0375592716750816,-0.8940371062691754,0.2533659052206189,-0.1822547887353085,-0.0118269537231361,-18.19575577667765,-7.890075388402005,134.89725455174346,-0.0002614516090058
192,1724820560486258537,-1.4360462427139282,0.1875165253877639,0.1325005292892456,-0.0171037595719099,-0.01434011105448,0.4337764382362366,-0.900744080543518,0.0,0.0,0.0,-0.4002975203546715,0.047866717363215,3.580489458705343,0.860737691,-0.2944427627853234,0.3332157412169996,-0.3535776470536215,-23.96992060451428,-33.930256962501225,-5.873437866852667,0.0183876658793793,0.0406831777763906,-0.8972255768700839,0.2637352653730289,-0.189094759370862,0.0300010213321693,-96.78572078689577,26.64409289134493,-170.77147144560598,0.0001445886640392
194,1724820560495739970,-1.433556318283081,0.185578241944313,0.1330267637968063,-0.0171456467360258,-0.0143381198868155,0.4348766207695007,-0.9002126455307007,0.0,0.0,0.0,-0.8080213198291215,0.1341971087779683,-0.5976299645377074,0.870219124,0.013386080593538,0.0010926010738501,-0.2575290398256713,24.49432935305211,2.1597063257586484,-1.952895310917917,0.0184151486842994,0.0407384629731195,-0.8996687130958381,0.2449692315933163,-0.1808819287923881,0.0544147496911202,-5.550548209436929,13.418090741432067,-327.0301982091592,0.0006368598388089
196,1724820560506611064,-1.4311131238937378,0.1839053630828857,0.1336047649383545,-0.0191480703651905,-0.0163402203470468,0.4369432330131531,-0.8991368412971497,0.0,0.0,0.0,-0.4015465160351184,0.3338241088178915,-2.736433998181341,0.881090218,0.1802977848506742,0.488104505347593,-0.4293678082449978,-4.3283075163497955,-15.216364244411428,24.76283803223037,0.0201768087304991,0.0461337906484403,-0.9042375214590156,0.2507837355006757,-0.1885470777796598,0.008374089238023,-124.15327848956518,152.9941253641276,38.989825233897925,0.0006896682609723
198,1724820560515741446,-1.4286236763000488,0.1819180399179458,0.1333377212285995,-0.0188929345458745,-0.0158952213823795,0.4365094602108001,-0.8993608951568604,0.0,0.0,0.0,-2.773894772759558,2.763123192781956,-0.5727542448904734,0.8902206,-0.0101509160546946,-0.1110468347361952,0.1078315937189003,-17.2386142708527,-32.525268198267426,19.40914177812575,0.0201281289228891,0.0451002580659388,-0.9032726287321404,0.2399367312170994,-0.1775322944840009,-0.0051178852933837,-35.22457769574204,73.60050720179122,120.68526329361455,-0.0001414895933372
200,1724820560526262049,-1.4264960289001465,0.1805367469787597,0.1335763931274414,-0.0180611927062273,-0.0160045698285102,0.4372869431972503,-0.8989982008934021,0.0,0.0,0.0,-0.421697096431469,1.2042615664769007,-0.7128051683902347,0.900741203,-0.1476259665856758,-0.0520204582617106,-0.1659303949662266,2.9761596221013624,5.674268013253438,-14.589922240851898,0.0184962162358652,0.0445867779362967,-0.9050302160960304,0.191528817331168,-0.1295910445757284,-0.0001733852475629,185.4849249361297,-158.35723850361217,-91.15953610657236,0.0003302016974786
202,1724820560539380046,-1.4241586923599243,0.1788646280765533,0.1332002133131027,-0.0190176405012607,-0.0157218314707279,0.4383042454719543,-0.8984879851341248,0.0,0.0,0.0,1.3883837399336585,-1.0396602047440098,-3.1819597498554444,0.9138592,0.1538312944613405,0.0234567745321347,-0.1703384254441948,12.742950889648732,-48.37453418905174,-15.23907750277137,0.0204143775871278,0.0449379016877323,-0.9072606420058138,0.2543604731266384,-0.1686313525605562,-0.0288704091089808,-317.2944222765269,186.8917967283848,-4.788282263651865,-0.0002684653253815
204,1724820560545963936,-1.4222322702407837,0.1776183545589447,0.1330094933509826,-0.0189203582704067,-0.0140459388494491,0.4392898082733154,-0.8980363011360168,0.0,0.0,0.0,-2.205088942968718,1.3736335593264624,-2.6073250799318575,0.92044309,0.2039003541782316,-0.4738992840820975,-0.3199170341694275,-0.6229028340765494,-43.52037168482707,11.238554917747011,0.0216625332201895,0.0418627933621011,-0.909434067600566,0.2522619031860884,-0.169077556808415,-0.0531058586274202,-369.4022856472244,264.9981074053001,145.1559502138188,-0.0001162013959987
206,1724820560556883977,-1.4202080965042114,0.1761381328105926,0.1319923847913742,-0.0183025691658258,-0.0120771918445825,0.4372807741165161,-0.8990576863288879,0.0,0.0,0.0,-3.0441046981753033,2.4282033301619306,0.0260519435393784,0.931363131,0.0480785204474014,-0.3691798232926736,0.4178448925729358,11.919118416473909,17.784363291695318,-5.150389273852721,0.0223656656753052,0.0377318600024099,-0.9049575141960596,0.1940167812498856,-0.127970708503291,-0.0621311610345332,21.700169844265247,-11.564257862105848,128.3940839192851,-0.0009402247199183
208,1724820560566477178,-1.41827392578125,0.1749743670225143,0.1316576898097992,-0.0196689292788505,-0.0107365204021334,0.4383669197559356,-0.8985167741775513,0.0,0.0,0.0,-2.0055374571583293,1.405938582535974,0.3074957850633435,0.940956332,0.3831263578067485,-0.1295093291794903,-0.2443394118064146,10.747047492564157,-4.6849267177655065,-20.94667323064741,0.0259528963765401,0.0365464381915252,-0.9073325161561694,0.1841105117183303,-0.115936940963472,-0.0546963768999129,64.17219753782392,-90.25816814348984,62.31275289890638,-0.0002783060704782
210,1724820560575489967,-1.4167628288269043,0.1739749610424041,0.1309970021247863,-0.0199466329067945,-0.008482489734888,0.4385219216346741,-0.8984591364860535,0.0,0.0,0.0,-1.8004865987780043,0.730508104539255,1.1483222940869529,0.949969121,0.2752559060474473,-0.4229496935485883,-0.026012437416583,-27.02662379109882,-10.054605336881073,7.579376005036461,0.0284220117789226,0.0327422623312539,-0.9076707229486918,0.1577969757828228,-0.1019824108440605,-0.0558836181944277,97.0707681062796,-77.13443449648835,80.30518227208422,-0.0006202131846475
212,1724820560586290835,-1.4151861667633057,0.1729887276887893,0.1306189149618148,-0.0183437671512365,-0.0078348880633711,0.4393116235733032,-0.8981132507324219,0.0,0.0,0.0,0.2099327291571331,-0.1309974864392789,1.8475828690751768,0.960769989,-0.2115615075475161,-0.240268343645844,-0.1595931413506903,-2.7815364427834623,20.068172104409097,-0.8643370951273854,0.0260804895257444,0.0301950819845778,-0.9094653298652576,0.1528353236773085,-0.1046775757785631,-0.0269121594573542,47.31254882803068,35.85810792069687,5.239962691411691,-0.0003417239341046
214,1724820560596181666,-1.4136123657226562,0.1718323081731796,0.1304260343313217,-0.018952053040266,-0.0074692470952868,0.4396023154258728,-0.8979614973068237,0.0,0.0,0.0,-0.5794868338994084,1.2709003245347912,1.360480269384336,0.97066082,0.1439719700264547,-0.0132048256601219,-0.0639517880397436,16.511097803987745,19.01119741946903,12.92728394856947,0.0274853248380105,0.0300814619602796,-0.9101014442468706,0.1609739703239228,-0.1048996246796267,-0.0161986985217943,-107.19313094519356,87.26401734802226,-29.753511806094636,-0.0001508785146038
216,1724820560605913135,-1.4120280742645264,0.1709265559911728,0.1303000152111053,-0.0197601523250341,-0.0077926237136125,0.4391875267028808,-0.8981442451477051,0.0,0.0,0.0,-1.884786727374376,1.5985452553177255,1.2575872616536956,0.980392289,0.118568599933808,0.1340225567512545,0.0930399961542097,0.9568180724081552,3.453410543843181,5.660029457405024,0.0286681081435131,0.0313597649346899,-0.9091592802072062,0.1419078161078886,-0.0801484892430037,-0.0003040805641187,-50.97559966351688,-26.395420546182265,-43.93745169281853,-9.287772883250995e-05
218,1724820560616398740,-1.410776138305664,0.1702321916818618,0.1304396986961364,-0.0206451117992401,-0.0075806197710335,0.4390298724174499,-0.8982033133506775,0.0,0.0,0.0,-1.4797822966064125,0.643159046593544,0.4199213740332094,0.990877894,0.1689048956027007,0.0383207298288397,0.0340702693904738,23.95257278685383,-5.220256776526979,1.9632179095454816,0.0304508296312484,0.0317508516808345,-0.9087902478579756,0.1229857237399869,-0.0740620524578794,0.008637368259146,-12.751709415418205,11.88386840029699,-79.7410533844087,0.0001642761742218
220,1724820560625463573,-1.4096331596374512,0.1694993823766708,0.1304812878370285,-0.0228744354099035,-0.0065913740545511,0.438591718673706,-0.898371160030365,0.0,0.0,0.0,-1.9979901480279687,1.558035122508867,-0.3017724724789958,0.999942727,0.5361174516785251,0.0216152313607125,0.1113233070723768,4.101239318453057,3.97039650802232,-6.396386292706868,0.0353429721263858,0.0319134934771681,-0.907774719769534,0.1121170294222366,-0.0677405495013729,0.0090521054804009,-50.98852824532993,73.19249585025872,-71.8911645072335,6.64994088140323e-05
222,1724820560635620867,-1.4086533784866333,0.1689604222774505,0.1306240409612655,-0.0239011365920305,-0.0068262415006756,0.4391451776027679,-0.8980722427368164,0.0,0.0,0.0,-2.4455777012176174,1.985827897542072,-0.9440875501215604,1.010100021,0.1633965570525366,0.1281071496463403,-0.1234421841765836,-27.709782694688503,-6.003450128774389,2.1053769532182205,0.0369633265080043,0.0332591851736996,-0.9089813301939836,0.082729167267459,-0.0421194924662859,0.002031589955461,18.06994699483306,-14.37023778951464,-12.414322429839435,0.0001603908278931
224,1724820560645679243,-1.4079580307006836,0.16864575445652,0.1305247247219085,-0.0235764756798744,-0.006429508794099,0.4384830892086029,-0.8984071612358093,0.0,0.0,0.0,-1.644926859829596,1.2786518928599198,-0.5627418811041702,1.020158397,-0.0258232952682605,-0.0965025516850812,0.1489201043147783,-3.526850574741922,-8.965354768487412,13.43373214530256,0.03675144700694,0.0322339869880381,-0.9075193847056544,0.062589897953643,-0.0274900658739465,-0.0099834662409099,63.1411555898622,-33.82705779384109,45.475159450959595,-9.043699876230389e-05
226,1724820560655439860,-1.4074090719223022,0.168413370847702,0.1304262429475784,-0.0238289479166269,-0.0059795137494802,0.4378309547901153,-0.8987215757369995,0.0,0.0,0.0,-1.1845268805273346,1.294006666436917,-0.0472522845792266,1.029919014,0.0845299826814988,-0.0574185963527567,0.1508060900501346,14.130259734131664,3.597455924486983,-0.7648450994432521,0.0376228230505531,0.0316192064886529,-0.9060685020144036,0.0499187372922875,-0.0166747569416152,-0.0094920611112954,23.31170906430802,0.727870174163435,38.49472030307852,-9.274737121204516e-05
228,1724820560665924452,-1.406956911087036,0.1683188825845718,0.1303334534168243,-0.0250234249979257,-0.005241553299129,0.4372199177742004,-0.8989912867546082,0.0,0.0,0.0,-1.2088019465056483,1.2921184843732787,0.1950904121085776,1.040403606,0.2644878540303673,-0.0242821674514497,0.1319969714416586,-0.6842702719194023,-2.989137622409685,-0.8726016582704332,0.0404390955318382,0.031310816895825,-0.904695070252441,0.0387795897414946,-0.0010133975481405,-0.0110866565834486,10.705395298523264,-3.435977473748565,14.504906408128514,-9.361664645014653e-05
230,1724820560675530483,-1.4066226482391355,0.168379545211792,0.1302072703838348,-0.0252371504902839,-0.0045514507219195,0.4366663098335266,-0.8992579579353333,0.0,0.0,0.0,-0.9913692083056368,1.2304570314753314,0.2586540481120498,1.050009637,0.1008302295990528,-0.1071193224565972,0.1317238410524608,-7.402040734239239,-2.5465316046153013,-4.395741611562832,0.0414452822956245,0.0302308878050771,-0.9034721172599968,0.0258795702581053,0.0096241555939444,-0.0061570513317192,44.45336827948318,-13.406893186110551,3.853715330136408,-0.0001336427087127
232,1724820560688752389,-1.4064427614212036,0.1685670167207718,0.130252867937088,-0.026209807023406,-0.0038581830449402,0.4367113709449768,-0.899211585521698,0.0,0.0,0.0,-0.0065419851098722,0.9260213151427252,0.2593178814714224,1.063231543,0.1783057854126355,-0.0301962952609843,-0.0058762684943178,-34.063802201816614,-3.0508261567334847,23.165153715996674,0.0437999892085535,0.0298353134010498,-0.9035669274268222,0.0191693913085941,0.0281329540053452,-0.0073691999841241,62.74803154198726,-58.50066138814382,62.68201086504281,3.319524336362908e-05
234,1724820560695844478,-1.4062856435775757,0.1688196212053299,0.1301594525575637,-0.025395143777132,-0.0038919157814234,0.4358036518096924,-0.8996750712394714,0.0,0.0,0.0,0.3938256488020665,0.3761761028380808,0.9421232228223928,1.070323632,-0.2151513092240825,-0.0855705293750216,0.286125511857506,-23.99460589165015,-0.601842734160853,13.866395004364122,0.042333145138554,0.0291416365161401,-0.9015648232704294,0.0210287174639418,0.0328978454800346,-0.0041948664492625,22.110728466809014,-70.34593658825906,45.08458571303525,-0.000108069106581
236,1724820560705645063,-1.4060947895050049,0.1691052019596099,0.1302399188280105,-0.025303790345788,-0.0039634965360164,0.4355722665786743,-0.8997893333435059,0.0,0.0,0.0,0.1454142813151158,-0.2159666033405691,0.6906552628904804,1.080124217,-0.0239140405385446,0.0061258841643576,0.0521997458286145,8.670262792951773,20.019246013219817,-19.540855409475036,0.0421137532563351,0.0291800232673127,-0.9010508740497468,0.0266715260349883,0.0325800054708818,0.011736214016798,-38.006890380144625,-37.6152755419364,-52.23142340436315,6.352464641684334e-05
238,1724820560715666818,-1.4057537317276,0.1694669723510742,0.1303936690092086,-0.025774510577321,-0.0055060274899005,0.4359782934188843,-0.8995712399482727,0.0,0.0,0.0,-0.3652232032865123,-0.3592458089156547,-0.1051127228998702,1.090145972,-0.0481366357499656,0.3160276760322873,-0.0992840547811203,-4.445100272341321,-0.7737328433507558,3.718112308852984,0.0416048121322816,0.0323860433076481,-0.9019129497831452,0.023718660660613,0.0285347807217446,0.0090773413478588,-3.119056731232707,10.806073479288507,-27.8244501981864,0.0001307372328856
240,1724820560726955922,-1.405617117881775,0.1696929186582565,0.1304164826869964,-0.0249142479151487,-0.0052985725924372,0.435062825679779,-0.9000397324562073,0.0,0.0,0.0,0.2078551182382897,0.0819715606781239,0.2366976446467915,1.101435076,-0.1241086047524905,-0.0957844141382699,0.1821918607306551,-4.879503286308765,-4.581155366514404,-3.880035761008336,0.0402677026688073,0.0312214500004051,-0.8999010052817079,0.0186981013844302,0.0250438212707297,0.0099278981532116,29.50092947034706,35.422446670443435,10.886486141528191,9.950627019521162e-06
242,1724820560736018242,-1.4053996801376345,0.1699564605951309,0.1305639743804931,-0.0244679246097803,-0.0059973341412842,0.4353034496307373,-0.8999311923980713,0.0,0.0,0.0,0.3205191477015963,0.3763479943014565,0.1942863714650125,1.110497396,-0.1548686704688748,0.0947471776947516,-0.0625815146077264,11.003770521630832,10.036059787160132,-9.602307516829445,0.0388473566813164,0.0321018334599062,-0.900433939263326,0.0253291298027846,0.0286325946796335,0.0132467448170592,-18.21980657234829,4.659849178967236,-23.494306523254075,0.0001320376080783
244,1724820560745729507,-1.4051398038864136,0.1702298521995544,0.1306611001491546,-0.0250781811773777,-0.0061193034052848,0.4351864457130432,-0.8999702334403992,0.0,0.0,0.0,-0.1754032319878524,0.1320485376916931,-0.229667981507561,1.120208661,0.10182778748344,0.0778558581367231,0.0253243533895292,22.239528045217817,-4.2162930548852575,2.0799276981900148,0.0398451880298946,0.0328476575045514,-0.9001584158116653,0.0241626004758614,0.0320827889063988,0.0133442025985202,-15.638025134375487,-28.594069923618243,-42.06404263591482,8.038949663676897e-05
246,1724820560755923199,-1.404921293258667,0.170598953962326,0.1308328956365585,-0.0263970103114843,-0.0055321077816188,0.4353225529193878,-0.8998705148696899,0.0,0.0,0.0,0.0442775087431599,-0.1962150760754706,-0.6414224942220561,1.130402353,0.2836617354665268,0.0083727991541913,-0.0280747134163376,-0.2722659340468336,-3.5218664662342576,-2.666591270126183,0.0427274576681976,0.0329447483344007,-0.9004410264701719,0.0217830721115035,0.0310402819540893,0.0084381899932219,21.006940626524266,-8.63908425595158,-2.7792635023125047,0.0001493862372994
248,1724820560766178514,-1.4046943187713623,0.1708639562129974,0.1308326125144958,-0.026843961328268,-0.0053549567237496,0.4354575872421264,-0.8997929692268372,0.0,0.0,0.0,0.2541006307489304,-0.0416992669350175,-0.2818513971046775,1.140657668,0.0940214688520588,0.0062444366547981,-0.0288868617381514,3.49100782821405,2.2566206481902507,0.3771118828318749,0.0436819988151411,0.0330215189826886,-0.9007343064507088,0.0251023615343797,0.0280587720672045,0.0002079528547476,-2.319443984725632,12.0100272824206,41.935173312790994,-1.7439433060001078e-05
250,1724820560775823590,-1.4044252634048462,0.1711547076702118,0.1308367550373077,-0.0283685382455587,-0.0048893010243773,0.4355506002902984,-0.8997039198875427,0.0,0.0,0.0,0.0250942362664561,0.0464090077252985,0.1849647861769823,1.150302744,0.3271027447426936,0.050362460240416,-0.0211103800998198,3.1795665473548325,1.2818568198080873,0.3435830437352278,0.0468309009804428,0.0335159888381349,-0.9009159722772492,0.0269221501073957,0.0299155585864436,0.0022126625955145,-18.381742067684534,-14.729719062656956,11.798543636518705,-1.6226292817145914e-05
252,1724820560786333349,-1.4041534662246704,0.1714664846658706,0.1308804303407669,-0.028995968401432,-0.0047411662526428,0.4356574416160583,-0.8996328711509705,0.0,0.0,0.0,-0.1066925425540696,-0.3816952219321994,-0.11018729007676,1.160812503,0.1201853415767032,0.0261312543235579,-0.0227980142294055,-11.957616959962971,-2.146551563197593,0.1873240160398538,0.0480863908804235,0.0338016731722605,-0.901142251403509,0.025312559373873,0.028730147844465,0.0038945402679795,-1.830371687007876,-21.17598724866118,-20.575584966588835,2.14978195557247e-05
254,1724820560796080197,-1.4039117097854614,0.1717380583286285,0.130916029214859,-0.0293319784104824,-0.0046167443506419,0.4357363581657409,-0.8995844721794128,0.0,0.0,0.0,-0.0277299847713934,-0.4113035210370698,-0.2428668801281594,1.170559351,0.0735147420409688,0.0066467505718398,-0.0178274004978057,1.251188990969811,1.3383882227910742,2.931861430831283,0.0487971648889591,0.0338748001560849,-0.901312864453464,0.0246926052604052,0.0225791158421246,0.000377980877503,0.8170590066546861,15.733389334067832,10.88647041597417,1.5939972604191762e-05
256,1724820560807129220,-1.4036402702331543,0.171921357512474,0.1308791935443878,-0.0302953273057937,-0.004531396087259,0.4355068802833557,-0.899664044380188,0.0,0.0,0.0,-0.1099391608983875,-0.0023535076937768,0.1842725024938478,1.181608374,0.1629844735019854,0.0632366938873435,0.0449013835283597,-4.417646089735142,0.639590062044602,1.3983982587751522,0.0506161261659711,0.0345479873509077,-0.9007822561789172,0.0248355641287076,0.0207873397613624,-0.0008284615534943,-14.079008248066526,11.144442400959672,32.41652355986752,-5.243134864891554e-05
258,1724820560815900178,-1.4034205675125122,0.1721329092979431,0.1308893710374832,-0.030514134094119,-0.0046054068952798,0.4353946149349212,-0.8997106552124023,0.0,0.0,0.0,-0.2796473745402694,-0.0847132574250579,0.4251357520257133,1.190379332,0.0370996132544766,0.0376393611674838,0.0273743766901595,-9.093146881509774,-5.472274791370788,-0.2595052713758914,0.0509504369135888,0.0348655099835068,-0.9005256163365508,0.0230157461642903,0.0218794046100381,0.0028310406693918,20.766912344706927,20.798088560477655,-2.7995838991714863,-6.323238384038536e-06
260,1724820560825537009,-1.403220295906067,0.1723200380802154,0.1309343427419662,-0.0304490495473146,-0.0044055529870092,0.4352132380008697,-0.8998015522956848,0.0,0.0,0.0,0.3452332156750095,0.4353519729233592,0.0777472287905617,1.200016163,0.0051571091812974,-0.0421367169182275,0.0432842474639079,-2.005610742377132,-1.4649534080514903,-2.05962589257796,0.0510138535264451,0.0344387128529926,-0.9001294071675243,0.0195567339397051,0.0188477516573288,0.007011715149011,27.099702540543586,19.174255553839863,-25.186105348239877,3.0194909070572484e-05
262,1724820560842071624,-1.4029316902160645,0.172615498304367,0.1311168074607849,-0.0309701599180698,-0.0053411060944199,0.4358956813812256,-0.8994483351707458,0.0,0.0,0.0,-0.2774463577718666,-0.2346504011689134,-0.0305470941674413,1.216550778,0.00913144812092,0.1269316079719476,-0.096038438782088,2.0901927243962035,-17.596951888158642,55.1684167952563,0.0511122841341737,0.0366157972419188,-0.901609170822728,0.0452420838736316,0.0473217246616428,-0.0018044951568647,-257.28175680574543,-223.57877001119505,0.1120651784548458,0.0001592485481024
264,1724820560845538114,-1.4027546644210815,0.1728009432554245,0.1311012208461761,-0.031033631414175,-0.0053913895972073,0.4356729090213775,-0.8995537757873535,0.0,0.0,0.0,-1.3289220083941755,-1.142721301271695,-0.0253172823155905,1.220017268,0.0177214451654644,0.0457122276432918,0.1414197401295949,2.274479225529884,-17.469991317167963,46.40940954727834,0.0511919801211962,0.0367489856410816,-0.9011111460939312,0.0429497278278319,0.0450862531337818,-0.0015450847413247,-238.35513233609896,-199.6901678986139,-5.687559169602761,-2.9850644792569663e-05
266,1724820560855740299,-1.4025602340698242,0.1730083972215652,0.1311740726232528,-0.0312952399253845,-0.0055347392335534,0.4358886778354645,-0.89943927526474,0.0,0.0,0.0,-1.809862330007696,-1.3103815712963538,-0.2994164651756633,1.230219453,0.034814901262376,0.0464307743519105,-0.0484246567872435,-11.762461646546248,-13.397966473849923,4.016939990913091,0.0515298026737211,0.0372474172586121,-0.9015804890684308,0.0093455566737645,0.0184798646189729,-0.0048105037495416,73.84021923465305,50.54212327123733,16.86716286376123,5.6656005790289825e-05
268,1724820560866348297,-1.402568221092224,0.1731839776039123,0.1309912204742431,-0.0296013504266738,-0.004879702348262,0.4347583651542663,-0.9000473022460938,0.0,0.0,0.0,0.3078507831778018,-0.0354899695943062,0.3618929692849339,1.240827451,-0.2381810248156458,-0.2442506153584329,0.2437413724266126,-14.323064407128804,-5.647621160286242,0.3796373523432979,0.0490912148518608,0.0345296564973097,-0.8991269184635681,0.0065145351080104,0.0188910260817429,-0.007758899379727,121.94354327009071,61.517238340587966,63.47856769079566,-0.0001924884026164
270,1724820560875484656,-1.402451515197754,0.1733749806880951,0.1309949159622192,-0.028206342831254,-0.0049171894788742,0.4346309304237366,-0.900153398513794,0.0,0.0,0.0,0.8106368833281967,0.0649267966555356,0.9508101310485422,1.24996381,-0.27924320899445,-0.1246659657042235,0.0334721159251915,5.440652555416716,12.132063695477989,-13.52714115812034,0.0465484703446564,0.0333773446756404,-0.8988757003435031,0.0138496271698329,0.017982516298062,0.0005822595370608,32.2507967188412,6.688522878550146,23.756851611064334,-8.654473940274794e-06
272,1724820560889365575,-1.4022365808486938,0.1735629439353943,0.1310067474842071,-0.0283152163028717,-0.0050379149615764,0.4343404471874237,-0.9002895355224609,0.0,0.0,0.0,0.7778805810672598,0.0670353820430897,0.4222028895253604,1.263844729,0.0058012741606068,0.0235597210952299,0.0457864431390951,15.612762921426608,-1.138897676712541,-6.118059077665288,0.0466508026812282,0.0336744155782877,-0.8982252648095006,0.0252663103582904,0.0223501270009762,0.0145785467492096,-32.198082574447476,-24.602477477799972,-86.05431895456823,-1.930730798085858e-06
274,1724820560896489749,-1.402020812034607,0.1737543791532516,0.1311607956886291,-0.0285894274711608,-0.0047980267554521,0.4344200789928436,-0.9002437591552734,0.0,0.0,0.0,0.4393958953241239,-0.198748272514052,-0.3662694326361051,1.270968903,0.0990318153541712,-0.0277623804697643,-0.0234133163835754,8.12629766169759,0.0736090252187513,-4.593294027467473,0.0473504135858177,0.0334846869229024,-0.8984012756243083,0.0306450197791718,0.0219223320396482,0.0154433611081179,-52.798954243757656,-17.430387080217322,-67.01333749483594,0.0001396414985091
276,1724820560906757563,-1.4017008543014526,0.1739062368869781,0.1312279105186462,-0.0292735937982797,-0.0049269502051174,0.4343868196010589,-0.9002371430397034,0.0,0.0,0.0,-0.1809716847577605,-0.0835692826123761,-0.4082081282349725,1.281236717,0.1090668573719623,0.0806911251235898,0.0051937417580934,1.5183470959555736,7.071103691072603,5.532376083259291,0.0484734454384897,0.034309704685099,-0.8983083003934896,0.0304862343475065,0.0178290532597387,0.0044658613314538,-26.308971957240978,22.927157066320795,31.37959267659672,5.304375514338133e-05
278,1724820560916063026,-1.4014228582382202,0.1740977764129638,0.1312520056962967,-0.0300470981746912,-0.0051481234841048,0.4340392351150512,-0.9003780484199524,0.0,0.0,0.0,-0.1381313185260815,0.2285298534653363,0.1828729830034854,1.29054218,0.1277583446174117,0.1170472270044137,0.0798353366097823,7.672395747398808,1.057876620731931,1.908223170285381,0.049690016199731,0.0353611226198611,-0.897512352932664,0.0274064349386193,0.0197085873377265,0.0062409483449794,16.98757200833549,19.414603065472892,32.18278178376519,8.156812314727352e-06
280,1724820560928185377,-1.4011296033859253,0.1743228733539581,0.131385326385498,-0.0319634489715099,-0.0047940649092197,0.4339975416660309,-0.9003341197967529,0.0,0.0,0.0,0.2633620945134081,0.2408232835428172,0.0781314412611526,1.302664531,0.3102072837499302,0.0848785491386262,0.0064306277796561,-12.671428224584073,-9.010873874927356,-0.255184821407,0.0534551589795197,0.0363846643782212,-0.8973813923776294,0.0287772067958087,0.022898152082563,0.0083332866823457,-7.331432996277027,-12.743500747735371,-15.309462510123758,0.0001135453141505
282,1724820560936050648,-1.4008798599243164,0.1745250672101974,0.1314372718334198,-0.0321771875023841,-0.0046066208742558,0.4338806867599487,-0.9003838300704956,0.0,0.0,0.0,-0.0007328688075485,0.0703846770789369,-0.0763152051984925,1.310529802,0.0690725648570067,-0.0184363620078721,0.0340226369437301,-5.067481279715507,-1.7350279136604936,0.99754160229475,0.0540078584091347,0.0362254968352567,-0.8971218335966487,0.0316155469161074,0.0246785371390423,0.0084657133284746,-32.76193351672829,-21.389016339600825,-8.69079254779469,3.4409938850861504e-05
284,1724820560945820096,-1.400572657585144,0.1747536808252334,0.1315425634384155,-0.0338474623858928,-0.004357723519206,0.4338128268718719,-0.9003565907478333,0.0,0.0,0.0,-0.3109040919981034,-0.1351673763758434,-0.028397006108276,1.32029925,0.3300993325808531,0.1029548202263655,0.0133036114051652,-4.211178049702618,1.7770592028719845,0.7226359274951641,0.0572395771203416,0.0372225316746014,-0.8969361126439608,0.0272204723230089,0.0234734509581571,0.0065897902422999,-2.9466706125138744,-9.438563930818871,8.604862559002683,8.363712164625924e-05
286,1724820560955484705,-1.4003499746322632,0.1749812364578247,0.1315662115812301,-0.0338593758642673,-0.0044429069384932,0.4336030781269073,-0.9004566073417664,0.0,0.0,0.0,-0.064005465667092,-0.1154644871648864,0.090140546898217,1.329963859,-0.0063171962964152,0.0183198908101031,0.0474733782490082,-3.640600411463014,-4.017556845750044,-0.9945843729616434,0.0571959787285516,0.0373730485075537,-0.8964673882912308,0.0255444353362506,0.0220541506618205,0.0078797203716121,13.728283173601822,8.121888441635159,-5.345972965344498,4.083490092669218e-06
288,1724820560966366232,-1.4000413417816162,0.1752029508352279,0.1317185163497924,-0.0355817377567291,-0.0038139219395816,0.4336968064308166,-0.9003479480743408,0.0,0.0,0.0,-0.0594158560908348,0.0474437398567724,-0.18379710994137,1.340845386,0.3359340171711711,0.0326713155558236,-0.0188510179277367,5.099293584628278,-1.1099411744826275,-0.1737515466009043,0.0608445512846243,0.0377400439376416,-0.8966513384787429,0.026188469863797,0.0211823122783556,0.0083297355075764,9.245290026470782,12.5831738446982,-0.1693135097776634,0.0001295697070734
290,1724820560976478013,-1.399796962738037,0.175424724817276,0.1317494958639145,-0.0362160839140415,-0.0034946666564792,0.4335401654243469,-0.900399386882782,0.0,0.0,0.0,0.1169804802244465,0.1522440979193304,0.0494522770677953,1.350957167,0.1398694372552286,-0.0013745473405712,0.0350322579561916,-15.008736792570437,-2.6608060394226207,3.138899882436502,0.0622721916324326,0.0377043783676137,-0.8962983708180359,0.024473228664668,0.0228607128835349,0.0043555724791772,12.021960962940655,-5.190108067983698,22.6229801433074,9.625724220106569e-06
292,1724820560987307623,-1.3995283842086792,0.1756830662488937,0.131811648607254,-0.0363024733960628,-0.0033127842471003,0.4333322942256927,-0.9004966616630554,0.0,0.0,0.0,0.1842792926682928,-0.0843676054629702,0.2892993382836422,1.361786777,0.0281430290367117,-0.0219998987443592,0.0436264270261007,3.01454536981176,1.6957187610024895,1.61088823738916,0.0625941359101476,0.0374371147838561,-0.8958413849842284,0.0290642806599379,0.0243500885068481,0.0100231259833538,-14.877163325713363,-14.851167849024856,-12.206321148092703,3.750773325133295e-05
294,1724820560995907517,-1.3992493152618408,0.1758958548307418,0.1319271028041839,-0.036897238343954,-0.0030990384984761,0.433087408542633,-0.9005910754203796,0.0,0.0,0.0,-0.0877019644668686,-0.1642988923761483,-0.0502836731570971,1.370386671,0.1451106442325646,0.017170144166971,0.0630614976080356,4.68301484951095,3.1837098561755024,1.3120095156761375,0.0638627272332581,0.0375502152970719,-0.8952904601692628,0.0290123921089104,0.0221091535513977,0.0109127552850374,-15.573236514550883,-1.794173435370266,-28.142722396398927,9.306363920065873e-05
296,1724820561007213944,-1.3989723920822144,0.1761066764593124,0.1320131421089172,-0.0373120717704296,-0.0030923027079552,0.4327568113803863,-0.9007329344749452,0.0,0.0,0.0,-0.0251575333162927,-0.0730948286371797,-0.1998491699139047,1.381693098,0.065494382451735,0.032786916050481,0.0638051863822477,-24.802382804491284,-0.2836851277364889,3.0958249941352456,0.0646312972874934,0.0378738380927159,-0.89454623491002,0.0268068166647168,0.0216826709620558,0.0080590650724587,7.828574429771297,-10.243561284632172,-2.314764705631756,6.366283090158141e-05
298,1724820561015613638,-1.3987327814102173,0.1763077527284622,0.1320836395025253,-0.0363902188837528,-0.0036120247095823,0.4323388040065765,-0.900969386100769,0.0,0.0,0.0,0.0549327832383708,-0.2733972777332381,-0.1511889858189921,1.390092792,-0.2536691449393085,0.0200145740942561,0.1087174145338913,-17.621872249591167,0.1448732740428202,2.613701351439358,0.0625355378868715,0.037983587619691,-0.8936234952001504,0.027655813234503,0.0208479515163286,0.0067082945037961,1.7351989070255336,-4.6319260756143175,30.137368123896053,5.051566790537383e-05
300,1724820561026319151,-1.3984485864639282,0.176488772034645,0.1321324706077575,-0.0357021801173687,-0.0041865119710564,0.4318473935127258,-0.9012301564216614,0.0,0.0,0.0,-0.0329126637075534,-0.0608162527450859,0.5036078179147109,1.400798305,-0.164315241391484,0.0442893683870691,0.0994059807142069,13.085409924221551,-0.5985296396043525,-1.191913826289281,0.0608181665282903,0.0383912385607606,-0.8925314362067174,0.0276143223242399,0.0155466796841992,0.0052210365545537,-11.440797657152345,14.88996866242952,24.757153538838853,2.9782621768629815e-05
302,1724820561036415256,-1.3981596231460571,0.1766327619552612,0.132191464304924,-0.035786610096693,-0.0041930107399821,0.4314620792865753,-0.901411235332489,0.0,0.0,0.0,-0.1792234707662041,0.042219934446223,0.4069106768469469,1.41089441,0.0129171264643721,0.0109579331666837,0.0843051261583591,10.4088074492944,-0.8717660610614704,-7.59128536511327,0.0609814870474334,0.0384498576781815,-0.8916743899206458,0.0270055600392851,0.0190685209886414,0.0164233129724546,-7.960992232220317,-18.598626413978096,-65.31106876379437,4.229057615707152e-05
304,1724820561045811043,-1.39792001247406,0.1768539547920227,0.1324382871389389,-0.0360387414693832,-0.004203706048429,0.4316297173500061,-0.9013208746910096,0.0,0.0,0.0,-0.1969175072514676,-0.3843937593154662,-0.6940736722197108,1.420290197,0.0482335415536241,0.0240119710335086,-0.0403209615935144,5.3005142371883,-0.379439453868865,-2.019166306668725,0.0614206175516879,0.0386982176558499,-0.8920389924019705,0.024281713655732,0.0167841830547823,0.0141025240338938,13.222189586376754,-10.867452344077508,-61.0826389600335,0.00022536174489
306,1724820561057141275,-1.397661566734314,0.1769517958164215,0.1324318349361419,-0.0366904884576797,-0.0038461952935904,0.4311717748641968,-0.9015154242515564,0.0,0.0,0.0,0.1592769742021738,-0.0356426987294709,-0.6197190852650785,1.431620429,0.1293546424673802,-0.0044540475836497,0.090439539829391,5.417679919363762,3.876772342212841,5.811238776247048,0.0629256629890223,0.0385841877433112,-0.891018762492985,0.023321018899864,0.0104987461650702,0.0001302065571344,19.344262646256503,31.108037995733405,39.845881892167085,-1.961663799514431e-05
308,1724820561068520050,-1.397390365600586,0.1770925521850586,0.1324413120746612,-0.0378463976085186,-0.0039853644557297,0.4306844174861908,-0.9016999006271362,0.0,0.0,0.0,0.2411948867530347,0.3220707534222204,0.2140250116887373,1.442999204,0.1710941843715732,0.1126712487913134,0.0910890438510478,2.2664910877263384,-6.01701072124169,9.726618043904162,0.0649162671851227,0.0397974174714808,-0.8899015410276003,0.0279224818619496,0.0160252786934798,8.900591614846576e-05,-10.253834918265888,-7.863735261856814,15.078239588531368,-7.532339008173752e-06
310,1724820561075782270,-1.3971686363220217,0.1772258728742599,0.1324385106563568,-0.0384318232536315,-0.0036521456204354,0.4300114810466766,-0.901997685432434,0.0,0.0,0.0,0.0858357325358609,0.0828068207183156,0.0538030416650473,1.450261424,0.181057149710955,-0.0066228367216652,0.2065435261209195,3.756945715954155,-8.106571751269385,4.229248705050775,0.0662905092866994,0.039651093418535,-0.8884068003988814,0.0289176940124846,0.0176058734702353,0.0026520761526045,-9.640444770055009,-18.811796288729003,-24.020733945793108,-1.832285173450829e-05
312,1724820561086447131,-1.3968855142593384,0.1774018555879593,0.1325143724679947,-0.039761733263731,-0.0032243961468338,0.4296770691871643,-0.9021010398864746,0.0,0.0,0.0,0.1670843378106763,0.1035544640226658,-0.2330458039336629,1.460926285,0.2584786645949222,0.0372292015676751,0.0688951393367872,-1.8049614586487976,2.0286310517772064,1.039816443779996,0.0690774304317233,0.0399975361058876,-0.8876462855997758,0.0290311757656098,0.0163771721897134,-0.0014590133924414,1.956550120351194,16.373696222267554,12.978607961236776,5.448098428409855e-05
314,1724820561095787047,-1.3965940475463867,0.1775538027286529,0.1324306279420852,-0.0405486822128295,-0.0030174348503351,0.4288603067398071,-0.9024553894996644,0.0,0.0,0.0,0.1390472641298388,0.3745005722457362,0.2143358249255455,1.470266201,0.1674770668481715,0.0391368068631621,0.1926836882453147,2.5786011989001736,2.508949184780481,4.721826414491304,0.0707147458014369,0.0402364973762426,-0.8858241372029847,0.031871371793521,0.0191337645640219,-0.0023887955024175,-23.768335448899748,2.5617493185881295,26.28712202957842,-0.000103531053899
316,1724820561106868429,-1.3962321281433103,0.1778035014867782,0.1324906349182129,-0.0425722189247608,-0.0026230069343,0.4281792044639587,-0.9026867747306824,0.0,0.0,0.0,-0.397367112387889,0.0551653901071302,0.2214775279019404,1.481347583,0.3580543547087024,0.0972406846476379,0.1328346560398314,-12.317616632006835,-3.1080182537950876,-2.1743683525972965,0.0747454866029167,0.041204243368931,-0.8842763940026871,0.0312422702455421,0.0243271322125853,0.0041131625230734,590.541090350735,461.9464511405192,-7.292392182126856,2.8555567785178462e-05
318,1724820561116182867,-1.395952224731445,0.1780441403388977,0.1325187534093856,-0.0426311381161212,-0.0025834897533059,0.4275991916656494,-0.9029589891433716,0.0,0.0,0.0,10.105665201725934,8.200241981666991,0.0914133658045699,1.490662021,0.0122381749228774,0.0029061865810973,0.1378426293471061,-26.079619957945383,-7.2042871243659565,-0.9527891163168708,0.0749123006419818,0.0411352508943611,-0.8829929294850883,0.0248744118479713,0.0216036431208923,0.0033163271081411,-176.95080622271644,-156.87653471646286,-9.621092434681357,5.9025936557349216e-08
320,1724820561138636858,-1.3956738710403442,0.1783001869916916,0.1326093226671219,-0.0428788624703884,-0.0024419324472546,0.4272374808788299,-0.9031187891960144,0.0,0.0,0.0,-64.48210541376488,-51.14737656797206,0.110443517605816,1.513116012,0.0246252693278995,-0.0006133793876536,0.0357722706990949,13351.238090838511,2861.169593449239,8778.421367230576,0.0754981211937997,0.0410611618636748,-0.8821922350156176,0.8358025950310548,0.6654301684930033,0.0149476957259935,-9166.135566860205,-7218.133823676399,-107.0936954112627,6.089937511724816e-05
322,1724820561139028628,-1.3953408002853394,0.1785653531551361,0.132615253329277,-0.0439217500388622,-0.0021664449013769,0.4266047775745392,-0.9033684730529784,0.0,0.0,0.0,-68.11307113309331,-54.006497553139326,0.0677495909053955,1.513507782,5.346498122519872,1.139865561836311,3.5349301770988344,12870.890058754954,2758.3651779010056,8463.028804077345,0.0776510995165665,0.0414004785776738,-0.8807761062489801,0.8098528107206562,0.644846549461868,0.0149881782787618,-8734.9094267924,-6874.823207337822,-106.8601367397418,-2.680263207826438e-05
324,1724820561146489980,-1.3950272798538208,0.1788302063941955,0.1327057778835296,-0.0440197698771953,-0.0021800510585308,0.4263120293617248,-0.9035018682479858,0.0,0.0,0.0,-57.518422727322495,-45.17316956101714,-0.4287557566870958,1.520969134,0.0204387641148821,0.0178723977181846,0.0860383699469673,-397.63403717240726,-85.58528995631369,-254.8071230148996,0.077830570178033,0.0414835723300508,-0.8801251804328583,0.0350831331406169,0.0334994810136066,0.0104372438327562,3599.2748715889916,2881.7050658875555,-30.764622678892337,5.808103386340032e-05
326,1724820561155567974,-1.3947854042053225,0.1791122555732727,0.1327818036079406,-0.0435382947325706,-0.0021767215803265,0.4260575771331787,-0.9036452174186708,0.0,0.0,0.0,-0.7736303459110896,-0.2607143097097184,-0.3128609819503521,1.530047128,-0.0970388859982089,-0.0434850289030846,0.0639142220624731,-4.128937907496357,-1.0289101851925049,-1.9752591176433991,0.0769722749253485,0.0410451326623205,-0.8795767575534755,0.0245236403938022,0.0294506601193722,0.0085461025911781,3416.5124973686443,2699.836853136078,6.066253913009582,4.4998240867233865e-05
328,1724820561166366680,-1.3945478200912476,0.1794094890356063,0.1328762918710708,-0.0434438772499561,-0.0023234684485942,0.4258160591125488,-0.9037632942199708,0.0,0.0,0.0,-0.2878640537057807,0.0228068711577704,-0.3334226004909654,1.540845834,-0.0284310179043565,0.0190093302370526,0.0485168299176833,8.00015164336285,3.721731677998172,0.28013060270266,0.0766874100911283,0.0412095951142957,-0.8790382637927705,0.0211736376081006,0.0290154344719333,0.003824738968694,35.90263887642954,23.06198165378005,29.83359805574511,6.240948691243383e-05
330,1724820561177513530,-1.394321322441101,0.1797500699758529,0.1328622549772262,-0.0439333766698837,-0.0023020836524665,0.4254490733146667,-0.903912365436554,0.0,0.0,0.0,0.0078480312917282,0.2431345258127786,0.3643087028790128,1.551992684,0.07969402769883,0.0367290927614879,0.0712688493187183,-0.2082792461626155,-1.2610190183178451,-0.6934968257599048,0.0776098308842351,0.041556552504617,-0.8782137449912804,0.0182221226304903,0.0299958209299582,0.0013023930878919,8.704433156742539,12.280415551104756,47.078011930542054,-4.922444274796232e-05
332,1724820561188290200,-1.3941468000411987,0.1800675094127655,0.132902979850769,-0.0437931977212429,-0.0023208770435303,0.4252783954143524,-0.9039995670318604,0.0,0.0,0.0,-0.084054944666214,0.2974867465830959,0.7099901585853754,1.562769354,-0.0257833061975192,-0.0065611574094217,0.03530391887678,3.621905677960752,2.6775255236388276,-9.336168699979211,0.0773475173590825,0.0414566192904672,-0.8778397645429252,0.0211471993299596,0.0342328158204772,0.0113816778278295,-33.213650601680875,-33.24195431276572,-38.056177862166834,9.038955253210575e-06
334,1724820561195916103,-1.3939588069915771,0.1803543418645858,0.1330308020114898,-0.0441293939948082,-0.0023842453956604,0.4255059361457824,-0.9038758873939514,0.0,0.0,0.0,-0.4705510098240073,-0.1626139086500737,0.0413170236532053,1.570395257,0.074198823542314,0.0499834009550079,-0.0682646588111237,5.730332272073297,1.6012141960929207,-5.198645627825073,0.0778929327780824,0.0418770008110642,-0.8783295282828374,0.018587910192835,0.0359851173911121,0.015580216592598,-17.663509251102077,-51.15723496733409,-79.95910156990121,9.760908203875672e-05
336,1724820561205510935,-1.3938536643981934,0.1806799620389938,0.133166030049324,-0.0442931316792964,-0.0022850453387945,0.4255808889865875,-0.9038327932357788,0.0,0.0,0.0,-0.2414262180331542,-0.5426769055455043,-0.632615765722391,1.579990089,0.0400818238358938,-0.0048355321079962,-0.0169501365728979,-1.964932198173836,0.9768802910470602,5.072960305179091,0.0782705610115638,0.041843427883281,-0.8784953573247528,0.0124439649196261,0.0296878045160084,0.0098289709683472,29.86230801277567,-5.4717266451349404,-26.86631535614808,0.0001044615850861
338,1724820561216852489,-1.3936926126480105,0.1809597015380859,0.1332203298807144,-0.0447256565093994,-0.0026730673853307,0.4253681302070617,-0.9039106369018556,0.0,0.0,0.0,0.1774588745838071,-0.1470517471976704,-0.3558539535691447,1.591331643,0.039123607684656,0.0959352180826412,0.0368959607899329,-2.8966841163028976,-3.1577103809061295,5.56809799127268,0.0787355947663945,0.0428953192634395,-0.8779924871993227,0.015053746548105,0.0250565801106965,0.0022089701561514,19.816395144783748,26.350751932125156,35.80404022664483,2.547734471666949e-05
340,1724820561227284055,-1.3935273885726929,0.181224837899208,0.1332186311483383,-0.0445252731442451,-0.0024414216168224,0.4248951375484466,-0.9041435718536376,0.0,0.0,0.0,0.2199417628625912,0.0459663524647933,0.1270317562099322,1.601763209,-0.0180752223955803,-0.0525504061710518,0.1028514934448431,-3.8974431620053713,-6.638355746075327,-0.2371719883786718,0.0785907707158145,0.0422645170888172,-0.876964988537047,0.0163997742730828,0.0260295660111928,0.0015288592773821,-3.1649241800918215,0.2648304760562272,16.697370164455574,-2.9111547412800662e-05
342,1724820561236190145,-1.3933770656585691,0.1814613193273544,0.1332451105117797,-0.0442598350346088,-0.0022913252469152,0.4247006177902221,-0.9042484760284424,0.0,0.0,0.0,0.1367232574522521,-0.0903545751121834,0.0507205163512606,1.610669299,-0.0407282510271476,-0.0539152647385875,0.0508600515623703,5.160413926698175,1.9959871093752477,-2.354352883230063,0.0782454538306114,0.0417503413405246,-0.8765507954068245,0.0190498294911236,0.0260792394141287,0.0041218671986369,-15.082544415408176,-12.664957557799225,-13.884889881392269,1.957845899704119e-06
344,1724820561245606124,-1.3931760787963867,0.1817021667957306,0.1332953572273254,-0.0445930361747741,-0.0020506216678768,0.4244345426559448,-0.9043575525283812,0.0,0.0,0.0,-0.0624212176317393,-0.1833109913250239,-0.1329449576379466,1.620085278,0.0845554581974216,-0.0137253072955416,0.0633688466116842,-1.9208657756594212,3.046054766346834,-0.4336950943413962,0.0790659920403889,0.0415746157776751,-0.875965533170157,0.0187361191282349,0.0242734534173845,0.0022059607779363,-1.8721639674862176,-3.407072316740514,-2.4234122802148796,2.3338767432473743e-05
346,1724820561255495697,-1.3930178880691528,0.181928664445877,0.1332846581935882,-0.0441871397197246,-0.0022525284439325,0.4242503941059112,-0.9044634103775024,0.0,0.0,0.0,0.119298678127007,-0.1498522955684904,0.0205222693170757,1.629974851,-0.0925964906118588,0.0037037211054672,0.0407762566804759,-3.473333538608181,1.701191295585857,-0.6014828454400059,0.0781670982332611,0.0415794617489156,-0.8755603129297214,0.0178164928052666,0.0225485419382511,0.0016237756395218,22.136926024738624,1.2035996337978316,0.3590809225095412,-3.448073976020901e-05
348,1724820561265717077,-1.3928165435791016,0.1821554005146026,0.133329838514328,-0.0443450771272182,-0.0022821982856839,0.4240038096904754,-0.904571294784546,0.0,0.0,0.0,0.3853118764978768,-0.1605761533732416,-0.1359519828448387,1.640196231,0.0244465272545473,0.0204459947582621,0.0524080538238295,17.779037736628347,1.1907515460204288,-0.0209555587917593,0.0784399286389561,0.0417459095912131,-0.8750095363166549,0.021278569938218,0.0212763560176636,0.0026722518723536,3.7398675242030386,1.8854995638115584,-12.576678239987244,1.96328568369863e-05
350,1724820561276245247,-1.3925753831863403,0.1823695749044418,0.1333390176296234,-0.045742779970169,-0.0017813884187489,0.4238114655017853,-0.9045929312705994,0.0,0.0,0.0,0.1830202209691411,-0.1089013571827934,-0.2387367827852624,1.650724401,0.2802516909705268,0.0281327599351335,0.0396196625871386,10.654010953425612,3.653299739576182,-0.121508728170347,0.0814088765288049,0.0420078458046882,-0.8745696760074081,0.0258405643444206,0.0191941683109178,-0.0013457197145765,-25.05930934486131,9.523968084093,1.27599529087749,-1.7480413944685795e-05
352,1724820561286038182,-1.3922955989837646,0.1825470775365829,0.1333056390285492,-0.0470840260386467,-0.0016313758678734,0.4235787093639374,-0.9046333432197572,0.0,0.0,0.0,-0.115626214112307,0.0264111091637708,-0.1256878287042903,1.660517336,0.2603092061129278,0.0905367169654978,0.0483875111443072,-8.342648993083294,-2.048508708945877,3.602880916422201,0.083981216304,0.0428522898460856,-0.8740236133695658,0.0253529399666234,0.0189372401551501,-0.0023819409704097,-14.266640519277171,4.718629327656243,11.703244139950726,-5.893086537353572e-05
354,1724820561295627417,-1.392082691192627,0.1827362924814224,0.1332924365997314,-0.0475934892892837,-0.0013255147496238,0.4231113791465759,-0.9048258662223816,0.0,0.0,0.0,-0.100041351309015,-0.013775812514199,-0.0119667449477156,1.670106571,0.1210954892807606,-0.0081768084831568,0.1083597264645932,-7.42610545043896,-2.277907272367492,3.3081262285037205,0.0851864561015829,0.0426863759960947,-0.8729939307788964,0.0236260187190708,0.0196848475282962,-0.0037738098426203,5.303195668864699,-13.221106312283808,16.001265684409997,-3.771553710213015e-05
356,1724820561305818181,-1.3918265104293823,0.1829363852739334,0.1332280188798904,-0.0482771955430507,-0.0012908411445096,0.4225906729698181,-0.905032992362976,0.0,0.0,0.0,-0.0061654393405987,-0.2463070434066189,0.1959565757903759,1.680297335,0.1222200495889857,0.0554262656405327,0.1101668815044335,-5.416563870492654,-0.437904315001119,0.7998892461204496,0.0864820858689486,0.0431528845192135,-0.8718258527245917,0.0234734453067773,0.0185509256032592,-0.0024533916097881,1.7250883104221637,-23.17463474816789,5.2252682453098425,-9.16749923511679e-05
358,1724820561315965657,-1.3916051387786863,0.1831136792898178,0.1332422047853469,-0.0482950024306774,-0.0011600696016103,0.422022670507431,-0.9052972197532654,0.0,0.0,0.0,-0.0643092929570494,-0.4850762717508857,0.095617261010688,1.690444811,0.0114095952087227,-0.0165059854887467,0.124574281938582,-1.2246713700540894,-3.7256491893499177,-0.694717354872787,0.0866514462776311,0.0428767236826092,-0.8705797969317747,0.0234998637395307,0.0146870619397905,0.0002058667561666,43.97660835129261,-1.5997568567382512,-11.473265936136764,-1.011580404295193e-05
360,1724820561325602330,-1.391363263130188,0.1832297295331955,0.1332332789897918,-0.0486368797719478,-0.0008631579112261,0.421598345041275,-0.905476987361908,0.0,0.0,0.0,0.8143719741822659,-0.2997969655730323,-0.0294535766085937,1.700081484,0.0883354549560255,-0.0216317566834286,0.0985283247385153,2.613223346218732,-0.8778336337011478,-2.0918634490146983,0.0875423823732068,0.042586466642567,-0.8696512625292582,0.0222677786192804,0.0090579813710274,-0.0003959252133847,50.48017835193923,12.766918637250193,-11.456292991783824,-2.8730968446948985e-05
362,1724820561340786371,-1.3910928964614868,0.1832958608865738,0.1332399547100067,-0.0484959408640861,-0.0005373077583499,0.4210547804832458,-0.9057377576828004,0.0,0.0,0.0,0.6071081604867423,-0.2604870267367865,-0.1669847892076799,1.715265525,-0.0004466912730934,-0.0432371365399382,0.0813817897805963,40.83529362630477,-4.208289497669438,4.730898265192108,0.0875851709549349,0.0418244080261668,-0.868476758067076,0.0571757624338147,0.0113084786643398,-5.376330733497525e-05,-228.26246247610368,-58.04118855877677,-21.448231643560085,-9.973516878989716e-06
364,1724820561345480958,-1.3907673358917236,0.1833590418100357,0.1332389861345291,-0.0489804930984973,-0.0001260302815353,0.4208243191242218,-0.9058189392089844,0.0,0.0,0.0,-0.7759927563731381,-0.620969056939693,-0.2856599587139873,1.719960112,0.2590160961227753,-0.0670362202119096,0.1120972158406057,29.176708194452683,-5.447666285965299,3.994795738562132,0.088821832731527,0.0414645672707676,-0.8679798481991122,0.0575701700151256,0.0094923823202766,-0.0011127688061884,-215.67748024265993,-51.48228015228973,-12.710925757059924,-1.992367928254253e-05
366,1724820561355693288,-1.3904410600662231,0.1833678781986236,0.1332074850797653,-0.0485940873622894,0.0004556014901027,0.4204115569591522,-0.9060312509536744,0.0,0.0,0.0,-1.2249167927591296,-0.5845767925384796,-0.1362611844180304,1.730172442,-0.022658882796174,-0.1310712576997046,0.0962901990168857,-18.101082996183163,-3.266647592274423,-1.3273502085042774,0.0886255307459683,0.0400441546493224,-0.8671182084709904,0.0305401794828412,-0.002050206905956,-0.005364714538814,36.42159996836491,33.50628511224962,31.036950435122755,-4.572765779874886e-05
368,1724820561366191618,-1.390135645866394,0.1833148896694183,0.1331265568733215,-0.0477755554020404,0.0008659394807182,0.4200425148010254,-0.9062455892562866,0.0,0.0,0.0,0.0249441441274607,0.0903352871310079,0.3666523892687696,1.740670772,-0.1103703427918295,-0.1329484630522837,0.0847348011053775,-2.7639804769289116,4.2778908072693955,-1.837297391122974,0.0874968442129097,0.0385755877266141,-0.8663541955149984,0.0330260403515865,-0.0022980873476043,-0.0037723712914035,79.0140054308877,20.500522817467303,49.26952270625623,-8.874608108325344e-05
370,1724820561375487461,-1.389796257019043,0.1833161562681198,0.1331238895654678,-0.0472857095301151,0.0009417986730113,0.4197959005832672,-0.9063854217529296,0.0,0.0,0.0,0.4298788208756681,-0.0795101538446091,0.8358926434838985,1.749966615,-0.0900453239472413,-0.0564983579489472,0.0615924844161386,2.0644883896209936,5.8626478997901526,-1.197832354456008,0.0866798902304681,0.0380025753913372,-0.8658290467628842,0.0315142252696531,-0.0005204391504021,0.0014054628615571,18.345220387127608,-19.391191970538735,23.539727630190452,-1.6816343771990183e-05
372,1724820561390991105,-1.3894368410110474,0.1832911074161529,0.1331894397735595,-0.0467684157192707,0.0009580432088114,0.4192690551280975,-0.9066560864448548,0.0,0.0,0.0,0.0622954678865221,-0.4091060969272886,0.5042871855529287,1.765470259,-0.0611921389614593,-0.0266665641721168,0.076421296723715,73.44739220837427,19.171071614934185,6.505806683723577,0.0857744246319587,0.03748864799023,-0.8646834636730995,0.0534995266921498,-0.0087536865700812,0.0215760448850943,-124.2606167947494,20.61625768656698,-88.32686565681648,5.264785512732687e-05
374,1724820561396393058,-1.3890907764434814,0.183230385184288,0.1333386451005935,-0.0480436123907566,0.0012382485438138,0.418954849243164,-0.9067342877388,0.0,0.0,0.0,-0.7982127831952728,-0.2189195779083276,-0.0988416764840394,1.770872212,0.4703076542333609,0.1093569169479026,0.1220103642801195,49.964438819641515,8.161428652637941,6.7061027151173125,0.0883417426848039,0.0380198429551289,-0.8639749617769705,0.0512841870893865,-0.0107341300568437,0.0228005592151507,-91.0359020538447,32.16518828201931,-75.92364144907461,0.0001390351953443
376,1724820561406749133,-1.3888133764266968,0.1831292808055877,0.1334790736436844,-0.0478537157177925,0.0020105512812733,0.4182529151439667,-0.9070670008659364,0.0,0.0,0.0,-0.3857823889613643,0.0537947167272169,-0.1758122958614054,1.781228287,0.0263147149469429,-0.1440113311716337,0.1570476934826183,0.8066199369891436,-6.042770288460052,0.5666525415510142,0.0886696643123002,0.0363905340467852,-0.8624858067555448,0.0353123894156937,-0.0100689658892232,0.0153141670868786,46.56587408964014,14.901920959343276,16.714008509893105,0.0001362752999945
378,1724820561415970872,-1.3884177207946775,0.1830339133739471,0.1336347013711929,-0.0494001917541027,0.0030007108580321,0.4176772534847259,-0.9072466492652892,0.0,0.0,0.0,0.0989898834605145,0.0973421521921181,0.176601900949448,1.790450026,0.3924325039905823,-0.048453816698092,0.1391441911371609,10.035630926646077,0.9619922937855714,-2.0608726161461677,0.0923332914710416,0.0358295686746821,-0.8612475498805857,0.041251424750925,-0.0096585707752918,0.0181853536032479,-4.4028560446232206,7.675110219031042,7.143812516438658,0.0001446930300316
380,1724820561425736827,-1.3880319595336914,0.1829466521739959,0.1338258385658264,-0.0499339587986469,0.0040073501877486,0.4171853065490722,-0.9074398279190063,0.0,0.0,0.0,-0.5332215596734153,0.2028361748802382,-0.0749852070885199,1.800215981,0.1836260439683827,-0.1362787068955749,0.1177826508218738,-22.16177254096451,-2.6907926727378455,-1.9457965327748092,0.0941624467686043,0.0343973521171702,-0.8602255243350144,0.0365812400937102,-0.0081614540588947,0.0185164383794198,28.20622987929113,-14.957636225910916,14.675784705591754,0.000178916371264
382,1724820561437315867,-1.3876484632492063,0.1828627735376358,0.134025752544403,-0.0492964647710323,0.0042587695643305,0.4166926145553589,-0.9076998233795166,0.0,0.0,0.0,1.069361986725934,-0.3240090649167038,0.650100937607484,1.811795021,-0.0837042128338337,-0.0809146773104835,0.0985683874465069,-10.23916998557509,4.083558678086839,-2.3592460154764785,0.0932287627244664,0.0333577629020945,-0.8591761835444295,0.0296518177166404,-0.0051327311827886,0.0161532993980673,48.97924973371914,-11.906966569196474,33.64140394002228,0.0001874238112513
384,1724820561451316549,-1.3872920274734497,0.1828266531229019,0.1342330873012542,-0.0491304360330104,0.004475356079638,0.4163639843463897,-0.9078586101531982,0.0,0.0,0.0,0.2412551647104077,0.0779729953704415,0.6305213324593346,1.825795703,-0.0095541518763883,-0.0355556889058052,0.0536897968511388,-27.67298491598467,-39.41078561610818,44.56935243864807,0.0931182355171822,0.032792183837176,-0.8584737334172463,0.0728575688318073,-0.0195822123826658,0.0397155320363289,-370.97723937960507,129.33701698172763,-179.90693847998256,0.0001919341099019
386,1724820561455380717,-1.3869400024414062,0.1827270090579986,0.1344238817691803,-0.0486227236688137,0.0048221908509731,0.4158526360988617,-0.9081184267997742,0.0,0.0,0.0,-1.634343165839603,0.7223343180079066,-0.3112480505796361,1.829859871,-0.1609175475328702,-0.2460452136532447,0.2911900003325816,-20.83308161029021,-32.97999491163078,37.06936614229934,0.0924992405490982,0.0316868371771252,-0.8573873857714758,0.0704819805346588,-0.017955748441091,0.0410364802692808,-171.68157030916666,93.49177459570248,-113.10499364852689,0.0001809644894675
388,1724820561465991999,-1.38663911819458,0.182718276977539,0.1346956193447113,-0.0488053932785987,0.0053669121116399,0.4154241681098938,-0.9083017110824584,0.0,0.0,0.0,4.5733204378771966,-0.0879754375361021,1.7749752971833517,1.840471153,0.0726705376854593,-0.0748242602726564,0.0925286674688742,15.798425116572126,12.28510365709494,-14.020144660887164,0.0932986312909563,0.0308052008170454,-0.8564830546304923,0.024053763543927,-0.0013658929453983,0.0201056091796549,-2085.79606312725,367.52705724915626,-733.4607451878933,0.0002560283250283
390,1724820561493755929,-1.3862837553024292,0.1826409101486206,0.1348540931940078,-0.0494788810610771,0.0059121153317391,0.4148635864257812,-0.9085180759429932,0.0,0.0,0.0,-247.35176293573045,42.36154726744732,-86.15152986845817,1.868235083,0.0598380358903624,-0.0134638932735437,0.0448102846328827,20695.222726263022,-934.1751193490394,7385.920498185735,0.0949967602807448,0.0303160883370791,-0.8552790297002884,0.8010867465650335,-0.1237705860835944,0.3416147095928181,-33371.477966040955,5210.869408823433,-14668.686735216032,0.0001458564182656
392,1724820561494250676,-1.385880470275879,0.1825786083936691,0.135026067495346,-0.051779106259346,0.0071425638161599,0.4140066504478454,-0.9087719321250916,0.0,0.0,0.0,-264.07641645536273,44.972070152896514,-93.51022131184992,1.86872983,10.481196357004388,-0.4838996655531819,3.764103792741752,14403.820720182508,-690.4585728803203,5164.215492130591,0.1002374243000209,0.0298963189577239,-0.8534481355215254,0.6762827389176209,-0.1023999974507816,0.2981298691800162,-25388.240232129057,3853.4090965482264,-11876.720971189949,0.0001540036365218
394,1724820561495738555,-1.3854955434799194,0.1825315207242965,0.1352482885122299,-0.0530946180224418,0.0080619491636753,0.4133878052234649,-0.908970057964325,0.0,0.0,0.0,-264.19203116252476,44.33783309879785,-97.7713736385106,1.870217709,2.1107807523360007,-0.3460262573547557,0.917579198574952,-4941.92000531128,83.95808853254302,-1681.2839724745363,0.1034166443355132,0.0292453631353894,-0.8521417645935332,0.2304876366997916,-0.0275352874709557,0.1338636640462549,3053.2545924884835,-895.8870562238354,-1366.6476760018595,0.0002026316053255
396,1724820561506044514,-1.3851346969604492,0.1825412958860397,0.1355220824480056,-0.05284309014678,0.0085670407861471,0.4127523899078369,-0.9092687368392944,0.0,0.0,0.0,-9.220654447881124,1.5810170673820112,-4.973328190695677,1.880523668,-0.0059321301928411,-0.102260575741219,0.1416441017427555,-101.86614086357118,16.235380535215796,-38.03954256292932,0.1033939832637016,0.0280464155353811,-0.8507979263534682,0.0366203012025039,0.002626637209607,0.0279443975689845,12663.604875230443,-2123.765161870851,4681.087784261833,0.0002499917017907
398,1724820561516081318,-1.3847514390945437,0.182584062218666,0.1358160227537155,-0.0527381896972656,0.0086197275668382,0.4121905267238617,-0.9095292091369628,0.0,0.0,0.0,-0.1632630891786632,0.0587481427514641,-0.2482702633099822,1.890560472,-0.0164567846238923,-0.011812981520383,0.1239593818247564,-1.2985807154362352,1.2222173012768307,-2.239477542889865,0.1032630401273417,0.0278001571335544,-0.8495722112948628,0.0378187837016099,0.0053418762127819,0.0298744353184883,473.99419214135344,-73.7454522735422,233.46888336498387,0.0002657906396096
400,1724820561525506816,-1.3843982219696045,0.1826439797878265,0.1361028105020523,-0.0524671822786331,0.0088809849694371,0.4117861688137054,-0.9097254872322084,0.0,0.0,0.0,0.5122083312243539,0.053392192164412,-0.1481906445988163,1.89998597,-0.0309091855192708,-0.069240046843019,0.09862472078859,-1.6760579702810456,-2.681859147240345,-1.3447984341776884,0.1029952255692539,0.0270553037798351,-0.8487143949027833,0.0337778990997179,0.0040210511071192,0.0236347250135828,44.821952762431096,8.37067328151485,21.337187942441652,0.0002589118334068
402,1724820561539532759,-1.384001612663269,0.1826516240835189,0.1362925469875335,-0.0519912727177143,0.0089824283495545,0.4111149907112121,-0.9100553393363952,0.0,0.0,0.0,0.580631129491274,0.3573699706610073,0.3748129541435556,1.914011913,-0.0573964637059418,-0.0356645350365374,0.1077952982614236,58.25988090775541,8.084026529413634,4.805059015239424,0.102229029948429,0.0264028369471812,-0.8472611707294476,0.0606009356990568,0.0088091493710251,0.0322804036571398,-153.64288686092522,-19.045486967688134,-59.77687981625165,0.0001645744604348
404,1724820561545441898,-1.3835630416870115,0.1827242523431778,0.1365299820899963,-0.0531932152807712,0.0094646262004971,0.410705029964447,-0.9101661443710328,0.0,0.0,0.0,-0.7219083743299759,0.1434590353877318,-0.2200630512724568,1.919921052,0.4366099901716351,0.0262710205506151,0.1465236455994732,42.41145162052954,6.598367506398481,0.6062327294007626,0.1048322254172364,0.0264677676700572,-0.8463837007069703,0.0607165263753373,0.0109607194925818,0.0338937732098187,-144.95326443240774,-29.28714170883338,-70.53532560073936,0.0002028622894502
406,1724820561556295474,-1.3831732273101809,0.1828166991472244,0.1367725133895874,-0.0536115430295467,0.0095424149185419,0.4105245769023895,-0.9102221131324768,0.0,0.0,0.0,-0.7905632119487351,-0.0366013356117517,-0.3848715008404211,1.930774628,0.075814042185639,0.020479380252458,0.0345337676416837,-1.7049084913891654,-5.930277049276922,5.780762490435287,0.1056655852195976,0.0266494321534448,-0.8459873563854892,0.038099861281907,0.008119054668132,0.0216753821877588,55.91004745497467,3.8628878889717466,34.36529832621426,0.0002088643804375
408,1724820561565773878,-1.3827940225601196,0.1828903555870056,0.1369724124670028,-0.0548283830285072,0.0105697251856327,0.4095696210861206,-0.9105684757232666,0.0,0.0,0.0,0.2545280541977539,0.1693104815951305,0.3510053888962576,1.940253032,0.3207025865600655,-0.0804008788893402,0.2225852271121899,11.287222489048812,-1.8293127744571476,6.583467468745577,0.1087580977578039,0.0256659808075285,-0.8439706600756939,0.0413112989710811,0.0096363589415542,0.0241599967634753,70.8787458630318,12.791534202726533,64.18760001485161,0.0001676055314666
410,1724820561575633525,-1.382373332977295,0.1830044984817505,0.1372421085834503,-0.0560735203325748,0.0112177059054374,0.4088762998580932,-0.9107964038848876,0.0,0.0,0.0,0.5494618447604078,0.2038139068769377,0.8459301960305609,1.950112679,0.2827702203151498,-0.0080403654656164,0.1515340012800916,-4.515797659977647,6.138413777590162,-7.659267285297432,0.1115838224516291,0.0254229131169973,-0.8424938062206209,0.0429563766595251,0.0114003689418158,0.0285322680691377,3.6019259256562997,-4.03323063351743,15.184610343711142,0.0002294335966599
412,1724820561587411002,-1.381863355636597,0.1831362843513488,0.1375947296619415,-0.0573648028075695,0.0115119516849517,0.4085510075092315,-0.9108583331108092,0.0,0.0,0.0,0.221726950506651,0.0503401192920505,0.5321998922496607,1.961890156,0.2201799255299492,0.0473635896022168,0.0549541576616923,-2.7225855265505245,0.8765077551107041,-3.041786982388043,0.1141951173675382,0.0259042787212948,-0.8417876929260232,0.0548103745272499,0.0141511100898359,0.0441574082743354,-77.87882646326098,-30.10110708182465,-93.97681354636802,0.0003030754430925
414,1724820561595583350,-1.3813501596450806,0.1832687258720398,0.1380362212657928,-0.0582081638276577,0.0117586655542254,0.4083122611045837,-0.9109087586402892,0.0,0.0,0.0,-0.6985564640539836,-0.2924564066894012,-0.617672831916886,1.970062504,0.2126276069855613,0.0328206159140038,0.0593487977241117,-10.163919268057343,-3.4219213019358987,0.3161132401018771,0.1159461261052525,0.0261150393756213,-0.8412749499954739,0.0521721587137022,0.01352351375421,0.0440013283422988,-55.38434339244752,-29.303091013509395,-97.83998953301204,0.0003902167190144
416,1724820561605987973,-1.3809480667114258,0.1833738982677459,0.1383612900972366,-0.0580788291990757,0.0118600623682141,0.4080376625061035,-0.9110386371612548,0.0,0.0,0.0,-0.5167694183139422,-0.4298691839602848,-1.06787189677583,1.980467127,-0.0155203241342192,-0.0245392999435105,0.059701958645235,-3.3256792580432695,-1.743437486706408,-2.368625351818257,0.1157998721607965,0.0257896080014533,-0.8406871244418346,0.039926724982763,0.0076238267588824,0.0296455752172422,38.32388023207589,4.7286100934616595,6.863393971667737,0.0002849254410581
418,1724820561615885055,-1.3805408477783203,0.1834259629249572,0.1386396586894989,-0.05863643810153,0.012148224748671,0.4079704880714416,-0.9110292792320251,0.0,0.0,0.0,0.0588332893029153,-0.2142195216083862,-0.5279816804442199,1.990364209,0.1266887652871429,-0.0063071524171622,0.0136409853234989,4.067431780092438,-0.817490801050899,0.0502300843610936,0.1170570038916591,0.0257119286150257,-0.8405603417063293,0.0410270931154386,0.004660607162565,0.0220128501750114,14.227513242192648,22.38312378492881,55.4438149549928,0.0002428291466475
420,1724820561626479688,-1.3801075220108032,0.1834685355424881,0.1388035416603088,-0.0587900839745998,0.0125014400109648,0.4076551496982574,-0.9111557006835938,0.0,0.0,0.0,-0.2886717664744309,0.0296571693938331,0.069557222999367,2.000958842,0.0529504306117539,-0.0451323512174245,0.0675254107247695,-3.9681943663786226,-0.1109631414304852,3.591909445095622,0.1176346336286089,0.0251532965836808,-0.8399055603277669,0.0410567158792929,0.0033571294713201,0.0191776109006216,-13.061096435711484,22.506687488510167,47.532891810202855,0.0001279297937047
422,1724820561635417093,-1.3797394037246704,0.1834935545921325,0.1390029042959213,-0.0589129626750946,0.0126763088628649,0.4072981774806976,-0.911305010318756,0.0,0.0,0.0,-0.2565837476633439,0.2269468499581175,0.4275240853852741,2.009896247,0.0400412775791921,-0.0193316973197166,0.0883631225112088,-3.274511989712966,1.8665241401339536,0.2897967460982245,0.1180116248759445,0.0248888866152011,-0.8391414148928934,0.0362792463077923,0.0047733719404972,0.0223413183426384,17.518839140204086,14.630127918902618,30.435997152686415,0.0001693155191782
424,1724820561646704181,-1.3793998956680298,0.1835755705833435,0.1392555683851242,-0.0587607249617576,0.0127100870013237,0.4069824516773224,-0.9114553928375244,0.0,0.0,0.0,0.1396973876912808,0.2859610033325825,0.6339769885716855,2.021183335,-0.0230058379284627,-0.0128078548297731,0.0625303558911137,0.2117605166979728,-2.49262731381799,4.791521137931278,0.1177688989210242,0.024662313115438,-0.8384572953193122,0.0373454041874339,0.0083111537698261,0.0282150839508954,5.934269723597726,-10.455167908123691,-16.75446900426545,0.0002187963891947
426,1724820561655711738,-1.3790112733840942,0.1836579442024231,0.1395516246557235,-0.0587311200797557,0.013024590909481,0.4063535332679748,-0.9117333889007568,0.0,0.0,0.0,-0.0165706777611118,0.0790452782120123,0.2311388729815564,2.030190892,0.0205765891321029,-0.0573331692028009,0.1565857098652197,0.1694542977631654,-0.0440954984527761,-2.0624797530958094,0.1179868333824536,0.0239835867065704,-0.8371169169118139,0.0389289337520324,0.0106894612434675,0.034742126714919,-2.4539729609076586,-31.622212417331465,-49.1816174041692,0.000258184472981
428,1724820561665889419,-1.3786635398864746,0.1837844997644424,0.1399267762899398,-0.0585830360651016,0.0129639282822608,0.4063941240310669,-0.9117257595062256,0.0,0.0,0.0,0.1297383843164752,-0.342278807765657,-0.3206979443914,2.040368573,-0.0313910818443777,-0.0014442642885044,-0.0082027007427413,1.2841196641089978,3.3441462544945657,-6.945931994070767,0.1176653301609294,0.0239788063664179,-0.8372016708860395,0.0365480551784571,0.009366615913894,0.0314196622633193,9.728259721840615,-25.09034097681968,-26.440383368169947,0.0003354872910798
430,1724820561677063660,-1.3782259225845337,0.1838515251874923,0.1402111202478408,-0.0589153245091438,0.013063465245068,0.4062458872795105,-0.9117689728736876,0.0,0.0,0.0,0.1814304218961537,-0.4225896856429157,-0.2753346962712657,2.051542814,0.0613549199770634,0.009581685608364,0.0276056937451044,2.7127252294722584,-2.5990476883146334,4.060572530332232,0.1183585816154753,0.024048810000678,-0.8368826236755502,0.042459421686587,0.0029372876529212,0.0279066269235066,-30.638855391172456,11.669293784010272,-3.2181781447068616,0.00024441079933
432,1724820561685557928,-1.377843976020813,0.1838567107915878,0.1404640525579452,-0.0590371787548065,0.0133018037304282,0.4059902429580688,-0.9118715524673462,0.0,0.0,0.0,-0.3065310219315043,-0.2017106902556524,-0.349663885604128,2.060037082,0.048320359217774,-0.0356488485486555,0.067624673233612,12.949319973210985,-0.9459809779515344,2.951366964558197,0.118781797011587,0.023680177306884,-0.8363479633483236,0.0417561560013268,0.0003342101508891,0.0258200223054032,-37.66030331391988,18.805753228145633,6.3927378665829835,0.0002230022941232
434,1724820561695743582,-1.377457857131958,0.1838567405939102,0.1406787186861038,-0.0607073344290256,0.0140250120311975,0.4056090414524078,-0.9119206666946412,0.0,0.0,0.0,-0.4484670968459066,-0.0980714038003198,-0.0995925931586529,2.070222736,0.3571207236069088,0.0081982366998525,0.0761908465757765,0.3435590346846946,-1.166992021581418,4.137824399120534,0.1224377818132394,0.0236697009251137,-0.8355672417056782,0.0359012384997754,-0.0004410639523531,0.0209880412992475,-4.328449327307837,4.611871849451351,18.726682905071495,0.0001841046229421
436,1724820561705474232,-1.377127170562744,0.1838483214378357,0.140882134437561,-0.0609537288546562,0.0144696282222867,0.4049666225910187,-0.9121828079223632,0.0,0.0,0.0,-0.4012844259469375,-0.104909808354398,0.0284845053037503,2.079953386,0.0818297961706343,-0.0540228691952759,0.1471017182814431,-14.08517509256604,0.8888366870457229,0.7574067795819439,0.1232656837487238,0.0229725797504052,-0.8342107499279048,0.0327119350128128,-0.0015994749058165,0.0235030545031396,11.606922499521769,-0.825224451601354,-0.993632111136999,0.0001776016946317
438,1724820561715551841,-1.3768107891082764,0.1838245391845703,0.14114610850811,-0.0614157207310199,0.014533843845129,0.4045526087284088,-0.9123343825340272,0.0,0.0,0.0,-0.213781030800349,-0.1145041520521024,-0.1292728522295776,2.090030995,0.0881514295323464,0.0309485751394069,0.0865817114437869,-0.9724679854006066,3.87609744017841,-3.730757519620756,0.1241748844922969,0.0231744034347718,-0.8333060011234867,0.02790056210236,-0.0025091592064514,0.0213898383980364,56.113211620623574,-10.211288809583198,4.225263569523041,0.0002401448216059
440,1724820561728665074,-1.3765045404434204,0.1837890893220901,0.1413446217775344,-0.0617068856954574,0.0146680399775505,0.4040888845920563,-0.9125180840492249,0.0,0.0,0.0,1.16204096757773,-0.4064000508421272,0.2653432660174268,2.103144228,0.0481020564078636,0.0040431892749467,0.0764721265719155,-9.247959015325446,1.9303965757796624,-3.3554712840766694,0.1248288392584193,0.0231024847571859,-0.8323041210322871,0.0295959469346911,-0.0044242288525921,0.0210669037815733,21.870795087946934,-7.616494124676606,-4.626551064587983,0.0001770172587142
442,1724820561738282409,-1.376175880432129,0.1837344020605087,0.1415890455245971,-0.0614326559007167,0.0142890438437461,0.4039658010005951,-0.912597119808197,0.0,0.0,0.0,0.7866087560281927,-0.3763661481593885,-0.0240431652732269,2.112761563,-0.0845264155536543,0.050696376654056,0.0259716890861438,16.278626459455147,1.7653566594797316,7.376210330081563,0.1240231212233257,0.0235552818031838,-0.8319957159228304,0.048056123430797,-0.010169135882684,0.0256640780961472,-122.4441506973539,29.13655072240812,-43.78583903042405,0.0002230955374232
444,1724820561745824188,-1.375731348991394,0.1836311966180801,0.1417840719223022,-0.0622375011444091,0.0144969131797552,0.4034055471420288,-0.912787139415741,0.0,0.0,0.0,-0.6301207767763806,-0.0027758587974581,-0.4352651258400621,2.120303342,0.2160773040136568,0.0457616372012717,0.1562806274416493,5.9409729419737225,-1.680403996137311,8.535365916568008,0.1256814178527277,0.0237509475320697,-0.8307829726129801,0.0472886392624545,-0.0117006779087356,0.0225135334564141,-103.79668439914462,34.34721581308566,-18.632731643263213,0.000169866280973
446,1724820561756027334,-1.375409722328186,0.1835391968488693,0.1419675946235656,-0.0613664165139198,0.0140744652599096,0.4028435349464416,-0.9131008386611938,0.0,0.0,0.0,-0.5289181013720448,0.1380115886150516,-0.1299209459191412,2.130506488,-0.1914917413590229,0.0144525152791833,0.1226840144093509,-3.118810761617903,2.3684086610205504,-3.1859388199538836,0.1237575238272307,0.0237415465471125,-0.8295221733102307,0.0335661699132003,-0.0089641469069672,0.0178306255216096,37.0624947181704,0.1542430975560723,28.166782936959223,0.0001671660812945
448,1724820561765872461,-1.3750598430633545,0.1834514439105987,0.142141655087471,-0.0621110498905181,0.0139535507187247,0.4023925065994262,-0.9132512211799622,0.0,0.0,0.0,0.0938232927957885,0.0099148029090602,0.1306681272158695,2.140351615,0.1276439127677707,0.0894193559044705,0.0923329031077441,14.6180005249029,-1.725951028435016,-2.5513891137446216,0.1250385953065976,0.024502299275965,-0.8285106607555774,0.0361107037354173,-0.0088421962952924,0.0196773670025187,25.45501769788344,-8.281302467246949,4.801707507047957,0.0001552133260442
450,1724820561775763844,-1.374696969985962,0.1833646893501281,0.1423561424016952,-0.0624960288405418,0.014258062466979,0.402065247297287,-0.9133644104003906,0.0,0.0,0.0,-0.0300299428671859,-0.0249938213562967,-0.0371611761441645,2.150242998,0.0953662131696308,-0.0204778787553724,0.0723777802421872,-8.69626835035748,-8.387220398798263,0.6947942839215218,0.1259985913153782,0.0242117143884014,-0.8278255669874934,0.0354026479736546,-0.0087686925361811,0.0204042809914852,-6.351694182862175,-0.8384339441779192,-14.481472522602358,0.0001939467286519
452,1724820561786044042,-1.3743467330932615,0.1832745671272277,0.1425522267818451,-0.0620831660926342,0.0145496157929301,0.4015845060348511,-0.91359943151474,0.0,0.0,0.0,-0.0294084348377634,-0.0048641935693085,-0.1594750829430626,2.160523196,-0.0520815119728779,-0.0776048922332835,0.108498558120771,2.790961224555246,-3.026800376475892,1.5180690220669415,0.1254870874992795,0.0232803365752359,-0.8268187497309722,0.035537900370997,-0.0093720713444316,0.0188400307928642,18.896276219789243,-5.476855869037111,0.3632856976677867,0.0001768849573725
454,1724820561796000598,-1.3739787340164185,0.1831754148006439,0.1427375525236129,-0.0625499337911605,0.0152426688000559,0.4011251926422119,-0.913758099079132,0.0,0.0,0.0,0.3403691426916289,-0.131090834218445,-0.037621064485129,2.170479752,0.1409303181106923,-0.0833424682047741,0.1043699295512726,7.781673921482951,1.975748334249764,-1.1032479624075575,0.1269114072676402,0.0223263391199778,-0.8258921016956176,0.0348346346830226,-0.0089014222874697,0.0171816824257824,34.743166855850866,-15.522127794021609,16.66066042405229,0.0001651936592193
