seq,stamp,px,py,pz,ox,oy,oz,ow,lx,ly,lz,ax,ay,az,timestamp,wx,wy,wz,aa_x,aa_y,aa_z,roll,pitch,yaw,vx,vy,vz,jx,jy,jz,fw
28,1724915750576423325,0.0170714072883129,-0.1147777140140533,0.1865137070417404,-0.0198892541229724,-0.040432296693325,-0.3353966176509857,0.9409987926483154,0.0,0.0,0.0,1.689948578598187,-1.8163332587899292,-1.3087438529975732,0.0,0.0,0.0,0.0,-19.172220181082956,38.637746055677475,4.057789545365503,-0.0103514832081487,-0.089554719393889,-0.6843125619259335,0.058302695111188,0.000889435515524,-0.0665486951306983,-117.72951910365232,40.37115110635506,67.83108417936785,0.0
30,1724915750587765447,0.0177326835691928,-0.1147676259279251,0.1857589036226272,-0.0202266182750463,-0.0376747213304042,-0.3352490067481994,0.941158652305603,0.0,0.0,0.0,0.3546460099232318,-1.3584387376612153,-0.5393954208429133,0.011342122,-0.2174536603047049,0.4382340295685127,0.04602394407386,44.486973225914824,13.567996493588662,26.300362076829646,-0.0128584048682223,-0.0845784902193385,-0.6838465252623419,0.0774702980633752,-0.0197116378983288,-0.0813926275781469,-172.50313783716064,92.12764282380373,128.76485317435638,-0.0007893309412189
32,1724915750594788042,0.0183600690215826,-0.1149956285953521,0.1851227730512619,-0.0185416229069232,-0.0366861149668693,-0.3341470658779144,0.9416242837905884,0.0,0.0,0.0,-1.0949356069789604,-0.4864204826669144,0.629814973056201,0.018364717,0.3717577715582651,0.4245104424784279,0.3274339784231974,34.356558346861775,-9.325722725744187,14.617073189809258,-0.0104362593231288,-0.081570760256966,-0.6815742626411597,0.0741547854396498,-0.0272604253639476,-0.0818353684018573,-108.19317413640356,84.26430671967972,109.15765119188436,-0.000683103738636
34,1724915750604904297,0.0188889745622873,-0.1151955276727676,0.1844223886728286,-0.0181973557919263,-0.0356108285486698,-0.3336711525917053,0.9418409466743468,0.0,0.0,0.0,-0.7580556272817027,-0.2155644621067274,0.898552356260387,0.028480972,-0.0026999784025656,0.2227456631994055,0.1043541323322973,-14.377069264736404,-16.91269965698784,-28.53882599914493,-0.010546761720813,-0.079306445310719,-0.6805388557188733,0.0540020036887936,-0.0236049910129452,-0.0653671123479231,42.57474207642008,9.794569172108725,-41.26520788250611,-0.0007388025817953
36,1724915750613706380,0.0193774718791246,-0.1154327467083931,0.183876633644104,-0.0178410299122333,-0.0352888740599155,-0.3344864845275879,0.9415706396102904,0.0,0.0,0.0,-0.3122839632315282,-0.2593936292383607,0.0158467367163996,0.037283055,0.0441308855899749,0.0970989740183073,-0.1965300739362257,-15.841958633610473,-11.90932646031704,-18.663992427515776,-0.0100208800829736,-0.078469606562742,-0.6822828533556204,0.0567807697150707,-0.0299207260203768,-0.0630437879105461,2.4627171490457727,28.391732229142352,-61.30209677674942,-0.0005842506002763
38,1724915750623366148,0.0199395604431629,-0.1157532632350921,0.1832566112279892,-0.0193087663501501,-0.0347363054752349,-0.3355087637901306,0.941198468208313,0.0,0.0,0.0,-0.7992645204958679,0.3686322748316325,-0.1630720723746774,0.046942823,-0.3332418056508062,0.0071325438753861,-0.2122993604035181,7.107551974396435,-0.8414048309145432,11.922089599399424,-0.0130786633145905,-0.0784244010131924,-0.6843406300710584,0.047106966371391,-0.0275697207855785,-0.0655208790739987,9.666028979574264,9.695603655121024,11.744592757657768,-0.0006666552545434
40,1724915750634083350,0.020312650129199,-0.1159820184111595,0.1825385391712188,-0.0176727902144193,-0.0347546637058258,-0.3350776135921478,0.9413834810256958,0.0,0.0,0.0,0.0186947017939513,-0.1852224200575316,0.3226794449895989,0.057660025,0.2919580156222826,0.0988517853232221,0.0766411020280349,32.753512280542054,25.542529840399563,18.3708281562718,-0.0100128356861861,-0.0773555700606024,-0.6835290478533971,0.0409451867670771,-0.0221297291239883,-0.0661584477838825,16.306865881191243,-48.96720767218488,49.40099461630152,-0.0007488226987759
42,1724915750643708347,0.0207597613334655,-0.1162018030881881,0.1819090545177459,-0.0151610197499394,-0.0331350602209568,-0.3342413008213043,0.9417828917503356,0.0,0.0,0.0,-0.3431293430391009,-0.6330903096812528,0.8334017433771774,0.067285022,0.3860719798174875,0.4915133843385284,0.1792108183966533,13.73816154737337,23.313425091096992,-0.7869239246747712,-0.0064235368658717,-0.0726107312557748,-0.6818383117630566,0.0462565864171969,-0.0299012722826415,-0.0597491462372161,-104.41403881813702,-13.445891824053152,13.525553363296044,-0.0006623313437526
44,1724915750653762305,0.0212227590382099,-0.1165766417980194,0.1813676953315735,-0.0115796225145459,-0.03151411190629,-0.3339437544345855,0.941994845867157,0.0,0.0,0.0,-2.094669943028213,-0.4208059158622879,0.5541731042949514,0.07733898,0.5657838295307934,0.5423026966414365,0.0511188394813407,-0.4442626038380588,-1.3842706616058391,-6.1793840416438375,-0.0007697429545194,-0.0671566153407013,-0.6813427034120592,0.0334078415950925,-0.0344353791137894,-0.0496110681668824,-100.93697404065443,12.68865948878939,-15.36596800243298,-0.0005801141675419
46,1724915750664047108,0.0214333310723304,-0.1169008463621139,0.1809020042419433,-0.0090132215991616,-0.0299133751541376,-0.3336357772350311,0.9421842694282532,0.0,0.0,0.0,-2.3618426539481945,-0.3789534876034819,0.5266709597072516,0.087623783,0.3684814332583266,0.4603535104704735,0.056593759061207,-7.859688583665765,-22.85346116697805,4.015831592742753,0.0029819253077809,-0.0624226206809641,-0.6807542583184263,0.0032722081793921,-0.0384458534878522,-0.0486900560140863,63.48181814897572,-6.6858911354553605,31.298341304902618,-0.0004873626665393
48,1724915750673647313,0.0213105957955122,-0.1173319742083549,0.1804040074348449,-0.0070749032311141,-0.0300531685352325,-0.3330115675926208,0.9424170851707458,0.0,0.0,0.0,-0.950744098280026,-0.5395189980208104,1.1315741090959828,0.097223988,0.3945048644188778,0.1075642437698484,0.1263628295166698,-36.38371646932316,-14.786750286315216,-4.481608741393799,0.0066937479760531,-0.0613958523840405,-0.6795337263730777,-0.0143095959019223,-0.0419854166383597,-0.0397167957240682,104.20102060965792,-37.12411617730282,-14.798667031689837,-0.0005050519432869
50,1724915750683428409,0.0211554355919361,-0.1177135109901428,0.1801366806030273,-0.0083913002163171,-0.0286448895931243,-0.3332281112670898,0.9423736929893494,0.0,0.0,0.0,-0.3579160811086417,-1.1059166402572946,0.211438778987691,0.107005084,-0.3509592395106071,0.1817871259241008,-0.0345562949509779,-19.832041585917796,7.138721468987175,-8.596387427068656,0.0032809182403458,-0.0596161221831626,-0.6798635702853795,-0.0148328426945666,-0.0489648162795015,-0.0266867791104896,-1.9043875119193816,-59.02926598642918,-137.05879650086473,-0.0002726593010632
52,1724915750694830137,0.0210000108927488,-0.118404135107994,0.1798409670591354,-0.0069724386557936,-0.0275917146354913,-0.3333630561828613,0.942368984222412,0.0,0.0,0.0,-1.2104950697615782,-1.7938631312118796,-1.9225898544762183,0.118406812,0.1722976222156626,0.2572042436625568,-0.0281612151487976,42.99966049889572,5.31829675617521,10.51407287882831,0.005263374038175,-0.0566822063483484,-0.6801726808345842,-0.0229597198375306,-0.066788942096668,-0.0391714293198024,-23.28129649623945,38.16427384449472,-53.34706798738141,-0.0003096549313885
54,1724915750705107968,0.020677613094449,-0.1191481798887252,0.1793157458305359,-0.0036382973194122,-0.0271396040916442,-0.3324549496173858,0.9427216053009032,0.0,0.0,0.0,-0.9726895814405964,-0.4890301679889992,-1.231076744776979,0.128684643,0.5874370337169526,0.2998555244690506,0.1721141238453761,32.39748273889712,12.90195718356476,4.575609428246141,0.0112019188645089,-0.0536150051553694,-0.6783756561395871,-0.0400122118479953,-0.0873622258110664,-0.0665990672701575,20.772003582381053,124.82719697408116,150.7170404710864,-0.000527246962856
56,1724915750713426081,0.0202865954488515,-0.1199756413698196,0.1786574423313141,0.0001426469825673,-0.0264207068830728,-0.3319383263587951,0.9429309964179992,0.0,0.0,0.0,-0.8158318025734455,0.5349648999554555,0.5842945069488013,0.137002756,0.8031051572640215,0.4660953129472795,0.1097958758909523,1.5389506751543216,4.5990355244200085,-3.4569512922321506,0.0178321115300634,-0.049751628802353,-0.6774048031489766,-0.0434818402402715,-0.0812465478239685,-0.067161663008612,9.906890693758172,27.394643140432947,151.32858156307856,-0.0006521557626152
58,1724915750725253418,0.0198316201567649,-0.1206299886107444,0.1780645549297332,0.0029277866706252,-0.0257683042436838,-0.3311097621917724,0.9432358145713806,0.0,0.0,0.0,-0.8491801767748415,-0.7505801280260993,1.2488046406794455,0.148830093,0.4111635392808746,0.2617388818489946,0.1367647240777407,-62.480022261458345,-20.86009702525083,-0.3957940856937298,0.022614029545133,-0.0466892984686161,-0.6757230562939769,-0.0598361498989894,-0.0782871030155973,-0.049287500894696,39.68514963902232,-95.21462454430744,-31.996336784164026,-0.0005766427483976
60,1724915750733724581,0.0191950909793376,-0.1214324906468391,0.1776521354913711,0.0018206440145149,-0.0251015312969684,-0.3306728601455688,0.9434098601341248,0.0,0.0,0.0,-0.2551095713170892,-1.4753826049822971,0.4427358644615169,0.157301256,-0.2961394982797956,0.0632976598260495,0.1171756138295534,-29.604269852720343,-6.818298997819536,-1.995746187665796,0.0200587405471588,-0.0461743952610774,-0.6747181783447362,-0.0637923078175499,-0.0907175994621569,-0.0403010721120349,10.558508326092351,-58.01440842182636,-81.02279891363216,-0.0003915486106024
62,1724915750745193562,0.0186396725475788,-0.1224105730652809,0.1773201078176498,0.0033552192617207,-0.0241694580763578,-0.3301040828227997,0.9436291456222534,0.0,0.0,0.0,-1.0589993203080006,-1.7130116568563123,-0.267081439205453,0.168770237,0.2011338309069266,0.2429700416043361,0.0992040586593522,39.04655029274468,32.24585190963039,23.739499045780107,0.0223119101000349,-0.0434125019052311,-0.6735204216764098,-0.0634277586953468,-0.1077628474384528,-0.0448208478031766,-14.623682628796551,76.33336636285722,49.92194626419712,-0.0003144808462829
64,1724915750754038155,0.0179763697087764,-0.1235170364379882,0.1768154352903366,0.0063975802622735,-0.0222552511841058,-0.3280258774757385,0.9443848729133606,0.0,0.0,0.0,-0.810001884333146,-0.3759041669618996,0.9370982092651636,0.17761483,0.5170766969994656,0.6412585758718716,0.4817788675811837,11.169256859778946,-6.705058420083154,6.870042933938552,0.0267064496660978,-0.0378469359823847,-0.6691178700518293,-0.080234126747912,-0.1244607306780896,-0.046316804135003,51.035002327373945,117.03903574664947,83.6588459760997,-0.0004762503620737
66,1724915750763367916,0.0171762462705373,-0.1246719285845756,0.1764890402555465,0.0081569962203502,-0.0225354395806789,-0.3271564543247223,0.9446662664413452,0.0,0.0,0.0,-0.108658419679521,0.3800624220020241,1.201034316228364,0.186944591,0.3796504226732053,0.0695308204016852,0.1877884577289546,-16.35956768602022,-31.13967896408769,-23.9194450689654,0.0301820217829643,-0.0372483239100421,-0.6673469173492659,-0.0770621612972707,-0.113087259085316,-0.0266868313272681,36.41897183514923,0.8763443698463185,-49.90829076314134,-0.0002869136202792
68,1724915750775388485,0.0163846276700496,-0.1258656084537506,0.1762967556715011,0.0093688471242785,-0.0219266470521688,-0.3270255625247955,0.9447146654129028,0.0,0.0,0.0,-0.2710777840422906,-0.8507383064125449,-0.6099780820274714,0.19896516,0.1577594501344423,0.1620104648725023,0.0178373573983254,24.311982366192392,31.374659673843578,5.938464644644855,0.0320684030287829,-0.0353084810558635,-0.6670718120474816,-0.0853166115581156,-0.1215125030792538,-0.0262345973590463,99.8468278641477,68.36170624333738,-45.94511510626217,-0.0001504077703974
70,1724915750783530570,0.0155826434493064,-0.1269774585962295,0.1760266870260238,0.0123579166829586,-0.0206130258738994,-0.3262695968151092,0.944971203804016,0.0,0.0,0.0,1.1670573731402645,0.6475724705133876,-0.4065665598497446,0.207107245,0.5915935457780935,0.5480677000261478,0.1769126986335486,19.12900443962398,13.773979768452742,14.74700370632379,0.0368324622492679,-0.0308983229972068,-0.6654776347639284,-0.0852316237564922,-0.1292656338442883,-0.0347726093561178,-79.08356142082002,-300.7419979588502,-29.150027563243476,-0.000221033374888
72,1724915750793646043,0.0148872137069702,-0.1281934231519699,0.175654798746109,0.0144677115604281,-0.0199520774185657,-0.3249440789222717,0.9454120993614196,0.0,0.0,0.0,-2.846498610605167,-8.486657896797846,-1.3817273146609637,0.217222718,0.3558750842717286,0.264625888030653,0.2658837312440937,-20.376366488906665,-23.739257716517955,5.760023925142394,0.0403496493889871,-0.0283272646912841,-0.6626856287140144,-0.0588908797113752,-0.1026101868003338,-0.0308163504789923,797.7633010222053,-1155.486392206143,-2898.988451937838,-0.0003211652578074
74,1724915750836970307,0.0141650680452585,-0.1293734759092331,0.1754233837127685,0.0150332190096378,-0.0194242168217897,-0.325906753540039,0.9450828433036804,0.0,0.0,0.0,253.3701671892231,-105.39851465443736,-647.016261224781,0.260546982,0.0160957671439467,0.0305744167344357,-0.0478269646340727,4908.464794856678,-3001.4765489015676,-7294.63637427866,0.041102701519232,-0.0269193840057141,-0.6647028159680136,-1.1935897888134193,-2.534005968076997,-0.4196401024656779,481829.3174525352,-81409.37058524674,-157421.36463207589,-0.0001789551243469
76,1724915750837462660,0.0135708153247833,-0.1306351274251938,0.1752144545316696,0.0155057571828365,-0.0199485793709754,-0.3267563879489898,0.9447708129882812,0.0,0.0,0.0,493.2631579486333,-145.92365481802835,-725.3205762961037,0.261039335,2.46030126136968,-1.4639754469034332,-3.680138099973568,12696.371263075249,4347.366505347006,2462.027599341349,0.0423641837006753,-0.0275639509325645,-0.6665438654377442,-1.0672780041969148,-2.586174965232346,-0.7417705220308619,363632.97216544865,218459.2538769213,371233.16544632934,-0.0001597240455191
78,1724915750837897352,0.0131604876369237,-0.1317684054374694,0.1747701913118362,0.0179799478501081,-0.020060621201992,-0.3264574408531189,0.9448279738426208,0.0,0.0,0.0,603.8939653244018,64.46888113027899,-360.4378217781334,0.261474027,10.946742796049882,3.2592246127156206,1.1663194612440635,-3373.987372971352,3019.6689964704115,6918.102919643277,0.047107340109597,-0.0261712841522644,-0.6659738602299649,-0.7620126922791428,-2.664944782775678,-1.0843307123515444,-34145.01613146055,538563.3178965837,927694.8615250692,-0.0003995862310228
80,1724915750838291028,0.0129253678023815,-0.1328381597995758,0.174321100115776,0.0183472204953432,-0.0198555551469326,-0.3260028958320617,0.94498211145401,0.0,0.0,0.0,487.53985946163726,295.9404815780367,36.25128051527015,0.261867703,1.4550605014119025,1.6506763184632416,2.381305576307875,-22546.579929679727,-3834.242585953731,2860.0971149195325,0.0476551309388677,-0.0255665800046419,-0.6650062700474326,-0.5593433624718303,-2.551973599750479,-1.073768857851901,-281220.38638648903,549392.1548578282,942855.2714604386,-0.0004135535613799
82,1724915750843940140,0.012837741523981,-0.1338489055633545,0.1736860275268554,0.020979419350624,-0.0195944085717201,-0.325386106967926,0.9451454281806946,0.0,0.0,0.0,61.14406856139681,271.8954590435199,109.80130530142384,0.267516815,0.853761288352921,0.3963250850162437,0.2050025156744909,-77.57178194253176,-145.66569971110158,-253.0236810603988,0.0524470797836411,-0.0233884404435049,-0.6637373282254249,-0.0159726693072431,-0.1525849296507999,-0.1051689240601261,-50223.48972017704,-12642.377679001542,4277.93021587234,-0.0006023891139395
84,1724915750853793002,0.01267244014889,-0.1348997205495834,0.1727744191884994,0.0241460427641868,-0.0192572008818388,-0.325373113155365,0.9450812935829164,0.0,0.0,0.0,0.3296515731287647,3.2208957545889056,1.7246943650834323,0.277369677,0.5855754515475015,0.2736466814092406,-0.0157740967139729,-48.02705329398037,-16.639671090036025,-14.886077705188388,0.0582168270566244,-0.0206877700715253,-0.6637434692724019,-0.0157332050844628,-0.1001940444463738,-0.0829141811815734,-3152.4911946539196,-14079.504875914528,-5658.729030512764,-0.0008664642095478
86,1724915750864181973,0.0125204222276806,-0.1358699053525924,0.1720182746648788,0.0235538873821496,-0.0187378246337175,-0.3258123993873596,0.9449552893638612,0.0,0.0,0.0,0.6578058761790415,1.426880856105504,1.1069920785743483,0.287758648,-0.1413119665384294,0.0548943343096845,-0.0880351309795751,-11.292711843383294,-2.9643920343655914,-6.121272526927536,0.0567666769471703,-0.0200658623939818,-0.6646239197781337,-0.0089636109414125,-0.0896970804899499,-0.0708461057401308,-1.4034761299473928,-109.26543806677094,-86.44800779190298,-0.0007157164165255
88,1724915750874207817,0.0124854044988751,-0.1367335021495819,0.1713267266750335,0.0253776051104068,-0.0182841513305902,-0.3264281749725342,0.9447043538093568,0.0,0.0,0.0,0.3245404578597044,0.9450086010672832,-0.0208663347847521,0.297784492,0.3131689539664969,0.2002195408349684,-0.1413340531211343,14.1294952859769,1.0259572546653644,1.5406054369054645,0.0599311425697061,-0.0179792727230983,-0.6659216085252208,-0.0023086384313912,-0.0713617240733484,-0.0602761596301171,-27.602365830564388,-72.8266429570933,-95.35551296446532,-0.0006573053328009
90,1724915750887220926,0.012475362047553,-0.1374125778675079,0.1706892997026443,0.0251644626259803,-0.0183052141219377,-0.3264676928520202,0.9446960687637328,0.0,0.0,0.0,0.0605807555198863,-0.4209612944767302,-0.9722425479937192,0.310797601,-0.0299687708375735,-0.0139287509323374,-0.0054722560895829,9.40014654793507,14.790725409061086,-17.923199728763272,0.0595426443544896,-0.0181559569951447,-0.6660036169767763,-0.0038152961858948,-0.0739920141347347,-0.0787072301036015,23.416275683970905,49.21104662498918,121.5940933089116,-0.0006115095365091
92,1724915750894341562,0.0124363359063863,-0.1380244195461273,0.1700130403041839,0.0260211378335952,-0.0177714508026838,-0.3272561728954315,0.9444101452827454,0.0,0.0,0.0,0.3975910674803715,0.5301891226678048,0.6522138288793085,0.317918237,0.1763334163411724,0.2131397590825541,-0.243610898432747,10.584091588299623,13.827999410747807,-19.55325646906369,0.0608267003567934,-0.0165366745859092,-0.6676440402153366,-0.0026967617558615,-0.0778421816040255,-0.0838998370402297,33.668661523044655,114.87040420877284,164.8613388993843,-0.0006499869530491
94,1724915750903643767,0.012445081025362,-0.1386502981185913,0.1693671345710754,0.026453947648406,-0.0172813180834054,-0.3283644020557403,0.9440224170684814,0.0,0.0,0.0,0.5447852858705161,1.371416603340193,1.416893871571737,0.327220442,0.0513309073425483,0.1222931809376147,-0.2567036059070596,-0.218133938361678,-5.643737971143114,0.759504367887823,0.0613409726933141,-0.0152554256518805,-0.6699582880903829,0.0039243952492068,-0.0598965837327973,-0.0610452577451452,-13.9367307777518,7.207216788269435,-24.276664470437535,-0.0006208960838574
96,1724915750914512091,0.0125256273895502,-0.1392074823379516,0.1688102185726165,0.0277891438454389,-0.0170551985502243,-0.3294606208801269,0.9436061978340148,0.0,0.0,0.0,0.0154164932745293,0.3929348195062516,-0.1990586409411658,0.338088766,0.2168268210486011,0.1133018626884986,-0.2209323956041286,13.08738810317546,6.429212402471404,10.000087168163091,0.0637313148705167,-0.0138763702644788,-0.6722781197686408,0.0077247344320455,-0.0520740864539917,-0.0588521020886876,-45.28607971420367,-41.21714271299538,-40.63949018993368,-0.0005368399425567
98,1724915750924168385,0.0126029103994369,-0.1397172510623932,0.1681766360998153,0.0296525452286005,-0.0164802633225917,-0.3297057449817657,0.9434741139411926,0.0,0.0,0.0,-0.3925254520856618,0.4137216032864508,0.3354799228781506,0.34774506,0.3248427264572654,0.2376409241174187,-0.0668112841620905,12.54455452811406,11.562050036845626,-1.5100216395436057,0.0668743801706537,-0.0115444310680251,-0.6727722383820939,0.0050058866705168,-0.0510836965827214,-0.0642133521503787,-22.076756519357048,2.227922332893087,42.89909545537985,-0.0006130553610376
100,1724915750933534332,0.0126225650310516,-0.1401801854372024,0.16758793592453,0.0321954749524593,-0.015673279762268,-0.3306818008422851,0.9430627822875975,0.0,0.0,0.0,-0.416069094166231,0.4352718516275915,0.6241034714893643,0.357111007,0.4546753520922363,0.3339897704030994,-0.2396637767489156,-8.561431154835056,-8.306350567532743,-8.648265041396993,0.0711528984561484,-0.0082689525999277,-0.6747959046559986,0.0003214876246808,-0.0443821451917871,-0.0529799632979823,7.2530634205092,-19.513182447963647,-40.58123089520545,-0.0005648771432359
102,1724915750944350017,0.012603847309947,-0.1405971944332122,0.1671382635831833,0.0326528772711753,-0.0157224405556917,-0.3317471444606781,0.9426720142364502,0.0,0.0,0.0,-0.2156364609245657,-0.0482308503250696,-0.7065526495722754,0.367926692,0.0820103798219357,0.0119213987957854,-0.210711025539461,-29.778155484693237,-12.455442084036225,0.1927085078880654,0.0720582904972418,-0.0079772964370286,-0.6770599207300378,-0.003128401266588,-0.0431746710394858,-0.0534150392281524,16.062763482235624,-7.260427948595421,-19.63425213047579,-0.0004262090472518
104,1724915750953454244,0.0125646535307168,-0.1410256624221801,0.1665612310171127,0.0320587903261184,-0.0153228994458913,-0.332731544971466,0.9423519372940063,0.0,0.0,0.0,-0.0883180462499725,0.1726194687612932,-0.092923271067085,0.377030919,-0.1532478275847478,0.0312763896147482,-0.2279945555241075,8.250922811482969,4.447608999915691,6.032718552967127,0.0706789922672318,-0.007545257878213,-0.6791100530826523,-0.0042996919522715,-0.0448389677627742,-0.0649541046095985,13.398901088228024,14.922429133937577,63.59393295977169,-0.0005520878612386
106,1724915750963521817,0.0125214252620935,-0.1414523273706436,0.1658897846937179,0.0337029621005058,-0.015344901010394,-0.3330653607845306,0.942176342010498,0.0,0.0,0.0,0.0400565509670981,0.2189205937278528,0.5049354276431619,0.387098492,0.3093542838231369,0.1018998794896907,-0.0789636595313847,17.5388953923214,2.713185388992233,2.76224652096168,0.0737984865853497,-0.0064646719704312,-0.6798290120945619,-0.0047397916084022,-0.0391442219181019,-0.0528138888747493,16.207800675701677,-4.545704217079693,4.571251402069688,-0.0006446487796766
108,1724915750976036552,0.0124551700428128,-0.1418918669223785,0.1654447615146637,0.0343809723854064,-0.015070660971105,-0.3344081044197082,0.9416804909706116,0.0,0.0,0.0,0.2966648272839813,0.0197699942554572,-0.2905733076359249,0.399613227,0.0868692422310884,0.0689333005031457,-0.2317106665544464,21.621063344194177,27.214448456080905,-20.44175531349302,0.0749023895091178,-0.0053889693214865,-0.6826567381016603,-0.0029352890862848,-0.0417985029311012,-0.0573990597166513,-30.736265043941497,19.82486782827844,20.43430309998751,-0.0004163342538998
110,1724915750983490807,0.0124437632039189,-0.1422330886125564,0.1649199277162552,0.0363929457962513,-0.014124795794487,-0.3358077108860016,0.941121220588684,0.0,0.0,0.0,-0.1599621122503852,0.3262284436537324,0.234712829013393,0.407067482,0.4229708786740906,0.4043260105236187,-0.4206585866189683,13.697095304437486,14.654800929985116,-10.200444580279177,0.0780662265941145,-0.002144228119963,-0.6855528820985983,-4.6880582485975264e-05,-0.0406216538708683,-0.0592284746524791,-59.90182541316557,16.892437276500765,52.704522490407456,-0.0005025152503842
112,1724915750994018589,0.0124653251841664,-0.1425841152667999,0.1644625961780548,0.0371029563248157,-0.0137116489931941,-0.337279349565506,0.940573275089264,0.0,0.0,0.0,-0.7704426753569493,0.1439595715817478,0.5254574567698422,0.417595264,0.1004243531447982,0.1075157801019384,-0.3028290473804269,-12.390626312407916,-18.94794605244011,14.352060587246768,0.0791279808703499,-0.0007654993231859,-0.6886423895850738,-0.0098706815581584,-0.0346840321882391,-0.0496185919322442,8.420760939734901,-20.365543690275217,23.15409044997154,-0.0004357427024941
114,1724915751004134622,0.0122496178373694,-0.1429480165243148,0.1639005988836288,0.0378467328846454,-0.0139207579195499,-0.3378713726997375,0.9403280019760132,0.0,0.0,0.0,-0.0397431880136565,-0.0917295725869793,0.7163048295775711,0.427711297,0.1524485382124474,0.0057036783647342,-0.1269285179579667,-0.1788457267083885,-6.2319852959042805,1.721212470123611,0.0806710215786879,-0.0006055018140927,-0.6899176343098901,-0.0160831103456102,-0.0373106445322539,-0.0480682805427354,52.930064081738166,-36.55882892389975,-37.05544211083928,-0.0005265274828239
116,1724915751014806542,0.0121369762346148,-0.1433612555265426,0.163471907377243,0.0382907465100288,-0.0141151780262589,-0.3392975032329559,0.9397934675216676,0.0,0.0,0.0,0.307816214348322,-0.6311711080269635,-0.3087293545964176,0.438383217,0.0906275531184154,-0.0176565572957671,-0.2849453903419768,-7.601521882963226,-0.6133377065305208,-7.947061359890157,0.0816399476547991,-0.0005467948556566,-0.6929638160931488,-0.0100407419411233,-0.0363990850337758,-0.0340848949859733,16.05794524730286,-6.23080507704708,-38.95477573746095,-0.000395565342984
118,1724915751028639226,0.0120073053985834,-0.1438231021165847,0.1631095260381698,0.0380169972777366,-0.0139192612841725,-0.3410681486129761,0.9391664266586304,0.0,0.0,0.0,0.2339283858535426,0.0772247577085476,0.1761092160279105,0.452215901,-0.0469503841338522,0.0021093110411877,-0.2718824690644123,-10.89843503432656,42.36297262747853,-27.247828152950788,0.0809919281053638,-0.0002122320108771,-0.6967099625991674,-0.0104154106329736,-0.0579779997248017,-0.067383930138682,27.816058329825907,189.4468383719708,261.3861146372431,-0.0003258458058073
120,1724915751033467675,0.0119552602991461,-0.1441444903612136,0.1627147495746612,0.0380296818912029,-0.0131695540621876,-0.3420684337615967,0.938812792301178,0.0,0.0,0.0,0.4241213733148721,1.224943723033798,1.8196704023348933,0.45704435,-0.1011784136227713,0.2756479372775973,-0.4509629581334825,-6.7726191777790605,32.01644746491719,-21.694417279184037,0.0805022706171472,0.0012900161547786,-0.6987728824491724,-0.0088459801915097,-0.0548457169488818,-0.062179506124969,21.539641727787313,160.07789120051928,232.01301226662548,-0.000370803348073
122,1724915751043861895,0.0119065623730421,-0.1444524228572845,0.1625065803527832,0.0378036499023437,-0.0126971118152141,-0.3436813950538635,0.9382392168045044,0.0,0.0,0.0,0.2485935514288483,1.15199698025877,1.8062311848321289,0.46743857,-0.0718165267494756,0.0572091563028739,-0.3320039126216748,18.18718247049119,-4.051784369000146,12.25476583553088,0.079749950401733,0.0021589674599673,-0.7021652050014898,-0.002220516690965,-0.029219854381755,-0.0266670907473116,-28.455186439042254,-55.784047121916274,-55.773354901455576,-0.0001859248827667
124,1724915751054356688,0.0119093740358948,-0.1447547823190689,0.1621563583612442,0.0395547859370708,-0.0122094340622425,-0.3445824086666107,0.9378429055213928,0.0,0.0,0.0,-0.1726175256813985,0.0498134885659227,0.6436085349078066,0.477933363,0.2818389030967073,0.1944388339048358,-0.1948092716234733,-2.666537204591652,0.8173576471179462,-3.75791914169551,0.0827016895971981,0.004358718395017,-0.7040373527486793,-0.0037316951345143,-0.031047100005999,-0.02477459649897,-18.72606441751413,-93.84491807658884,-55.519400463208726,-0.000329274097812
126,1724915751063356981,0.0118449162691831,-0.1450514793395996,0.1619997322559356,0.0396442040801048,-0.0116578415036201,-0.3460772931575775,0.9372955560684204,0.0,0.0,0.0,-0.1759083628839846,-0.7085471550917664,0.5704599683707103,0.486933656,-0.0228459950273573,0.1071757161353862,-0.3585402559265317,-18.873917861276475,-6.614375685663774,-8.654748475732134,0.0824804742663898,0.0055862606598555,-0.7071737937076518,-0.0055062438946898,-0.0288703867059396,-0.015406038763118,17.434851274468233,-41.18291636677891,-13.803409410902264,-0.0001332583715424
128,1724915751078662224,0.0118037294596433,-0.1453867703676223,0.1618158966302871,0.0404543727636337,-0.0111732715740799,-0.3477849066257477,0.936634600162506,0.0,0.0,0.0,0.5542292507615415,-0.2177069160714317,0.2114648392379856,0.502238899,0.0781385621694805,0.0861357027190007,-0.242784195363046,38.29663512261514,-21.259197120685027,-75.58047617919999,0.0836534238804485,0.00720835742653,-0.7107676048121062,-0.0076453006999785,-0.0644508208071741,-0.0189195862560573,61.05471754485535,262.7352413442434,42.654885901324135,-0.0001583638088336
130,1724915751083226390,0.0117620918899774,-0.1457388401031494,0.1617201417684555,0.0410749092698097,-0.0114246699959039,-0.3492785096168518,0.9360485672950744,0.0,0.0,0.0,0.8510630190496157,1.295413352223174,0.4961303991261752,0.506803065,0.2960749890497677,-0.0379591390805987,-0.7009109151113976,32.03100313661883,-15.251426861353448,-58.817905898438354,0.0849815186161364,0.0073051391948669,-0.7139699606303147,-0.0041711340756404,-0.0625766620387286,-0.0173541501959624,30.221184445003093,246.1309092565146,44.660062073324056,-6.905845870657983e-05
132,1724915751093510003,0.0118339266628026,-0.1460449695587158,0.1616256833076477,0.0424993336200714,-0.0114277610555291,-0.350895345211029,0.9353800415992736,0.0,0.0,0.0,0.355186068362269,1.8480045994770653,0.5450616484912665,0.517086678,0.2612696203523327,0.0817958379792074,-0.3428921164756618,2.429003608915165,10.350850381345428,10.009494589856612,0.0876412280075149,0.0084471379167096,-0.7174106562203971,0.0066634024356274,-0.0287543886449963,-0.0087037033099246,-60.65599543843128,-104.02096751101216,-10.111877505974094,-7.588679414562152e-05
134,1724915751103403304,0.0118967853486537,-0.1463197916746139,0.1615441590547561,0.0444007143378257,-0.0111227724701166,-0.3530590534210205,0.9344806671142578,0.0,0.0,0.0,-0.3632642615512629,-0.6825975998545009,0.3034915497272188,0.526979979,0.3406327121303021,0.1718803229088684,-0.4799542906910322,-5.965872848476861,0.173752806099253,-3.144018726729807,0.0909676880597075,0.0105643131780171,-0.7219884876788671,0.0035302562026804,-0.024186143208976,-0.0061297120962406,-25.34432251649286,-128.7833182903243,-15.16029691148145,-6.381293353175181e-05
136,1724915751121696460,0.0118658635765314,-0.1466407179832458,0.1615034192800521,0.0419426932930946,-0.0113572776317596,-0.3546312153339386,0.9339960217475892,0.0,0.0,0.0,0.7721973691749876,1.257514752365637,0.3392869461200034,0.545273135,-0.2416365086518868,-0.1270598507295338,-0.175203353876831,-286.30062058964546,-95.86349514752852,-223.75263803099512,0.0865149381445946,0.0085331758988776,-0.7253871096163476,-0.0046902360349951,-0.0753804558510395,0.0008872769925574,50.24428007840177,430.2481875879665,-18.3428520882848,-1.6451061581454466e-05
138,1724915751124739565,0.0118500720709562,-0.1468993872404098,0.1615076959133148,0.0399471595883369,-0.0112771829590201,-0.3560704588890075,0.9335368275642396,0.0,0.0,0.0,0.9191093408354808,2.730919605453076,0.2731915088602271,0.54831624,-1.241699291008825,-0.4590386359246173,-0.977809114086055,-223.042800850365,-69.69593027730183,-186.55796665852668,0.0827117664745632,0.0073927430236609,-0.728470251577219,-0.0017219653948288,-0.0695004172233275,0.0018973376825437,19.728927811145788,369.65946199024233,-25.927289124613445,2.225893316893151e-05
140,1724915751134228171,0.0119363171979784,-0.1471002250909805,0.1615402549505233,0.039011538028717,-0.0105934226885437,-0.3581296801567077,0.9327963590621948,0.0,0.0,0.0,0.2616829987760641,2.850310856657567,-0.097307457776378,0.557804846,-0.2340800360800125,0.0452242945387823,-0.4643002257558722,58.930424293517824,22.116278619209385,32.01818177102729,0.0804567431016746,0.008179458251007,-0.7328262619875816,0.0053334262869126,-0.0199582592689635,0.002752061935662,-59.35509283304183,-119.11879695626936,-26.586438172624717,4.143129063955915e-05
142,1724915751144155957,0.0119502525776624,-0.1472858190536499,0.161560520529747,0.0382809601724147,-0.0105380499735474,-0.3598884046077728,0.93215012550354,0.0,0.0,0.0,-0.2244277421753851,0.2997039656896396,-0.2318232954374024,0.567732632,-0.1399569498245006,-0.0575045671037411,-0.3759928018095642,23.643120838205515,-5.422125963133587,1.4573771226005263,0.0790369791581882,0.0079077405704887,-0.7365927553321705,0.0029259133315402,-0.0162883761219108,-0.0001604239289854,-20.433731288783036,-127.13937836987527,6.529856177772684,3.138151868272466e-05
144,1724915751153678193,0.0119920168071985,-0.1474189460277557,0.1615388840436935,0.0391446053981781,-0.0111119290813803,-0.3617969751358032,0.9313685297966005,0.0,0.0,0.0,-0.158422302837302,0.2743353189797999,0.0137447276375943,0.577254868,0.2145267276861148,-0.0641496360585484,-0.4300447883317314,9.2098999982822,2.485434134412568,0.6970853213625166,0.0810476869414292,0.0076262714722299,-0.7407237104624175,0.0009539407650098,-0.0140734299238269,-0.0018058048680256,10.090436566731372,5.671629759587004,23.052282156379896,-1.4975570347734517e-05
146,1724915751164351583,0.0119611388072371,-0.1475702673196792,0.1615251898765564,0.0390548296272754,-0.0109940851107239,-0.3635191023349762,0.9307028651237488,0.0,0.0,0.0,-0.0129331312043732,0.4345976500034061,0.227050588741402,0.587928258,-0.0223600738356842,0.000462225225305,-0.3463540480464841,-13.036780427263286,10.32936640359521,-2.6405672215713203,0.0807803669662252,0.0079299833040648,-0.7444080654503835,-0.0001547001512975,-0.010646125995164,0.0005725874860083,12.035709411526682,-4.194714457193937,-15.712784679218306,-2.3493624982114296e-06
148,1724915751173977738,0.0119834225624799,-0.1476420909166336,0.1615468114614486,0.039012748748064,-0.0101737054064869,-0.3655689656734466,0.9299107193946838,0.0,0.0,0.0,0.0890745285265758,0.2274451355426588,-0.2341180378476975,0.597554413,-0.0683528873214568,0.137015569929585,-0.4627706359155432,6.669004149030232,3.2980716890315724,1.639616934575237,0.0800843929252161,0.009602572562799,-0.7487425668300794,0.0005102841594105,-0.005477336170534,0.0027948201732659,17.81654322501726,-40.321099890520856,-65.79249308085544,2.5171076103229665e-05
150,1724915751183992531,0.0119697302579879,-0.1476762741804123,0.1615805178880691,0.0396798364818096,-0.0100663267076015,-0.3669635057449341,0.9293341636657716,0.0,0.0,0.0,0.3427255820323058,-0.3722558120852229,-1.0793582505491788,0.607569206,0.1177025023734995,0.0566059880424063,-0.3032602940184711,6.734664211325775,-10.037603697319716,13.956639523307814,0.0812333146348828,0.0104123293253847,-0.7517241944973572,0.0016106622390718,-0.0064243170475162,-0.004394419680926,8.827694114141064,-24.124885213839303,-12.376229567724655,3.651691407924223e-05
152,1724915751194563357,0.012019982561469,-0.1477777808904647,0.1614474803209304,0.0398285388946533,-0.0104923332110047,-0.3678483068943023,0.9289732575416564,0.0,0.0,0.0,0.2519396697210325,-0.2283129665888272,-0.4065726580872778,0.618140032,0.0567480859080508,-0.0719103318337664,-0.1777171114884391,17.440638744501722,4.0384055859610015,2.663537516501174,0.0818136384651581,0.0098076845063416,-0.7536586197919752,0.0078316357903828,-0.013457843522465,-0.0198376051350148,-31.085174236289504,29.021155664327352,113.5469547219987,-0.0001283104269322
154,1724915751203524053,0.0121135376393795,-0.1479276567697525,0.1612146347761154,0.041603185236454,-0.0107306288555264,-0.3687452673912048,0.9285370707511902,0.0,0.0,0.0,-0.1974869438795441,0.1487440194658669,0.9899294022326454,0.627100728,0.3893039372484849,0.0872988276429829,-0.2238290642735613,10.110647995589355,8.992881465680306,-3.297527222418691,0.0852822019971487,0.0107545892725941,-0.7555921403849163,0.0075327089866235,-0.0121838693461615,-0.0154721093262457,-27.237357034255837,21.207132711101483,94.41732727364308,-0.0002263273086496
156,1724915751216371419,0.012156750075519,-0.1480005234479904,0.1612095087766647,0.0418469160795211,-0.0104744909331202,-0.3701169490814209,0.9279830455780028,0.0,0.0,0.0,-0.1252693695166264,0.0367431213039634,1.0714078763031538,0.639948094,0.0218245017954168,0.0412063897181732,-0.2321445497721993,-20.39217934839804,-6.997224722491558,-11.295776938636669,0.0855299575804634,0.0115364617177924,-0.7585186251893259,0.0019723216015663,-0.0101518737683967,0.0065064030830281,39.4195628622752,1.8532909567227491,-73.42061072765547,-2.1912350956225284e-06
158,1724915751226115117,0.012165687046945,-0.1481325477361679,0.1613239347934723,0.0412489362061023,-0.0104150008410215,-0.3720355629920959,0.9272430539131165,0.0,0.0,0.0,0.508586598716442,0.1329195044987066,-0.2334115491733533,0.649691792,-0.1161907133060051,-0.0521682426544509,-0.4208978109952146,-29.782459583024476,1.1878856432095248,-8.696676286603147,0.0843505241196516,0.0113779135258623,-0.7626484216652938,0.0030243562417761,-0.0106911404033613,0.0122213266447523,42.26276562735701,3.919601673613089,-92.7911653397466,0.0001226410509963
160,1724915751233512402,0.0121998926624655,-0.1481955796480178,0.1614170223474502,0.039833914488554,-0.0097076976671814,-0.3735068738460541,0.926720917224884,0.0,0.0,0.0,0.6932286665134023,0.1284934495267017,-0.6888706409946314,0.657089077,-0.4242089128798473,0.0171077610281272,-0.4252787981976857,-11.714771786729372,7.504033037550864,2.1826677565259676,0.081176362030043,0.0117641001198328,-0.7657732656369707,0.0090363425397944,-0.0086506176482954,0.0058900164593893,-4.979041367147593,-7.752724883339484,-11.208639532530349,9.5337851172654e-05
162,1724915751243863179,0.0123573308810591,-0.1482869982719421,0.1613810360431671,0.0394457392394542,-0.0090910410508513,-0.3752363920211792,0.9260449409484864,0.0,0.0,0.0,0.2080581617858691,-0.0553738888439824,-0.075463794246453,0.667439854,-0.1120531272686869,0.0678261755396241,-0.3624960743263915,21.544485572763808,-2.6801840695029036,2.14601607086097,0.0799713571576961,0.0127658753339118,-0.7694571015078828,0.0144810180926225,-0.0094548134943064,0.0011787889594891,-43.378245581313074,-6.6390569714970615,34.16408704561745,-3.7124794884492394e-05
164,1724915751253852299,0.0124949533492326,-0.1483874469995498,0.1614376902580261,0.0394959412515163,-0.0092022018507123,-0.376993328332901,0.9253278374671936,0.0,0.0,0.0,-0.1915639239683064,-0.0144502687755373,0.023859835248157,0.677428974,0.0201249346422425,-0.0320198662671644,-0.3788435567282033,7.686462990894851,-3.221138161396014,1.5624620802777542,0.0801239333556434,0.0127496510333286,-0.7732551778725695,0.0134941897426592,-0.0097927794255543,0.0040852512486484,-20.43996529973286,0.5213040614071947,-1.8272665597613384,5.667101565265662e-05
166,1724915751263343079,0.0126204714179039,-0.148478016257286,0.1614621579647064,0.0396969430148601,-0.0092230252921581,-0.378462940454483,0.9247187972068788,0.0,0.0,0.0,-0.2091246984682123,-0.0417441853304369,-0.0996200232216609,0.686919754,0.0430678566895788,-0.0015047049252122,-0.3351683083123795,1.5330482820719855,1.5476258033571646,6.689314460439247,0.0804918384091138,0.0129905992211621,-0.7764271874922452,0.01083953113213,-0.0097551401776962,0.0019031518100574,12.68452486012571,4.91858346129626,0.6686307980643624,2.449094161915938e-05
168,1724915751275238787,0.0127138439565896,-0.1485972255468368,0.161474734544754,0.0399559624493122,-0.0093221087008714,-0.3796964287757873,0.9242008328437804,0.0,0.0,0.0,0.1584814385329406,0.1329809038094362,0.1122902448996236,0.698815462,0.0481189763421095,-0.0079588281340674,-0.2244701680841313,-17.97684545995624,-5.834183046450407,2.125370432479089,0.0810294086102013,0.013111646929053,-0.7790965644926475,0.0094042624259744,-0.0109332554505661,0.0026608458928976,11.712238478432528,10.252784474570683,9.23360699088635,1.6052463232832797e-05
170,1724915751285878479,0.0128287002444267,-0.148722231388092,0.1615183055400848,0.0381613038480281,-0.0092136925086379,-0.3810651898384094,0.923714280128479,0.0,0.0,0.0,0.1004766757649208,0.1998598171457711,0.1288793425324868,0.709455154,-0.3182628354991174,-0.1203893852461752,-0.2701872033878886,6.20518109216934,9.465939413481069,-15.991558647920993,0.0776058334344905,0.0120625428292427,-0.7820639557030837,0.0137467939742296,-0.0073104291463579,0.004318028545212,-39.13683573881783,-21.2399846735286,-4.297236105216734,4.607633608027142e-05
172,1724915751293566776,0.0129507882520556,-0.1487537771463394,0.1615527421236038,0.0381117761135101,-0.0088547570630908,-0.3826835453510284,0.9230506420135498,0.0,0.0,0.0,-0.3875600163019267,-0.1163618079371768,0.0633050397359645,0.717143451,-0.0447727276008769,0.0636831244059931,-0.4581062861809579,24.30409057330048,11.23083225669488,-9.234686447106832,0.0772183958416683,0.0128230722374961,-0.785537991605922,0.0128100081558084,-0.0065551944512156,0.0051595820540768,-32.92226241226943,-26.70565435856685,-15.89437424429956,3.0779865676300444e-05
174,1724915751304540544,0.0130432806909084,-0.1488641202449798,0.161620020866394,0.0383319035172462,-0.0089446064084768,-0.3843102753162384,0.9223645329475404,0.0,0.0,0.0,-0.2702417493190496,-0.1834875700698642,-0.2264800397611417,0.728117219,0.0454387488139324,-0.0121688845585061,-0.3212463841399697,1.1949234439655527,-6.282612361493333,6.192499932133391,0.077671577407718,0.0129626763823254,-0.7890633079649176,0.0043950690857399,-0.0111933503916183,0.0051313562360686,35.0850899934032,17.10215164590769,-26.513942920917117,6.98630003534582e-05
176,1724915751313459083,0.013053243048489,-0.1489721983671188,0.1616585403680801,0.0382565036416053,-0.0091619566082954,-0.3856019079685211,0.9218263030052184,0.0,0.0,0.0,0.2194813537211651,0.1373357552496109,-0.4637202996562721,0.737035758,0.0051716938329647,-0.0636377899354266,-0.3115303025035917,-0.8752724251197108,4.843473801099514,1.187952068426272,0.0776817149241749,0.0126124307968479,-0.7918776019372599,0.0055842409708343,-0.0110962270162442,0.0014885502011381,27.207005733125847,29.0261983404154,9.293383459002818,4.479736236032101e-05
178,1724915751324219054,0.0131713207811117,-0.1490783244371414,0.1616378128528595,0.0387463308870792,-0.0085637001320719,-0.3870484828948974,0.9212051630020142,0.0,0.0,0.0,0.1525896208193011,0.3594809242170044,0.102240432771463,0.747795729,0.0430030876864904,0.1262708086220552,-0.2974689362605936,6.739793252989563,6.842295442609764,4.1749059021549595,0.0781030400331839,0.0142160464525044,-0.794963230997338,0.009064145243903,-0.0079770297700729,-0.0042185222393174,-21.744935346881775,16.3426520406217,70.46866119995174,-1.919434729313556e-05
180,1724915751335084889,0.0132488561794161,-0.1491443067789077,0.161566823720932,0.0396878384053707,-0.0084254927933216,-0.3881279528141022,0.9207120537757874,0.0,0.0,0.0,-0.254074331046481,0.4898432590147455,1.0640234755066933,0.758661564,0.1516110934171742,0.0820329100142772,-0.2206343564256871,21.414029191920125,8.264202662865324,-9.170279404931744,0.0797161950180178,0.0152936095710348,-0.7972831451547863,0.0088477686948157,-0.0033073552453863,0.0038341882740517,-55.06905953966544,5.306215311329193,56.03794234786915,-6.995649417594912e-05
182,1724915751343893667,0.0133390203118324,-0.1491536945104599,0.1616746336221695,0.0418288446962833,-0.0080884424969553,-0.3897609114646911,0.9199301600456238,0.0,0.0,0.0,-0.8651577241485505,0.4888013986725441,1.3257298606053909,0.767470342,0.4217849169089178,0.2429200100652577,-0.4173962282832979,-1.2597830505584295,-1.37946010031625,-5.393589771908019,0.0833739900169888,0.0177258211087569,-0.8007738817863467,0.0049375062662936,0.0014366464748016,0.0155129537810179,-40.23745710262447,-8.422460830377274,6.597058076946858,0.0001038000934078
184,1724915751354573325,0.0133231505751609,-0.1491059511899948,0.1618826985359192,0.0417603217065334,-0.0081492140889167,-0.3910222351551056,0.919397234916687,0.0,0.0,0.0,-0.9176478838684996,0.2913307098859684,1.09692387960239,0.77815,-0.0051051214449595,-0.0261587871595068,-0.2556162076809564,-50.88434862964952,-25.40730482817886,7.411778735233497,0.0832708882480818,0.0176746190898137,-0.8035178819929023,-0.0097564138945694,0.0060126883300188,0.029670258322719,28.43828736881617,-18.261001556937572,-26.02692638153145,0.0002047057894941
186,1724915751364304064,0.01315488666296,-0.1490337699651718,0.1622617393732071,0.0385758988559246,-0.0081935180351138,-0.3922272026538849,0.9190226793289183,0.0,0.0,0.0,-0.345207906981725,0.1156711657788729,0.8028566297987194,0.787880739,-0.5969955029854581,-0.2752689657838784,-0.2520882862146433,-14.188506142591766,-9.520987042899018,5.328094929039408,0.0774179405787478,0.0152015614756855,-0.806178382614279,-0.0146230648734408,0.0076315491529452,0.0383163746360768,45.65936477764341,6.7299977785158,-11.258111559169812,0.0003808337320167
188,1724915751375357467,0.013026762753725,-0.1489467322826385,0.1626772731542587,0.0373400524258613,-0.0087081408128142,-0.392937034368515,0.9187657237052916,0.0,0.0,0.0,-0.0058600623922737,0.5012199520359177,0.9165044195929064,0.798934142,-0.1682424081859093,-0.1786183601817709,-0.1308481131970711,2.9004444642545373,8.615884451977713,-17.139104833180106,0.0755355496543392,0.0133434922966505,-0.807771465401577,-0.0164935868619967,0.0082735965926659,0.0461148893480594,61.42540186138184,53.43611050448815,-10.18124725882258,0.0004147456146051
190,1724915751384251462,0.012844986282289,-0.1488702893257141,0.1631484031677246,0.0355474799871444,-0.0083504086360335,-0.3949472904205322,0.9179778695106506,0.0,0.0,0.0,0.7603365948952021,1.1092724215441463,0.6795103488258665,0.807828137,-0.3992823046186219,-0.1029053529502087,-0.4844345453856066,-12.772102560202846,1.2163858933141096,-17.898348665537927,0.0719273858485812,0.0127481264361463,-0.8121361166302115,-0.0153765865195254,0.0159027115005203,0.0557760986403241,63.80351567079941,27.039160364780315,-40.08638552975412,0.0004732797890552
192,1724915751393979924,0.0127492565661668,-0.1486378163099289,0.1637208610773086,0.0335302352905273,-0.0082942508161067,-0.3968923985958099,0.9172149896621704,0.0,0.0,0.0,1.143277917635244,0.932547092689724,0.1465149472690323,0.817556599,-0.3830182735270284,-0.1687147965546583,-0.4259697039937373,12.50247857894686,-1.170453317216876,5.974000420257703,0.0681498849557546,0.0114008156421761,-0.816385090466872,-0.0012252057885004,0.0293703841555847,0.058058354144225,-19.78654194547589,-28.200125971493993,-32.07406800209848,0.0005623278297408
194,1724915751404168573,0.0128287002444267,-0.1482801586389541,0.1643040180206298,0.0326466001570224,-0.0085137421265244,-0.398625910282135,0.9164929389953612,0.0,0.0,0.0,0.3105185694910824,0.5381536226893393,0.0620865987867147,0.827745248,-0.1400650094334285,-0.120946891327752,-0.3654833212528641,16.576664573937986,4.701794859838952,8.92592991650112,0.066681376669672,0.0104221810020633,-0.8201838165764566,0.0071008621125976,0.0340506854405395,0.0586112684906847,-62.31728987546103,-17.236235991778663,-6.528525291828005,0.0005595469873651
196,1724915751414214447,0.0128931365907192,-0.1479485183954239,0.1649064421653747,0.0323001444339752,-0.0087209092453122,-0.3997729420661926,0.916003406047821,0.0,0.0,0.0,-0.1231883203448593,0.5776914630628036,0.0139148766234558,0.837791122,-0.0455363045481838,-0.0735800339188998,-0.2462053796297472,6.945143047200239,7.364275717210306,12.682218439917245,0.0661983987893324,0.0098488416156305,-0.8227007591363877,0.0052016558258929,0.0402373253470136,0.059312429806706,-10.411949007885742,-32.471757361394374,-15.73982759548528,0.0005810698539756
198,1724915751424152437,0.0129329096525907,-0.1474776118993759,0.165489450097084,0.0323525667190551,-0.0085846623405814,-0.4002795815467834,0.9157816171646118,0.0,0.0,0.0,0.0954168439316775,-0.1029441707032565,-0.2501071496926266,0.847729112,-0.000745297235047,0.0256512455359665,-0.1122171885682506,-2.0649895730490666,2.3344139895994105,-1.7691490644696533,0.0661800250338297,0.0101769674860383,-0.8237967980440878,0.0046249482134068,0.0456033798697665,0.0589013340973298,35.49465014885692,-19.61151811991204,29.869529672703813,0.0005553784422618
200,1724915751434017693,0.0129846353083848,-0.1470451653003692,0.1660728454589843,0.0319264158606529,-0.0084898974746465,-0.4015474021434784,0.9152422547340392,0.0,0.0,0.0,0.5777646655010387,0.1822357618307897,0.5972488621605097,0.857594368,-0.0854772782086177,-0.0262422100123529,-0.2790297767741459,-9.08731417736914,-1.3343470677823197,-8.170394776370108,0.0653087468170053,0.0100994845725521,-0.8265606850847761,0.0070689790485507,0.0382918754482846,0.0543897504226498,28.99954070453077,35.98318233439679,65.23790384497536,0.0005576678393825
202,1724915751447132201,0.0131091717630624,-0.1466396301984787,0.166703388094902,0.0307240411639213,-0.007730939425528,-0.4029565751552582,0.9146706461906432,0.0,0.0,0.0,0.6112475641265567,0.7774944645743069,1.0927128308736611,0.870708876,-0.2133417561313451,0.0247020015886807,-0.2338304086818901,-42.91661640958487,-40.7171683631859,15.506379906108288,0.0624793849060925,0.0106185816319577,-0.8296005156000776,0.0203996881335004,0.0567798335657023,0.0806076783137541,-44.995278044146175,-112.42313954544824,-167.91242892185818,0.0006041656161371
204,1724915751453467716,0.0132717862725257,-0.1462007611989975,0.1673136353492736,0.028554294258356,-0.0080437436699867,-0.4032918810844421,0.9145905375480652,0.0,0.0,0.0,0.1806509152149523,-0.4177707218142714,-0.6006482692736963,0.877044391,-0.586752062219995,-0.369771963499264,-0.0986786402662143,-29.212711014935547,-39.0514929888498,14.5077221284549,0.0587547580479841,0.008318062315931,-0.8303665874085946,0.0230319695310299,0.0597706078667252,0.0847562877542404,-47.81639391711932,-133.70088875894865,-204.0221954210163,0.0005829600969736
206,1724915751463348913,0.0134587585926055,-0.1457565724849701,0.1679728925228119,0.025878170505166,-0.0090017607435584,-0.4036363065242767,0.9145092368125916,0.0,0.0,0.0,0.0186906334035301,-0.8918914041065225,-1.64174013187416,0.886925588,-0.4172866787476778,-0.3979155805460299,-0.0605017023308314,26.773774056165323,11.715544907515142,1.6282216536771488,0.0546262253085709,0.0044263660835743,-0.8311861661364948,0.0211980087373517,0.0419290749879808,0.0594728888996689,-16.69326114300265,33.0023120346374,3.8356541421170185,0.0006334866534972
208,1724915751473953576,0.0137094594538211,-0.1453463435173034,0.1685211211442947,0.025534888729453,-0.0094646560028195,-0.4039851725101471,0.9143601655960084,0.0,0.0,0.0,-0.1617786245455,0.3797786865305217,-0.3582875010949977,0.897530251,-0.0238339944870367,-0.10792476766271,-0.0686759586610479,-0.1433016737943191,16.430213970793815,-8.99564713164346,0.0543704154399554,0.0033232301135734,-0.8319757327904432,0.0237212806918017,0.0428699250264452,0.0524992365249712,-27.337173043646946,76.70018789632613,90.99958668730712,0.000521884942016
210,1724915751483668928,0.0139406379312276,-0.1448925882577896,0.1690383106470108,0.0238716937601566,-0.0089380228891968,-0.4050246775150299,0.9139503240585328,0.0,0.0,0.0,-0.519216663367134,0.7402994243004284,0.2585412040527788,0.907245603,-0.3567311809245802,-0.0454530972032893,-0.2292779144448958,0.4960413075263812,0.0727748545691771,-5.21225420987405,0.05089752568444,0.002999436799306,-0.8342232504872553,0.0185918025520565,0.049150207469661,0.0516824356454126,3.352638667093452,26.971786262725946,78.58279807862564,0.000491755758973
212,1724915751494355313,0.0140781542286276,-0.1443386077880859,0.1695723682641983,0.023899707943201,-0.0096254544332623,-0.4057789146900177,0.9136080145835876,0.0,0.0,0.0,-0.0115212017623328,0.9093803038737716,1.2757138796679843,0.917931988,0.057168149742615,-0.1194035842428287,-0.1519352580513178,9.359013719102212,-4.687953868191201,-2.6359759355645274,0.0515043944712218,0.001808211458089,-0.8359101049064888,0.0131462213547921,0.0581647327529335,0.0584725577820197,14.919245345731772,-23.92265049030767,25.67519510791809,0.0005083978743124
214,1724915751504575725,0.0142152300104498,-0.1436823159456253,0.170253038406372,0.0229845605790615,-0.0099926367402076,-0.4070883989334106,0.9130448698997498,0.0,0.0,0.0,-0.1775936530314692,0.2763858213803525,0.8586934206742747,0.9281524,-0.1342874466977676,-0.1454980517629628,-0.2753868002982169,-3.5103773135739935,-0.7272867559609963,-10.085998916278587,0.0501286405800501,0.0004660445246702,-0.8387966231371471,0.0178968858863008,0.0681024263114213,0.0777697983998297,-46.72282451529511,-42.71283903282507,-121.81694756288964,0.0006525422206514
216,1724915751513433338,0.0144081823527812,-0.1430492401123047,0.1710276454687118,0.022555099800229,-0.0104272849857807,-0.4085169732570648,0.912412405014038,0.0,0.0,0.0,-0.8253788714002225,0.0456064764002572,-0.8422222879321031,0.937010013,-0.0485266175750709,-0.1379236136482015,-0.3494259527258654,-5.755270925854358,-13.761847257383923,4.568833668456023,0.04969901728438,-0.0005996861754282,-0.8419487529649216,0.0113923123249023,0.065208047638988,0.0774734404092996,9.239205929362804,43.371102993404875,-141.6282750883374,0.0007457598321997
218,1724915751524278361,0.014393750578165,-0.1424252390861511,0.1717353612184524,0.0199330858886241,-0.0120927831158041,-0.4092260003089905,0.9121351838111876,0.0,0.0,0.0,0.368589975086128,1.4378228433585978,-1.7089497898528534,0.947855036,-0.3159263450637689,-0.4812606080727072,-0.1282189408995897,-3.8755223119460727,-2.504272794345477,13.744996045111629,0.0462779809990296,-0.0057462634993258,-0.8435881428182882,0.0012323240682893,0.0706471624497702,0.0576004615087519,132.410494722376,63.18279290488739,-17.53125513557778,0.0006909853934179
220,1724915751533612462,0.0144258439540863,-0.1416604965925216,0.1722114980220794,0.0186314079910516,-0.0128853563219308,-0.4094882607460022,0.9120340943336488,0.0,0.0,0.0,1.7838087856483325,1.5038540721832652,-1.3713820907766263,0.957189137,-0.1851535736792163,-0.2704201421672465,-0.0533626272511643,8.089320868932301,24.4135122586504,5.440265162214048,0.0445540158111806,-0.0082451762810259,-0.8442002659014056,0.0151601397211592,0.0915898152065812,0.0426411249274405,71.01866355089044,-6.805105274291989,52.65939847780652,0.0004564845510738
222,1724915751543585519,0.0147019419819116,-0.1406441330909729,0.1725475788116455,0.0178557224571704,-0.0125747919082641,-0.4096205234527588,0.9119945764541626,0.0,0.0,0.0,1.6332341814004407,1.2880920118384207,-0.6704466150804838,0.967162194,-0.1675699062688685,-0.0074926331643201,-0.0265919413697805,0.9685944826784922,14.77333738516904,-3.2732547109319903,0.0428850533865859,-0.0083082388632593,-0.8444685250698537,0.0360580822190018,0.0987045306600453,0.0314286318893399,-70.24941220627295,-47.45350803868771,46.44688179500041,0.0003027575148348
224,1724915751555019115,0.015223978087306,-0.1395576149225235,0.172877162694931,0.0170179344713687,-0.0121199321001768,-0.4103721380233764,0.9116787910461426,0.0,0.0,0.0,0.1071063148451281,0.4070914191729553,-0.4518350859402213,0.97859579,-0.1669100136431369,0.0094918462703842,-0.1421088233351165,-34.46925415986159,-20.512871852312895,6.902022891822046,0.0409899770242498,-0.0081316873985671,-0.846087400966297,0.0486732149637891,0.1209652170683242,0.0297118568386736,560.441999552479,1354.1795932016043,223.44368531140077,0.0002875617948735
226,1724915751563389365,0.0156498607248067,-0.1383861750364303,0.1731312870979309,0.0139618422836065,-0.0121089713647961,-0.4103494584560394,0.9117411971092224,0.0,0.0,0.0,9.050242452561,20.5120110148618,2.6704680105845524,0.98696604,-0.6669955040657098,-0.2970042946076169,0.0198654259536011,-37.64779469991634,-24.54061166853253,13.977266924500142,0.0354063875017975,-0.0106222270084211,-0.8460163550058892,0.0434651552675755,0.1149369331529805,0.024081274362071,-433.87815371583224,-701.4607500149934,-140.61546645847034,0.0002214848094809
228,1724915751587232639,0.0161825660616159,-0.1373447626829147,0.1732789874076843,0.0129675725474953,-0.012467716820538,-0.410497635602951,0.9116842150688172,0.0,0.0,0.0,-103.3314783063563,-206.99464820156936,-35.56830158229195,1.010809314,-0.0637751656531711,-0.0618908190963087,-0.0118635911741778,8700.89909707528,-451.01524445973473,-4406.1458656009145,0.0338895607613969,-0.0120872198293838,-0.8463500204158979,0.916199042407289,2.0460880766404443,0.3148189962048491,-11872.0111145782,-26454.99340490421,-3933.6175789843473,0.0001158592366616
230,1724915751587790213,0.0167050696909427,-0.1361778080463409,0.1734585464000702,0.0141853876411914,-0.0131005914881825,-0.4111233055591583,0.9113752245903016,0.0,0.0,0.0,-110.04434369387864,-221.96579380724515,-37.7919631886029,1.011366888,4.900739751516903,-0.3193744843872848,-2.5260496699398196,7993.985903186583,-427.45635344599566,-4070.146536637168,0.0366392687376688,-0.0122155259002222,-0.8477639905217219,0.8567595134863127,1.926918209190021,0.2943642746644115,-10703.519710728768,-24097.140077070515,-3533.8182987137434,0.0001432508178643
232,1724915751593404185,0.0169735699892044,-0.1347430199384689,0.1735469549894333,0.0090945353731513,-0.0131684131920337,-0.4126443564891815,0.9107516407966614,0.0,0.0,0.0,-94.62251294401727,-201.61322718481912,-31.952526070085337,1.01698086,-1.6469175247373602,-0.7782457934357065,-0.5610867708096111,-714.4306305429809,-47.996679089385154,239.87337741759092,0.027440638824826,-0.0164814366026871,-0.8510526075418094,0.044500285417782,0.2152400607601619,0.0196426312375708,4905.035966417477,8945.974615109713,1730.8622394608838,7.173231342947565e-05
234,1724915751603897257,0.0173752661794424,-0.1332755535840988,0.1738294512033462,0.0064239217899739,-0.0155136911198496,-0.4136662185192108,0.9102737903594972,0.0,0.0,0.0,-0.8298038817478042,-3.3910515533730985,-0.2440285390688902,1.027473932,-0.2808730322699838,-0.620135883318677,-0.2042009909862027,85.67848851845285,19.681407507874457,23.24614726992026,0.0245389483789925,-0.0229307034731578,-0.8533641448792589,0.033480636352941,0.1253430523518517,0.0174395805513176,5082.39569989072,10896.142325257571,1716.6011341976389,0.000270529546509
236,1724915751617803864,0.0177523754537105,-0.1317998468875885,0.1738972067832946,0.0062523381784558,-0.0174245033413171,-0.4141695201396942,0.91001158952713,0.0,0.0,0.0,-1.2219551482035775,0.7915123362914649,-0.4284779428003717,1.041380539,0.0903350031096291,-0.2614068982043567,-0.0793391367388291,-143.45773747942815,10.314174173682954,-56.40355520179838,0.0258247587374429,-0.0265370586833966,-0.8545591335968655,0.0260026071519716,0.17358594302598,0.0134179363768858,-35.473624547458186,-282.0991112909546,20.55045922640093,5.8303605503678034e-05
238,1724915751624154005,0.0179142635315656,-0.1305019110441208,0.1740071922540664,0.0021736433263868,-0.0163796637207269,-0.4160543382167816,0.9091897010803224,0.0,0.0,0.0,-1.4683117683481774,-2.6899467857042696,-0.1999311708561235,1.04773068,-1.314019201834356,-0.2408010920557051,-0.6270950193057245,-87.6316118976322,-2.666228295218879,-23.234785968852677,0.0175899599223505,-0.0279793861018056,-0.8585749869142998,0.016259012459878,0.1708481996878914,0.0102931531994565,35.08780044306428,-356.472191665162,95.63640534063322,0.000117371182793
240,1724915751633738092,0.0179365128278732,-0.1293497383594513,0.1740041971206665,0.0004978610668331,-0.017469672486186,-0.4158050417900085,0.9092857837677002,0.0,0.0,0.0,-0.0633066890469254,-3.332356218940598,1.5794292531090246,1.057314767,-0.2224993479150642,-0.3518593975646766,0.0618632537055971,57.67022488147426,-16.583674921750028,36.09537691912138,0.0154415579622064,-0.0313609637785165,-0.8580374422821879,0.0031424098619828,0.1123937703755997,0.0126029384422761,133.98845874717748,108.61487144159396,119.16055905148046,1.1986168974087543e-05
242,1724915751643593383,0.0179758016020059,-0.1283213496208191,0.1742592900991439,-0.0016694975784048,-0.019546739757061,-0.4155779182910919,0.909346044063568,0.0,0.0,0.0,1.1294044096608793,-0.4819227842627578,2.079897025655311,1.067170058,-0.2238707287667506,-0.5659255702977571,0.0548890621668596,32.31504958863426,23.66363108861171,-12.289976187407298,0.0132194906461365,-0.0369455179562864,-0.8575763484547172,0.0157463783432897,0.1075912115636787,0.0417325206160477,74.19105242299572,262.4064232354777,61.44662613292007,0.0002733845485119
244,1724915751653532151,0.0182501692324876,-0.1272195279598236,0.1748329102993011,0.0005143333110027,-0.019859904423356,-0.4163652658462524,0.908980429172516,0.0,0.0,0.0,1.397383583706413,1.8572349455345685,2.7974955002945627,1.077108826,0.4225879564455979,0.1241491380408362,-0.1833471636783607,59.65231428138622,63.9121928523594,-21.97768268456198,0.0174850078930214,-0.035683800255447,-0.8593806558927155,0.0254728421641786,0.1028554651847759,0.0536256997363882,-142.4421639751805,-1217.9622896144635,-1500.949167540626,0.0005803356061253
246,1724915751770994777,0.0182812046259641,-0.1262515038251876,0.1754543781280517,-0.0032498138025403,-0.0202210191637277,-0.4163492619991302,0.9089740514755248,0.0,0.0,0.0,-250.51054397717095,-2158.774366751411,-2357.430838173499,1.194571452,-0.0556919152943963,-0.0322762199176328,0.0014784799306766,-101207.839841174,-26637.675059331246,396.1229422220846,0.0109387605674338,-0.0394771316020607,-0.8592606876412724,0.7709345543253647,3.5608018565725956,2.6046030678435272,-464463.6361149691,1382935.0214768834,1643048.6632083245,0.0006419082612969
248,1724915751771243126,0.0184730701148509,-0.1253653168678283,0.1761025935411453,-0.0064437496475875,-0.0196676924824714,-0.4163965284824371,0.9089476466178894,0.0,0.0,0.0,-366.1023778367669,-1814.5880277472716,-1948.5080637642384,1.194819801,-25.243697763599062,-6.661702383091626,0.1000623863702913,-28127.069279148363,-10477.131400915758,-386.1070285500127,0.0046690215494273,-0.0411317124726726,-0.859248927221665,0.7085856409178994,3.023523415378662,2.017888234491295,-494296.84775515774,1738414.2426839122,2508466.255366917,0.000666725597647
250,1724915751771601463,0.0186939034610986,-0.1245635524392128,0.1765194833278656,-0.0061746505089104,-0.0201909989118576,-0.4164571762084961,0.9089101552963256,0.0,0.0,0.0,-558.1466870811856,-1009.3861594354272,-603.9977093833768,1.195178138,2.573363196211485,-2.0313435079699556,-0.443166509449179,12985.475397454666,-11837.0302082769,-11728.129653949669,0.0055979003746861,-0.0418587857396204,-0.859411467944544,0.5179132444666443,2.553638223878721,1.5336943375879173,-249959.3436595808,1018126.246309723,2300587.0716103376,0.0004320313409173
252,1724915751771927305,0.0188335180282592,-0.1236377879977226,0.1771289408206939,-0.0088764922693371,-0.0213186293840408,-0.4175619482994079,0.9083549380302428,0.0,0.0,0.0,-554.8619958939208,-1041.7608681002296,-284.4391259678623,1.19550398,-12.34866184508453,-13.224231298358324,-7.290482059136598,-31030.17911369815,-21954.056526845117,-13388.704839521994,0.001679475341518,-0.0461591252161922,-0.8618049168001457,0.32832919873902,2.3141912489699905,1.558285269395597,29215.04408873539,-9117.628856405325,701027.7240846928,0.0006358461112496
254,1724915751772740370,0.018897296860814,-0.1228252947330474,0.1777626872062683,-0.012673357501626,-0.0222218092530965,-0.41860231757164,0.9078093767166138,0.0,0.0,0.0,-492.28797927292726,-866.0945159416532,-281.89587599178003,1.196317045,-7.622489357474244,-5.92383174152223,-2.7055729056345945,6434.571789971186,6059.9726696257985,5207.356205192476,-0.0044115292703765,-0.0509786050768934,-0.8640009122848694,-0.0681002176300005,0.8445174451288437,0.5968292842447909,-189597.8843364655,471346.5163355516,312842.28499312,0.000664831619816
256,1724915751773708954,0.0186622478067874,-0.1221859008073806,0.1781300455331802,-0.0136826178058981,-0.0235786698758602,-0.4177787899971008,0.9081397652626038,0.0,0.0,0.0,-983.4980015187232,-114.9871556290841,378.48197567641864,1.197285629,-0.6726180932611762,-3.4222009175455788,1.8400863021029688,3723.946249005262,706.0257129590855,-4027.8067871622497,-0.0051577427711285,-0.0542847278723455,-0.8622002488806525,-0.5503616141660217,1.0919562420321824,1.3629608216564293,-586386.2800577735,-203081.7820858792,-503277.4931142875,0.0004026779530848
258,1724915751774084295,0.0184109210968017,-0.1217132359743118,0.1787846982479095,-0.0139093669131398,-0.0241831801831722,-0.4179291129112243,0.9080511927604676,0.0,0.0,0.0,-1215.1188618976798,-333.54268710859105,17.21178936257502,1.19766097,0.2231324882912395,-3.430173772883764,-0.9401731751423128,28097.784466290523,-4464.537790826374,2246.69029692233,-0.0050549498619113,-0.0555739919746788,-0.8625469952939583,-0.9901386150361696,0.9949145355788572,1.4450225045617913,590063.9910852017,252854.8357629811,2032938.52668152,0.0006832439660215
260,1724915751774461231,0.017916364595294,-0.1214382946491241,0.1792161464691162,-0.0109443273395299,-0.026954922825098,-0.4172046482563019,0.9083468317985536,0.0,0.0,0.0,-535.7474149614968,77.89947905570148,1917.3906615079825,1.198037906,20.546892183812805,-6.7949742441922,3.5610813681386384,-24534.703450317844,-12723.128754159605,7414.290483311721,0.0026133657467121,-0.0581336243838799,-0.8611994095742084,-1.4646064722818508,0.84079999196382,1.375264958142111,2746099.877353294,1011604.8255585944,3854983.138463583,0.0004620697991036
262,1724915751774878488,0.0172347798943519,-0.1210360154509544,0.1798965185880661,-0.0170893091708421,-0.0273133255541324,-0.4164459705352783,0.908589482307434,0.0,0.0,0.0,1045.9906632520012,463.0755534391765,2978.0441391540517,1.198455163,-25.92714680598691,-13.857318431967167,4.563578124240596,-20694.28626697601,-2185.865409645725,-6921.720743935589,-0.0083223709378674,-0.0639102467627834,-0.8592752402669306,-1.35420274076165,1.0981345936705225,3.146415165049291,1292777.3645194615,-7805.030045456952,-2460728.819188007,0.0007247314245676
264,1724915751775156067,0.0169104542583227,-0.1207064464688301,0.1810498088598251,-0.0196535736322402,-0.027929101139307,-0.416357159614563,0.9085595607757568,0.0,0.0,0.0,943.5569947305394,289.00668780962314,1371.2066155115158,1.198732742,-14.92556767620252,-11.742241281255902,0.9204397873251344,46254.30106193165,18194.59408356678,-5711.744797536246,-0.0124843959212583,-0.0671668070229237,-0.8589851538310908,-0.919566084538186,1.1983011611314112,3.739150163633155,-1663855.6066278107,-609349.0588932377,-3877812.031360518,0.0011811865815111
266,1724915751775542368,0.0166890043765306,-0.1202376261353492,0.1822707802057266,-0.018449030816555,-0.0282712019979953,-0.4158516824245453,0.9088056683540344,0.0,0.0,0.0,-395.30216600675294,63.15577831090877,900.5419596436241,1.199119043,6.5016111806821195,0.97147120889351,2.699239626374584,18495.262174697797,8477.844114834988,-3419.801004986205,-0.0100424662346492,-0.0667798017502989,-0.8579443450548857,-0.8895980768269283,1.2713170209332247,3.858026743164203,-2012707.274537608,-436351.1116259665,341816.75090379734,0.0012529144454561
268,1724915751775780083,0.0164312589913606,-0.1199269741773605,0.1832899004220962,-0.0178874470293521,-0.0286044310778379,-0.4157549142837524,0.9088507890701294,0.0,0.0,0.0,-661.1868061867106,-18.87813412494077,1210.0249933680911,1.199356758,5.489873063864764,-0.5873804801820398,0.7124713065578623,-4149.875300487525,-6357.770620201061,-8103.203368889088,-0.0087488678650751,-0.0669178393269234,-0.8577733598677209,-1.0527404516562944,1.2679196204338663,4.158816020294477,-1081238.4414952106,-334878.65241563297,1255748.5388392855,0.0010438574061328
270,1724915751783310049,0.0160228032618761,-0.1196594461798667,0.1839947402477264,-0.0206066481769084,-0.0306031126528978,-0.4143193364143371,0.9093835353851318,0.0,0.0,0.0,85.2605230866537,-104.0203867445018,-344.27699952526024,1.206886724,-0.4222576999591036,-0.7855186821459341,0.4165351792898271,-486.4052195614876,-0.8951142904417102,-37.54296851450355,-0.0121522568050007,-0.0727996860084883,-0.8545674251606798,-0.042826123536625,0.0318491501088056,0.0774110851972613,60448.410516644246,-4256.499224066696,-121199.13588567794,0.0007354918599103
272,1724915751796353651,0.0157221779227256,-0.1193271502852439,0.184638574719429,-0.0213019736111164,-0.0318840034306049,-0.4144905805587768,0.9092454314231871,0.0,0.0,0.0,-0.2696879660984375,-0.2353938844714118,0.2687527122963917,1.219930326,-0.0168214498055812,-0.2228840468507001,-0.0334357779959031,-39.052418153663616,19.288175814944207,-11.790540474583738,-0.012341875438842,-0.0757120171181279,-0.8549689790735077,-0.0346613961871808,0.0337247372423323,0.0547345252043012,-2624.4534886630004,3131.725230525004,10510.451710488962,0.0006757181805624
274,1724915751805004171,0.0153557108715176,-0.1189880892634391,0.1851428896188736,-0.0246239900588989,-0.0312855243682861,-0.4145951271057129,0.9091346263885498,0.0,0.0,0.0,-0.4099929626806071,-0.8257768193398438,-0.0547593524262044,1.228580846,-0.7570148246895477,-0.1928406692711905,-0.0051599543838815,-29.156232705777896,19.83861394016832,-16.28419779334252,-0.0188890353558308,-0.0773806794221092,-0.8549875811381429,-0.0421326737296327,0.0295130486335617,0.0685751522743096,-10.94399942757414,-29.185426169431075,-115.68278310291008,0.0005400568420534
276,1724915751813844073,0.01498534809798,-0.1188146620988845,0.1858419179916381,-0.0263699237257242,-0.0298712700605392,-0.4159865975379944,0.9084974527359008,0.0,0.0,0.0,-0.4590831857449911,-0.7309017526707496,-1.7845640166442565,1.237420748,-0.5051762646631356,0.1303682356277877,-0.325740264721902,38.68745968666048,17.75987631136029,-4.142323590738653,-0.0231312571999365,-0.076288994144231,-0.8578993537190016,-0.0416586249506207,0.0191517818048545,0.053143146096418,-28.965872264222437,20.682266898275586,-82.26163263673351,0.0007214047214581
278,1724915751827207980,0.0144334360957145,-0.1185681521892547,0.1860281825065612,-0.0251344591379165,-0.0305034536868333,-0.4143136441707611,0.9092755913734436,0.0,0.0,0.0,-1.3191894250985214,-0.2534909363995841,-0.5924617959110074,1.250784655,0.2178837438843859,-0.0121629351645115,0.2678847715062682,-31.402077081615765,-31.49967457142018,9.917048729244977,-0.0204934756813362,-0.0763734152461154,-0.8543061797737217,-0.0581521193446554,0.0182977207641599,0.0285096548870598,66.94377504843177,-8.505157335068532,38.023280845555384,0.0002223018688749
280,1724915751835400945,0.0138723459094762,-0.1184189841151237,0.186334952712059,-0.0275391228497028,-0.0310858357697725,-0.4136773347854614,0.9094759225845336,0.0,0.0,0.0,-0.1112025124908342,-0.5453285465295119,-0.538006188871047,1.25897762,-0.468882346013256,-0.3748858433374413,0.1758321282273984,-32.54949959826436,-26.59914984933431,-6.523140053634563,-0.0244528179533383,-0.0794116984827897,-0.8527923670259979,-0.0693871699005241,0.0152686351086046,0.0299383131330586,165.17486232842572,-29.75706669177139,-21.678720914442145,0.000335962498142
282,1724915751844063179,0.0132630299776792,-0.1183136329054832,0.1865255534648895,-0.0294632446020841,-0.0323091745376586,-0.413021057844162,0.9096711277961732,0.0,0.0,0.0,1.48198537194456,-0.7493915509286506,-0.9852067079381976,1.267639854,-0.2812434268924469,-0.4434347737648064,0.1624854060803599,19.28708432149139,7.012956284455923,-6.804593720686229,-0.0270117316553482,-0.0832153356208106,-0.8512813706667698,-0.0588099366662276,0.0089365621836021,0.018753707886761,98.683752491292,-1.5940708578135556,-1.5410641669488427,0.0002193178302955
284,1724915751854310827,0.0128001682460308,-0.1182611584663391,0.18667833507061,-0.030395220965147,-0.0329553894698619,-0.4128757417201996,0.9096832871437072,0.0,0.0,0.0,1.4598810424395103,-0.4994558409422337,-0.3938019599116603,1.277887502,-0.1123844840358822,-0.1906110661797302,0.0289400547948411,18.998130920275575,20.835459089297206,-4.1750619523146355,-0.0281929769482489,-0.0851597277961508,-0.8509298126454001,-0.0404599889434003,0.0010340681088836,0.0123671848308912,-26.07089784844017,45.34534119623151,45.37139429725875,0.0001726321833121
286,1724915751863855138,0.01245585270226,-0.1182876154780387,0.1867737770080566,-0.0300602819770574,-0.0332377403974533,-0.4125631749629974,0.9098260402679444,0.0,0.0,0.0,0.998475877280856,0.1196152362684493,-0.0704554349174555,1.287431813,0.0913432138383186,-0.0258494903707888,0.0678217408382704,10.018837748332254,10.202048065907162,-0.0095354895728368,-0.0273770713806171,-0.085388380000486,-0.850273645121266,-0.0294667144093239,-0.0013177197005926,0.0106479560454699,-41.082483743412055,54.45449741213063,-6.836676591704002,0.0001051701508208
288,1724915751875200960,0.012210663408041,-0.1182829514145851,0.1869033277034759,-0.0298054628074169,-0.0333853773772716,-0.4124871492385864,0.9098634719848632,0.0,0.0,0.0,0.6302930295329012,0.5970651350065741,-0.6971633132777872,1.298777635,0.0522488063872553,-0.0053299218162613,0.0126399848549044,-6.609324431869762,2.8391119468589503,2.741928046453487,-0.0267966802012796,-0.0854449435253196,-0.8501280958409614,-0.0202063181516994,0.0049760956023812,0.011327819946322,-23.3695829827028,-1.6498036877058269,-36.41329008311092,0.0001382800654142
290,1724915751884966949,0.0120251327753067,-0.1181959807872772,0.1870131939649582,-0.0299325343221426,-0.0331539995968341,-0.4120387434959411,0.9100708365440368,0.0,0.0,0.0,0.4784052677832854,0.2133413018199104,-0.8945413644362145,1.308543624,-0.0388915652139578,0.0310597988934887,0.103350899541285,27.152253084133,-0.0816107071062992,19.731063850073756,-0.0272620429086813,-0.0851144348600402,-0.8491235851597968,-0.0156135957719469,0.0111629410375098,-0.0018448323063946,-7.007652965489463,-51.27196145552364,47.24628541097762,0.0001231617225104
292,1724915751894380353,0.0119088608771562,-0.1180704161524772,0.1868770122528076,-0.0276542976498603,-0.0341802760958671,-0.4103065133094787,0.9108873009681702,0.0,0.0,0.0,0.4899735439180758,-0.3780044534278688,0.1622817729467031,1.317957028,0.5477490696525947,-0.0042585051036715,0.3838389250188523,5.053107114751631,-1.187040377876161,-2.0803104053541324,-0.0224140324712079,-0.0850647870502375,-0.8454974747576915,-0.0110364236813031,0.0093587936518932,-0.006143507811382,9.289163882471817,-30.47919276926232,68.49355351119483,-0.0001212058582316
294,1724915751904120970,0.0118146166205406,-0.1180193722248077,0.1869010627269745,-0.0275535937398672,-0.0341695807874202,-0.410116970539093,0.9109760522842408,0.0,0.0,0.0,0.6616966216200105,-0.3489255890991292,0.3882406339201372,1.327697645,0.0197676466671734,0.0100308970422835,0.0422809005587624,-31.309070426641465,-3.376007562172801,-18.506153685745513,-0.0222563821988316,-0.0849578976817249,-0.8450863556471482,-0.006226146324646,0.0037985658431898,0.0016756041263317,7.903133698438392,14.651021102817118,-6.4706364860887,3.168812979473137e-05
296,1724915751914195428,0.0117878317832946,-0.1179961264133453,0.1869096755981445,-0.0279742572456598,-0.0343892946839332,-0.4099861681461334,0.9110138416290284,0.0,0.0,0.0,0.6399692637444526,-0.0797709170289117,0.0139172266226534,1.337772103,-0.0570939472945041,-0.0744433438733075,0.0283838371002297,3.005050872649353,-1.891806274320311,-1.800529381883012,-0.0228574731149831,-0.0857012338020502,-0.8447824568734854,0.0021891419414577,0.0025955068934848,0.0012680180461934,101.4844419395045,24.05534307839659,-60.05516226962938,1.148324434007208e-05
298,1724915751926106652,0.0118821784853935,-0.1179611533880233,0.1869305968284607,-0.0272909756749868,-0.0347328148782253,-0.4099533557891845,0.9110363125801086,0.0,0.0,0.0,3.308337338499332,0.1692803624449478,-1.0239035408182648,1.349683327,0.1284627841320466,-0.0055344102519938,0.0010071168025641,10.753696927983524,4.350928205697662,-1.81598196128795,-0.0213284803596259,-0.0857668762151733,-0.8447689745870888,0.0070610116172688,0.0022036645292867,0.0021995394971032,3470.4297421036345,-3531.7233806987615,3051.168042435872,1.971492125224451e-05
300,1724915751961958646,0.0120425457134842,-0.1179611906409263,0.1870572715997696,-0.0274235103279352,-0.0347605571150779,-0.4101520180702209,0.9109418988227844,0.0,0.0,0.0,478.05699022513704,-509.8221442880376,447.0269224702066,1.385535321,-0.0066299019352402,-0.0043213651645302,-0.0120410373692006,-10406.769740458223,-13634.544368833793,10508.922120943987,-0.0215293197042929,-0.0859310274511541,-0.8451988968206829,0.4385435283623167,0.0300900809312452,-0.153440354780173,-799282.7009399623,200216.6667822676,-206963.07069888012,0.0001196267470178
302,1724915751962274049,0.01218206807971,-0.1179516166448593,0.1870084404945373,-0.028199266642332,-0.0351553596556186,-0.4096725583076477,0.9111186861991882,0.0,0.0,0.0,223.70630458963888,-446.078192750865,381.1412093583344,1.385850724,-3.317821659366616,-4.34252962639587,3.331664796181447,1012.863270410695,-2746.4150638228584,1367.8394267160882,-0.0226696052641769,-0.0872771019630827,-0.84411385209968,0.5906172149945768,-0.1321261220380165,-0.0111943046781561,-1029016.9480803811,444489.1210835904,-418632.33923050127,-5.35793485701895e-05
304,1724915751962545633,0.0123771401122212,-0.1180254966020584,0.1870389878749847,-0.0283899027854204,-0.0354409851133823,-0.409473568201065,0.9111911654472352,0.0,0.0,0.0,-107.81063015421437,-268.6794342806334,218.399409800254,1.386122308,-0.3508292817425718,-2.5141424333512403,1.543859853144216,8675.449668929354,5350.447363865096,-5041.658548638409,-0.0228030691814361,-0.0879501967412611,-0.8436774982983248,0.5909329114082382,-0.2373166704575595,0.0759813981308568,-1027430.5869620187,602123.8432972493,-546875.8582727117,1.639100936399356e-05
306,1724915751963470040,0.0125227253884077,-0.1181356385350227,0.1869943886995315,-0.0285318288952112,-0.0363371409475803,-0.4087086915969848,0.911494791507721,0.0,0.0,0.0,-449.52560740086255,127.21791792826556,-122.4002122465422,1.387046715,0.5914239169211386,-1.9161218712646044,1.7327083737182174,953.5076398936088,614.8591211750303,184.1227539603887,-0.0224025179520002,-0.0896848219886362,-0.8420296589799097,0.1483926029278491,-0.1123806383009865,-0.0449253628537971,-344732.7420135407,401139.1986012075,-345243.37676479126,-5.965761939796172e-05
308,1724915751977441792,0.0126748094335198,-0.1182765513658523,0.1870679855346679,-0.0286992844194173,-0.0369967594742774,-0.4083908498287201,0.9116054773330688,0.0,0.0,0.0,-2.380921273642712,2.183181338903158,0.672458470879086,1.401018467,0.0188472450754722,-0.0965843052720484,0.046123651092411,-3.941424845431347,46.77121509954383,-34.804576311656916,-0.0222002859982838,-0.0910195716398087,-0.8413525661108956,0.0346722986875855,-0.0105196981479078,0.0174417832381195,9677.486106843826,-2913.0852724807446,2381.2173238131054,5.4949241150095225e-05
310,1724915751983294176,0.0129360370337963,-0.1183391809463501,0.1871999055147171,-0.0285068769007921,-0.0371689982712268,-0.4082376956939697,0.9116731286048888,0.0,0.0,0.0,-0.4745708418620861,-0.0685831407242793,-1.1480425531203509,1.406870851,0.0865795020612399,-0.0274516835891522,0.0530323107970448,-0.261038358599734,6.836803770644687,4.0116401061365,-0.0217222575785316,-0.0911733792795138,-0.8410374741435228,0.0348543456048675,-0.0102629595879077,0.0120831544940882,216.846075073454,-251.2652533301435,-175.3921262854777,0.0001145612685386
312,1724915751994139482,0.0131174502894282,-0.1184416711330413,0.1871207654476165,-0.0294176172465086,-0.0370676629245281,-0.4075016379356384,0.9119775295257568,0.0,0.0,0.0,-0.3113310209171747,-0.11066269781139,-0.3233829397016606,1.417716157,-0.1540999137558809,-0.0533101155753262,0.153440035802329,1.64141953913514,-5.243182611363602,6.156344014876588,-0.0235472754083635,-0.0917137252638173,-0.8393536165619739,0.0195444249453808,-0.0132668183853681,-0.0050386882371284,57.83855649764648,24.483816466552277,78.88693340863907,-9.529696471915052e-05
314,1724915752004454878,0.0133466981351375,-0.1186159700155258,0.1870909482240677,-0.0292832143604755,-0.0378796085715293,-0.4065849781036377,0.9123575687408448,0.0,0.0,0.0,0.7050950342849098,0.4201854758866709,0.5183151476881579,1.428031553,0.0966710107630341,-0.1354452260717165,0.1865119408867462,9.645214634171872,-1.538964516278572,1.3208044382088977,-0.0227312839384758,-0.0930660123062835,-0.837389514593603,0.0271286980674976,-0.0127766130456423,0.0039422026359758,64.2372354235636,44.51663155276064,26.68191893807598,-5.4749367471859704e-05
316,1724915752013533878,0.0136321932077407,-0.1186990439891815,0.1871813386678695,-0.0292180720716714,-0.0383852161467075,-0.405800461769104,0.9126877188682556,0.0,0.0,0.0,1.0142395557871766,0.76885505949685,0.3217506344191588,1.437110553,0.0670537578457111,-0.0980892662973446,0.1834387308138168,3.435245114457235,13.149688432831752,-2.5946896884723634,-0.0222805026497317,-0.0939188566059365,-0.8356970326458948,0.0332893879997856,-0.0059838684695758,0.0058327110236406,20.147025399404487,-2.6191224068441645,-6.031634762910109,6.971719522284545e-05
318,1724915752024354317,0.0140161756426095,-0.1187229603528976,0.1871912777423858,-0.0279503017663955,-0.0379900857806205,-0.405162364244461,0.9130274653434752,0.0,0.0,0.0,1.0529413147606537,0.2114852844621148,0.4579045295841144,1.447930992,0.1905938476912473,0.1607124572672593,0.1262674020956184,-9.42907921075633,-8.34958856250979,8.516073579224349,-0.0203421875417261,-0.0921511709224434,-0.8343624727426323,0.0485927340563856,0.0026020782829494,0.0107781619224844,-59.75266300136558,-61.17548441292837,-14.92157829173864,-1.000292838281234e-05
320,1724915752033759489,0.0145803401246666,-0.1186591461300849,0.1873732507228851,-0.028647432103753,-0.0385972745716571,-0.4037796556949615,0.9135926365852356,0.0,0.0,0.0,-0.0267615273802763,-0.4428893858722154,0.0927139205661688,1.457336164,-0.0685076627307747,-0.1816037464904825,0.3191754345695705,14.865923159849128,-11.233589612899925,4.213281663181904,-0.0212696683110058,-0.093796344603365,-0.8313123519478515,0.0555417158679145,-0.0001667916763796,0.0150918418048764,-76.06928198740542,-28.65826849945331,-16.480908788418954,0.0001597257939401
322,1724915752044410575,0.0151183307170867,-0.1187447756528854,0.1874826550483703,-0.0257505998015403,-0.0398538000881671,-0.402839332818985,0.91403990983963,0.0,0.0,0.0,-0.3698242085324001,-0.2545788976598557,0.1867344755003641,1.46798725,0.6014393708903096,0.0022636532822599,0.1674694646138984,6.075163258565559,7.640686682924167,-10.9414462085877,-0.0150313520291381,-0.0937398608111335,-0.8295214564187874,0.046021871660699,-0.0066751469229524,0.0116654102055946,-0.5808995190102999,18.874692691879464,-2.4418101715877274,7.409698009423939e-05
324,1724915752055031282,0.0155595801770687,-0.1188012212514877,0.1876213103532791,-0.0254969261586666,-0.0400690175592899,-0.4024046063423157,0.9142290949821472,0.0,0.0,0.0,-0.0410372319049461,-0.0414633176713542,0.0414559534861799,1.478607957,0.0641695565326553,-0.0184888553137394,0.0862309314268356,-67.82453096375646,-8.984946911072406,-10.595080968354509,-0.0144362760395106,-0.0939227129861818,-0.8285987860170315,0.0476431020868262,-0.0056037689257859,0.0190331716357814,54.30556696833892,-8.92087512538044,-42.71601018498441,0.0001103046261659
326,1724915752063472289,0.0160026382654905,-0.1188504621386528,0.1878220736980438,-0.0281408932060003,-0.0395575910806655,-0.4025821089744568,0.9140958189964294,0.0,0.0,0.0,0.5739926823469459,-0.311227567168578,-0.5139106519935446,1.487048964,-0.6239782660294042,-0.1414992354511649,-0.0229659745810217,-31.790247063989405,-5.028686214936779,-6.39178532276113,-0.0196868495000542,-0.0951202718739862,-0.8287732429232518,0.0459973397488546,-0.0069086678996317,0.0150073132334043,49.51045340249543,-14.333214971328156,-15.492006671923145,0.0001737128017436
328,1724915752077750581,0.0165026187896728,-0.1189750730991363,0.1878243684768676,-0.0272991117089986,-0.0397908017039299,-0.4022644162178039,0.914250910282135,0.0,0.0,0.0,0.7169205294822714,-0.0901837967778693,0.4797952382051524,1.501327256,0.1233042353990279,0.0172155317190464,0.0438395564376054,65.03602348483139,-4.627046555092927,13.21302273605803,-0.0179854577665086,-0.0948626889360515,-0.8281489968329955,0.0727652371068097,-0.0151356108454283,0.0067766340340007,-210.79311220508256,51.320540356863944,1.1896266253832977,-3.332152596745908e-05
330,1724915752083716644,0.0170308426022529,-0.1190813481807708,0.1878812909126281,-0.0258949100971221,-0.040565937757492,-0.4018028080463409,0.9144607186317444,0.0,0.0,0.0,-1.0911180073292623,0.3053407823640719,0.3163655845903462,1.507293319,0.5429703289228845,-0.0496345920287715,0.1439439344239522,28.5680841872809,-6.929255086869915,5.497227267224429,-0.0148283480190032,-0.0951446931655524,-0.8272816432377873,0.0741561709784099,-0.014462114933706,0.0122721960113887,-212.91757693152724,33.099629929892046,-50.03355443805678,1.9963159917997957e-05
332,1724915752093551348,0.017526987940073,-0.1191692501306533,0.1880462616682052,-0.0253340452909469,-0.0410717539489269,-0.4016993045806885,0.914499282836914,0.0,0.0,0.0,-1.7238158206951617,0.0926927453390762,-0.5427432187872773,1.517128023,0.1466896271723572,-0.0484626285957969,0.0151087389896074,-29.51823948253769,-12.462383087937036,10.831979077492973,-0.0134005558700766,-0.0956191572467419,-0.8271255789564301,0.041956552517362,-0.0083391447173681,0.0055790436851435,66.29998408674106,-41.59947515791261,-4.2433495402384835,0.000130056587808
334,1724915752104034163,0.0178719256073236,-0.119249977171421,0.1879796534776687,-0.0262952465564012,-0.0424622073769569,-0.3997660875320434,0.9152554869651794,0.0,0.0,0.0,0.430842208640896,-0.5666055594482708,0.3414319225626292,1.527610838,-0.0423388885985118,-0.3196851458359139,0.3960662644048893,2.9014794706630145,-4.617120769948707,6.725862438250841,-0.0142539882929168,-0.098912642152662,-0.8229078390529685,0.0412082112834147,-0.013288322652242,0.0014295340434351,129.77498879861255,-27.106000867180565,76.06368058314229,-9.246147590379443e-05
336,1724915752115153875,0.018428087234497,-0.1194636449217796,0.1880873590707779,-0.0253860745579004,-0.0435830019414424,-0.3990736007690429,0.9155306220054626,0.0,0.0,0.0,0.9802085635265922,-0.4458949814284497,1.0895550857300809,1.53873055,0.2368441877723781,-0.1203059056214257,0.1215346132579757,-38.32067885397993,-14.44473650226662,-7.029666730435414,-0.0117570856546835,-0.1002327188023799,-0.8215322968550144,0.0519230040920608,-0.0207032639975439,0.0139224966868471,-4.553133218757765,25.84642605541963,-25.767830358672043,5.667841622318882e-05
338,1724915752124125970,0.0189077518880367,-0.1196601688861846,0.1882429420948028,-0.0286145433783531,-0.0445369631052017,-0.3983616232872009,0.9156996011734008,0.0,0.0,0.0,0.5487424164426056,-0.1054755312857054,0.1847734078686325,1.547702645,-0.5661423596093533,-0.4842764212388548,0.1863023843260285,-39.87419103169549,-3.1976307999347053,-11.20877128831637,-0.0170147471427713,-0.1045532115633143,-0.8197893770195465,0.0608378674119083,-0.0231044805924582,0.0234523743537256,-1.2552584644151352,12.42467393060562,-143.83088827536858,0.000109250384365
340,1724915752134077320,0.0195945836603641,-0.119903340935707,0.1885437816381454,-0.0306832138448953,-0.0442043282091617,-0.399023950099945,0.9153602123260498,0.0,0.0,0.0,1.0531863329465263,-0.2634806368561971,-1.7210055828665711,1.557653995,-0.4152198807272962,-0.1036338693175781,-0.128634083722389,28.06944707824743,23.5575635490714,-9.494609763333887,-0.0210138295795246,-0.1056086435783959,-0.8210564908455392,0.061388252807744,-0.0223643087338833,0.0156068825555699,37.197934121419735,-8.758208918490277,-85.92142624155886,0.0002380952543271
342,1724915752147142166,0.0202657263725996,-0.1201599910855293,0.1884968429803848,-0.0298113021999597,-0.044915534555912,-0.3982028663158417,0.9157119393348694,0.0,0.0,0.0,1.307732190545165,-0.2557874950560594,-1.0324582503705355,1.570718841,0.172828545604077,-0.0478753438139209,0.1272989459536002,45.891011346694185,27.587314310767585,33.8376454829845,-0.0189339403248856,-0.1062007947994334,-0.8193718116541356,0.09226405175519,-0.0316017695842152,-0.0228745396214904,-159.10346884912963,58.90837815184361,188.07093259722063,-0.0001091324179408
344,1724915752153548824,0.0209853053092956,-0.1204000189900398,0.1882897168397903,-0.0282318536192178,-0.0448844134807586,-0.3970131576061249,0.9162799715995787,0.0,0.0,0.0,-0.2726476088203986,0.3048383214694296,0.5977297500073164,1.577125499,0.4696044664120498,0.2021289724133671,0.388848141497182,8.407949092346952,13.400997428127235,17.237796673996968,-0.0161867757479449,-0.1048622866365145,-0.8168899713631852,0.0973260970585137,-0.0318228097760142,-0.0234792853739698,-174.06407477621366,49.82187171595406,186.8269350069212,-0.0002699911960442
346,1724915752163797109,0.0217369720339775,-0.1206336468458175,0.1881941854953766,-0.0287457443773746,-0.0451029241085052,-0.3961767554283142,0.9166152477264404,0.0,0.0,0.0,-0.8661163289415117,0.1976412096662221,1.403773350264058,1.587373784,-0.065788437241234,-0.0805603700304516,0.178836619540105,12.372966347727148,-5.6219332486172675,-16.875398306388096,-0.0170560510842596,-0.1056573214060894,-0.8150334903436157,0.077109436759979,-0.0231357808863785,-0.0060072827828587,-4.778013292285948,-20.99845913784959,22.32846069538926,-0.0001606759769312
348,1724915752175166344,0.0226611196994781,-0.120900958776474,0.1881676912307739,-0.0238185487687587,-0.0464105308055877,-0.3957952260971069,0.916856050491333,0.0,0.0,0.0,-0.2503075455099957,-0.1740145555313565,0.9472392378693336,1.598743019,0.8898604251227298,0.1325263656191055,0.0325962130379367,-10.690657557850658,-6.074916591706643,-10.27923334125968,-0.0069760829663931,-0.1041462550589351,-0.8146790891452981,0.0812193063681137,-0.0290872645889459,0.0061548653895595,-21.983210096099057,9.133568971794016,-75.8272663733416,-0.0001090696962381
350,1724915752183955973,0.0233745612204074,-0.1211945116519928,0.1882794499397277,-0.0233533214777708,-0.0470399037003517,-0.3959166705608368,0.9167834520339966,0.0,0.0,0.0,-0.960979696231016,0.1904679119246379,0.0383427538132455,1.607532648,0.1520618792571907,-0.0895114703510509,-0.0401981491398242,-65.65305849232472,-8.400359855085243,-3.374385257008765,-0.0056029623385593,-0.1049352238076831,-0.8150292991435383,0.0748618335595698,-0.0282421086868112,0.0136483015335908,33.20984637734128,-5.69656466215406,-68.51530353799319,3.929613970917085e-05
352,1724915752193921084,0.0240493156015872,-0.1214177012443542,0.1884260028600692,-0.024665106087923,-0.0463800206780433,-0.3960714936256408,0.9167158603668212,0.0,0.0,0.0,0.6586244009206772,-0.3991470849901151,-0.2502368757462115,1.617497759,-0.2955797410313107,0.0172699666016324,-0.0183807705777589,-21.887265403618237,4.984159972236747,6.23505527236163,-0.0085290454440238,-0.1047644286191946,-0.8152147188467859,0.0626002228085682,-0.0252785327658147,0.0048318520922423,98.51006026418425,-36.36303902584645,-7.568570010490261,8.325724953228991e-05
354,1724915752206905286,0.0247756540775299,-0.1217946708202362,0.1883216798305511,-0.0258743241429328,-0.0459593534469604,-0.3953461349010467,0.9170168042182922,0.0,0.0,0.0,0.8546542758137683,-0.4854795356481944,0.0133740144457596,1.630481961,-0.1900861837385211,-0.0149778548325555,0.1310211422031887,36.97127819940562,32.422614380221376,-18.824606088844085,-0.0111763914833608,-0.1049421396139899,-0.8135023177132678,0.1031113168670048,-0.0422452238673258,0.0123170934406822,-133.0169085412241,45.448783719352086,-46.77418608503883,-0.0001816943575021
356,1724915752213397537,0.0255982056260108,-0.122111827135086,0.1884677112102508,-0.0250371862202882,-0.0452318042516708,-0.3956172466278076,0.9169592261314392,0.0,0.0,0.0,-0.4897341703099886,-0.0212946495528352,-0.5080398962245107,1.636974212,0.1435822079118037,0.3088305307744286,-0.0896535754130822,24.63925876475173,17.424515244725438,-19.81851102846024,-0.0101812686788942,-0.1029434508472156,-0.814108933053004,0.1013060845583164,-0.0427311739949702,0.0105759388203825,-99.119419197377,53.43203144661649,-33.608815934292,6.740061098648104e-05
358,1724915752226059460,0.0262539032846689,-0.1225017458200454,0.1883073300123214,-0.026911886408925,-0.0462949499487876,-0.3955775201320648,0.9168701767921448,0.0,0.0,0.0,0.9211769626363572,0.209116338571794,0.2197611013236383,1.649636135,-0.2051595961458581,-0.2719251229895814,0.0093786729760519,-19.120728303806473,-10.98363570572526,-15.683177071842367,-0.0127956168818011,-0.106384952126953,-0.8139497354923266,0.0898778632744123,-0.0416782514909463,-0.0017798565492981,-6.81457602171195,53.41319577398407,34.08750481641556,-0.0002346883461967
360,1724915752233216953,0.0270513258874416,-0.1228440925478935,0.1883386373519897,-0.0281859394162893,-0.0465651340782642,-0.3962575197219848,0.9165245294570924,0.0,0.0,0.0,0.3939904044984876,0.7339038021332066,0.3690989702357642,1.656793628,-0.3079416234109599,-0.2094063253945882,-0.1979717211774445,-3.3983102976661543,11.149504416130336,-9.374119727045889,-0.0148495467899714,-0.1079032223242459,-0.8153539359874079,0.1038499824215821,-0.0396718739927797,0.0046303741486308,-43.244758501168945,4.6101964081506,-47.44400181134605,-4.945203850220712e-05
362,1724915752243905778,0.0280406698584556,-0.1231379061937332,0.1883922219276428,-0.0291282515972852,-0.0464575663208961,-0.3962200582027435,0.9165167212486268,0.0,0.0,0.0,0.4171792424831588,-0.313594206042979,-1.228392124842747,1.667482453,-0.1692894105853911,-0.0516856207907942,0.0146229602073781,24.63220917572657,16.086071356654575,15.030712432152855,-0.0166769704006606,-0.1084531486774252,-0.815187975871488,0.0831901129534272,-0.0245869806672751,0.0001714173747968,9.757086128358686,-72.68164903342725,-36.962658778982416,-3.465636316542118e-05
364,1724915752258086783,0.0290441270917654,-0.1234319955110549,0.1883035600185394,-0.0260114837437868,-0.0462420210242271,-0.3952417969703674,0.917043685913086,0.0,0.0,0.0,0.6982993323779247,-0.8679624261092789,0.3638725810030916,1.681663458,0.399402394879839,0.2014614994416228,0.136360963925484,52.525350365696795,-52.18005807129134,50.087236962470186,-0.0112164540166216,-0.1055695428838357,-0.8132834692439221,0.1333198350447655,-0.0614860070586811,-0.032511029582988,-337.70073310730845,200.0951926902417,232.54957031647783,-0.0001774153685283
366,1724915752263850973,0.0299591831862926,-0.123881883919239,0.1880546361207962,-0.0244482737034559,-0.0477318651974201,-0.3937426507472992,0.9176549911499025,0.0,0.0,0.0,-2.0859463668212497,0.8458370832255072,1.986118778523164,1.687427648,0.7312753718581583,-0.2633963400361087,0.522313424567821,7.060400239313857,-49.6255903810885,25.90315086434324,-0.0073240167790243,-0.1070598241728871,-0.810241550920349,0.1306986386633777,-0.0624262743486707,-0.0241612576740415,-298.3535085319389,218.56795235662045,206.59673390528403,-0.000347133284736
368,1724915752276063121,0.0308295637369155,-0.1242400407791137,0.1882517635822296,-0.0272862929850816,-0.0469627603888511,-0.3951257169246673,0.91702002286911,0.0,0.0,0.0,-0.951498379168464,1.477516501394991,2.5728162672992285,1.699639796,-0.4894621538243677,-0.0668467182755485,-0.2235355215359869,-85.59660866186896,14.016073154623625,-52.44039435023035,-0.0130077829583334,-0.1079038854598185,-0.8129788220967109,0.0630205926373932,-0.0259920410616546,0.0140017605530735,-1574.2350762842716,433.1855272514559,108.70865476113728,0.0001085494678379
370,1724915752353973651,0.031638316810131,-0.1246069967746734,0.1882788836956024,-0.0280396118760108,-0.0469809286296367,-0.3957827985286712,0.9167129397392272,0.0,0.0,0.0,-952.2483564695758,224.83201758296013,41.19667843388584,1.777550326,-0.0185563438882901,-0.007978599496581,-0.017687243014543,-1370.2667392937751,5902.88225353074,11837.81082960688,-0.0143047336669812,-0.1085442591239626,-0.8143562628033414,2.270530323569403,-0.6593984473340129,-0.0600140669846496,1426000.862343077,-186939.25642829336,20918.69489521286,-5.726583029889963e-05
372,1724915752354380947,0.0325679071247577,-0.1248769611120224,0.1882543116807937,-0.0279998481273651,-0.0464569181203842,-0.3949003517627716,0.9171213507652284,0.0,0.0,0.0,-368.3816163107606,148.28826398433156,49.76026450028083,1.777957622,-0.5795909987391218,2.408808760986026,4.829005643136293,-157.5001677843527,2341.38353922845,6814.385382080627,-0.0147525574558449,-0.1075346929556532,-0.812392461799332,1.880595484325621,-0.5673292345777767,-0.0431450843293674,1322773.9983888068,-285028.85227434884,59857.15148349226,-0.0001068540267682
374,1724915752355172386,0.0334384366869926,-0.12517911195755,0.1882465928792953,-0.0278159938752651,-0.047071699053049,-0.3939929604530334,0.917485773563385,0.0,0.0,0.0,508.1991883306355,-226.61953270500155,156.85234550232593,1.778749061,1.1719216601112066,-1.2627668571611936,2.40155857914485,64252.69620461151,25959.370428234783,-7503.648512912692,-0.014032706364122,-0.1085066352582461,-0.8104663433863217,2.4948492125349446,-0.5695567899211653,0.0090681212822687,100011.97423334536,-718774.8228698481,496323.4400394441,-9.041362097137464e-05
376,1724915752355538099,0.034586563706398,-0.1254191398620605,0.1882530897855758,-0.02094267308712,-0.0473603978753089,-0.3939324915409088,0.9176795482635498,0.0,0.0,0.0,374.5052847940556,-530.8995763414621,399.3717428061322,1.779114774,35.15410036958366,13.401778141211626,-1.0923543757562348,3709.082111467431,5325.007420162616,-5364.8628575179355,-0.0011297852779734,-0.103608604989266,-0.8109055112795502,2.6354276334095204,-0.6902555049273076,0.0817889318977336,1393302.5809117386,-1022326.9312495874,-365414.242423006,-9.25752110594862e-05
378,1724915752356007012,0.0355193316936492,-0.1257632076740265,0.1883299350738525,-0.0249954462051391,-0.0468964762985706,-0.39432492852211,0.9174333810806274,0.0,0.0,0.0,2085.338806757245,-1124.701924384001,-390.3791905918418,1.779583687,-16.743584234901842,-5.008296060816894,-1.089532335624748,-48935.2163360142,-27198.05897544737,-15622.424097464183,-0.008928607890759,-0.1059596052378126,-0.8114073757356277,2.8050917053929965,-1.0599669742849187,0.3896221991267907,1821253.713045651,1292013.4061383763,-1980978.217797834,-1.3970364126020668e-05
380,1724915752356257296,0.0363303944468498,-0.1260720789432525,0.1884576082229614,-0.0278387907892465,-0.0470663346350193,-0.3952265977859497,0.9169545769691468,0.0,0.0,0.0,2297.0664015894763,-459.5615156905228,-925.8307585944716,1.779833971,-20.743258799344552,-10.204023891987411,-7.087378509136883,46136.76898391197,9376.399324765198,11459.188741545187,-0.0139325054855305,-0.1085335969439339,-0.813161851986946,3.557262933586756,-1.3863826108218973,0.1520662709295379,-2783361.6668575094,3761540.599617836,400442.96970661776,4.7489838414351595e-05
382,1724915752356507667,0.0373003482818603,-0.1264573335647583,0.1884060055017471,-0.0271507408469915,-0.047400489449501,-0.3946536183357239,0.917204737663269,0.0,0.0,0.0,691.2032615568778,758.7243135456715,-189.45341029407348,1.780084342,6.365830131810105,-0.3087103288341976,4.653732537968435,73446.57331088012,22506.473792505392,23058.697794440173,-0.0124657800374207,-0.1085955015407483,-0.811988853528879,3.95500623567672,-1.2899017555905343,-0.0738955418502769,-5019800.863021215,3109930.945692642,2858831.406254351,-0.0001484492876285
384,1724915752356757584,0.0383089631795883,-0.1267176270484924,0.1884205192327499,-0.0252867806702852,-0.0480531193315982,-0.3940491080284118,0.9174839854240416,0.0,0.0,0.0,-215.54445800498783,1097.8926118018096,504.4829607159469,1.780334259,16.032776620430315,1.0711315053867134,4.47023489835535,37300.74321752459,5329.934539803148,-731.3597364254093,-0.0085802437710271,-0.1083160781653338,-0.8108680375929936,3.9038777426136297,-1.0071406565316303,0.0566381367133066,-3506458.459207656,1306622.7868088498,2680701.914095807,-7.634246504097945e-05
386,1724915752363923720,0.0391771085560321,-0.126870647072792,0.1885313093662262,-0.0259858928620815,-0.0478943139314651,-0.3946734070777893,0.9172043800354004,0.0,0.0,0.0,-328.5152330363328,84.27645734354095,-4.432806526130723,1.787500395,-0.2068258830464551,-0.035565197796973,-0.1801116905993126,-1402.5327979791648,-99.96564329692444,-396.85544115285103,-0.0099221218791332,-0.1085828747329954,-0.8121639561902307,0.1066445111511451,-0.028781430482053,0.0090778576901744,949.3171166319628,-90368.12627923123,-43852.913151521374,3.858699957459133e-05
388,1724915752375590566,0.0401458777487278,-0.1273475289344787,0.1885159909725189,-0.027253158390522,-0.0484102591872215,-0.3948124647140503,0.9170806407928468,0.0,0.0,0.0,0.0271243302873003,0.1371890653114906,-0.1013899959932493,1.799167241,-0.1660409619161829,-0.1672596212397206,-0.0221299478177552,28.001413297266588,-3.2189286032497932,0.6998200001539638,-0.0118332330134859,-0.1105369566310627,-0.8124023064706087,0.0987871730751761,-0.0379689057900876,-0.0007756566981083,11273.307439119944,-2847.6702363843706,188.845532514372,-0.0001224623223562
390,1724915752383397214,0.0409993529319763,-0.1276287585496902,0.1885127425193786,-0.0268224887549877,-0.0492352172732353,-0.3950619697570801,0.9169420003890992,0.0,0.0,0.0,-0.1784206833002954,0.7033414992072349,0.4199951126470986,1.806973889,0.1805654687815968,-0.150238916187405,-0.0837452249209412,36.9013177653518,16.923114448686675,-8.201679027019477,-0.0103521265700009,-0.1117170069575019,-0.813047055590127,0.1026586268651057,-0.0320677228405772,0.0023149750685877,-45.745596130232734,39.67401275377899,31.305751291272365,-8.697582894340063e-05
392,1724915752393431895,0.0419434905052185,-0.1278995126485824,0.1885711997747421,-0.0242752823978662,-0.049193188548088,-0.3957588672637939,0.9167146682739258,0.0,0.0,0.0,-0.8879037938705334,0.6777666781633803,0.2764757931295906,1.81700857,0.4541503667723196,0.2097410059345187,-0.1700322731747601,-13.874519747571131,2.500603295767613,10.480173407608488,-0.0056033996173142,-0.1096259979712619,-0.8147806015527108,0.0921702136372686,-0.0256880738517955,0.0068403185803678,-5.35987472425181,-29.520155670804822,14.238764949037485,-3.15003755980624e-05
394,1724915752403778344,0.0428766719996929,-0.1281514912843704,0.1886527985334396,-0.0251661669462919,-0.0494837388396263,-0.3951029777526855,0.9169577956199646,0.0,0.0,0.0,-0.2462841935706885,0.0846084047157622,0.7282700909373736,1.827355019,-0.1282627107421421,-0.1204063089860617,0.1419338364025422,-30.163042239653507,-12.99872244269163,9.341700973331935,-0.0070938889341469,-0.1108624075686133,-0.8132950581474755,0.0846617580754924,-0.0182274725087943,0.0078393703051364,56.62790754242381,-60.22099013887819,-67.83231510090394,-6.514259306833356e-06
396,1724915752414449336,0.0437192171812057,-0.1282785683870315,0.1887359321117401,-0.0260723568499088,-0.0493887849152088,-0.3950773179531097,0.916948676109314,0.0,0.0,0.0,0.2987193677465036,-0.5898305933419374,-1.2226933483083866,1.838026011,-0.1625742452111114,-0.0509918130184046,0.0125868519599945,-3.3280593992407113,6.9148357093224835,-36.53735208537531,-0.0088441900743956,-0.1114054580157507,-0.813155583072395,0.0873100151222119,-0.0243294248347796,0.0225631574019953,24.041358969448865,13.997174290111843,-192.31935700235755,1.262454545557263e-05
398,1724915752424238701,0.0446489453315734,-0.1286282837390899,0.1890894770622253,-0.0267768315970897,-0.048989787697792,-0.3976586461067199,0.9158334136009216,0.0,0.0,0.0,0.2913059122444377,0.2404952218962019,-3.1906094392840068,1.847815376,-0.1961655572924515,0.0203808572295273,-0.564360283651605,11.884624145183096,-1.4234234875338654,24.53929975652134,-0.0101467174071252,-0.1112584384956795,-0.8187165792832816,0.0906882194365996,-0.0302651820485504,-0.0127780862943929,-16.86643664500421,67.50369988334651,65.8017161204888,0.0002569352681304
400,1724915752433888749,0.0454833284020423,-0.1288684159517288,0.1885010600090026,-0.0267495587468147,-0.0493895411491394,-0.3955709636211395,0.91671621799469,0.0,0.0,0.0,-0.0246976453315084,0.7271920553286648,-0.0173648285565124,1.857465424,0.0642186712727987,-0.0762515182816925,0.4665228515536948,58.70349666970613,11.94477049083008,40.68256538107353,-0.0100323387794116,-0.1119487712255098,-0.8141789198015537,0.0929877102819907,-0.0198886190506817,-0.0395764883954097,-69.35452572236602,2.641475605725071,257.00368617720824,-0.0006637617673874
402,1724915752444610764,0.0465580597519874,-0.1290221512317657,0.1883316487073898,-0.0208487547934055,-0.050104271620512,-0.3947611451148987,0.9171796441078186,0.0,0.0,0.0,-1.2044336828176163,0.1861509688422887,1.8825374683706144,1.868187439,1.071530363101132,0.3134126946780511,0.1147424151222812,-32.21378477468825,4.27375973682547,-25.32250043906029,0.0013221190798655,-0.108583037574184,-0.8129559363893986,0.0895899375983457,-0.0162385209806039,-0.0068867034734285,182.62706778030005,-113.09917524472344,7.964993492571217,-0.0002614614895893
404,1724915752454311804,0.0473337322473526,-0.129196360707283,0.1883430778980255,-0.0222420077770948,-0.0491172708570957,-0.3951426744461059,0.91703599691391,0.0,0.0,0.0,3.135967225491094,-1.4608238015085575,0.4744141040655136,1.877888479,-0.3483345995258933,0.0733966541937939,-0.0651995258539168,-122.79567619933188,-21.213699429440577,-15.472913501838464,-0.0019883424804969,-0.1078712239596769,-0.8135923977965874,0.0701155148160496,-0.015786815998789,0.0011388357692867,-1656.87601948448,-228.69390007294268,-520.5021855644785,-5.874784400473528e-05
406,1724915752507758079,0.0481830909848213,-0.1294008493423462,0.1883923709392547,-0.0218045972287654,-0.0499356016516685,-0.3947617411613464,0.9171663522720336,0.0,0.0,0.0,-705.0338575490996,-31.033117609090368,-137.86769155336026,1.931334754,0.027919191944142,-0.0216916611591041,0.0135146094693894,-21827.787898161652,-20356.83187884194,-2618.4618553559476,-0.0005749698114763,-0.1090296346679947,-0.8128643213682764,1.7522201498739207,-0.5377174530395337,-0.0774099723189465,76777.2020565907,-98985.82136277712,145815.12258008056,-3.0418678494650728e-05
408,1724915752508177282,0.048923335969448,-0.1296280175447464,0.1883596628904342,-0.0242739915847778,-0.0508372150361537,-0.3950272798538208,0.9169405102729796,0.0,0.0,0.0,-672.5526145958246,-72.85191662035294,-76.25360437844837,1.931753957,-9.194147811485658,-8.622263993649259,-1.0927667910767092,-9731.336754720698,-7859.779845273066,-2794.232977037488,-0.0043792072357257,-0.112645255500187,-0.813316337066502,1.454246210468682,-0.5507965568250341,-0.1356529983873997,342190.23362222494,-60964.81190933687,130802.5625015728,-0.0001065533405721
410,1724915752508703710,0.0494829043745994,-0.1299238502979278,0.1882501542568206,-0.0261930897831916,-0.0512689501047134,-0.395724892616272,0.9165627360343932,0.0,0.0,0.0,-317.42182902655304,-79.30021069867826,-18.08945946353549,1.932280385,-6.207065468673931,-4.392785562456075,-2.666343195556557,14356.103602475072,8778.721246899922,-2614.0964330753295,-0.00748792017105,-0.1149660208798117,-0.8147152219195678,1.1254872515504175,-0.616683113817956,-0.1343559883961234,467531.9267847079,149075.01602771698,-10302.455858345653,-0.0001759805542886
412,1724915752509226620,0.0501039139926433,-0.1302747428417205,0.1882181614637375,-0.0246889740228652,-0.0517561770975589,-0.3965702056884765,0.9162116646766664,0.0,0.0,0.0,-180.5015020888792,82.44687846700424,-86.21731870189012,1.932803295,5.809375795857754,0.5843615282859795,-3.8384676286125097,8209.486140853725,2839.51566997028,4427.712407702045,-0.0042184541653527,-0.1146722019532393,-0.8167374406788964,1.1190099783918726,-0.6343308570276633,-0.1544908261197122,-15766.474094575213,257500.5330305698,-89028.59864847583,-0.0001087966807219
414,1724915752509745952,0.0506496727466583,-0.1305852383375167,0.1880898028612136,-0.0242732465267181,-0.0523263998329639,-0.396075963973999,0.9164041876792908,0.0,0.0,0.0,-331.87453361330085,189.44721903560455,-111.1730321557624,1.933322627,2.454541549062454,-1.3856941194270334,1.9008427383951467,-5736.232373119625,-3280.0765694123456,9625.891110841269,-0.0030580915766785,-0.1153882476234738,-0.8157411177958008,0.9385599167207715,-0.5315821679961159,-0.2238750403996636,-250124.3305984679,177602.57328040662,-37041.7793904778,-0.0001960346995607
416,1724915752513411636,0.0511838011443614,-0.1308185905218124,0.1878716498613357,-0.0241396203637123,-0.0526355132460594,-0.3955445289611816,0.9166195392608644,0.0,0.0,0.0,-178.8039348815362,104.83052801334568,37.961341835507206,1.936988311,0.1516351826434049,-0.126567262765064,0.304341287670189,-508.313457988472,279.85100534375243,-354.0683315808049,-0.0026319618541946,-0.1158490304273456,-0.8146166948826854,0.1254201165500785,-0.0544856250086402,-0.0510503277534799,35933.39195333809,-19952.79221759374,32317.747629425412,-0.0002780731837961
418,1724915752528657854,0.0518093407154083,-0.131067618727684,0.1876299083232879,-0.0238100346177816,-0.0519097000360488,-0.3950614035129547,0.9168778657913208,0.0,0.0,0.0,-0.2858790855148072,-0.8528392845880717,0.1721187092694176,1.952234529,0.006123321943743,0.1046285830864062,0.0715186955893482,38.74948149128158,115.99299164703268,1.4431195254186129,-0.0026641215330565,-0.11425095749302,-0.813523301419101,0.1273645869916198,-0.0619010943024491,-0.0547390758956467,2433.850352665803,-1488.5541294115912,-470.70219444680777,-0.0003090283063277
420,1724915752533346098,0.0525309219956398,-0.1314235180616378,0.1873172223567962,-0.0225340891629457,-0.0504361949861049,-0.3948535919189453,0.917081892490387,0.0,0.0,0.0,-2.24687501884016,0.0156485087339883,0.8600225263041614,1.956922773,0.2574125803429059,0.7937914200366981,0.1023799893157969,34.276839427459336,82.59024501002585,4.050223418755096,-0.0015106031198838,-0.1105284830059867,-0.813048151061321,0.1254283156298175,-0.0664277158018706,-0.053335208389412,-317.0328773152605,164.75048883183737,104.1322107136926,-0.0003935741802714
422,1724915752543785777,0.0531781762838363,-0.1318964958190918,0.1870710104703903,-0.0214346088469028,-0.0500084683299064,-0.3944174945354461,0.9173191785812378,0.0,0.0,0.0,-3.2029336967201956,1.259088346778587,0.9568760623337637,1.967362452,0.1660522705781586,0.1587280362913415,0.0857909723199804,8.700884397885348,-32.8019186285653,4.099496927337157,0.000124410589221,-0.1088707675632928,-0.8121480946791086,0.0593399789427873,-0.0434551352015173,-0.0313251700629217,73.62459574382174,28.166307941363893,-46.89159012480259,-0.0003304520526737
424,1724915752555239511,0.053824421018362,-0.1323709636926651,0.1866149455308914,-0.0186395086348056,-0.050368171185255,-0.3932204246520996,0.9178743958473206,0.0,0.0,0.0,-0.2836570565589547,0.4389095413936368,-0.286044047414864,1.978816186,0.4850185320997719,0.1352538718263123,0.2042292574047549,-46.444658558006765,-2.4589354092916125,-9.388882299466628,0.0054253766845656,-0.1073281196648928,-0.8097909800687044,0.0619562684866816,-0.0408640036228362,-0.0348345679864081,87.76173762525315,-34.65173822409447,-57.05987035604255,-0.000538744223995
426,1724915752563448716,0.0543655939400196,-0.1327031254768371,0.1863583028316497,-0.0197159461677074,-0.0494047552347183,-0.3932558596134186,0.91788911819458,0.0,0.0,0.0,-0.546460829505313,0.3718880815275203,-0.4517011443667986,1.987025391,-0.3333768997716729,0.1126588111087323,0.0110705174947004,-41.68075973099132,-3.8244541019426266,-6.062428056695192,0.0026784654190476,-0.1064036626129776,-0.8096958540226122,0.0566147157596708,-0.0360095254113428,-0.0370630060726524,-7.291986542626999,-26.701603447739934,-7.598190049384158,-0.0003208100223174
428,1724915752574665870,0.0548579841852188,-0.1330388039350509,0.1858536601066589,-0.0192024372518062,-0.0493014939129352,-0.3921517729759216,0.918377697467804,0.0,0.0,0.0,-0.2493463372024562,-0.2117555938161945,-0.3440953562088191,1.998242545,0.0882427144839014,0.053327762181742,0.2107899890728201,29.38764558811799,18.7935140585583,-2.0848716100509543,0.0034162698754447,-0.1058126661269546,-0.8073160678721355,0.0520823499781686,-0.0352016817380045,-0.0448924696534707,10.914739126271488,-21.564201829311425,-44.36116464877364,-0.0005638092223068
430,1724915752584260601,0.0554248839616775,-0.1334198564291,0.1854237169027328,-0.0170629117637872,-0.0479684844613075,-0.391997218132019,0.91855651140213,0.0,0.0,0.0,-0.2724276476910328,-0.1686152864921379,-1.2125288175200837,2.007837276,0.3029170738732812,0.4312935565875111,0.0275520284167084,-21.549701386986374,13.098570987518617,-13.313356246028045,0.0062930696445839,-0.1016758519805613,-0.8070301065238882,0.0509596421548423,-0.0395623463744563,-0.0452895671324213,9.6758266707429,32.33937730443279,-100.12956482810624,-0.0004963628486854
432,1724915752594957837,0.0558731108903884,-0.1338412463665008,0.1849335283041,-0.0187285616993904,-0.0457592979073524,-0.3923604488372803,0.918481707572937,0.0,0.0,0.0,-0.0248345136638747,0.5093956899100576,-2.3983475920583697,2.018534512,-0.4514602791091532,0.2578127845463523,-0.045876703872732,-7.905498176880708,12.13005896930304,-3.85278265479246,0.0015119861456835,-0.0989160765938953,-0.8075125468085335,0.0461918773364407,-0.0379566555177017,-0.0722278109124854,47.967324665631025,25.43030723826715,36.76902305791978,-0.0005485103251631
434,1724915752603615539,0.0563030913472175,-0.1341598033905029,0.1841231882572174,-0.018086040392518,-0.0433936715126037,-0.3926519751548767,0.9184848070144652,0.0,0.0,0.0,0.5643792747895406,0.4636360476124206,-1.0456223512609295,2.027192214,-0.0811569071029702,0.5614622022737101,-0.0581313692064104,35.9565681882561,8.640978819955304,8.312628242581575,0.0008575051800103,-0.0940545052628163,-0.8080123880466046,0.0489258870636728,-0.0310288888302157,-0.0921518768050333,56.26099084082966,-30.196106098071148,150.5004479594381,-0.0008563652172155
436,1724915752614562269,0.0568284466862678,-0.1344196647405624,0.1831344366073608,-0.016405526548624,-0.042386807501316,-0.3917858302593231,0.918933093547821,0.0,0.0,0.0,1.0169905668924,-0.2117002742370739,0.5223511651533705,2.038138944,0.218123992512703,0.2902116055082533,0.1675108525487002,21.285205132845093,-20.3087250445505,5.217917946886686,0.0030746320076676,-0.0908812383865942,-0.8061644971897055,0.0585447181137204,-0.030611755877814,-0.0862180856962062,-12.407078759561106,-21.799330240695323,82.2753359024045,-0.0010353049411493
438,1724915752624074269,0.0574725456535816,-0.1347676515579223,0.1823482662439346,-0.0145545108243823,-0.0424845963716506,-0.3913279771804809,0.9191548824310304,0.0,0.0,0.0,0.454682556947021,-0.089322077763575,0.8010894105059205,2.047650944,0.370546129765708,0.1339844207468862,0.0899005809057149,-18.892851628811428,8.098371736837072,3.696753756142927,0.0065213349999905,-0.0896109057532045,-0.8052998173016779,0.0693613928899998,-0.0346901734288787,-0.0814123861090578,-96.72643552449588,30.42850912085858,58.17046421900411,-0.0008468477726204
440,1724915752633608831,0.058149617165327,-0.1350803077220916,0.1815838664770126,-0.0143994381651282,-0.0402481779456138,-0.3903418183326721,0.919677197933197,0.0,0.0,0.0,-0.8270146464784189,0.3686516570143505,1.631602640279418,2.057185506,-0.1432973427972113,0.4455656146922137,0.2384569245198189,-45.94903989120631,15.617373010412866,2.593454738417213,0.0049534862849632,-0.0853757485567803,-0.8029931358008046,0.0671740249472887,-0.0322976991587333,-0.070946720149422,23.517707700392386,11.56270676247232,-6.984018258464495,-0.0008222239767943
442,1724915752644053034,0.0588072836399078,-0.1354119777679443,0.1809484213590622,-0.0161376241594553,-0.0371682494878768,-0.389920562505722,0.9199565649032592,0.0,0.0,0.0,1.2255892663657946,0.0721717164218205,0.4822164381057945,2.067629709,-0.5323177637168786,0.4134794117869139,0.1169598193756177,-5.980894432079548,-6.161104122429317,-10.161306632557098,-0.0007088246018245,-0.0810598741269641,-0.8017580643171901,0.051699596571904,-0.0271005766954819,-0.0477972422416295,70.120878166431,-11.632842710214955,-63.74064973857795,-0.0006895187161326
444,1724915752659865481,0.059354979544878,-0.135729044675827,0.1805049180984497,-0.0145040620118379,-0.0357832610607147,-0.3899765014648437,0.9200149178504944,0.0,0.0,0.0,-0.6918642549505982,0.2893221488742359,0.5829671674967187,2.083442156,0.1216299134520424,0.2421080388341233,-0.0084837750187451,138.35159893513256,228.4838986083956,-79.79117803416896,0.0012250069716181,-0.0772315090040881,-0.8018915732240048,0.1358897624533224,-0.0361442877680886,-0.0816906212870947,-737.6429454233862,118.1141334545301,366.38811404613466,-0.0004893575962556
446,1724915752663628601,0.0599570274353027,-0.1358794718980789,0.1801494657993316,-0.0122508956119418,-0.0340497903525829,-0.3906075358390808,0.9198457598686218,0.0,0.0,0.0,-4.0197120415843575,0.8272799913169906,2.2841477438837057,2.087205276,0.729128974119489,1.316248431332086,-0.3731010176631765,110.63872745084478,181.94004442428832,-62.945623441558,0.0040729851060818,-0.0722746009055776,-0.8032863747772392,0.1278983314313715,-0.0342842210643201,-0.0770551516936501,-650.6174214414418,-55.18751426732561,314.273243960973,-0.0003938640920282
448,1724915752674048821,0.0603638887405395,-0.1360725462436676,0.1798486411571502,-0.0097873536869883,-0.0338182151317596,-0.390784204006195,0.919808864593506,0.0,0.0,0.0,-4.05569051502396,-5.464993805081312,1.583059710472924,2.097625496,0.4163359417255448,0.2257533128087291,-0.0495124131992755,-25.777674706887577,-78.80312271018822,23.47513788618482,0.0084469982874694,-0.0699190291597331,-0.8037889565765257,0.0313022029494494,-0.0160556502969493,-0.0228898577696807,-1491.7479412253151,-1043.5192907622622,-686.9350421356348,-0.0003308580318141
450,1724915752703854618,0.0606367252767086,-0.136340245604515,0.1796761751174926,-0.0091888569295406,-0.0327665321528911,-0.3907354176044464,0.919873833656311,0.0,0.0,0.0,-175.40441525929702,-74.0521357683167,-71.72072498855266,2.127431293,0.0095154155007561,0.0807192006064238,0.0040472764056598,7204.871274489312,13581.386415833906,-154.68050085832778,0.0087208895545837,-0.0675142533956868,-0.80364735107254,0.3549755510741619,-0.7940093921362745,-0.2839086964194166,-33058.19613441982,103998.61363795944,36818.86207775731,-0.0001979348017435
452,1724915752704366304,0.0608213990926742,-0.136753425002098,0.179528459906578,-0.007588698528707,-0.0314598903059959,-0.3907378315925598,0.9199329018592834,0.0,0.0,0.0,-192.5597245353303,-19.903734057651945,-52.535997523347135,2.127942979,3.759556705372579,7.14946997910635,-0.0764751126511986,2404.834529340859,6724.895234277189,-1249.7070515804692,0.0106448474563321,-0.0638557466327288,-0.8036509169298096,0.263587373258531,-0.8323220518073811,-0.3211602757068874,-20686.688139761623,109141.92709563232,41829.15246189785,-0.0001729268625175
454,1724915752704943833,0.0609101876616478,-0.1372503042221069,0.1793218106031417,-0.0063364822417497,-0.0299786124378442,-0.3911347091197967,0.9198232293128968,0.0,0.0,0.0,-196.1369829088702,45.29199485170462,-25.552058799449416,2.128520508,1.9387620883647652,6.4118893492399645,-1.5102532483139863,-2961.3166244955123,-1240.473649317713,-2309.725284253378,0.0118161032018975,-0.0601431361858982,-0.8044831561845446,0.1432803254055732,-0.8079840965632501,-0.3382912894719885,-4383.233827175906,105677.54780254157,44061.22421607602,-0.0002281624082956
456,1724915752713342960,0.0608361214399337,-0.1376397013664245,0.178865447640419,-0.0038593942299485,-0.0288899559527635,-0.3902867436408996,0.9202318787574768,0.0,0.0,0.0,-11.757456013582908,52.2094848724294,19.376236322049273,2.136919635,0.44782796714111,0.4707927973473164,0.2077487143098446,-102.62573585619047,-420.90307109830087,119.25738229060974,0.0154727145908443,-0.0562130577035242,-0.8026813927228801,-0.0167423715159955,-0.0427405949685582,-0.050802046565427,13029.814247434486,-1514.1492263803582,2358.155719738943,-0.000463419646814
458,1724915752724760479,0.0605219788849353,-0.1380714923143386,0.1783402413129806,-0.0013499149354174,-0.0292784348130226,-0.3889247179031372,0.9208031892776488,0.0,0.0,0.0,-1.4707399477765075,-1.3616255621009206,-0.1217845509544055,2.148337154,0.4383570145753587,0.1109127844942079,0.2456499326600938,7.909806784055256,13.360654793329946,3.621531939308973,0.0203203218355299,-0.0549971034699442,-0.7998501053833869,-0.0377627588825157,-0.0503965277473508,-0.0600894759174188,415.96506423534333,-1982.629434308892,-646.0564688820425,-0.000518602604582
460,1724915752733265654,0.0601358674466609,-0.1385798156261444,0.1777399033308029,0.0016538843046873,-0.02821178548038,-0.387765496969223,0.9213247895240784,0.0,0.0,0.0,-1.0056612521927282,-1.0584086893441278,1.1098291312924236,2.156842329,0.5610010187795352,0.5088978577383805,0.2783648560667217,10.58017476366092,21.67694190699921,3.679087734360918,0.0249613362885377,-0.0507235442176371,-0.7973817994105803,-0.0479253942437862,-0.0663558874275302,-0.0567431724925429,-28.748140029475792,37.09330571620207,83.65388341077107,-0.0005883845813571
462,1724915752743500333,0.0596142299473285,-0.1393401026725769,0.1773296296596527,0.0053773317486047,-0.0274615343660116,-0.3861885070800781,0.9219952821731568,0.0,0.0,0.0,-2.3274023783421542,-0.6610057349146956,1.212838804844914,2.167077008,0.6219958084752557,0.4214247173112715,0.3139576461370612,-8.721581129225298,-8.908100435282398,-4.316509064724172,0.0311651367517481,-0.0465022408614979,-0.7940447159569761,-0.0558876610476706,-0.0671137225918663,-0.0365615097431097,-68.53790829821388,23.402073658344552,-24.215913325854636,-0.0003896368795673
