seq,stamp,px,py,pz,ox,oy,oz,ow,lx,ly,lz,ax,ay,az
3468,1724557152290600492,-1.9910473823547363,-0.05497154965996742,0.18869736790657043,0.011837543919682503,0.023525239899754524,0.4294905960559845,-0.9026873111724854,0.0,0.0,0.0,0.0,0.0,0.0
3470,1724557152301014129,-1.9906270503997803,-0.05544501543045044,0.1887875646352768,0.014062939211726189,0.025208724662661552,0.4298230707645416,-0.9024516940116882,0.0,0.0,0.0,0.0,0.0,0.0
3472,1724557152316275284,-1.9899901151657104,-0.05577882006764412,0.1892608404159546,0.012019461952149868,0.02220812626183033,0.43050628900527954,-0.9022343158721924,0.0,0.0,0.0,0.0,0.0,0.0
3474,1724557152320040349,-1.9894068241119385,-0.056168265640735626,0.18958668410778046,0.011705096811056137,0.021364446729421616,0.43093958497047424,-0.9020519852638245,0.0,0.0,0.0,0.0,0.0,0.0
3476,1724557152330881518,-1.988823413848877,-0.056636739522218704,0.18977642059326172,0.01182219572365284,0.021385833621025085,0.4308185875415802,-0.9021076560020447,0.0,0.0,0.0,0.0,0.0,0.0
3478,1724557152341058992,-1.988266944885254,-0.057314034551382065,0.1892247498035431,0.012545712292194366,0.023949263617396355,0.42963647842407227,-0.9025971293449402,0.0,0.0,0.0,0.0,0.0,0.0
3480,1724557152350949148,-1.9876397848129272,-0.05751267075538635,0.18991412222385406,0.011582515202462673,0.022220470011234283,0.43023523688316345,-0.9023690223693848,0.0,0.0,0.0,0.0,0.0,0.0
3482,1724557152360510057,-1.9870126247406006,-0.057756077498197556,0.19055058062076569,0.011395062319934368,0.02004195749759674,0.43136078119277954,-0.9018849730491638,0.0,0.0,0.0,0.0,0.0,0.0
3484,1724557152370787150,-1.9864568710327148,-0.058356769382953644,0.1901799887418747,0.012294789776206017,0.021387329325079918,0.43100348114967346,-0.9020130038261414,0.0,0.0,0.0,0.0,0.0,0.0
3486,1724557152385801461,-1.9857639074325562,-0.05833151936531067,0.190860778093338,0.012688789516687393,0.018202466890215874,0.43249255418777466,-0.9013645052909851,0.0,0.0,0.0,0.0,0.0,0.0
3488,1724557152399288872,-1.985143780708313,-0.058614857494831085,0.19129633903503418,0.012729923240840435,0.017007214948534966,0.4333276152610779,-0.9009860754013062,0.0,0.0,0.0,0.0,0.0,0.0
3490,1724557152400319033,-1.98456871509552,-0.0589502677321434,0.19180718064308167,0.01254050899296999,0.015263708308339119,0.43414366245269775,-0.9006270170211792,0.0,0.0,0.0,0.0,0.0,0.0
3492,1724557152411282970,-1.9839866161346436,-0.05932310223579407,0.19224929809570312,0.012054265476763248,0.014073193073272705,0.4348195493221283,-0.9003269672393799,0.0,0.0,0.0,0.0,0.0,0.0
3494,1724557152457599895,-1.9834386110305786,-0.05978881195187569,0.19261622428894043,0.010539875365793705,0.013634882867336273,0.43517133593559265,-0.9001827239990234,0.0,0.0,0.0,0.0,0.0,0.0
3496,1724557152460159739,-1.982846736907959,-0.06045639514923096,0.19215275347232819,0.010422573424875736,0.015672877430915833,0.43496203422546387,-0.9002520442008972,0.0,0.0,0.0,0.0,0.0,0.0
3498,1724557152460430298,-1.9822372198104858,-0.0609668605029583,0.19174830615520477,0.01091141626238823,0.017318500205874443,0.43494051694869995,-0.9002265334129333,0.0,0.0,0.0,0.0,0.0,0.0
3500,1724557152460698819,-1.9815404415130615,-0.06121193245053291,0.19187571108341217,0.010160427540540695,0.01690584607422352,0.43561670184135437,-0.8999161720275879,0.0,0.0,0.0,0.0,0.0,0.0
3502,1724557152460971673,-1.9808528423309326,-0.061646148562431335,0.1917305439710617,0.009696127846837044,0.01711123436689377,0.4358382821083069,-0.8998100757598877,0.0,0.0,0.0,0.0,0.0,0.0
3504,1724557152470210135,-1.9801256656646729,-0.06211060658097267,0.19173704087734222,0.009794196113944054,0.0159938782453537,0.4362003803253174,-0.8996540904045105,0.0,0.0,0.0,0.0,0.0,0.0
3506,1724557152483429878,-1.979325294494629,-0.0620877705514431,0.19285474717617035,0.008892141282558441,0.0125113008543849,0.43776094913482666,-0.8989604115486145,0.0,0.0,0.0,0.0,0.0,0.0
3508,1724557152490878218,-1.9786393642425537,-0.0621970035135746,0.1933213174343109,0.008164681494235992,0.010214647278189659,0.4392258822917938,-0.8982815146446228,0.0,0.0,0.0,0.0,0.0,0.0
3510,1724557152500672651,-1.9778494834899902,-0.06230004504323006,0.19366168975830078,0.005676057655364275,0.00714005995541811,0.44049882888793945,-0.8977068066596985,0.0,0.0,0.0,0.0,0.0,0.0
3512,1724557152510364840,-1.977176547050476,-0.06288045644760132,0.1931229829788208,0.005923219956457615,0.010357656516134739,0.4391503632068634,-0.8983344435691833,0.0,0.0,0.0,0.0,0.0,0.0
3514,1724557152521155997,-1.9764173030853271,-0.0633879080414772,0.1924893856048584,0.005248344037681818,0.011788933537900448,0.43839505314826965,-0.8986898064613342,0.0,0.0,0.0,0.0,0.0,0.0
3516,1724557152532387485,-1.9754661321640015,-0.06346424669027328,0.1925850212574005,0.004223537631332874,0.010934950783848763,0.43923279643058777,-0.8982967734336853,0.0,0.0,0.0,0.0,0.0,0.0
3518,1724557152541481302,-1.974593162536621,-0.0636696070432663,0.19259297847747803,0.004556598607450724,0.01026990357786417,0.43900778889656067,-0.8984130024909973,0.0,0.0,0.0,0.0,0.0,0.0
3520,1724557152550488842,-1.9736952781677246,-0.0639374852180481,0.19255709648132324,0.00278887408785522,0.008588719181716442,0.43849825859069824,-0.8986866474151611,0.0,0.0,0.0,0.0,0.0,0.0
3522,1724557152561156836,-1.9725052118301392,-0.06384121626615524,0.1931404322385788,0.0007368719088844955,0.004182927310466766,0.4406222403049469,-0.8976826667785645,0.0,0.0,0.0,0.0,0.0,0.0
3524,1724557152570207832,-1.9714224338531494,-0.06406702846288681,0.19302524626255035,-0.00036574876867234707,0.0026743870694190264,0.44065916538238525,-0.8976703882217407,0.0,0.0,0.0,0.0,0.0,0.0
3526,1724557152581027886,-1.9702720642089844,-0.06414055824279785,0.19325602054595947,-0.0015690600266680121,0.00018430224736221135,0.44158777594566345,-0.8972167372703552,0.0,0.0,0.0,0.0,0.0,0.0
3528,1724557152590508886,-1.9691481590270996,-0.0644245445728302,0.19298017024993896,-0.0016855719732120633,-7.787522918079048e-05,0.4418148398399353,-0.8971046805381775,0.0,0.0,0.0,0.0,0.0,0.0
3530,1724557152600441578,-1.967995047569275,-0.06447456032037735,0.1932167112827301,-0.004054268356412649,-0.0019234542269259691,0.4431878924369812,-0.8964175581932068,0.0,0.0,0.0,0.0,0.0,0.0
3532,1724557152613386118,-1.966965675354004,-0.06463740766048431,0.193060040473938,-0.003990554716438055,-0.0020968737080693245,0.44354358315467834,-0.8962414860725403,0.0,0.0,0.0,0.0,0.0,0.0
3534,1724557152620337219,-1.9660104513168335,-0.06495851278305054,0.19214971363544464,-0.0021488768979907036,0.001781937899067998,0.44255971908569336,-0.8967347741127014,0.0,0.0,0.0,0.0,0.0,0.0
3536,1724557152630305082,-1.9649821519851685,-0.06523753702640533,0.19215239584445953,-0.0029074002522975206,0.0018430664204061031,0.44230353832244873,-0.8968587517738342,0.0,0.0,0.0,0.0,0.0,0.0
3538,1724557152641113536,-1.9638181924819946,-0.06532813608646393,0.19230115413665771,-0.005618184804916382,-0.0016054754378274083,0.4436852037906647,-0.8961637020111084,0.0,0.0,0.0,0.0,0.0,0.0
3540,1724557152650142284,-1.9627578258514404,-0.06562285125255585,0.19193024933338165,-0.006225649733096361,-0.0023703938350081444,0.443498820066452,-0.8962501883506775,0.0,0.0,0.0,0.0,0.0,0.0
3542,1724557152662114527,-1.9618661403656006,-0.06622201204299927,0.19107048213481903,-0.004906386137008667,0.0016444524517282844,0.44206154346466064,-0.8969699144363403,0.0,0.0,0.0,0.0,0.0,0.0
3544,1724557152670427296,-1.9608503580093384,-0.06640815734863281,0.19095180928707123,-0.003127509029582143,0.0014733619755133986,0.4427306652069092,-0.8966479897499084,0.0,0.0,0.0,0.0,0.0,0.0
3546,1724557152681272592,-1.9595770835876465,-0.06627592444419861,0.19188570976257324,-0.004749073646962643,-0.004410692490637302,0.44602909684181213,-0.8949950337409973,0.0,0.0,0.0,0.0,0.0,0.0
3548,1724557152691033867,-1.958315134048462,-0.06652437895536423,0.19201530516147614,-0.008418392390012741,-0.010506730526685715,0.4469873011112213,-0.8944389820098877,0.0,0.0,0.0,0.0,0.0,0.0
3550,1724557152700688874,-1.957360029220581,-0.06714627891778946,0.19087634980678558,-0.008903015404939651,-0.0069211372174322605,0.44542914628982544,-0.8952462673187256,0.0,0.0,0.0,0.0,0.0,0.0
3552,1724557152717615579,-1.9564727544784546,-0.06763684749603271,0.19017790257930756,-0.008978275582194328,-0.004938014317303896,0.4439140856266022,-0.8960108160972595,0.0,0.0,0.0,0.0,0.0,0.0
3554,1724557152720090303,-1.9556103944778442,-0.06799773126840591,0.18984799087047577,-0.01078404113650322,-0.005910060368478298,0.44386547803878784,-0.896009087562561,0.0,0.0,0.0,0.0,0.0,0.0
3556,1724557152756601320,-1.9548439979553223,-0.06820064038038254,0.19003555178642273,-0.008994164876639843,-0.004637913778424263,0.4441388249397278,-0.8959008455276489,0.0,0.0,0.0,0.0,0.0,0.0
3558,1724557152756900897,-1.9540435075759888,-0.06810155510902405,0.19055475294589996,-0.008883936330676079,-0.007711677346378565,0.4455689489841461,-0.8951703310012817,0.0,0.0,0.0,0.0,0.0,0.0
3560,1724557152757194032,-1.953262448310852,-0.06807415187358856,0.19080248475074768,-0.00966411828994751,-0.010428584180772305,0.44648006558418274,-0.8946805596351624,0.0,0.0,0.0,0.0,0.0,0.0
3562,1724557152760388343,-1.9524508714675903,-0.0679822713136673,0.19131718575954437,-0.011027461849153042,-0.014516797848045826,0.44782161712646484,-0.8939370512962341,0.0,0.0,0.0,0.0,0.0,0.0
3564,1724557152770912434,-1.9518433809280396,-0.06825979799032211,0.19112342596054077,-0.011023173108696938,-0.012441642582416534,0.4470682740211487,-0.8943454623222351,0.0,0.0,0.0,0.0,0.0,0.0
3566,1724557152780937381,-1.9512544870376587,-0.06840398907661438,0.19124257564544678,-0.011785169132053852,-0.012890010140836239,0.4470542371273041,-0.8943362832069397,0.0,0.0,0.0,0.0,0.0,0.0
3568,1724557152790729408,-1.950506567955017,-0.06841054558753967,0.1915787160396576,-0.016018975526094437,-0.01734694093465805,0.44714275002479553,-0.894150972366333,0.0,0.0,0.0,0.0,0.0,0.0
3570,1724557152800440099,-1.9498597383499146,-0.06839680671691895,0.19195741415023804,-0.01849422976374626,-0.020769573748111725,0.44770607352256775,-0.8937482237815857,0.0,0.0,0.0,0.0,0.0,0.0
3572,1724557152810516913,-1.9493160247802734,-0.0684424415230751,0.1919591873884201,-0.019260065630078316,-0.02107549086213112,0.44735515117645264,-0.8939005732536316,0.0,0.0,0.0,0.0,0.0,0.0
3574,1724557152820474827,-1.9487520456314087,-0.06844592839479446,0.19211962819099426,-0.020132118836045265,-0.022089634090662003,0.4472750425338745,-0.8938969373703003,0.0,0.0,0.0,0.0,0.0,0.0
3576,1724557152830815127,-1.9481914043426514,-0.06844682991504669,0.19219142198562622,-0.02030174247920513,-0.023125888779759407,0.4470832049846649,-0.8939629793167114,0.0,0.0,0.0,0.0,0.0,0.0
3578,1724557152841816877,-1.9475997686386108,-0.06845282018184662,0.19223494827747345,-0.02169049344956875,-0.024435363709926605,0.4468526542186737,-0.8940107226371765,0.0,0.0,0.0,0.0,0.0,0.0
3580,1724557152850687192,-1.9470179080963135,-0.06852008402347565,0.19214147329330444,-0.02349693514406681,-0.025814857333898544,0.4467674493789673,-0.893968939781189,0.0,0.0,0.0,0.0,0.0,0.0
3582,1724557152860193253,-1.9464432001113892,-0.06881865859031677,0.19116584956645966,-0.02449220046401024,-0.023893069475889206,0.44545605778694153,-0.8946497440338135,0.0,0.0,0.0,0.0,0.0,0.0
3584,1724557152870972808,-1.9458551406860352,-0.06903227418661118,0.19045929610729218,-0.024946002289652824,-0.023226341232657433,0.4446526765823364,-0.895054280757904,0.0,0.0,0.0,0.0,0.0,0.0
3586,1724557152880892743,-1.9453858137130737,-0.06919066607952118,0.19007568061351776,-0.02288050577044487,-0.019659414887428284,0.4426637887954712,-0.8961801528930664,0.0,0.0,0.0,0.0,0.0,0.0
3588,1724557152893121813,-1.9449448585510254,-0.06901653110980988,0.19068683683872223,-0.02117067202925682,-0.02153177559375763,0.4434257745742798,-0.8958022594451904,0.0,0.0,0.0,0.0,0.0,0.0
3590,1724557152900423296,-1.944423794746399,-0.06879807263612747,0.19082891941070557,-0.022520704194903374,-0.025210006162524223,0.4439302682876587,-0.8954234719276428,0.0,0.0,0.0,0.0,0.0,0.0
3592,1724557152910404334,-1.943960428237915,-0.06868402659893036,0.19054003059864044,-0.02275996468961239,-0.025300757959485054,0.44374069571495056,-0.8955088257789612,0.0,0.0,0.0,0.0,0.0,0.0
3594,1724557152921382502,-1.9434782266616821,-0.06849518418312073,0.1902802586555481,-0.023422231897711754,-0.025595087558031082,0.4436224102973938,-0.8955419659614563,0.0,0.0,0.0,0.0,0.0,0.0
3596,1724557152934177484,-1.9429173469543457,-0.06816069036722183,0.19032585620880127,-0.02454625628888607,-0.029054585844278336,0.4443661570549011,-0.8950375318527222,0.0,0.0,0.0,0.0,0.0,0.0
3598,1724557152941001588,-1.9425177574157715,-0.06821085512638092,0.18958747386932373,-0.02363872155547142,-0.02550000324845314,0.44330188632011414,-0.8956977725028992,0.0,0.0,0.0,0.0,0.0,0.0
3600,1724557152950413851,-1.9420868158340454,-0.0680713877081871,0.1893705129623413,-0.023593829944729805,-0.02591400220990181,0.4431012272834778,-0.8957863450050354,0.0,0.0,0.0,0.0,0.0,0.0
3602,1724557152961130623,-1.9415743350982666,-0.06796713173389435,0.18923933804035187,-0.02671036869287491,-0.028378954157233238,0.4425724148750305,-0.8958854675292969,0.0,0.0,0.0,0.0,0.0,0.0
3604,1724557152970089526,-1.9412422180175781,-0.06786290556192398,0.18906515836715698,-0.02670712023973465,-0.028521966189146042,0.44230812788009644,-0.8960115313529968,0.0,0.0,0.0,0.0,0.0,0.0
3606,1724557152982142774,-1.9409010410308838,-0.06764568388462067,0.18938197195529938,-0.02672724612057209,-0.03059263341128826,0.4429479241371155,-0.8956265449523926,0.0,0.0,0.0,0.0,0.0,0.0
3608,1724557152990752176,-1.9405815601348877,-0.06755334883928299,0.18933415412902832,-0.027196889743208885,-0.030878474935889244,0.4429517984390259,-0.8956006765365601,0.0,0.0,0.0,0.0,0.0,0.0
3610,1724557153000542030,-1.9402934312820435,-0.06742873042821884,0.18934084475040436,-0.027221616357564926,-0.03154833987355232,0.44316020607948303,-0.8954734206199646,0.0,0.0,0.0,0.0,0.0,0.0
3612,1724557153012622186,-1.9400310516357422,-0.0673062652349472,0.18931196630001068,-0.026937788352370262,-0.03213514760136604,0.4431361258029938,-0.8954731225967407,0.0,0.0,0.0,0.0,0.0,0.0
3614,1724557153020323963,-1.9397737979888916,-0.06721897423267365,0.18929429352283478,-0.02714533358812332,-0.03227148950099945,0.4431723654270172,-0.8954440951347351,0.0,0.0,0.0,0.0,0.0,0.0
3616,1724557153034548845,-1.9395318031311035,-0.06714911013841629,0.18916800618171692,-0.027209673076868057,-0.031994711607694626,0.4428534209728241,-0.8956097960472107,0.0,0.0,0.0,0.0,0.0,0.0
3618,1724557153041252486,-1.9393116235733032,-0.06707853823900223,0.1891491711139679,-0.02750692330300808,-0.03198552131652832,0.4429733157157898,-0.895541787147522,0.0,0.0,0.0,0.0,0.0,0.0
3620,1724557153050539193,-1.9391828775405884,-0.06698555499315262,0.18919239938259125,-0.026859832927584648,-0.03174325078725815,0.44274193048477173,-0.8956843614578247,0.0,0.0,0.0,0.0,0.0,0.0
3622,1724557153060925283,-1.9390116930007935,-0.06681279093027115,0.18932244181632996,-0.027331341058015823,-0.03307544067502022,0.4431009292602539,-0.8954444527626038,0.0,0.0,0.0,0.0,0.0,0.0
3624,1724557153070277625,-1.9388540983200073,-0.06658828258514404,0.1895073652267456,-0.02752038836479187,-0.03394218906760216,0.443474680185318,-0.8952210545539856,0.0,0.0,0.0,0.0,0.0,0.0
3626,1724557153081006348,-1.938772201538086,-0.06659240275621414,0.18919532001018524,-0.027589555829763412,-0.032191962003707886,0.4426281750202179,-0.8957023620605469,0.0,0.0,0.0,0.0,0.0,0.0
3628,1724557153091044851,-1.938628911972046,-0.06635094434022903,0.18919044733047485,-0.027410076931118965,-0.032762058079242706,0.44258299469947815,-0.8957096338272095,0.0,0.0,0.0,0.0,0.0,0.0
3630,1724557153100311173,-1.9384719133377075,-0.06623347848653793,0.18910543620586395,-0.026699401438236237,-0.03221661597490311,0.44182100892066956,-0.8961268663406372,0.0,0.0,0.0,0.0,0.0,0.0
3632,1724557153117652848,-1.9383093118667603,-0.06610332429409027,0.18921558558940887,-0.02644343115389347,-0.032267529517412186,0.44143155217170715,-0.896324634552002,0.0,0.0,0.0,0.0,0.0,0.0
3634,1724557153120856444,-1.9381375312805176,-0.06588070094585419,0.1895611584186554,-0.02654484659433365,-0.03328992426395416,0.44162464141845703,-0.8961890339851379,0.0,0.0,0.0,0.0,0.0,0.0
3636,1724557153130786827,-1.9379456043243408,-0.06572267413139343,0.18993011116981506,-0.026901602745056152,-0.033318351954221725,0.44165143370628357,-0.8961641192436218,0.0,0.0,0.0,0.0,0.0,0.0
3638,1724557153141616113,-1.937652587890625,-0.06539671123027802,0.19038523733615875,-0.02772773616015911,-0.03555271029472351,0.44251903891563416,-0.8956249356269836,0.0,0.0,0.0,0.0,0.0,0.0
3640,1724557153150859134,-1.937395691871643,-0.0651821419596672,0.1907963752746582,-0.028534429147839546,-0.03646290302276611,0.44302719831466675,-0.895311713218689,0.0,0.0,0.0,0.0,0.0,0.0
3642,1724557153161199935,-1.9371421337127686,-0.06504957377910614,0.191130131483078,-0.028412358835339546,-0.03709827736020088,0.44335347414016724,-0.8951280117034912,0.0,0.0,0.0,0.0,0.0,0.0
3644,1724557153170748507,-1.9368606805801392,-0.06495854258537292,0.1913883239030838,-0.028649574145674706,-0.03739812225103378,0.44346746802330017,-0.8950514793395996,0.0,0.0,0.0,0.0,0.0,0.0
3646,1724557153181349691,-1.9365448951721191,-0.06489210575819016,0.19156579673290253,-0.028234638273715973,-0.037050746381282806,0.4435213804244995,-0.8950523734092712,0.0,0.0,0.0,0.0,0.0,0.0
3648,1724557153190820976,-1.936180830001831,-0.06481131911277771,0.19169054925441742,-0.028496308252215385,-0.037349849939346313,0.44327837228775024,-0.8951520919799805,0.0,0.0,0.0,0.0,0.0,0.0
3650,1724557153201158522,-1.9358501434326172,-0.06475618481636047,0.19175821542739868,-0.02921835146844387,-0.03757253661751747,0.4430278241634369,-0.8952435255050659,0.0,0.0,0.0,0.0,0.0,0.0
3652,1724557153210891572,-1.93558931350708,-0.06466346234083176,0.19201311469078064,-0.028632204979658127,-0.038353659212589264,0.44293370842933655,-0.895275890827179,0.0,0.0,0.0,0.0,0.0,0.0
3654,1724557153220626714,-1.9353455305099487,-0.06463760137557983,0.19264739751815796,-0.028044944629073143,-0.03949898108839989,0.4432498514652252,-0.8950881958007812,0.0,0.0,0.0,0.0,0.0,0.0
3656,1724557153232881777,-1.9351348876953125,-0.06472408771514893,0.19293931126594543,-0.02726372890174389,-0.03986551985144615,0.4426877200603485,-0.8953742384910583,0.0,0.0,0.0,0.0,0.0,0.0
3658,1724557153242069549,-1.9348907470703125,-0.06480921804904938,0.1931673288345337,-0.027988020330667496,-0.041114047169685364,0.442699134349823,-0.8952898383140564,0.0,0.0,0.0,0.0,0.0,0.0
3660,1724557153250979154,-1.9348196983337402,-0.06500411778688431,0.19312714040279388,-0.02493460476398468,-0.03774217143654823,0.44234466552734375,-0.8957036733627319,0.0,0.0,0.0,0.0,0.0,0.0
3662,1724557153266408625,-1.9344675540924072,-0.06472517549991608,0.1938246488571167,-0.025402110069990158,-0.041707608848810196,0.4447453022003174,-0.894324779510498,0.0,0.0,0.0,0.0,0.0,0.0
3664,1724557153270243444,-1.9342213869094849,-0.06477420777082443,0.19401343166828156,-0.02524084411561489,-0.042806703597307205,0.4451059103012085,-0.8940979838371277,0.0,0.0,0.0,0.0,0.0,0.0
3666,1724557153280680125,-1.9340143203735352,-0.06490862369537354,0.19411401450634003,-0.02468184009194374,-0.042944375425577164,0.4449484348297119,-0.8941853642463684,0.0,0.0,0.0,0.0,0.0,0.0
3668,1724557153291015137,-1.9338722229003906,-0.06513837724924088,0.19406315684318542,-0.024776076897978783,-0.042174581438302994,0.4442730247974396,-0.8945551514625549,0.0,0.0,0.0,0.0,0.0,0.0
3670,1724557153302681593,-1.9336128234863281,-0.06514285504817963,0.19442793726921082,-0.02670138143002987,-0.04549082741141319,0.4449460506439209,-0.8940027356147766,0.0,0.0,0.0,0.0,0.0,0.0
3672,1724557153310511461,-1.9334512948989868,-0.06523562967777252,0.1944664865732193,-0.027910305187106133,-0.04666490480303764,0.4448542892932892,-0.8939507603645325,0.0,0.0,0.0,0.0,0.0,0.0
3674,1724557153320662440,-1.9333547353744507,-0.06529320776462555,0.19444993138313293,-0.027903849259018898,-0.04701609909534454,0.44494184851646423,-0.8938890695571899,0.0,0.0,0.0,0.0,0.0,0.0
3676,1724557153331477883,-1.9334028959274292,-0.06549675017595291,0.19398681819438934,-0.025862878188490868,-0.04283928871154785,0.44405215978622437,-0.8946025967597961,0.0,0.0,0.0,0.0,0.0,0.0
3678,1724557153341220813,-1.9333398342132568,-0.06546375155448914,0.19400765001773834,-0.025543808937072754,-0.04327419400215149,0.44422024488449097,-0.8945072889328003,0.0,0.0,0.0,0.0,0.0,0.0
3680,1724557153350882954,-1.9332650899887085,-0.06543867290019989,0.19394944608211517,-0.02573504112660885,-0.0437251552939415,0.4442467987537384,-0.894466757774353,0.0,0.0,0.0,0.0,0.0,0.0
3682,1724557153361737639,-1.933215618133545,-0.06542225927114487,0.19392111897468567,-0.025838783010840416,-0.04351341351866722,0.44414764642715454,-0.8945233225822449,0.0,0.0,0.0,0.0,0.0,0.0
3684,1724557153370372610,-1.9331735372543335,-0.06544665992259979,0.1939721703529358,-0.02618923783302307,-0.043498460203409195,0.44418859481811523,-0.8944934606552124,0.0,0.0,0.0,0.0,0.0,0.0
3686,1724557153383114893,-1.9331698417663574,-0.06552253663539886,0.19384050369262695,-0.025885846465826035,-0.042943086475133896,0.4440873861312866,-0.894579291343689,0.0,0.0,0.0,0.0,0.0,0.0
3688,1724557153390712448,-1.933139443397522,-0.06553235650062561,0.19395369291305542,-0.025983532890677452,-0.04361772537231445,0.44453462958335876,-0.8943217396736145,0.0,0.0,0.0,0.0,0.0,0.0
3690,1724557153400440184,-1.9331037998199463,-0.0656653344631195,0.19384264945983887,-0.026890873908996582,-0.043987173587083817,0.44445013999938965,-0.8943188786506653,0.0,0.0,0.0,0.0,0.0,0.0
3692,1724557153410426778,-1.9328069686889648,-0.06561589986085892,0.19419442117214203,-0.0311288982629776,-0.05065418407320976,0.4451882243156433,-0.8934610486030579,0.0,0.0,0.0,0.0,0.0,0.0
3694,1724557153420136742,-1.9327635765075684,-0.06575406342744827,0.1940958946943283,-0.029998375102877617,-0.04983927309513092,0.44519394636154175,-0.8935426473617554,0.0,0.0,0.0,0.0,0.0,0.0
3696,1724557153431333305,-1.9327147006988525,-0.06608608365058899,0.19374671578407288,-0.02936546877026558,-0.04760521277785301,0.44403398036956787,-0.8942623734474182,0.0,0.0,0.0,0.0,0.0,0.0
3698,1724557153441674225,-1.9325692653656006,-0.06628286093473434,0.19373783469200134,-0.029389172792434692,-0.048296958208084106,0.4438362717628479,-0.8943226933479309,0.0,0.0,0.0,0.0,0.0,0.0
3700,1724557153450300207,-1.9325261116027832,-0.06676463037729263,0.19268055260181427,-0.03204377740621567,-0.04509030655026436,0.44247061014175415,-0.8950753211975098,0.0,0.0,0.0,0.0,0.0,0.0
3702,1724557153462277581,-1.9321746826171875,-0.06661425530910492,0.19339334964752197,-0.030366171151399612,-0.04816332086920738,0.4434084892272949,-0.8945094347000122,0.0,0.0,0.0,0.0,0.0,0.0
3704,1724557153470114296,-1.9321004152297974,-0.06690455973148346,0.19333532452583313,-0.028302228078246117,-0.046321820467710495,0.44301554560661316,-0.8948690295219421,0.0,0.0,0.0,0.0,0.0,0.0
3706,1724557153481030846,-1.9319112300872803,-0.06707082688808441,0.1932690590620041,-0.028084807097911835,-0.046410512179136276,0.4429260194301605,-0.8949155211448669,0.0,0.0,0.0,0.0,0.0,0.0
3708,1724557153490319231,-1.9316291809082031,-0.06723524630069733,0.19297653436660767,-0.02976033091545105,-0.04699649289250374,0.4427184462547302,-0.8949336409568787,0.0,0.0,0.0,0.0,0.0,0.0
3710,1724557153500720077,-1.9313682317733765,-0.06744395196437836,0.19277679920196533,-0.030219970270991325,-0.04706839099526405,0.4424858093261719,-0.8950294256210327,0.0,0.0,0.0,0.0,0.0,0.0
3712,1724557153518059971,-1.931179404258728,-0.06768384575843811,0.19268400967121124,-0.0283462293446064,-0.0457054004073143,0.4427528977394104,-0.8950292468070984,0.0,0.0,0.0,0.0,0.0,0.0
3714,1724557153529153038,-1.9308234453201294,-0.06766839325428009,0.19280289113521576,-0.02821936644613743,-0.04704998433589935,0.44420161843299866,-0.8942455053329468,0.0,0.0,0.0,0.0,0.0,0.0
3716,1724557153530539425,-1.9305206537246704,-0.06793753057718277,0.19271421432495117,-0.0271289199590683,-0.046798866242170334,0.4442693293094635,-0.8942587971687317,0.0,0.0,0.0,0.0,0.0,0.0
3718,1724557153540696573,-1.9301632642745972,-0.06825502961874008,0.19267338514328003,-0.02756943367421627,-0.047164373099803925,0.44432196021080017,-0.8941999077796936,0.0,0.0,0.0,0.0,0.0,0.0
3720,1724557153551053782,-1.9297003746032715,-0.06854373216629028,0.1923299878835678,-0.030497588217258453,-0.0484846793115139,0.44389036297798157,-0.8942486047744751,0.0,0.0,0.0,0.0,0.0,0.0
3722,1724557153561023125,-1.929187536239624,-0.06874456256628036,0.19216668605804443,-0.032554637640714645,-0.049789220094680786,0.4435773491859436,-0.8942596316337585,0.0,0.0,0.0,0.0,0.0,0.0
3724,1724557153570700969,-1.9287219047546387,-0.06903781741857529,0.1919863373041153,-0.03339006379246712,-0.04987656697630882,0.44321250915527344,-0.8944048881530762,0.0,0.0,0.0,0.0,0.0,0.0
3726,1724557153584811049,-1.9282084703445435,-0.06926759332418442,0.19196167588233948,-0.03303869068622589,-0.0506306067109108,0.44296255707740784,-0.8944993615150452,0.0,0.0,0.0,0.0,0.0,0.0
3728,1724557153590283555,-1.9274824857711792,-0.06942950189113617,0.1924128532409668,-0.03608168289065361,-0.056615110486745834,0.4430966079235077,-0.8939564824104309,0.0,0.0,0.0,0.0,0.0,0.0
3730,1724557153600469025,-1.927008867263794,-0.06991228461265564,0.19224132597446442,-0.03608119487762451,-0.05610324442386627,0.44222787022590637,-0.8944188952445984,0.0,0.0,0.0,0.0,0.0,0.0
3732,1724557153611360495,-1.9264885187149048,-0.07040020823478699,0.1917087882757187,-0.037690214812755585,-0.05560113862156868,0.44105520844459534,-0.8949627876281738,0.0,0.0,0.0,0.0,0.0,0.0
3734,1724557153620486923,-1.925981879234314,-0.0708903893828392,0.1913091242313385,-0.03601802513003349,-0.0535263791680336,0.44056105613708496,-0.8954014182090759,0.0,0.0,0.0,0.0,0.0,0.0
3736,1724557153630319956,-1.9253777265548706,-0.07111120223999023,0.19135309755802155,-0.03552725911140442,-0.05431552976369858,0.44196829199790955,-0.8946797251701355,0.0,0.0,0.0,0.0,0.0,0.0
3738,1724557153641380325,-1.924877405166626,-0.07162641733884811,0.1908658742904663,-0.03458738699555397,-0.0522586964070797,0.4408370852470398,-0.895396888256073,0.0,0.0,0.0,0.0,0.0,0.0
3740,1724557153658261176,-1.9243497848510742,-0.07220171391963959,0.19043947756290436,-0.03524669632315636,-0.052260756492614746,0.4395310580730438,-0.8960127830505371,0.0,0.0,0.0,0.0,0.0,0.0
3742,1724557153660076223,-1.9237991571426392,-0.0726957619190216,0.19063907861709595,-0.0344177782535553,-0.05472408980131149,0.43929827213287354,-0.8960121273994446,0.0,0.0,0.0,0.0,0.0,0.0
3744,1724557153685773441,-1.9230597019195557,-0.0731983408331871,0.19076624512672424,-0.03761894628405571,-0.05961809679865837,0.4386926591396332,-0.8958679437637329,0.0,0.0,0.0,0.0,0.0,0.0
3746,1724557153686046037,-1.9224761724472046,-0.0738147646188736,0.19054077565670013,-0.0391109399497509,-0.06037876754999161,0.43760815262794495,-0.8962833285331726,0.0,0.0,0.0,0.0,0.0,0.0
3748,1724557153691029368,-1.9220467805862427,-0.07456744462251663,0.18978430330753326,-0.038494013249874115,-0.056609947234392166,0.4359224736690521,-0.8973768949508667,0.0,0.0,0.0,0.0,0.0,0.0
3750,1724557153700828660,-1.9213855266571045,-0.07523970305919647,0.18918819725513458,-0.04085277020931244,-0.057262081652879715,0.434990257024765,-0.8976835012435913,0.0,0.0,0.0,0.0,0.0,0.0
3752,1724557153712170861,-1.9207077026367188,-0.07588480412960052,0.18891571462154388,-0.04274354130029678,-0.05800479277968407,0.4341224133968353,-0.8979678750038147,0.0,0.0,0.0,0.0,0.0,0.0
3754,1724557153720353460,-1.9200103282928467,-0.07650972902774811,0.18916180729866028,-0.04283745959401131,-0.061275411397218704,0.4337352216243744,-0.8979332447052002,0.0,0.0,0.0,0.0,0.0,0.0
3756,1724557153731010338,-1.9192454814910889,-0.07716183364391327,0.1892469823360443,-0.042120881378650665,-0.06301482021808624,0.4335581958293915,-0.8979321718215942,0.0,0.0,0.0,0.0,0.0,0.0
3758,1724557153741036955,-1.9185245037078857,-0.07801056653261185,0.18855559825897217,-0.043438512831926346,-0.061831142753362656,0.4323268532752991,-0.8985452651977539,0.0,0.0,0.0,0.0,0.0,0.0
3760,1724557153751120624,-1.9178848266601562,-0.07879084348678589,0.187902569770813,-0.043909911066293716,-0.060949962586164474,0.4310089349746704,-0.8992154598236084,0.0,0.0,0.0,0.0,0.0,0.0
3762,1724557153761590706,-1.9171546697616577,-0.07956754416227341,0.18744473159313202,-0.04399234801530838,-0.060850996524095535,0.43010249733924866,-0.8996520042419434,0.0,0.0,0.0,0.0,0.0,0.0
3764,1724557153770872457,-1.9164139032363892,-0.08049945533275604,0.18718315660953522,-0.044139567762613297,-0.06022442877292633,0.4286450445652008,-0.9003822207450867,0.0,0.0,0.0,0.0,0.0,0.0
3766,1724557153785369476,-1.9157326221466064,-0.08131363242864609,0.1872640997171402,-0.04354386031627655,-0.06079037860035896,0.4281361997127533,-0.9006152749061584,0.0,0.0,0.0,0.0,0.0,0.0
3768,1724557153800385042,-1.9150058031082153,-0.08199355751276016,0.18686561286449432,-0.04383067041635513,-0.06115691736340523,0.4276658892631531,-0.9007999897003174,0.0,0.0,0.0,0.0,0.0,0.0
3770,1724557153800804296,-1.9142543077468872,-0.08283426612615585,0.18613477051258087,-0.04621347412467003,-0.06175576522946358,0.42599302530288696,-0.901432454586029,0.0,0.0,0.0,0.0,0.0,0.0
3772,1724557153810532560,-1.913515329360962,-0.08360441029071808,0.18584157526493073,-0.04625777155160904,-0.06258316338062286,0.4251207411289215,-0.9017848372459412,0.0,0.0,0.0,0.0,0.0,0.0
3774,1724557153820313566,-1.9127264022827148,-0.08431713283061981,0.18554562330245972,-0.0457400418817997,-0.06259032338857651,0.42495954036712646,-0.9018867015838623,0.0,0.0,0.0,0.0,0.0,0.0
3776,1724557153831802437,-1.9118317365646362,-0.08498449623584747,0.1854972243309021,-0.046832628548145294,-0.0659932866692543,0.42493265867233276,-0.9016007781028748,0.0,0.0,0.0,0.0,0.0,0.0
3778,1724557153846074338,-1.9111905097961426,-0.08598937094211578,0.18458200991153717,-0.04650277644395828,-0.06255196034908295,0.42361557483673096,-0.9024824500083923,0.0,0.0,0.0,0.0,0.0,0.0
3780,1724557153851383009,-1.9104228019714355,-0.08671128004789352,0.18440666794776917,-0.04560502618551254,-0.06286866217851639,0.42363205552101135,-0.9024984836578369,0.0,0.0,0.0,0.0,0.0,0.0
3782,1724557153861550910,-1.9096615314483643,-0.08746594190597534,0.18434223532676697,-0.044645994901657104,-0.06437129527330399,0.4237954616546631,-0.9023638963699341,0.0,0.0,0.0,0.0,0.0,0.0
3784,1724557153872315179,-1.9089149236679077,-0.08846072107553482,0.1836566925048828,-0.047408029437065125,-0.06580290198326111,0.4223756194114685,-0.9027853012084961,0.0,0.0,0.0,0.0,0.0,0.0
3786,1724557153880923106,-1.9081370830535889,-0.08926369249820709,0.1832088828086853,-0.046840861439704895,-0.06619655340909958,0.4219048321247101,-0.9030063152313232,0.0,0.0,0.0,0.0,0.0,0.0
3788,1724557153890689770,-1.9074130058288574,-0.08996409177780151,0.1828426569700241,-0.04535219445824623,-0.06709552556276321,0.4225257635116577,-0.9027256369590759,0.0,0.0,0.0,0.0,0.0,0.0
3790,1724557153901124159,-1.90667724609375,-0.09102120995521545,0.18201766908168793,-0.04694880545139313,-0.06832459568977356,0.42135393619537354,-0.9030993580818176,0.0,0.0,0.0,0.0,0.0,0.0
3792,1724557153919756920,-1.905989408493042,-0.09196943789720535,0.18140435218811035,-0.0466010645031929,-0.06820274144411087,0.421028196811676,-0.9032784700393677,0.0,0.0,0.0,0.0,0.0,0.0
3794,1724557153921174061,-1.9052373170852661,-0.09288204461336136,0.18109571933746338,-0.047309137880802155,-0.07137449085712433,0.42132559418678284,-0.9028578996658325,0.0,0.0,0.0,0.0,0.0,0.0
3796,1724557153931245371,-1.9046621322631836,-0.09402664005756378,0.18033017218112946,-0.04422536492347717,-0.0680994912981987,0.4204008877277374,-0.9036977887153625,0.0,0.0,0.0,0.0,0.0,0.0
3798,1724557153940737838,-1.9040017127990723,-0.09487923234701157,0.18010936677455902,-0.04247947782278061,-0.06942687183618546,0.4209270179271698,-0.9034355878829956,0.0,0.0,0.0,0.0,0.0,0.0
3800,1724557153951217734,-1.9033411741256714,-0.09582804143428802,0.1798425018787384,-0.042127035558223724,-0.07199782133102417,0.42171257734298706,-0.902884304523468,0.0,0.0,0.0,0.0,0.0,0.0
3802,1724557153972385629,-1.9027284383773804,-0.09697702527046204,0.17940983176231384,-0.04251907765865326,-0.07459302991628647,0.42084190249443054,-0.90306156873703,0.0,0.0,0.0,0.0,0.0,0.0
3804,1724557153972662867,-1.9022040367126465,-0.09827309846878052,0.17871589958667755,-0.04261847957968712,-0.07499781996011734,0.4205481708049774,-0.9031602144241333,0.0,0.0,0.0,0.0,0.0,0.0
3806,1724557153984802264,-1.9017421007156372,-0.0997696965932846,0.17790663242340088,-0.0406147800385952,-0.07292955368757248,0.4198528230190277,-0.903745174407959,0.0,0.0,0.0,0.0,0.0,0.0
3808,1724557153991145367,-1.9010834693908691,-0.10072283446788788,0.17805568873882294,-0.03928530961275101,-0.07772745937108994,0.4216023087501526,-0.9025887846946716,0.0,0.0,0.0,0.0,0.0,0.0
3810,1724557154001689707,-1.900339126586914,-0.10208094865083694,0.17713046073913574,-0.043067965656518936,-0.08051227778196335,0.4204569160938263,-0.902706503868103,0.0,0.0,0.0,0.0,0.0,0.0
3812,1724557154011767513,-1.8997889757156372,-0.10370547324419022,0.1758643388748169,-0.04066416993737221,-0.07536561787128448,0.41876643896102905,-0.9040471911430359,0.0,0.0,0.0,0.0,0.0,0.0
3814,1724557154021945329,-1.8989629745483398,-0.10461828857660294,0.17545193433761597,-0.03883717209100723,-0.07782706618309021,0.42006900906562805,-0.9033142328262329,0.0,0.0,0.0,0.0,0.0,0.0
3816,1724557154032291747,-1.898194432258606,-0.10555768758058548,0.17443610727787018,-0.04317614808678627,-0.08064202219247818,0.4205319881439209,-0.9026547074317932,0.0,0.0,0.0,0.0,0.0,0.0
3818,1724557154041831812,-1.89749276638031,-0.10656674206256866,0.17416520416736603,-0.04268879070878029,-0.08304470777511597,0.4205826222896576,-0.9024365544319153,0.0,0.0,0.0,0.0,0.0,0.0
3820,1724557154051667106,-1.897018313407898,-0.10774014890193939,0.17327482998371124,-0.040810875594615936,-0.07952815294265747,0.41967833042144775,-0.9032606482505798,0.0,0.0,0.0,0.0,0.0,0.0
3822,1724557154062359139,-1.8964385986328125,-0.1087164655327797,0.1728827804327011,-0.04040420427918434,-0.08057163655757904,0.4200715124607086,-0.9030036926269531,0.0,0.0,0.0,0.0,0.0,0.0
3824,1724557154071869811,-1.8958910703659058,-0.10975256562232971,0.17220745980739594,-0.0390046127140522,-0.08080185204744339,0.41976824402809143,-0.9031857252120972,0.0,0.0,0.0,0.0,0.0,0.0
3826,1724557154082893616,-1.8952174186706543,-0.11073747277259827,0.17172028124332428,-0.040057118982076645,-0.08437754213809967,0.4197472333908081,-0.9028223752975464,0.0,0.0,0.0,0.0,0.0,0.0
3828,1724557154092636110,-1.8946648836135864,-0.11172787845134735,0.17141537368297577,-0.039542097598314285,-0.08569405227899551,0.41996070742607117,-0.9026217460632324,0.0,0.0,0.0,0.0,0.0,0.0
3830,1724557154120152943,-1.8941864967346191,-0.11268718540668488,0.1708226352930069,-0.03874766826629639,-0.08510810136795044,0.41947317123413086,-0.9029382467269897,0.0,0.0,0.0,0.0,0.0,0.0
3832,1724557154120598067,-1.8936668634414673,-0.11353205889463425,0.17011481523513794,-0.039361704140901566,-0.08577041327953339,0.41957733035087585,-0.9028006792068481,0.0,0.0,0.0,0.0,0.0,0.0
3834,1724557154121811756,-1.8930480480194092,-0.11428608745336533,0.16992121934890747,-0.03876522183418274,-0.08967797458171844,0.4204695224761963,-0.902031421661377,0.0,0.0,0.0,0.0,0.0,0.0
3836,1724557154139441783,-1.8924124240875244,-0.11516661196947098,0.16915172338485718,-0.04046771675348282,-0.09298241138458252,0.4201754927635193,-0.9017590284347534,0.0,0.0,0.0,0.0,0.0,0.0
3838,1724557154140991328,-1.8919917345046997,-0.1163492500782013,0.1678144782781601,-0.0377989187836647,-0.08820374310016632,0.41945895552635193,-0.9026879668235779,0.0,0.0,0.0,0.0,0.0,0.0
3840,1724557154156882812,-1.8915150165557861,-0.11737772077322006,0.1666668802499771,-0.036515504121780396,-0.08637946099042892,0.4181928038597107,-0.9035043120384216,0.0,0.0,0.0,0.0,0.0,0.0
3842,1724557154169205586,-1.8908132314682007,-0.11809677630662918,0.16626058518886566,-0.03840193152427673,-0.08875947445631027,0.41955840587615967,-0.9025618433952332,0.0,0.0,0.0,0.0,0.0,0.0
3844,1724557154170407500,-1.8902426958084106,-0.11888313293457031,0.16592015326023102,-0.0390411913394928,-0.09144721180200577,0.41916194558143616,-0.9024502635002136,0.0,0.0,0.0,0.0,0.0,0.0
3846,1724557154182321989,-1.8898866176605225,-0.11983837932348251,0.16526919603347778,-0.038801275193691254,-0.09068667143583298,0.4173872768878937,-0.9033594727516174,0.0,0.0,0.0,0.0,0.0,0.0
3848,1724557154191482611,-1.8892983198165894,-0.12043333798646927,0.16504937410354614,-0.03792962059378624,-0.09120400249958038,0.4188891351222992,-0.9026489853858948,0.0,0.0,0.0,0.0,0.0,0.0
3850,1724557154200843873,-1.8886889219284058,-0.12090863287448883,0.16468210518360138,-0.036897629499435425,-0.09270920604467392,0.42031025886535645,-0.9018774032592773,0.0,0.0,0.0,0.0,0.0,0.0
3852,1724557154214199809,-1.8881951570510864,-0.12163160741329193,0.16381379961967468,-0.037468038499355316,-0.09180553257465363,0.41992589831352234,-0.9021252989768982,0.0,0.0,0.0,0.0,0.0,0.0
3854,1724557154220556447,-1.8879036903381348,-0.12249942868947983,0.1627921611070633,-0.035747673362493515,-0.08775778859853745,0.4184926450252533,-0.9032633304595947,0.0,0.0,0.0,0.0,0.0,0.0
3856,1724557154231031555,-1.8875761032104492,-0.12310423702001572,0.16244617104530334,-0.03457168489694595,-0.08796404302120209,0.418520450592041,-0.9032761454582214,0.0,0.0,0.0,0.0,0.0,0.0
3858,1724557154241192495,-1.8871073722839355,-0.12368717789649963,0.1622922718524933,-0.036766450852155685,-0.09109265357255936,0.4186529815196991,-0.9028178453445435,0.0,0.0,0.0,0.0,0.0,0.0
3860,1724557154251063994,-1.8868095874786377,-0.12435345351696014,0.16206513345241547,-0.035633981227874756,-0.08997025340795517,0.4186440706253052,-0.902979850769043,0.0,0.0,0.0,0.0,0.0,0.0
3862,1724557154263397450,-1.8864351511001587,-0.12478875368833542,0.16184194386005402,-0.03556276112794876,-0.091387540102005,0.41970595717430115,-0.9023473262786865,0.0,0.0,0.0,0.0,0.0,0.0
3864,1724557154581103816,-1.886065125465393,-0.1252729296684265,0.16149525344371796,-0.03710128739476204,-0.09306200593709946,0.4197646677494049,-0.9020868539810181,0.0,0.0,0.0,0.0,0.0,0.0
3866,1724557154581867990,-1.8857946395874023,-0.12589067220687866,0.16103161871433258,-0.03746916726231575,-0.09212616831064224,0.41901251673698425,-0.9025172591209412,0.0,0.0,0.0,0.0,0.0,0.0
3868,1724557154582288251,-1.8855153322219849,-0.12632054090499878,0.16083091497421265,-0.03742530941963196,-0.09204898029565811,0.41888001561164856,-0.902588427066803,0.0,0.0,0.0,0.0,0.0,0.0
3870,1724557154582558601,-1.8853238821029663,-0.1267496943473816,0.16057230532169342,-0.03625547140836716,-0.09099957346916199,0.4182836413383484,-0.9030190706253052,0.0,0.0,0.0,0.0,0.0,0.0
3872,1724557154582817037,-1.885046362876892,-0.1269403100013733,0.1605718433856964,-0.03526504710316658,-0.09126928448677063,0.4187113046646118,-0.9028328061103821,0.0,0.0,0.0,0.0,0.0,0.0
3874,1724557154583086080,-1.88465416431427,-0.12685368955135345,0.1607399433851242,-0.035480573773384094,-0.09404156357049942,0.41984033584594727,-0.9020152688026428,0.0,0.0,0.0,0.0,0.0,0.0
3876,1724557154583339732,-1.884394645690918,-0.12690699100494385,0.160545215010643,-0.034855760633945465,-0.09426918625831604,0.41986849904060364,-0.9020026922225952,0.0,0.0,0.0,0.0,0.0,0.0
3878,1724557154583608034,-1.8841383457183838,-0.12703412771224976,0.1603088229894638,-0.03463059291243553,-0.09389039874076843,0.4196217954158783,-0.9021656513214111,0.0,0.0,0.0,0.0,0.0,0.0
3880,1724557154583880593,-1.8839198350906372,-0.1270899474620819,0.1601933389902115,-0.03322061151266098,-0.09367852658033371,0.4193756878376007,-0.9023551940917969,0.0,0.0,0.0,0.0,0.0,0.0
3882,1724557154584142273,-1.8838403224945068,-0.12741127610206604,0.15984779596328735,-0.031762704253196716,-0.09032566100358963,0.41813769936561584,-0.9033235311508179,0.0,0.0,0.0,0.0,0.0,0.0
3884,1724557154584421182,-1.8836241960525513,-0.1274961233139038,0.1597280204296112,-0.03086184337735176,-0.08833537995815277,0.41800495982170105,-0.9036129117012024,0.0,0.0,0.0,0.0,0.0,0.0
3886,1724557154584678046,-1.8833156824111938,-0.12757913768291473,0.15944938361644745,-0.03101610764861107,-0.08651410788297653,0.4182899594306946,-0.9036518931388855,0.0,0.0,0.0,0.0,0.0,0.0
3888,1724557154585015325,-1.882919430732727,-0.12747710943222046,0.15941932797431946,-0.03138158470392227,-0.08670086413621902,0.4193863570690155,-0.903113067150116,0.0,0.0,0.0,0.0,0.0,0.0
3890,1724557154585295272,-1.8824552297592163,-0.12739375233650208,0.15945592522621155,-0.03395591676235199,-0.08927682787179947,0.4204249382019043,-0.9022857546806335,0.0,0.0,0.0,0.0,0.0,0.0
3892,1724557154585640787,-1.8820655345916748,-0.127473846077919,0.1592956781387329,-0.0344582162797451,-0.08939158171415329,0.42058390378952026,-0.9021812677383423,0.0,0.0,0.0,0.0,0.0,0.0
3894,1724557154585910509,-1.8817152976989746,-0.12770552933216095,0.1588371992111206,-0.03385521098971367,-0.08638737350702286,0.42029184103012085,-0.9026327729225159,0.0,0.0,0.0,0.0,0.0,0.0
3896,1724557154586203766,-1.8811180591583252,-0.12768149375915527,0.15875384211540222,-0.03364170715212822,-0.08791574090719223,0.4214089512825012,-0.9019720554351807,0.0,0.0,0.0,0.0,0.0,0.0
3898,1724557154586552557,-1.8806802034378052,-0.12790264189243317,0.15824492275714874,-0.030789127573370934,-0.08408196270465851,0.4210371673107147,-0.9026129245758057,0.0,0.0,0.0,0.0,0.0,0.0
3900,1724557154586876317,-1.8799558877944946,-0.1278364211320877,0.15838469564914703,-0.030723871663212776,-0.0857202559709549,0.42242780327796936,-0.9018109440803528,0.0,0.0,0.0,0.0,0.0,0.0
3902,1724557154587208757,-1.8792448043823242,-0.12783057987689972,0.1583293229341507,-0.02994357980787754,-0.08615098148584366,0.4235292077064514,-0.9012793898582458,0.0,0.0,0.0,0.0,0.0,0.0
3904,1724557154587534432,-1.8785285949707031,-0.12792836129665375,0.1580846607685089,-0.03047834150493145,-0.08609504997730255,0.4244776964187622,-0.9008203744888306,0.0,0.0,0.0,0.0,0.0,0.0
3906,1724557154587822952,-1.877728819847107,-0.12814617156982422,0.1578034907579422,-0.032663874328136444,-0.08513374626636505,0.42518046498298645,-0.9005036950111389,0.0,0.0,0.0,0.0,0.0,0.0
3908,1724557154588086946,-1.876768946647644,-0.12819388508796692,0.1579599380493164,-0.033613625913858414,-0.08913169056177139,0.4267727732658386,-0.8993279337882996,0.0,0.0,0.0,0.0,0.0,0.0
3910,1724557154588363885,-1.8762048482894897,-0.12868632376194,0.1572393923997879,-0.02917523682117462,-0.082692950963974,0.4261530041694641,-0.9003912210464478,0.0,0.0,0.0,0.0,0.0,0.0
3912,1724557154588705688,-1.8752925395965576,-0.12876620888710022,0.15727916359901428,-0.03072669357061386,-0.08414750546216965,0.4275624454021454,-0.8995362520217896,0.0,0.0,0.0,0.0,0.0,0.0
3914,1724557154588985884,-1.8744540214538574,-0.12910588085651398,0.15695269405841827,-0.03251802176237106,-0.08205986022949219,0.42828887701034546,-0.8993206024169922,0.0,0.0,0.0,0.0,0.0,0.0
3916,1724557154589277554,-1.8737362623214722,-0.12949082255363464,0.1565389186143875,-0.031179731711745262,-0.07811576128005981,0.4282304346561432,-0.8997468948364258,0.0,0.0,0.0,0.0,0.0,0.0
3918,1724557154589613066,-1.8728939294815063,-0.12959928810596466,0.15672318637371063,-0.03100571036338806,-0.07910075038671494,0.429377019405365,-0.8991202116012573,0.0,0.0,0.0,0.0,0.0,0.0
3920,1724557154590057927,-1.8720545768737793,-0.12990733981132507,0.15664416551589966,-0.03182953596115112,-0.0803292766213417,0.42955663800239563,-0.8988966941833496,0.0,0.0,0.0,0.0,0.0,0.0
3922,1724557154590322503,-1.8711272478103638,-0.12993566691875458,0.15677392482757568,-0.03224564716219902,-0.08275116235017776,0.4311428964138031,-0.8979021906852722,0.0,0.0,0.0,0.0,0.0,0.0
3924,1724557154592462257,-1.8703914880752563,-0.13038891553878784,0.15644483268260956,-0.03192642331123352,-0.07910283654928207,0.4308781921863556,-0.8983693718910217,0.0,0.0,0.0,0.0,0.0,0.0
3926,1724557154592793914,-1.8695168495178223,-0.13062328100204468,0.15636618435382843,-0.031638532876968384,-0.07755806297063828,0.43198931217193604,-0.8979805707931519,0.0,0.0,0.0,0.0,0.0,0.0
3928,1724557154593503257,-1.8687700033187866,-0.1308821588754654,0.1561495065689087,-0.029776401817798615,-0.07460575550794601,0.431707501411438,-0.8984298706054688,0.0,0.0,0.0,0.0,0.0,0.0
3930,1724557154602028121,-1.867640495300293,-0.13051001727581024,0.15704016387462616,-0.032836589962244034,-0.08216850459575653,0.43483468890190125,-0.8961523175239563,0.0,0.0,0.0,0.0,0.0,0.0
3932,1724557154610987538,-1.8672170639038086,-0.13106156885623932,0.1561136245727539,-0.02836568094789982,-0.07402639091014862,0.43233799934387207,-0.8982201218605042,0.0,0.0,0.0,0.0,0.0,0.0
3934,1724557154620362265,-1.866384506225586,-0.1311308741569519,0.15616202354431152,-0.030474932864308357,-0.07452189922332764,0.4329373836517334,-0.897821307182312,0.0,0.0,0.0,0.0,0.0,0.0
3936,1724557154630808328,-1.8656694889068604,-0.131103053689003,0.15598687529563904,-0.030305229127407074,-0.07300334423780441,0.4336695373058319,-0.897598385810852,0.0,0.0,0.0,0.0,0.0,0.0
3938,1724557154641176457,-1.8649578094482422,-0.13100364804267883,0.15569056570529938,-0.029972100630402565,-0.07138418406248093,0.434604674577713,-0.8972874879837036,0.0,0.0,0.0,0.0,0.0,0.0
3940,1724557154650616666,-1.8642899990081787,-0.13095690310001373,0.15547960996627808,-0.02971082180738449,-0.06994904577732086,0.43522629141807556,-0.8971078395843506,0.0,0.0,0.0,0.0,0.0,0.0
3942,1724557154661757188,-1.8634675741195679,-0.13074538111686707,0.15588639676570892,-0.03293948620557785,-0.07426170259714127,0.4366593658924103,-0.8959513902664185,0.0,0.0,0.0,0.0,0.0,0.0
3944,1724557154670772559,-1.8630107641220093,-0.13115110993385315,0.15543529391288757,-0.032490916550159454,-0.07068504393100739,0.4360654652118683,-0.8965461254119873,0.0,0.0,0.0,0.0,0.0,0.0
3946,1724557154680955462,-1.8625049591064453,-0.1311623454093933,0.15544119477272034,-0.03258353844285011,-0.0703720971941948,0.4360864758491516,-0.896557092666626,0.0,0.0,0.0,0.0,0.0,0.0
3948,1724557154693473668,-1.8619657754898071,-0.13102519512176514,0.15539029240608215,-0.032979387789964676,-0.07044024020433426,0.436773419380188,-0.896202802658081,0.0,0.0,0.0,0.0,0.0,0.0
3950,1724557154702984898,-1.8615878820419312,-0.1310362070798874,0.15523074567317963,-0.030562814325094223,-0.0667320117354393,0.43715575337409973,-0.896385908126831,0.0,0.0,0.0,0.0,0.0,0.0
3952,1724557154713836277,-1.8611048460006714,-0.13084809482097626,0.1552480310201645,-0.031189506873488426,-0.0679735615849495,0.43840113282203674,-0.8956624269485474,0.0,0.0,0.0,0.0,0.0,0.0
3954,1724557154720630078,-1.8608009815216064,-0.1308385729789734,0.15506425499916077,-0.030072739347815514,-0.06592176854610443,0.4383231997489929,-0.8958922028541565,0.0,0.0,0.0,0.0,0.0,0.0
3956,1724557154731143204,-1.8604352474212646,-0.13078613579273224,0.15496450662612915,-0.030862051993608475,-0.0653502568602562,0.4384672939777374,-0.8958366513252258,0.0,0.0,0.0,0.0,0.0,0.0
3958,1724557154741533923,-1.8600759506225586,-0.13075384497642517,0.15496133267879486,-0.032454025000333786,-0.06660233438014984,0.4390360414981842,-0.8954094648361206,0.0,0.0,0.0,0.0,0.0,0.0
3960,1724557154753022452,-1.8598923683166504,-0.1307799518108368,0.1548282653093338,-0.032592277973890305,-0.0668882429599762,0.4386480152606964,-0.8955733180046082,0.0,0.0,0.0,0.0,0.0,0.0
3962,1724557154760448112,-1.859626293182373,-0.1307142972946167,0.15482643246650696,-0.03377709537744522,-0.06766720861196518,0.43910902738571167,-0.8952448964118958,0.0,0.0,0.0,0.0,0.0,0.0
3964,1724557154771132178,-1.8594588041305542,-0.13074283301830292,0.15475934743881226,-0.03359569236636162,-0.06741929799318314,0.4392654597759247,-0.8951937556266785,0.0,0.0,0.0,0.0,0.0,0.0
3966,1724557154780797157,-1.85933256149292,-0.13070157170295715,0.15477298200130463,-0.03282743692398071,-0.06775250285863876,0.43964630365371704,-0.8950100541114807,0.0,0.0,0.0,0.0,0.0,0.0
3968,1724557154791041188,-1.8592206239700317,-0.13074833154678345,0.15488380193710327,-0.03267904371023178,-0.06790932267904282,0.43997249007225037,-0.894843339920044,0.0,0.0,0.0,0.0,0.0,0.0
3970,1724557154801158921,-1.8591769933700562,-0.13081926107406616,0.1548788696527481,-0.032638609409332275,-0.06776653975248337,0.43996521830558777,-0.8948591947555542,0.0,0.0,0.0,0.0,0.0,0.0
3972,1724557154812241132,-1.859062671661377,-0.130876824259758,0.1549491286277771,-0.033175643533468246,-0.06804268062114716,0.4406276047229767,-0.894492506980896,0.0,0.0,0.0,0.0,0.0,0.0
3974,1724557154820633844,-1.8589547872543335,-0.13087722659111023,0.154988631606102,-0.03322100639343262,-0.06871329993009567,0.4409957826137543,-0.8942581415176392,0.0,0.0,0.0,0.0,0.0,0.0
3976,1724557154831072092,-1.8588740825653076,-0.1309639811515808,0.15492179989814758,-0.0334896557033062,-0.0685400664806366,0.4410533905029297,-0.8942329287528992,0.0,0.0,0.0,0.0,0.0,0.0
3978,1724557154841141339,-1.858803391456604,-0.13099198043346405,0.15497106313705444,-0.0325770378112793,-0.06891153007745743,0.4413972795009613,-0.8940684795379639,0.0,0.0,0.0,0.0,0.0,0.0
3980,1724557154850709931,-1.8587464094161987,-0.13101348280906677,0.15490180253982544,-0.031192529946565628,-0.06894254684448242,0.4415125548839569,-0.8940585255622864,0.0,0.0,0.0,0.0,0.0,0.0
3982,1724557154861235687,-1.858757734298706,-0.13119009137153625,0.15449416637420654,-0.028855687007308006,-0.06537094712257385,0.44088029861450195,-0.8947169780731201,0.0,0.0,0.0,0.0,0.0,0.0
3984,1724557154870426799,-1.8585073947906494,-0.1311078816652298,0.15461133420467377,-0.029913291335105896,-0.06632068008184433,0.4421256482601166,-0.8939975500106812,0.0,0.0,0.0,0.0,0.0,0.0
3986,1724557154893292699,-1.8583570718765259,-0.13119788467884064,0.15452398359775543,-0.02989085763692856,-0.06564376503229141,0.4423198997974396,-0.8939521908760071,0.0,0.0,0.0,0.0,0.0,0.0
3988,1724557154893598082,-1.8582720756530762,-0.13137297332286835,0.15435844659805298,-0.02905677817761898,-0.06374584883451462,0.4419407546520233,-0.894304633140564,0.0,0.0,0.0,0.0,0.0,0.0
3990,1724557154900854729,-1.8581100702285767,-0.131475031375885,0.15432024002075195,-0.029071595519781113,-0.0634569451212883,0.4419822096824646,-0.894304096698761,0.0,0.0,0.0,0.0,0.0,0.0
3992,1724557154911138457,-1.8579304218292236,-0.1315462589263916,0.15439942479133606,-0.02963431552052498,-0.06397214531898499,0.44242745637893677,-0.8940287232398987,0.0,0.0,0.0,0.0,0.0,0.0
3994,1724557154924348681,-1.8577172756195068,-0.13168148696422577,0.15448544919490814,-0.02954789064824581,-0.06301015615463257,0.4426175355911255,-0.8940057754516602,0.0,0.0,0.0,0.0,0.0,0.0
3996,1724557154931779542,-1.8574944734573364,-0.1317785382270813,0.1543915867805481,-0.029227131977677345,-0.06271094083786011,0.44268113374710083,-0.8940058350563049,0.0,0.0,0.0,0.0,0.0,0.0
3998,1724557154943965869,-1.8572558164596558,-0.13186512887477875,0.15438728034496307,-0.028972286731004715,-0.06257062405347824,0.4429449439048767,-0.8938933610916138,0.0,0.0,0.0,0.0,0.0,0.0
4000,1724557154952910102,-1.8570318222045898,-0.13195791840553284,0.15435171127319336,-0.0290081724524498,-0.06236499547958374,0.4432189464569092,-0.893770694732666,0.0,0.0,0.0,0.0,0.0,0.0
4002,1724557154962563296,-1.8567317724227905,-0.1320486217737198,0.15462075173854828,-0.03053867630660534,-0.063809335231781,0.44374072551727295,-0.8933587670326233,0.0,0.0,0.0,0.0,0.0,0.0
4004,1724557154971289205,-1.8565444946289062,-0.1322605162858963,0.15460754930973053,-0.031301263719797134,-0.06401245296001434,0.4431835114955902,-0.8935944437980652,0.0,0.0,0.0,0.0,0.0,0.0
4006,1724557154981996041,-1.8563117980957031,-0.13227248191833496,0.1546775996685028,-0.03173515945672989,-0.06506465375423431,0.44343194365501404,-0.8933798670768738,0.0,0.0,0.0,0.0,0.0,0.0
4008,1724557154994013078,-1.8560999631881714,-0.13234899938106537,0.15464653074741364,-0.03157077357172966,-0.06468452513217926,0.44379815459251404,-0.8932314515113831,0.0,0.0,0.0,0.0,0.0,0.0
4010,1724557155000443614,-1.8558588027954102,-0.13240642845630646,0.15462027490139008,-0.03126341477036476,-0.06452171504497528,0.4443594813346863,-0.8929749131202698,0.0,0.0,0.0,0.0,0.0,0.0
4012,1724557155016319360,-1.8556530475616455,-0.13256335258483887,0.15450309216976166,-0.031066222116351128,-0.06334860622882843,0.4444372355937958,-0.8930270671844482,0.0,0.0,0.0,0.0,0.0,0.0
4014,1724557155021047175,-1.8554456233978271,-0.1326795071363449,0.15434350073337555,-0.03118053264915943,-0.06301438063383102,0.44446077942848206,-0.8930350542068481,0.0,0.0,0.0,0.0,0.0,0.0
4016,1724557155034030777,-1.8552405834197998,-0.1326521784067154,0.1543453484773636,-0.030691200867295265,-0.06288900226354599,0.4450041651725769,-0.8927902579307556,0.0,0.0,0.0,0.0,0.0,0.0
4018,1724557155043450785,-1.8550890684127808,-0.1326962113380432,0.15425953269004822,-0.0296259056776762,-0.062285494059324265,0.44529199600219727,-0.8927249908447266,0.0,0.0,0.0,0.0,0.0,0.0
4020,1724557155051092500,-1.8549214601516724,-0.13276956975460052,0.15419578552246094,-0.029716970399022102,-0.06176881864666939,0.44547274708747864,-0.8926677107810974,0.0,0.0,0.0,0.0,0.0,0.0
4022,1724557155063162353,-1.854852318763733,-0.13289174437522888,0.15394695103168488,-0.027921902015805244,-0.05946924164891243,0.4449099600315094,-0.8931623697280884,0.0,0.0,0.0,0.0,0.0,0.0
4024,1724557155071183078,-1.8545961380004883,-0.1328946202993393,0.154089093208313,-0.02934817597270012,-0.060637060552835464,0.44557058811187744,-0.8927086591720581,0.0,0.0,0.0,0.0,0.0,0.0
4026,1724557155082914655,-1.85438871383667,-0.13297061622142792,0.15407055616378784,-0.029719160869717598,-0.06037551909685135,0.4458765685558319,-0.8925613164901733,0.0,0.0,0.0,0.0,0.0,0.0
4028,1724557155182406826,-1.8541818857192993,-0.1331307590007782,0.15387675166130066,-0.029745478183031082,-0.05951998010277748,0.4460097551345825,-0.8925513625144958,0.0,0.0,0.0,0.0,0.0,0.0
4030,1724557155183378565,-1.8540056943893433,-0.1332329660654068,0.15379086136817932,-0.0295869130641222,-0.058658868074417114,0.44587671756744385,-0.8926801085472107,0.0,0.0,0.0,0.0,0.0,0.0
4032,1724557155183654468,-1.8538196086883545,-0.13335181772708893,0.15373070538043976,-0.029872022569179535,-0.058369964361190796,0.4461401104927063,-0.8925578594207764,0.0,0.0,0.0,0.0,0.0,0.0
4034,1724557155183947952,-1.8536314964294434,-0.13344445824623108,0.15369579195976257,-0.03034309484064579,-0.05834910646080971,0.4463045597076416,-0.8924611210823059,0.0,0.0,0.0,0.0,0.0,0.0
4036,1724557155184338338,-1.8533953428268433,-0.1335536241531372,0.15363536775112152,-0.030969562008976936,-0.05827339366078377,0.44631296396255493,-0.8924404382705688,0.0,0.0,0.0,0.0,0.0,0.0
4038,1724557155184632989,-1.853163242340088,-0.13361743092536926,0.15358397364616394,-0.030967164784669876,-0.058384284377098083,0.4462694525718689,-0.8924549221992493,0.0,0.0,0.0,0.0,0.0,0.0
4040,1724557155184908177,-1.8530054092407227,-0.13375018537044525,0.15352816879749298,-0.029479091987013817,-0.0567898266017437,0.44594693183898926,-0.892769455909729,0.0,0.0,0.0,0.0,0.0,0.0
4042,1724557155185188099,-1.852811574935913,-0.13379251956939697,0.1535189300775528,-0.030026663094758987,-0.05723739415407181,0.44634079933166504,-0.8925256729125977,0.0,0.0,0.0,0.0,0.0,0.0
4044,1724557155185492788,-1.8526301383972168,-0.13387662172317505,0.15350687503814697,-0.030210066586732864,-0.05626467242836952,0.446256160736084,-0.8926237225532532,0.0,0.0,0.0,0.0,0.0,0.0
4046,1724557155185766481,-1.852446436882019,-0.13386383652687073,0.15360800921916962,-0.029859067872166634,-0.056719712913036346,0.44652917981147766,-0.8924702405929565,0.0,0.0,0.0,0.0,0.0,0.0
4048,1724557155190597159,-1.8522688150405884,-0.13384981453418732,0.1536506712436676,-0.029620083048939705,-0.057196103036403656,0.44680851697921753,-0.8923079967498779,0.0,0.0,0.0,0.0,0.0,0.0
4050,1724557155200703729,-1.8520647287368774,-0.13385313749313354,0.15360425412654877,-0.030721314251422882,-0.05793289095163345,0.4473085105419159,-0.8919726014137268,0.0,0.0,0.0,0.0,0.0,0.0
4052,1724557155211685840,-1.8518935441970825,-0.13391521573066711,0.15355466306209564,-0.03087097778916359,-0.05746298283338547,0.44744840264320374,-0.8919276595115662,0.0,0.0,0.0,0.0,0.0,0.0
4054,1724557155220411421,-1.8517429828643799,-0.13387572765350342,0.15362565219402313,-0.03004070371389389,-0.05819570645689964,0.4477815628051758,-0.8917412161827087,0.0,0.0,0.0,0.0,0.0,0.0
4056,1724557155232111029,-1.8515913486480713,-0.1339198797941208,0.15356555581092834,-0.02918832004070282,-0.05781179666519165,0.4478060007095337,-0.891782283782959,0.0,0.0,0.0,0.0,0.0,0.0
4058,1724557155241189638,-1.8513988256454468,-0.1339598000049591,0.153518408536911,-0.028658295050263405,-0.057627011090517044,0.4480246901512146,-0.8917016386985779,0.0,0.0,0.0,0.0,0.0,0.0
4060,1724557155251104341,-1.8510643243789673,-0.13392464816570282,0.1538083851337433,-0.030523095279932022,-0.060769904404878616,0.44870084524154663,-0.8910908699035645,0.0,0.0,0.0,0.0,0.0,0.0
4062,1724557155261332104,-1.850895881652832,-0.1341191828250885,0.1536770612001419,-0.029394440352916718,-0.059265319257974625,0.448199987411499,-0.8914821743965149,0.0,0.0,0.0,0.0,0.0,0.0
4064,1724557155270780502,-1.8507335186004639,-0.13442359864711761,0.15316887199878693,-0.029175397008657455,-0.05789729580283165,0.4465911090373993,-0.8923861980438232,0.0,0.0,0.0,0.0,0.0,0.0
4066,1724557155281332376,-1.8504077196121216,-0.13456617295742035,0.15354011952877045,-0.02969902940094471,-0.05676970258355141,0.447133332490921,-0.8921698331832886,0.0,0.0,0.0,0.0,0.0,0.0
4068,1724557155291075748,-1.8501145839691162,-0.13464225828647614,0.15364651381969452,-0.030084531754255295,-0.05678516998887062,0.44766342639923096,-0.8918899893760681,0.0,0.0,0.0,0.0,0.0,0.0
4070,1724557155301060364,-1.8498412370681763,-0.13470831513404846,0.1536209136247635,-0.030072227120399475,-0.05627577751874924,0.44799262285232544,-0.8917574286460876,0.0,0.0,0.0,0.0,0.0,0.0
4072,1724557155310505731,-1.8495882749557495,-0.1347128003835678,0.15337462723255157,-0.029645327478647232,-0.05669993534684181,0.4482147991657257,-0.891633152961731,0.0,0.0,0.0,0.0,0.0,0.0
4074,1724557155320778529,-1.849324107170105,-0.13470204174518585,0.1534189134836197,-0.029718581587076187,-0.05702783167362213,0.44877320528030396,-0.8913289904594421,0.0,0.0,0.0,0.0,0.0,0.0
4076,1724557155330970079,-1.8491241931915283,-0.13489198684692383,0.15338318049907684,-0.03035583905875683,-0.0554131455719471,0.4485437572002411,-0.8915247917175293,0.0,0.0,0.0,0.0,0.0,0.0
4078,1724557155341845833,-1.8489551544189453,-0.13488644361495972,0.15336687862873077,-0.028409777209162712,-0.054615750908851624,0.448822945356369,-0.8914976119995117,0.0,0.0,0.0,0.0,0.0,0.0
4080,1724557155350546737,-1.8485990762710571,-0.13483332097530365,0.15347956120967865,-0.029153475537896156,-0.05523589253425598,0.45001545548439026,-0.8908340930938721,0.0,0.0,0.0,0.0,0.0,0.0
4082,1724557155360333671,-1.8483566045761108,-0.13486404716968536,0.1534869223833084,-0.02805720455944538,-0.05501280352473259,0.4505208730697632,-0.8906275629997253,0.0,0.0,0.0,0.0,0.0,0.0
4084,1724557155370407522,-1.84799325466156,-0.13489356637001038,0.15364886820316315,-0.030171876773238182,-0.05787161365151405,0.451198011636734,-0.8900342583656311,0.0,0.0,0.0,0.0,0.0,0.0
4086,1724557155381039831,-1.8478444814682007,-0.13520964980125427,0.15319228172302246,-0.028497988358139992,-0.054880540817976,0.4498044550418854,-0.8909837007522583,0.0,0.0,0.0,0.0,0.0,0.0
4088,1724557155413892324,-1.8476839065551758,-0.13547442853450775,0.15301960706710815,-0.028192544355988503,-0.05370694026350975,0.44872424006462097,-0.8916094303131104,0.0,0.0,0.0,0.0,0.0,0.0
4090,1724557155414170860,-1.8474957942962646,-0.1356961727142334,0.15274831652641296,-0.027342690154910088,-0.05179530754685402,0.44769716262817383,-0.8922650218009949,0.0,0.0,0.0,0.0,0.0,0.0
4092,1724557155414446697,-1.8472177982330322,-0.13581311702728271,0.15263620018959045,-0.026502326130867004,-0.05050210654735565,0.4476611614227295,-0.8923825621604919,0.0,0.0,0.0,0.0,0.0,0.0
4094,1724557155420624202,-1.846908688545227,-0.13593491911888123,0.15239042043685913,-0.02583957090973854,-0.048941388726234436,0.44748151302337646,-0.8925790786743164,0.0,0.0,0.0,0.0,0.0,0.0
4096,1724557155431242717,-1.8464338779449463,-0.1357523500919342,0.15262967348098755,-0.02572205848991871,-0.04963693022727966,0.4491690397262573,-0.891696035861969,0.0,0.0,0.0,0.0,0.0,0.0
4098,1724557155440994578,-1.846024513244629,-0.1357146054506302,0.15273430943489075,-0.02591712772846222,-0.04991505295038223,0.44977980852127075,-0.8913669586181641,0.0,0.0,0.0,0.0,0.0,0.0
4100,1724557155450641752,-1.845569372177124,-0.13558492064476013,0.15323567390441895,-0.026664676144719124,-0.05163298919796944,0.4513266086578369,-0.8904646635055542,0.0,0.0,0.0,0.0,0.0,0.0
4102,1724557155461128749,-1.8451192378997803,-0.13553999364376068,0.15348193049430847,-0.028150402009487152,-0.053402967751026154,0.45218855142593384,-0.8898771405220032,0.0,0.0,0.0,0.0,0.0,0.0
4104,1724557155470350264,-1.8447240591049194,-0.13555949926376343,0.15366359055042267,-0.028436318039894104,-0.05356598272919655,0.4527764618396759,-0.889559268951416,0.0,0.0,0.0,0.0,0.0,0.0
4106,1724557155482295026,-1.8443161249160767,-0.1356058567762375,0.1538446992635727,-0.029901515692472458,-0.0549326166510582,0.4532349407672882,-0.8891942501068115,0.0,0.0,0.0,0.0,0.0,0.0
4108,1724557155490578018,-1.8440178632736206,-0.13571575284004211,0.15390509366989136,-0.028793733566999435,-0.05352359265089035,0.4529476463794708,-0.8894630670547485,0.0,0.0,0.0,0.0,0.0,0.0
4110,1724557155501957840,-1.843736171722412,-0.13585254549980164,0.1540261059999466,-0.028283774852752686,-0.05279715359210968,0.45273008942604065,-0.8896335959434509,0.0,0.0,0.0,0.0,0.0,0.0
4112,1724557155511089038,-1.8433492183685303,-0.1359991729259491,0.1539255529642105,-0.02793094888329506,-0.052694134414196014,0.45239904522895813,-0.8898192644119263,0.0,0.0,0.0,0.0,0.0,0.0
4114,1724557155534420535,-1.842969298362732,-0.13621917366981506,0.15361635386943817,-0.027632970362901688,-0.05089520290493965,0.4511745870113373,-0.890554666519165,0.0,0.0,0.0,0.0,0.0,0.0
4116,1724557155534798288,-1.8425825834274292,-0.13641174137592316,0.15336455404758453,-0.027560248970985413,-0.04961095750331879,0.4502640664577484,-0.8910899758338928,0.0,0.0,0.0,0.0,0.0,0.0
4118,1724557155541104811,-1.842162847518921,-0.13651491701602936,0.15311680734157562,-0.0264742448925972,-0.04854827746748924,0.45037996768951416,-0.8911229968070984,0.0,0.0,0.0,0.0,0.0,0.0
4120,1724557155550444444,-1.8416978120803833,-0.13653071224689484,0.15322276949882507,-0.0253501757979393,-0.04705863445997238,0.45115458965301514,-0.8908436894416809,0.0,0.0,0.0,0.0,0.0,0.0
4122,1724557155560711347,-1.8410701751708984,-0.1363440454006195,0.15362457931041718,-0.026098495349287987,-0.048603229224681854,0.45346641540527344,-0.8895644545555115,0.0,0.0,0.0,0.0,0.0,0.0
4124,1724557155570695884,-1.8405886888504028,-0.13626006245613098,0.15404392778873444,-0.026673322543501854,-0.049698006361722946,0.4549189805984497,-0.8887448310852051,0.0,0.0,0.0,0.0,0.0,0.0
4126,1724557155580500135,-1.840245008468628,-0.13631819188594818,0.154123917222023,-0.025739168748259544,-0.04852555692195892,0.4550923705101013,-0.8887484669685364,0.0,0.0,0.0,0.0,0.0,0.0
4128,1724557155591244846,-1.839829683303833,-0.136411651968956,0.15426114201545715,-0.02532694861292839,-0.048602644354104996,0.45573899149894714,-0.8884246945381165,0.0,0.0,0.0,0.0,0.0,0.0
4130,1724557155604192083,-1.8394070863723755,-0.1366008222103119,0.15439215302467346,-0.025947999209165573,-0.047464411705732346,0.4558752477169037,-0.8883983492851257,0.0,0.0,0.0,0.0,0.0,0.0
4132,1724557155611809207,-1.838979959487915,-0.13666269183158875,0.15455208718776703,-0.025832755491137505,-0.04790269955992699,0.45652368664741516,-0.8880451917648315,0.0,0.0,0.0,0.0,0.0,0.0
4134,1724557155620352995,-1.8385841846466064,-0.13677680492401123,0.15451228618621826,-0.02530275471508503,-0.04749217629432678,0.4564366340637207,-0.8881272673606873,0.0,0.0,0.0,0.0,0.0,0.0
4136,1724557155630979227,-1.8380738496780396,-0.13689318299293518,0.15454360842704773,-0.025569384917616844,-0.04717794805765152,0.4563882350921631,-0.8881611227989197,0.0,0.0,0.0,0.0,0.0,0.0
4138,1724557155640823931,-1.8375808000564575,-0.13690629601478577,0.15449963510036469,-0.025720084086060524,-0.04725678637623787,0.45639434456825256,-0.8881494402885437,0.0,0.0,0.0,0.0,0.0,0.0
4140,1724557155651008589,-1.836937665939331,-0.13675512373447418,0.15474915504455566,-0.0261518657207489,-0.04921039938926697,0.45701730251312256,-0.887710452079773,0.0,0.0,0.0,0.0,0.0,0.0
4142,1724557155661574574,-1.8363412618637085,-0.13681793212890625,0.15459512174129486,-0.025379404425621033,-0.04826054349541664,0.45654502511024475,-0.8880279064178467,0.0,0.0,0.0,0.0,0.0,0.0
4144,1724557155670965200,-1.8356987237930298,-0.13686443865299225,0.15439213812351227,-0.02507415972650051,-0.04757949709892273,0.45596131682395935,-0.8883731365203857,0.0,0.0,0.0,0.0,0.0,0.0
4146,1724557155702958109,-1.8350204229354858,-0.13678564131259918,0.15483298897743225,-0.02580934204161167,-0.04866473749279976,0.4565899074077606,-0.8879703879356384,0.0,0.0,0.0,0.0,0.0,0.0
4148,1724557155703372902,-1.8343523740768433,-0.137025848031044,0.15496723353862762,-0.027142928913235664,-0.04708242416381836,0.4552547335624695,-0.8887010812759399,0.0,0.0,0.0,0.0,0.0,0.0
4150,1724557155703683642,-1.833556890487671,-0.13693292438983917,0.15519535541534424,-0.027537625283002853,-0.04797933250665665,0.45579856634140015,-0.8883622288703918,0.0,0.0,0.0,0.0,0.0,0.0
4152,1724557155711918015,-1.8328135013580322,-0.13681085407733917,0.1554831564426422,-0.02710517682135105,-0.048515595495700836,0.4564463496208191,-0.8880136609077454,0.0,0.0,0.0,0.0,0.0,0.0
4154,1724557155720460257,-1.8320708274841309,-0.1369035840034485,0.15523815155029297,-0.026537809520959854,-0.047022074460983276,0.455593079328537,-0.8885492086410522,0.0,0.0,0.0,0.0,0.0,0.0
4156,1724557155731728111,-1.8312904834747314,-0.13692550361156464,0.1554536521434784,-0.026160331442952156,-0.04607163369655609,0.45540106296539307,-0.8887085318565369,0.0,0.0,0.0,0.0,0.0,0.0
4158,1724557155741694779,-1.8303228616714478,-0.13673651218414307,0.1560295969247818,-0.026964202523231506,-0.0475468784570694,0.45699751377105713,-0.8877869248390198,0.0,0.0,0.0,0.0,0.0,0.0
4160,1724557155752670280,-1.8295587301254272,-0.13694819808006287,0.15592385828495026,-0.026227077469229698,-0.04301987960934639,0.4556993246078491,-0.888706624507904,0.0,0.0,0.0,0.0,0.0,0.0
4162,1724557155760381870,-1.8284666538238525,-0.13658449053764343,0.15639351308345795,-0.026406917721033096,-0.04547305777668953,0.4573277533054352,-0.887742280960083,0.0,0.0,0.0,0.0,0.0,0.0
4164,1724557155771081091,-1.8277119398117065,-0.13664785027503967,0.15608762204647064,-0.024731166660785675,-0.0433303564786911,0.4558071792125702,-0.8886792659759521,0.0,0.0,0.0,0.0,0.0,0.0
4166,1724557155780919581,-1.8268595933914185,-0.13662880659103394,0.1562778651714325,-0.024527017027139664,-0.04330192878842354,0.4555773138999939,-0.8888041377067566,0.0,0.0,0.0,0.0,0.0,0.0
4168,1724557155792305711,-1.8259419202804565,-0.13659965991973877,0.1565944403409958,-0.024418476969003677,-0.043689463287591934,0.455565482378006,-0.8887942433357239,0.0,0.0,0.0,0.0,0.0,0.0
4170,1724557155800722210,-1.8250178098678589,-0.1367608606815338,0.15640318393707275,-0.02551523968577385,-0.04410891979932785,0.45442110300064087,-0.8893283009529114,0.0,0.0,0.0,0.0,0.0,0.0
4172,1724557155938046575,-1.824104905128479,-0.13659588992595673,0.15713277459144592,-0.024980513378977776,-0.046067364513874054,0.4549065828323364,-0.8889959454536438,0.0,0.0,0.0,0.0,0.0,0.0
4174,1724557155938851270,-1.8233888149261475,-0.1367347538471222,0.15710240602493286,-0.02443213202059269,-0.04515792056918144,0.45345377922058105,-0.8897996544837952,0.0,0.0,0.0,0.0,0.0,0.0
4176,1724557155940168466,-1.8227211236953735,-0.1368691474199295,0.1569221168756485,-0.02259078249335289,-0.04369496926665306,0.45197543501853943,-0.8906731009483337,0.0,0.0,0.0,0.0,0.0,0.0
4178,1724557155940615170,-1.8218754529953003,-0.13687127828598022,0.1570197343826294,-0.021232513710856438,-0.04355408996343613,0.4518372714519501,-0.8907835483551025,0.0,0.0,0.0,0.0,0.0,0.0
4180,1724557155941093870,-1.8210856914520264,-0.1370191127061844,0.15681488811969757,-0.02009589783847332,-0.04184047505259514,0.4505540132522583,-0.8915417790412903,0.0,0.0,0.0,0.0,0.0,0.0
4182,1724557155941567879,-1.8201919794082642,-0.13687656819820404,0.15714003145694733,-0.020713036879897118,-0.0423281192779541,0.4512447416782379,-0.8911551237106323,0.0,0.0,0.0,0.0,0.0,0.0
4184,1724557155942193733,-1.8193318843841553,-0.13677148520946503,0.15747152268886566,-0.021775461733341217,-0.04299941658973694,0.4516918361186981,-0.8908711075782776,0.0,0.0,0.0,0.0,0.0,0.0
4186,1724557155942610252,-1.8185254335403442,-0.1365032196044922,0.15844634175300598,-0.02313181199133396,-0.04336874559521675,0.45269277691841125,-0.8903108239173889,0.0,0.0,0.0,0.0,0.0,0.0
4188,1724557155942930865,-1.8178143501281738,-0.13661769032478333,0.15843942761421204,-0.024177126586437225,-0.04103369265794754,0.4516172707080841,-0.8909397125244141,0.0,0.0,0.0,0.0,0.0,0.0
4190,1724557155943772275,-1.817006230354309,-0.1365116983652115,0.15879902243614197,-0.025690753012895584,-0.042675383388996124,0.45203539729118347,-0.8906081318855286,0.0,0.0,0.0,0.0,0.0,0.0
4192,1724557155944159146,-1.8162897825241089,-0.1367233842611313,0.15823471546173096,-0.02543996460735798,-0.04123309999704361,0.44999873638153076,-0.8917139768600464,0.0,0.0,0.0,0.0,0.0,0.0
4194,1724557155944547916,-1.815597653388977,-0.13690873980522156,0.1582278609275818,-0.025461774319410324,-0.0407668873667717,0.4485474228858948,-0.8924656510353088,0.0,0.0,0.0,0.0,0.0,0.0
4196,1724557155945256181,-1.8148332834243774,-0.13680627942085266,0.1590365469455719,-0.02562035620212555,-0.04242590442299843,0.449502170085907,-0.8919032216072083,0.0,0.0,0.0,0.0,0.0,0.0
4198,1724557155945517021,-1.8141897916793823,-0.13701042532920837,0.1587076336145401,-0.0240166075527668,-0.039651043713092804,0.44796934723854065,-0.8928463459014893,0.0,0.0,0.0,0.0,0.0,0.0
4200,1724557155950497728,-1.813293218612671,-0.13676679134368896,0.15914708375930786,-0.02387300506234169,-0.042095303535461426,0.4490656554698944,-0.892187237739563,0.0,0.0,0.0,0.0,0.0,0.0
4202,1724557155960794468,-1.8126271963119507,-0.1369311660528183,0.1589573472738266,-0.022658728063106537,-0.04031527787446976,0.4474402070045471,-0.8931173086166382,0.0,0.0,0.0,0.0,0.0,0.0
4204,1724557155971075203,-1.8118784427642822,-0.1369551420211792,0.15917357802391052,-0.02256070077419281,-0.04057934507727623,0.44714754819869995,-0.8932543396949768,0.0,0.0,0.0,0.0,0.0,0.0
4206,1724557155981909392,-1.8111759424209595,-0.13730773329734802,0.1585470587015152,-0.021350299939513206,-0.039720866829156876,0.44571518898010254,-0.8940383195877075,0.0,0.0,0.0,0.0,0.0,0.0
4208,1724557155991063790,-1.810488224029541,-0.13749051094055176,0.1584944725036621,-0.02149232104420662,-0.03880474343895912,0.4437426030635834,-0.8950557112693787,0.0,0.0,0.0,0.0,0.0,0.0
4210,1724557156029415136,-1.809726595878601,-0.13730259239673615,0.1593029499053955,-0.022971874102950096,-0.0405997671186924,0.4441662132740021,-0.8947291970252991,0.0,0.0,0.0,0.0,0.0,0.0
4212,1724557156029702924,-1.8090301752090454,-0.13726939260959625,0.15957430005073547,-0.021537184715270996,-0.03939046338200569,0.4446181058883667,-0.8945945501327515,0.0,0.0,0.0,0.0,0.0,0.0
4214,1724557156029971851,-1.80812406539917,-0.13719241321086884,0.15983586013317108,-0.022116173058748245,-0.04066583886742592,0.4454553723335266,-0.8941066861152649,0.0,0.0,0.0,0.0,0.0,0.0
4216,1724557156031600341,-1.8075084686279297,-0.13748358190059662,0.1594729870557785,-0.020382827147841454,-0.038266927003860474,0.4438805878162384,-0.8950364589691162,0.0,0.0,0.0,0.0,0.0,0.0
4218,1724557156040654407,-1.8067755699157715,-0.1376165747642517,0.15953093767166138,-0.01981748640537262,-0.037567105144262314,0.44323697686195374,-0.8953976631164551,0.0,0.0,0.0,0.0,0.0,0.0
4220,1724557156050901082,-1.806014060974121,-0.13772007822990417,0.15965643525123596,-0.01994161121547222,-0.037268880754709244,0.4430316090583801,-0.8955090045928955,0.0,0.0,0.0,0.0,0.0,0.0
4222,1724557156063352841,-1.805256724357605,-0.13779248297214508,0.16021335124969482,-0.021417764946818352,-0.03812312334775925,0.44306519627571106,-0.8954222798347473,0.0,0.0,0.0,0.0,0.0,0.0
4224,1724557156071478812,-1.8043920993804932,-0.1377921849489212,0.16069960594177246,-0.023300377652049065,-0.04029587283730507,0.44365811347961426,-0.8949864506721497,0.0,0.0,0.0,0.0,0.0,0.0
4226,1724557156132466633,-1.8036880493164062,-0.13820099830627441,0.16001015901565552,-0.022312013432383537,-0.03874937817454338,0.4416576027870178,-0.896068811416626,0.0,0.0,0.0,0.0,0.0,0.0
4228,1724557156132969793,-1.8029966354370117,-0.13847708702087402,0.1598084419965744,-0.020983321592211723,-0.03805705904960632,0.44068264961242676,-0.8966104388237,0.0,0.0,0.0,0.0,0.0,0.0
4230,1724557156133802028,-1.802294135093689,-0.1386195421218872,0.16005654633045197,-0.021275704726576805,-0.038126733154058456,0.4404663145542145,-0.8967068195343018,0.0,0.0,0.0,0.0,0.0,0.0
4232,1724557156134641649,-1.8016315698623657,-0.1388133317232132,0.1602018028497696,-0.021283475682139397,-0.037501826882362366,0.43997928500175476,-0.8969720005989075,0.0,0.0,0.0,0.0,0.0,0.0
4234,1724557156134961480,-1.8009556531906128,-0.13895082473754883,0.16042491793632507,-0.021019212901592255,-0.03700542077422142,0.43962767720222473,-0.8971712589263916,0.0,0.0,0.0,0.0,0.0,0.0
4236,1724557156135251157,-1.8002902269363403,-0.13909485936164856,0.1605549305677414,-0.020710324868559837,-0.03621961176395416,0.4389078915119171,-0.8975628614425659,0.0,0.0,0.0,0.0,0.0,0.0
4238,1724557156141468574,-1.7995885610580444,-0.13917171955108643,0.16101688146591187,-0.02117103897035122,-0.03620746359229088,0.4392862915992737,-0.8973674774169922,0.0,0.0,0.0,0.0,0.0,0.0
4240,1724557156151063399,-1.7988240718841553,-0.13959422707557678,0.16042602062225342,-0.020129650831222534,-0.03485136106610298,0.4382062554359436,-0.8979729413986206,0.0,0.0,0.0,0.0,0.0,0.0
4242,1724557156167130080,-1.7980842590332031,-0.13963937759399414,0.16080430150032043,-0.01911778748035431,-0.032767489552497864,0.4386880397796631,-0.897838294506073,0.0,0.0,0.0,0.0,0.0,0.0
4244,1724557156170344654,-1.7972383499145508,-0.13969923555850983,0.16113537549972534,-0.019201550632715225,-0.03309649974107742,0.43971455097198486,-0.8973221182823181,0.0,0.0,0.0,0.0,0.0,0.0
4246,1724557156180823627,-1.7964619398117065,-0.13985295593738556,0.16095393896102905,-0.019310718402266502,-0.03311074152588844,0.43944787979125977,-0.8974499106407166,0.0,0.0,0.0,0.0,0.0,0.0
4248,1724557156190933606,-1.7954332828521729,-0.1397828459739685,0.16135558485984802,-0.02211735211312771,-0.03698624670505524,0.44143807888031006,-0.8962562680244446,0.0,0.0,0.0,0.0,0.0,0.0
4250,1724557156200631078,-1.794721007347107,-0.13997891545295715,0.161539226770401,-0.021052924916148186,-0.03473630174994469,0.441219687461853,-0.8964794278144836,0.0,0.0,0.0,0.0,0.0,0.0
4252,1724557156216838009,-1.793792486190796,-0.14004065096378326,0.16207121312618256,-0.022194312885403633,-0.035809122025966644,0.44247397780418396,-0.895791232585907,0.0,0.0,0.0,0.0,0.0,0.0
4254,1724557156220601604,-1.793074369430542,-0.14033028483390808,0.16212400794029236,-0.020903680473566055,-0.03425624966621399,0.4418574571609497,-0.8961872458457947,0.0,0.0,0.0,0.0,0.0,0.0
4256,1724557156232864308,-1.7922381162643433,-0.14052118360996246,0.16235138475894928,-0.021706266328692436,-0.03511033579707146,0.44182220101356506,-0.8961525559425354,0.0,0.0,0.0,0.0,0.0,0.0
4258,1724557156242525630,-1.7916016578674316,-0.14101645350456238,0.1621306836605072,-0.020807992666959763,-0.03388390317559242,0.4400946795940399,-0.8970706462860107,0.0,0.0,0.0,0.0,0.0,0.0
4260,1724557156250729364,-1.7910014390945435,-0.14149251580238342,0.16205142438411713,-0.019769109785556793,-0.031732674688100815,0.438070684671402,-0.8981627821922302,0.0,0.0,0.0,0.0,0.0,0.0
4262,1724557156264994745,-1.790189504623413,-0.14189362525939941,0.16220849752426147,-0.020024843513965607,-0.03169243037700653,0.43811094760894775,-0.8981388807296753,0.0,0.0,0.0,0.0,0.0,0.0
4264,1724557156272133544,-1.7893741130828857,-0.14217737317085266,0.1622762382030487,-0.019134143367409706,-0.03151587396860123,0.43839749693870544,-0.8980247378349304,0.0,0.0,0.0,0.0,0.0,0.0
4266,1724557156281550358,-1.7885006666183472,-0.14256136119365692,0.16194500029087067,-0.01798136718571186,-0.030827432870864868,0.4382613003253937,-0.8981388807296753,0.0,0.0,0.0,0.0,0.0,0.0
4268,1724557156290652226,-1.7875920534133911,-0.14270225167274475,0.16214333474636078,-0.019378069788217545,-0.031432729214429855,0.43887239694595337,-0.8977904319763184,0.0,0.0,0.0,0.0,0.0,0.0
4270,1724557156302309692,-1.7868852615356445,-0.14308156073093414,0.16203780472278595,-0.019189003854990005,-0.030036650598049164,0.4379415810108185,-0.8982966542243958,0.0,0.0,0.0,0.0,0.0,0.0
4272,1724557156312196898,-1.786115050315857,-0.14337792992591858,0.16208253800868988,-0.01931958645582199,-0.029771482571959496,0.43773216009140015,-0.8984046578407288,0.0,0.0,0.0,0.0,0.0,0.0
4274,1724557156320380053,-1.785301685333252,-0.1437629610300064,0.1621519774198532,-0.019980482757091522,-0.0297857653349638,0.43659162521362305,-0.8989445567131042,0.0,0.0,0.0,0.0,0.0,0.0
4276,1724557156332573463,-1.7844488620758057,-0.1438775360584259,0.16283483803272247,-0.02111602947115898,-0.03107820451259613,0.4374031722545624,-0.8984803557395935,0.0,0.0,0.0,0.0,0.0,0.0
4278,1724557156386491484,-1.783589243888855,-0.14410263299942017,0.1632625162601471,-0.0203301552683115,-0.030508076772093773,0.43840292096138,-0.8980304598808289,0.0,0.0,0.0,0.0,0.0,0.0
4280,1724557156387094897,-1.7828116416931152,-0.14447207748889923,0.1629868447780609,-0.01880582608282566,-0.029284687712788582,0.4381406605243683,-0.8982324004173279,0.0,0.0,0.0,0.0,0.0,0.0
4282,1724557156387729027,-1.7819608449935913,-0.14482560753822327,0.16271045804023743,-0.01752598024904728,-0.028557753190398216,0.43763718008995056,-0.8985271453857422,0.0,0.0,0.0,0.0,0.0,0.0
4284,1724557156388099571,-1.7810875177383423,-0.14487461745738983,0.1630590558052063,-0.018251778557896614,-0.02944757789373398,0.43813884258270264,-0.8982394337654114,0.0,0.0,0.0,0.0,0.0,0.0
4286,1724557156388385045,-1.780339002609253,-0.1451379954814911,0.16299127042293549,-0.018373971804976463,-0.029291091486811638,0.43774092197418213,-0.8984360694885254,0.0,0.0,0.0,0.0,0.0,0.0
4288,1724557156390547406,-1.7795228958129883,-0.1454155296087265,0.16302040219306946,-0.019467337056994438,-0.0299480389803648,0.4374411404132843,-0.8985374569892883,0.0,0.0,0.0,0.0,0.0,0.0
4290,1724557156401199130,-1.7787474393844604,-0.14547671377658844,0.1634570211172104,-0.020137576386332512,-0.029480675235390663,0.4371356666088104,-0.8986867070198059,0.0,0.0,0.0,0.0,0.0,0.0
4292,1724557156411066965,-1.7780624628067017,-0.14565901458263397,0.16356420516967773,-0.02031226083636284,-0.029014384374022484,0.4362308084964752,-0.899137556552887,0.0,0.0,0.0,0.0,0.0,0.0
4294,1724557156420957966,-1.7774099111557007,-0.14587515592575073,0.16341376304626465,-0.018977820873260498,-0.02693024091422558,0.43501779437065125,-0.899819016456604,0.0,0.0,0.0,0.0,0.0,0.0
4296,1724557156432825871,-1.7767070531845093,-0.1460176706314087,0.16329307854175568,-0.018564198166131973,-0.025657551363110542,0.4344029426574707,-0.9001616835594177,0.0,0.0,0.0,0.0,0.0,0.0
4298,1724557156449279172,-1.7759872674942017,-0.14614367485046387,0.16316983103752136,-0.018870234489440918,-0.02446727827191353,0.43382424116134644,-0.900467574596405,0.0,0.0,0.0,0.0,0.0,0.0
4300,1724557156450466230,-1.7752126455307007,-0.1460496187210083,0.16344234347343445,-0.02050728350877762,-0.025217507034540176,0.43485182523727417,-0.8999151587486267,0.0,0.0,0.0,0.0,0.0,0.0
4302,1724557156460472123,-1.774551272392273,-0.1462944597005844,0.16303174197673798,-0.02062366157770157,-0.02344212867319584,0.43387940526008606,-0.9004297852516174,0.0,0.0,0.0,0.0,0.0,0.0
4304,1724557156470538277,-1.7738124132156372,-0.14611606299877167,0.16330194473266602,-0.022551417350769043,-0.024565652012825012,0.43500593304634094,-0.8998098969459534,0.0,0.0,0.0,0.0,0.0,0.0
4306,1724557156482041106,-1.7732012271881104,-0.14603768289089203,0.1635015904903412,-0.023725271224975586,-0.022957555949687958,0.4344596564769745,-0.9000861048698425,0.0,0.0,0.0,0.0,0.0,0.0
4308,1724557156491982788,-1.7726675271987915,-0.14633502066135406,0.16310656070709229,-0.02418607845902443,-0.0194759089499712,0.4325268566608429,-0.901086151599884,0.0,0.0,0.0,0.0,0.0,0.0
4310,1724557156501077406,-1.7720001935958862,-0.14640361070632935,0.16312117874622345,-0.0253483634442091,-0.018094608560204506,0.43203145265579224,-0.9013206362724304,0.0,0.0,0.0,0.0,0.0,0.0
4312,1724557156512896792,-1.7712641954421997,-0.1463860273361206,0.1632939726114273,-0.02706511691212654,-0.017629651352763176,0.43257370591163635,-0.9010198712348938,0.0,0.0,0.0,0.0,0.0,0.0
4314,1724557156521876183,-1.7705897092819214,-0.14629746973514557,0.16386678814888,-0.029958002269268036,-0.018165525048971176,0.433305025100708,-0.900566041469574,0.0,0.0,0.0,0.0,0.0,0.0
4316,1724557156531186009,-1.7699964046478271,-0.1464044600725174,0.16393612325191498,-0.032243553549051285,-0.017290951684117317,0.4324818253517151,-0.90090012550354,0.0,0.0,0.0,0.0,0.0,0.0
4318,1724557156542456982,-1.7694475650787354,-0.14651302993297577,0.16380231082439423,-0.033342394977808,-0.015573950484395027,0.4315822422504425,-0.9013227224349976,0.0,0.0,0.0,0.0,0.0,0.0
4320,1724557156550666890,-1.768932819366455,-0.14659662544727325,0.16338159143924713,-0.03298019617795944,-0.013174460269510746,0.43066704273223877,-0.9018118977546692,0.0,0.0,0.0,0.0,0.0,0.0
4322,1724557156560411690,-1.7683308124542236,-0.14655086398124695,0.163198783993721,-0.03271350637078285,-0.010336391627788544,0.4304945766925812,-0.9019409418106079,0.0,0.0,0.0,0.0,0.0,0.0
4324,1724557156570939259,-1.7674795389175415,-0.14647918939590454,0.16309180855751038,-0.034730471670627594,-0.010378275066614151,0.4314452111721039,-0.9014105796813965,0.0,0.0,0.0,0.0,0.0,0.0
4326,1724557156581129264,-1.7667725086212158,-0.1461787223815918,0.16385500133037567,-0.036952510476112366,-0.009448492899537086,0.43212324380874634,-0.9010075926780701,0.0,0.0,0.0,0.0,0.0,0.0
4328,1724557156591184720,-1.7659504413604736,-0.14598464965820312,0.16427384316921234,-0.03850393742322922,-0.010524958372116089,0.433553010225296,-0.9002436399459839,0.0,0.0,0.0,0.0,0.0,0.0
4330,1724557156601596222,-1.7651766538619995,-0.14598439633846283,0.16434215009212494,-0.03991501405835152,-0.00891096144914627,0.43314436078071594,-0.9003962874412537,0.0,0.0,0.0,0.0,0.0,0.0
4332,1724557156610798166,-1.7645175457000732,-0.14607113599777222,0.16440919041633606,-0.039406515657901764,-0.0073492503724992275,0.4324275851249695,-0.9007772207260132,0.0,0.0,0.0,0.0,0.0,0.0
4334,1724557156642363980,-1.7638300657272339,-0.14617913961410522,0.16433072090148926,-0.03797522559762001,-0.007352523505687714,0.43195629119873047,-0.9010647535324097,0.0,0.0,0.0,0.0,0.0,0.0
4336,1724557156642654725,-1.7631629705429077,-0.146290585398674,0.16432492434978485,-0.037444643676280975,-0.00649260263890028,0.4309857487678528,-0.9015581607818604,0.0,0.0,0.0,0.0,0.0,0.0
4338,1724557156642996148,-1.7624969482421875,-0.14646853506565094,0.1642991602420807,-0.03830914571881294,-0.006295198109000921,0.4297991394996643,-0.902089536190033,0.0,0.0,0.0,0.0,0.0,0.0
4340,1724557156652449219,-1.7619448900222778,-0.14659595489501953,0.16440124809741974,-0.039567362517118454,-0.006123863160610199,0.42874422669410706,-0.9025382995605469,0.0,0.0,0.0,0.0,0.0,0.0
4342,1724557156660848442,-1.7612847089767456,-0.14657296240329742,0.1645842343568802,-0.04141493886709213,-0.005505041219294071,0.42912164330482483,-0.9022800326347351,0.0,0.0,0.0,0.0,0.0,0.0
4344,1724557156670498673,-1.7607020139694214,-0.14668631553649902,0.16446685791015625,-0.04264799505472183,-0.0031395729165524244,0.42850232124328613,-0.9025282263755798,0.0,0.0,0.0,0.0,0.0,0.0
4346,1724557156682079317,-1.760195255279541,-0.14684419333934784,0.16427162289619446,-0.042882222682237625,0.00012098060688003898,0.4278113842010498,-0.9028501510620117,0.0,0.0,0.0,0.0,0.0,0.0
4348,1724557156690926833,-1.759519100189209,-0.1467423290014267,0.16463927924633026,-0.044741835445165634,0.0002625768829602748,0.42969202995300293,-0.9018663763999939,0.0,0.0,0.0,0.0,0.0,0.0
4350,1724557156701568736,-1.7588146924972534,-0.14677861332893372,0.16491073369979858,-0.04869695380330086,0.0014092320343479514,0.4303149878978729,-0.9013631939888,0.0,0.0,0.0,0.0,0.0,0.0
4352,1724557156710712709,-1.758236050605774,-0.1468818187713623,0.16512906551361084,-0.05053859204053879,0.0023149396292865276,0.43056586384773254,-0.9011400938034058,0.0,0.0,0.0,0.0,0.0,0.0
4354,1724557156720595549,-1.7576696872711182,-0.14695318043231964,0.16562816500663757,-0.052352290600538254,0.002180119277909398,0.4310927093029022,-0.9007850289344788,0.0,0.0,0.0,0.0,0.0,0.0
4356,1724557156731369431,-1.7573013305664062,-0.14726793766021729,0.16558851301670074,-0.051103375852108,0.0034333786461502314,0.43042314052581787,-0.9011729955673218,0.0,0.0,0.0,0.0,0.0,0.0
4358,1724557156740811197,-1.7568891048431396,-0.14777545630931854,0.16517585515975952,-0.05040290206670761,0.006180092226713896,0.4284925162792206,-0.9021172523498535,0.0,0.0,0.0,0.0,0.0,0.0
4360,1724557156751256585,-1.7563210725784302,-0.14800089597702026,0.16529595851898193,-0.05131126567721367,0.006826857570558786,0.4286445379257202,-0.9019891023635864,0.0,0.0,0.0,0.0,0.0,0.0
4362,1724557156767815198,-1.7557591199874878,-0.14819715917110443,0.1655195653438568,-0.052999239414930344,0.007057575974613428,0.42844638228416443,-0.901983916759491,0.0,0.0,0.0,0.0,0.0,0.0
4364,1724557156770446129,-1.7553129196166992,-0.1484072506427765,0.16574299335479736,-0.05467415228486061,0.007594846189022064,0.42745476961135864,-0.9023500084877014,0.0,0.0,0.0,0.0,0.0,0.0
4366,1724557156781323608,-1.7548307180404663,-0.1485334187746048,0.1659879833459854,-0.05572916939854622,0.0076299868524074554,0.42765378952026367,-0.9021908044815063,0.0,0.0,0.0,0.0,0.0,0.0
4368,1724557156790719178,-1.754403829574585,-0.1487509310245514,0.1659238189458847,-0.055314939469099045,0.009909476153552532,0.4270835816860199,-0.9024642109870911,0.0,0.0,0.0,0.0,0.0,0.0
4370,1724557156801185710,-1.7538701295852661,-0.14892031252384186,0.16583549976348877,-0.05501265451312065,0.01156954001635313,0.42711833119392395,-0.9024465084075928,0.0,0.0,0.0,0.0,0.0,0.0
4372,1724557156813934819,-1.753312349319458,-0.14871595799922943,0.1664513349533081,-0.05641784891486168,0.011445450596511364,0.4287818372249603,-0.9015721082687378,0.0,0.0,0.0,0.0,0.0,0.0
4374,1724557156821662393,-1.7528102397918701,-0.14872024953365326,0.166627436876297,-0.057337209582328796,0.012119011022150517,0.429027795791626,-0.9013882279396057,0.0,0.0,0.0,0.0,0.0,0.0
4376,1724557156831740360,-1.752315640449524,-0.14876586198806763,0.16668763756752014,-0.05832359194755554,0.012865017168223858,0.4288908839225769,-0.9013797640800476,0.0,0.0,0.0,0.0,0.0,0.0
4378,1724557156840753286,-1.7517985105514526,-0.14879830181598663,0.16683387756347656,-0.059980057179927826,0.012718301266431808,0.4288831651210785,-0.9012768864631653,0.0,0.0,0.0,0.0,0.0,0.0
4380,1724557156853302025,-1.7514058351516724,-0.1488749384880066,0.16694296896457672,-0.061194758862257004,0.013143078424036503,0.42826706171035767,-0.9014819860458374,0.0,0.0,0.0,0.0,0.0,0.0
4382,1724557156863988570,-1.7509459257125854,-0.14875401556491852,0.16730692982673645,-0.061852604150772095,0.012708152644336224,0.4290724992752075,-0.9010602831840515,0.0,0.0,0.0,0.0,0.0,0.0
4384,1724557156873019142,-1.7504801750183105,-0.148743137717247,0.1674887090921402,-0.062332332134246826,0.01296110637485981,0.42924124002456665,-0.9009431600570679,0.0,0.0,0.0,0.0,0.0,0.0
4386,1724557156882410389,-1.7500333786010742,-0.14879409968852997,0.16756092011928558,-0.06258541345596313,0.0138006042689085,0.4287828803062439,-0.9011313915252686,0.0,0.0,0.0,0.0,0.0,0.0
4388,1724557156892123930,-1.7494773864746094,-0.14874814450740814,0.16772954165935516,-0.06307509541511536,0.01399904303252697,0.4293324053287506,-0.90083247423172,0.0,0.0,0.0,0.0,0.0,0.0
4390,1724557156902984274,-1.7490200996398926,-0.14870531857013702,0.16774703562259674,-0.06322629749774933,0.014971445314586163,0.42923998832702637,-0.9008502960205078,0.0,0.0,0.0,0.0,0.0,0.0
4392,1724557156912405204,-1.74858820438385,-0.14857394993305206,0.1679222136735916,-0.06418975442647934,0.015321100130677223,0.4294416904449463,-0.9006802439689636,0.0,0.0,0.0,0.0,0.0,0.0
4394,1724557156921667522,-1.7482337951660156,-0.14869365096092224,0.16767467558383942,-0.06421101838350296,0.01633639819920063,0.4290103316307068,-0.9008664488792419,0.0,0.0,0.0,0.0,0.0,0.0
4396,1724557156930994788,-1.7477657794952393,-0.1485797017812729,0.16780416667461395,-0.06581699103116989,0.01622660830616951,0.42960411310195923,-0.9004693627357483,0.0,0.0,0.0,0.0,0.0,0.0
4398,1724557156941581780,-1.7474111318588257,-0.14858797192573547,0.16790834069252014,-0.06670951843261719,0.016956890001893044,0.4293948709964752,-0.9004901647567749,0.0,0.0,0.0,0.0,0.0,0.0
4400,1724557156953204194,-1.7470611333847046,-0.14848439395427704,0.16812807321548462,-0.06803224235773087,0.017126839607954025,0.42933663725852966,-0.9004156589508057,0.0,0.0,0.0,0.0,0.0,0.0
4402,1724557156968326584,-1.7467221021652222,-0.14840354025363922,0.16837178170681,-0.06872736662626266,0.017309416085481644,0.4294913411140442,-0.9002856016159058,0.0,0.0,0.0,0.0,0.0,0.0
4404,1724557156970702197,-1.74642813205719,-0.1483774483203888,0.16855141520500183,-0.06828993558883667,0.018953347578644753,0.42932558059692383,-0.9003649353981018,0.0,0.0,0.0,0.0,0.0,0.0
4406,1724557156981199320,-1.7460471391677856,-0.14838194847106934,0.16883455216884613,-0.06939470022916794,0.018368566408753395,0.42965811491012573,-0.9001339077949524,0.0,0.0,0.0,0.0,0.0,0.0
4408,1724557156990765527,-1.7457551956176758,-0.14844678342342377,0.16909487545490265,-0.07035200297832489,0.018343821167945862,0.4293789565563202,-0.9001932144165039,0.0,0.0,0.0,0.0,0.0,0.0
4410,1724557157002331675,-1.7454557418823242,-0.14857329428195953,0.16927751898765564,-0.07111411541700363,0.018653880804777145,0.42900392413139343,-0.9003057479858398,0.0,0.0,0.0,0.0,0.0,0.0
4412,1724557157011826869,-1.7451790571212769,-0.14864711463451385,0.16954535245895386,-0.07140111923217773,0.018792804330587387,0.42891228199005127,-0.9003238081932068,0.0,0.0,0.0,0.0,0.0,0.0
4414,1724557157020653566,-1.7449191808700562,-0.14873187243938446,0.16986083984375,-0.07192195951938629,0.018905028700828552,0.42879775166511536,-0.9003345370292664,0.0,0.0,0.0,0.0,0.0,0.0
4416,1724557157031599356,-1.7446821928024292,-0.1488635241985321,0.17006579041481018,-0.07227233797311783,0.019147580489516258,0.428678959608078,-0.9003579616546631,0.0,0.0,0.0,0.0,0.0,0.0
4418,1724557157044877401,-1.7444813251495361,-0.14889352023601532,0.17047026753425598,-0.07324517518281937,0.01917453669011593,0.42854034900665283,-0.900344729423523,0.0,0.0,0.0,0.0,0.0,0.0
4420,1724557157053229880,-1.7442749738693237,-0.1490381956100464,0.1705697774887085,-0.07399319857358932,0.01979842409491539,0.427980899810791,-0.9005361795425415,0.0,0.0,0.0,0.0,0.0,0.0
4422,1724557157061980736,-1.7440903186798096,-0.14919987320899963,0.17057934403419495,-0.0745367631316185,0.020505880936980247,0.42757633328437805,-0.900667667388916,0.0,0.0,0.0,0.0,0.0,0.0
4424,1724557157070860197,-1.7439048290252686,-0.14938652515411377,0.17047391831874847,-0.07475674152374268,0.021278828382492065,0.427275687456131,-0.9007741808891296,0.0,0.0,0.0,0.0,0.0,0.0
4426,1724557157085240531,-1.7437156438827515,-0.14956814050674438,0.17044174671173096,-0.07511666417121887,0.022144638001918793,0.427105575799942,-0.9008040428161621,0.0,0.0,0.0,0.0,0.0,0.0
4428,1724557157091799403,-1.7434831857681274,-0.14971956610679626,0.17040251195430756,-0.07610110938549042,0.02288268692791462,0.4271940588951111,-0.9006609916687012,0.0,0.0,0.0,0.0,0.0,0.0
4430,1724557157102511703,-1.7433305978775024,-0.14997628331184387,0.1702968180179596,-0.07652045041322708,0.02396092191338539,0.42692363262176514,-0.9007257223129272,0.0,0.0,0.0,0.0,0.0,0.0
4432,1724557157111051609,-1.7432135343551636,-0.15029416978359222,0.1702793836593628,-0.07696238905191422,0.02500578574836254,0.4259907603263855,-0.901101291179657,0.0,0.0,0.0,0.0,0.0,0.0
4434,1724557157120635271,-1.7430649995803833,-0.15060926973819733,0.17041853070259094,-0.07770664989948273,0.025065721943974495,0.4257250130176544,-0.901161253452301,0.0,0.0,0.0,0.0,0.0,0.0
4436,1724557157140742542,-1.742867112159729,-0.1509796679019928,0.17053446173667908,-0.07805448770523071,0.025472275912761688,0.42556414008140564,-0.901195764541626,0.0,0.0,0.0,0.0,0.0,0.0
4438,1724557157142693712,-1.7427070140838623,-0.1515074521303177,0.1702384352684021,-0.07635936886072159,0.026982398703694344,0.42513763904571533,-0.9014983773231506,0.0,0.0,0.0,0.0,0.0,0.0
4440,1724557157151546481,-1.742458701133728,-0.15189579129219055,0.17036157846450806,-0.07614750415086746,0.026790449395775795,0.4263494312763214,-0.9009494781494141,0.0,0.0,0.0,0.0,0.0,0.0
4442,1724557157166573333,-1.7423174381256104,-0.1523028016090393,0.17051923274993896,-0.07614567875862122,0.027305826544761658,0.4262342154979706,-0.9009886384010315,0.0,0.0,0.0,0.0,0.0,0.0
4444,1724557157172183984,-1.7421996593475342,-0.15283647179603577,0.17063355445861816,-0.07734254002571106,0.027331849560141563,0.4250216782093048,-0.9014586806297302,0.0,0.0,0.0,0.0,0.0,0.0
4446,1724557157181147017,-1.7420828342437744,-0.15339767932891846,0.17070989310741425,-0.07826439291238785,0.02710786648094654,0.424396812915802,-0.9016802310943604,0.0,0.0,0.0,0.0,0.0,0.0
4448,1724557157191544857,-1.7419430017471313,-0.1539308726787567,0.1707659363746643,-0.07850804924964905,0.027486171573400497,0.42424866557121277,-0.9017173647880554,0.0,0.0,0.0,0.0,0.0,0.0
4450,1724557157200707531,-1.741811752319336,-0.1542367786169052,0.17131192982196808,-0.07942421734333038,0.027392631396651268,0.4253409802913666,-0.9011250734329224,0.0,0.0,0.0,0.0,0.0,0.0
4452,1724557157218899454,-1.7417466640472412,-0.15477755665779114,0.17118461430072784,-0.07831166684627533,0.029600266367197037,0.42523983120918274,-0.901200532913208,0.0,0.0,0.0,0.0,0.0,0.0
4454,1724557157220664934,-1.7416319847106934,-0.15523061156272888,0.1712295114994049,-0.0783863514661789,0.0300445556640625,0.42554229497909546,-0.9010364413261414,0.0,0.0,0.0,0.0,0.0,0.0
4456,1724557157231288713,-1.7414499521255493,-0.15588505566120148,0.1708308458328247,-0.07768143713474274,0.03118904121220112,0.4248175024986267,-0.9014005064964294,0.0,0.0,0.0,0.0,0.0,0.0
4458,1724557157241993812,-1.7412971258163452,-0.15637260675430298,0.17089103162288666,-0.07747890800237656,0.031123243272304535,0.4250364303588867,-0.9013171195983887,0.0,0.0,0.0,0.0,0.0,0.0
4460,1724557157250750699,-1.741163969039917,-0.15683208405971527,0.17114338278770447,-0.0775812566280365,0.0308133102953434,0.42539170384407043,-0.9011512398719788,0.0,0.0,0.0,0.0,0.0,0.0
4462,1724557157260660168,-1.7410242557525635,-0.15735962986946106,0.17126178741455078,-0.07761300355195999,0.030854202806949615,0.42548468708992004,-0.9011032581329346,0.0,0.0,0.0,0.0,0.0,0.0
4464,1724557157274366452,-1.7408555746078491,-0.15788917243480682,0.1713555008172989,-0.077911876142025,0.03093479946255684,0.4254032373428345,-0.9011130928993225,0.0,0.0,0.0,0.0,0.0,0.0
4466,1724557157283577769,-1.7407112121582031,-0.1584155112504959,0.17151586711406708,-0.07812761515378952,0.03162289038300514,0.4247822165489197,-0.9013634920120239,0.0,0.0,0.0,0.0,0.0,0.0
4468,1724557157291088251,-1.7404803037643433,-0.15901218354701996,0.1712709218263626,-0.07808512449264526,0.03154775872826576,0.42439278960227966,-0.901553213596344,0.0,0.0,0.0,0.0,0.0,0.0
4470,1724557157300626424,-1.740196704864502,-0.15951566398143768,0.17136003077030182,-0.07888287305831909,0.03016110323369503,0.424686998128891,-0.9013927578926086,0.0,0.0,0.0,0.0,0.0,0.0
4472,1724557157311093144,-1.739910364151001,-0.15996922552585602,0.17132703959941864,-0.07857745885848999,0.030953578650951385,0.42486563324928284,-0.9013082981109619,0.0,0.0,0.0,0.0,0.0,0.0
4474,1724557157320536572,-1.7395766973495483,-0.1602364331483841,0.17190590500831604,-0.07997552305459976,0.029493192210793495,0.426185667514801,-0.9006108045578003,0.0,0.0,0.0,0.0,0.0,0.0
4476,1724557157331086509,-1.7392956018447876,-0.16071604192256927,0.1720106303691864,-0.07966658473014832,0.030086906626820564,0.42622920870780945,-0.9005979895591736,0.0,0.0,0.0,0.0,0.0,0.0
4478,1724557157340920807,-1.7390446662902832,-0.16124187409877777,0.17206965386867523,-0.07901719957590103,0.030477182939648628,0.42595624923706055,-0.9007712602615356,0.0,0.0,0.0,0.0,0.0,0.0
4480,1724557157350479128,-1.7387217283248901,-0.16165028512477875,0.17217934131622314,-0.07928706705570221,0.030303046107292175,0.42578408122062683,-0.9008347392082214,0.0,0.0,0.0,0.0,0.0,0.0
4482,1724557157364629912,-1.7382608652114868,-0.161981999874115,0.17226512730121613,-0.07949082553386688,0.02979462780058384,0.42661261558532715,-0.9004416465759277,0.0,0.0,0.0,0.0,0.0,0.0
4484,1724557157370839596,-1.7378360033035278,-0.1622876673936844,0.17237155139446259,-0.07915239781141281,0.029112379997968674,0.4277431070804596,-0.8999574184417725,0.0,0.0,0.0,0.0,0.0,0.0
4486,1724557157381563067,-1.7374842166900635,-0.1625911146402359,0.17249131202697754,-0.07839912176132202,0.028894498944282532,0.42825350165367126,-0.8997876048088074,0.0,0.0,0.0,0.0,0.0,0.0
4488,1724557157390912131,-1.7370400428771973,-0.16291457414627075,0.1722596287727356,-0.07783833891153336,0.028539225459098816,0.4286658465862274,-0.8996512293815613,0.0,0.0,0.0,0.0,0.0,0.0
4490,1724557157401643761,-1.7365118265151978,-0.1631115972995758,0.17233683168888092,-0.07785970717668533,0.028669307008385658,0.4290800094604492,-0.8994477987289429,0.0,0.0,0.0,0.0,0.0,0.0
4492,1724557157410659843,-1.7360479831695557,-0.16312424838542938,0.17293475568294525,-0.07858064770698547,0.028333323076367378,0.4302312135696411,-0.8988456726074219,0.0,0.0,0.0,0.0,0.0,0.0
4494,1724557157420637829,-1.735512375831604,-0.1633034348487854,0.17313545942306519,-0.07891658693552017,0.028433004394173622,0.43052664399147034,-0.8986716270446777,0.0,0.0,0.0,0.0,0.0,0.0
4496,1724557157431327397,-1.7349201440811157,-0.16329678893089294,0.17365135252475739,-0.07942956686019897,0.027793804183602333,0.4314826726913452,-0.8981876969337463,0.0,0.0,0.0,0.0,0.0,0.0
4498,1724557157441244560,-1.7341622114181519,-0.16336561739444733,0.1739359349012375,-0.07982302457094193,0.027387434616684914,0.4325031638145447,-0.8976743817329407,0.0,0.0,0.0,0.0,0.0,0.0
4500,1724557157451641778,-1.7334957122802734,-0.1634494662284851,0.1741563230752945,-0.07895025610923767,0.02742161601781845,0.43303415179252625,-0.8974944949150085,0.0,0.0,0.0,0.0,0.0,0.0
4502,1724557157460617380,-1.7327114343643188,-0.16366147994995117,0.1739712655544281,-0.07846318185329437,0.027488727122545242,0.4328998029232025,-0.8975999355316162,0.0,0.0,0.0,0.0,0.0,0.0
4504,1724557157471873306,-1.7319680452346802,-0.1637454330921173,0.17401039600372314,-0.0773802250623703,0.026700006797909737,0.43353071808815,-0.8974133133888245,0.0,0.0,0.0,0.0,0.0,0.0
4506,1724557157481032257,-1.7312266826629639,-0.16380000114440918,0.17421488463878632,-0.07749957591295242,0.026464780792593956,0.43397411704063416,-0.89719557762146,0.0,0.0,0.0,0.0,0.0,0.0
4508,1724557157501686534,-1.7303731441497803,-0.16374711692333221,0.17452605068683624,-0.07784923166036606,0.025806738063693047,0.4353940784931183,-0.8964961767196655,0.0,0.0,0.0,0.0,0.0,0.0
4510,1724557157502042527,-1.7296531200408936,-0.16371741890907288,0.17511022090911865,-0.07793962210416794,0.025013262405991554,0.43672141432762146,-0.8958650231361389,0.0,0.0,0.0,0.0,0.0,0.0
4512,1724557157512475960,-1.7288910150527954,-0.1638198345899582,0.1753375083208084,-0.07723880559206009,0.02525118552148342,0.4376128315925598,-0.8954839706420898,0.0,0.0,0.0,0.0,0.0,0.0
4514,1724557157521033769,-1.7280447483062744,-0.1638612449169159,0.17565423250198364,-0.07721776515245438,0.024641158059239388,0.4388253688812256,-0.8949092030525208,0.0,0.0,0.0,0.0,0.0,0.0
4516,1724557157530970216,-1.7272568941116333,-0.1639324426651001,0.1759168803691864,-0.07733644545078278,0.02400752529501915,0.43987226486206055,-0.8944020867347717,0.0,0.0,0.0,0.0,0.0,0.0
4518,1724557157542287506,-1.7265266180038452,-0.16403447091579437,0.17609819769859314,-0.0768389031291008,0.02375940978527069,0.44054141640663147,-0.8941221833229065,0.0,0.0,0.0,0.0,0.0,0.0
4520,1724557157551275677,-1.725592851638794,-0.16400381922721863,0.17664411664009094,-0.07897842675447464,0.02146920934319496,0.44206950068473816,-0.8932390213012695,0.0,0.0,0.0,0.0,0.0,0.0
4522,1724557157565322886,-1.7249772548675537,-0.16439227759838104,0.17627231776714325,-0.07803571969270706,0.023201733827590942,0.4407424032688141,-0.8939342498779297,0.0,0.0,0.0,0.0,0.0,0.0
4524,1724557157572426746,-1.7243391275405884,-0.16450759768486023,0.17637965083122253,-0.07630515098571777,0.022676512598991394,0.4409325420856476,-0.8940033316612244,0.0,0.0,0.0,0.0,0.0,0.0
4526,1724557157580701322,-1.7236446142196655,-0.1645216941833496,0.17668090760707855,-0.07513727992773056,0.02192937768995762,0.4417712092399597,-0.8937066793441772,0.0,0.0,0.0,0.0,0.0,0.0
4528,1724557157593349185,-1.7228293418884277,-0.1644735187292099,0.17701461911201477,-0.07536157220602036,0.021918749436736107,0.44270509481430054,-0.8932258486747742,0.0,0.0,0.0,0.0,0.0,0.0
4530,1724557157603998576,-1.7220944166183472,-0.1643868386745453,0.17738229036331177,-0.07511824369430542,0.02017652615904808,0.44432175159454346,-0.8924843668937683,0.0,0.0,0.0,0.0,0.0,0.0
4532,1724557157613341457,-1.7214887142181396,-0.16454413533210754,0.17712971568107605,-0.07355854660272598,0.021301807835698128,0.4438205063343048,-0.8928375244140625,0.0,0.0,0.0,0.0,0.0,0.0
4534,1724557157621021006,-1.7208290100097656,-0.1646115928888321,0.1770862489938736,-0.07414509356021881,0.021803883835673332,0.4430740773677826,-0.8931474685668945,0.0,0.0,0.0,0.0,0.0,0.0
4536,1724557157632726523,-1.7201039791107178,-0.16461195051670074,0.17731739580631256,-0.07447869330644608,0.0208001509308815,0.44377267360687256,-0.8927968144416809,0.0,0.0,0.0,0.0,0.0,0.0
4538,1724557157641054367,-1.7193998098373413,-0.16460871696472168,0.17758449912071228,-0.07426141947507858,0.01957562193274498,0.44474661350250244,-0.8923578262329102,0.0,0.0,0.0,0.0,0.0,0.0
4540,1724557157650626123,-1.7186886072158813,-0.16466563940048218,0.1777488738298416,-0.07375979423522949,0.01847546547651291,0.445470929145813,-0.8920615911483765,0.0,0.0,0.0,0.0,0.0,0.0
4542,1724557157663831217,-1.7179555892944336,-0.16450826823711395,0.1783873736858368,-0.07419611513614655,0.017099620774388313,0.4474535584449768,-0.891059935092926,0.0,0.0,0.0,0.0,0.0,0.0
4544,1724557157670971705,-1.717321515083313,-0.16456593573093414,0.17861884832382202,-0.07287488132715225,0.01717163622379303,0.4480379521846771,-0.8908739686012268,0.0,0.0,0.0,0.0,0.0,0.0
4546,1724557157681510013,-1.7166041135787964,-0.1645982265472412,0.17890664935112,-0.07286413013935089,0.01650029607117176,0.4486292898654938,-0.8905898928642273,0.0,0.0,0.0,0.0,0.0,0.0
4548,1724557157690837447,-1.7158443927764893,-0.16463026404380798,0.17909127473831177,-0.07351620495319366,0.016001468524336815,0.4489341676235199,-0.8903917670249939,0.0,0.0,0.0,0.0,0.0,0.0
4550,1724557157700922531,-1.715050220489502,-0.16471625864505768,0.1790853887796402,-0.07418037205934525,0.014748354442417622,0.44892996549606323,-0.890360414981842,0.0,0.0,0.0,0.0,0.0,0.0
4552,1724557157714755369,-1.7143422365188599,-0.16478124260902405,0.1792016625404358,-0.07322908937931061,0.013410559855401516,0.4497077167034149,-0.8900678157806396,0.0,0.0,0.0,0.0,0.0,0.0
4554,1724557157720698158,-1.713687539100647,-0.1647670716047287,0.1796945333480835,-0.0725269615650177,0.011960960924625397,0.45112335681915283,-0.8894293308258057,0.0,0.0,0.0,0.0,0.0,0.0
4556,1724557157731906999,-1.7129677534103394,-0.16505858302116394,0.17938295006752014,-0.07126124203205109,0.01350389700382948,0.45074865221977234,-0.8896994590759277,0.0,0.0,0.0,0.0,0.0,0.0
4558,1724557157741882644,-1.7121418714523315,-0.1650826781988144,0.17969948053359985,-0.07086397707462311,0.014008473604917526,0.4517979025840759,-0.8891910314559937,0.0,0.0,0.0,0.0,0.0,0.0
4560,1724557157750585218,-1.7113865613937378,-0.16518078744411469,0.1798524707555771,-0.06955534219741821,0.013150217942893505,0.45295730233192444,-0.8887175917625427,0.0,0.0,0.0,0.0,0.0,0.0
4562,1724557157760685366,-1.7105273008346558,-0.16532546281814575,0.17976126074790955,-0.07037694752216339,0.012732450850307941,0.45359694957733154,-0.8883325457572937,0.0,0.0,0.0,0.0,0.0,0.0
4564,1724557157770787805,-1.7098215818405151,-0.16552498936653137,0.17957007884979248,-0.07032837718725204,0.01283198967576027,0.4535481333732605,-0.8883599638938904,0.0,0.0,0.0,0.0,0.0,0.0
4566,1724557157781141026,-1.7090668678283691,-0.16566939651966095,0.17956914007663727,-0.07096006721258163,0.012425721623003483,0.4541679620742798,-0.8879987597465515,0.0,0.0,0.0,0.0,0.0,0.0
4568,1724557157790689637,-1.708376407623291,-0.1657705008983612,0.1796114146709442,-0.06995541602373123,0.011975646018981934,0.45483124256134033,-0.8877450823783875,0.0,0.0,0.0,0.0,0.0,0.0
4570,1724557157801151421,-1.7077027559280396,-0.16587938368320465,0.17969657480716705,-0.06879573315382004,0.011336088180541992,0.4556054174900055,-0.8874471783638,0.0,0.0,0.0,0.0,0.0,0.0
4572,1724557157810926220,-1.706960678100586,-0.16594572365283966,0.17974840104579926,-0.0696166455745697,0.010726388543844223,0.45642411708831787,-0.8869698643684387,0.0,0.0,0.0,0.0,0.0,0.0
4574,1724557157821941724,-1.706417202949524,-0.16604506969451904,0.17991486191749573,-0.06917940080165863,0.010552533902227879,0.4568731486797333,-0.8867749571800232,0.0,0.0,0.0,0.0,0.0,0.0
4576,1724557157831903351,-1.7058358192443848,-0.16614596545696259,0.17998260259628296,-0.06870204955339432,0.009558399207890034,0.45745226740837097,-0.8865247368812561,0.0,0.0,0.0,0.0,0.0,0.0
4578,1724557157840871896,-1.7052180767059326,-0.16617457568645477,0.18017525970935822,-0.06951764225959778,0.009224332869052887,0.4577966332435608,-0.8862869143486023,0.0,0.0,0.0,0.0,0.0,0.0
4580,1724557157850713242,-1.7046374082565308,-0.16615888476371765,0.18029220402240753,-0.0696876123547554,0.008428851142525673,0.4584215581417084,-0.8859583735466003,0.0,0.0,0.0,0.0,0.0,0.0
4582,1724557157863609289,-1.7040797472000122,-0.16621382534503937,0.18020038306713104,-0.06906645745038986,0.00701298750936985,0.45901504158973694,-0.8857120275497437,0.0,0.0,0.0,0.0,0.0,0.0
4584,1724557157871163373,-1.7034912109375,-0.16624557971954346,0.18009601533412933,-0.0693991482257843,0.006716886535286903,0.4590517580509186,-0.8856692910194397,0.0,0.0,0.0,0.0,0.0,0.0
4586,1724557157881298907,-1.7029225826263428,-0.16623371839523315,0.17994509637355804,-0.0678500086069107,0.0061936816200613976,0.4596374034881592,-0.8854894042015076,0.0,0.0,0.0,0.0,0.0,0.0
4588,1724557157891751188,-1.7024471759796143,-0.16625568270683289,0.17990602552890778,-0.0668315663933754,0.006158171687275171,0.45945972204208374,-0.8856592774391174,0.0,0.0,0.0,0.0,0.0,0.0
4590,1724557157901565275,-1.7019294500350952,-0.166204571723938,0.17998261749744415,-0.06641369313001633,0.005647231359034777,0.45978251099586487,-0.8855266571044922,0.0,0.0,0.0,0.0,0.0,0.0
4592,1724557157910669646,-1.7014811038970947,-0.1661052703857422,0.18009914457798004,-0.06495218724012375,0.006613819859921932,0.4600166380405426,-0.885506808757782,0.0,0.0,0.0,0.0,0.0,0.0
4594,1724557157920882947,-1.7009429931640625,-0.16603562235832214,0.18004676699638367,-0.06383468955755234,0.00695316307246685,0.46055731177330017,-0.88530433177948,0.0,0.0,0.0,0.0,0.0,0.0
4596,1724557157931197873,-1.700331687927246,-0.16587407886981964,0.18025906383991241,-0.06420180946588516,0.006959562189877033,0.46125710010528564,-0.8849133849143982,0.0,0.0,0.0,0.0,0.0,0.0
4598,1724557157940917191,-1.6997326612472534,-0.16572017967700958,0.1804666668176651,-0.06461543589830399,0.005840775091201067,0.46246403455734253,-0.8842611908912659,0.0,0.0,0.0,0.0,0.0,0.0
4600,1724557157951344126,-1.699105143547058,-0.16562165319919586,0.1804061383008957,-0.06459011882543564,0.005055203568190336,0.46330758929252625,-0.8838261365890503,0.0,0.0,0.0,0.0,0.0,0.0
4602,1724557157967490267,-1.6986101865768433,-0.16556881368160248,0.18023201823234558,-0.06385026127099991,0.005700742360204458,0.46300604939460754,-0.8840339779853821,0.0,0.0,0.0,0.0,0.0,0.0
4604,1724557157970549188,-1.6980763673782349,-0.16557329893112183,0.17981867492198944,-0.06351009756326675,0.005670452956110239,0.46272486448287964,-0.8842058777809143,0.0,0.0,0.0,0.0,0.0,0.0
4606,1724557157981731464,-1.697428584098816,-0.1654612272977829,0.1798541396856308,-0.06433437764644623,0.004116085823625326,0.46325820684432983,-0.8838756084442139,0.0,0.0,0.0,0.0,0.0,0.0
4608,1724557158002612866,-1.696856141090393,-0.16537097096443176,0.1797402948141098,-0.0644591748714447,0.0036868031602352858,0.46360427141189575,-0.883686900138855,0.0,0.0,0.0,0.0,0.0,0.0
4610,1724557158013861673,-1.6957781314849854,-0.16519488394260406,0.1796904355287552,-0.06385154277086258,0.004647880792617798,0.4644783139228821,-0.8832674622535706,0.0,0.0,0.0,0.0,0.0,0.0
4612,1724557158021174268,-1.695129632949829,-0.16508612036705017,0.17988932132720947,-0.06357380002737045,0.004854567348957062,0.46573927998542786,-0.8826221227645874,0.0,0.0,0.0,0.0,0.0,0.0
4614,1724557158032024259,-1.694352388381958,-0.16500592231750488,0.18003611266613007,-0.06346853077411652,0.004304647911339998,0.4674775302410126,-0.8817130923271179,0.0,0.0,0.0,0.0,0.0,0.0
4616,1724557158041947764,-1.6939098834991455,-0.16543957591056824,0.17904911935329437,-0.06067250669002533,0.006380675360560417,0.465911865234375,-0.8827254772186279,0.0,0.0,0.0,0.0,0.0,0.0
4618,1724557158050838304,-1.6932029724121094,-0.16559579968452454,0.17879237234592438,-0.0625615194439888,0.0046012988314032555,0.46614375710487366,-0.8824822306632996,0.0,0.0,0.0,0.0,0.0,0.0
4620,1724557158060887320,-1.6925770044326782,-0.16565269231796265,0.1784149557352066,-0.063547782599926,0.003020776901394129,0.4664309024810791,-0.8822668790817261,0.0,0.0,0.0,0.0,0.0,0.0
4622,1724557158070941762,-1.692020297050476,-0.16572460532188416,0.17772765457630157,-0.06291509419679642,0.0037829254288226366,0.4670840799808502,-0.8819636106491089,0.0,0.0,0.0,0.0,0.0,0.0
4624,1724557158085791992,-1.6914467811584473,-0.16580457985401154,0.17686356604099274,-0.06334424018859863,0.004537383560091257,0.467858225107193,-0.8815189003944397,0.0,0.0,0.0,0.0,0.0,0.0
4626,1724557158091146778,-1.6907562017440796,-0.16591185331344604,0.1760130673646927,-0.0644894689321518,0.0042913868092000484,0.4687046408653259,-0.8809873461723328,0.0,0.0,0.0,0.0,0.0,0.0
4628,1724557158101478219,-1.6900476217269897,-0.16608723998069763,0.17511339485645294,-0.06608124822378159,0.0023255180567502975,0.4689675569534302,-0.880736768245697,0.0,0.0,0.0,0.0,0.0,0.0
4630,1724557158111348005,-1.6893736124038696,-0.16620022058486938,0.17439627647399902,-0.0657818466424942,0.0010132279712706804,0.4691893756389618,-0.8806435465812683,0.0,0.0,0.0,0.0,0.0,0.0
4632,1724557158120887349,-1.6886919736862183,-0.16624145209789276,0.17384767532348633,-0.06575368344783783,0.00020630494691431522,0.46994444727897644,-0.8802435398101807,0.0,0.0,0.0,0.0,0.0,0.0
4634,1724557158131320758,-1.6880849599838257,-0.16640521585941315,0.17319396138191223,-0.06487350910902023,0.0006017145933583379,0.470104455947876,-0.8802232146263123,0.0,0.0,0.0,0.0,0.0,0.0
4636,1724557158141783506,-1.6873987913131714,-0.166497141122818,0.1728074550628662,-0.06659183651208878,-0.0004745112673845142,0.47069814801216125,-0.8797776103019714,0.0,0.0,0.0,0.0,0.0,0.0
4638,1724557158151295028,-1.6867663860321045,-0.16654346883296967,0.17234903573989868,-0.06711771339178085,-0.001615718356333673,0.47120004892349243,-0.8794676065444946,0.0,0.0,0.0,0.0,0.0,0.0
4640,1724557158160730831,-1.686240315437317,-0.16657625138759613,0.17189769446849823,-0.06769008189439774,-0.001193444593809545,0.4714526832103729,-0.879288911819458,0.0,0.0,0.0,0.0,0.0,0.0
4642,1724557158172720907,-1.6856343746185303,-0.16665391623973846,0.17144963145256042,-0.06743274629116058,-0.0010435174917802215,0.4720793068408966,-0.8789726495742798,0.0,0.0,0.0,0.0,0.0,0.0
4644,1724557158185490180,-1.6849631071090698,-0.1666952669620514,0.17107556760311127,-0.06787553429603577,-0.0013821464963257313,0.472771555185318,-0.8785659074783325,0.0,0.0,0.0,0.0,0.0,0.0
4646,1724557158197415202,-1.6842267513275146,-0.16670148074626923,0.1706850230693817,-0.06835830211639404,-0.0019389204680919647,0.47358134388923645,-0.8780912160873413,0.0,0.0,0.0,0.0,0.0,0.0
4648,1724557158201147200,-1.6836179494857788,-0.16670145094394684,0.17019785940647125,-0.06828057020902634,-0.0027329835575073957,0.47323715686798096,-0.8782806992530823,0.0,0.0,0.0,0.0,0.0,0.0
4650,1724557158213592765,-1.6830090284347534,-0.16659237444400787,0.1698833554983139,-0.06747928261756897,-0.002131411340087652,0.47338637709617615,-0.8782638311386108,0.0,0.0,0.0,0.0,0.0,0.0
4652,1724557158222239174,-1.6823348999023438,-0.16651040315628052,0.16974633932113647,-0.0664173886179924,-0.0020774328149855137,0.4741767942905426,-0.8779184222221375,0.0,0.0,0.0,0.0,0.0,0.0
4654,1724557158233379196,-1.6816340684890747,-0.16648522019386292,0.1696394830942154,-0.06620505452156067,-0.0013502062065526843,0.4747365415096283,-0.8776333332061768,0.0,0.0,0.0,0.0,0.0,0.0
4656,1724557158240933957,-1.680906057357788,-0.16633152961730957,0.16983091831207275,-0.06580787152051926,-0.0015923836035653949,0.476370632648468,-0.8767770528793335,0.0,0.0,0.0,0.0,0.0,0.0
4658,1724557158251334926,-1.6802825927734375,-0.16627870500087738,0.16971704363822937,-0.06501780450344086,-0.0010269568301737309,0.47653430700302124,-0.8767477869987488,0.0,0.0,0.0,0.0,0.0,0.0
4660,1724557158265120209,-1.6794670820236206,-0.16611814498901367,0.16998867690563202,-0.06602680683135986,-0.003629430430009961,0.4774222671985626,-0.8761823177337646,0.0,0.0,0.0,0.0,0.0,0.0
4662,1724557158271408655,-1.6786795854568481,-0.16606003046035767,0.16979855298995972,-0.06627395749092102,-0.004346695728600025,0.47760096192359924,-0.8760628700256348,0.0,0.0,0.0,0.0,0.0,0.0
4664,1724557158281607355,-1.6779080629348755,-0.1659056842327118,0.1696043312549591,-0.06537733227014542,-0.003205392975360155,0.4776575565338135,-0.8761043548583984,0.0,0.0,0.0,0.0,0.0,0.0
4666,1724557158290916418,-1.6770942211151123,-0.16571548581123352,0.1695912927389145,-0.06568321585655212,-0.002668994013220072,0.4785349667072296,-0.8756043314933777,0.0,0.0,0.0,0.0,0.0,0.0
4668,1724557158300783241,-1.6761903762817383,-0.1655055433511734,0.16949352622032166,-0.06528298556804657,-0.003012864151969552,0.4797469973564148,-0.8749697208404541,0.0,0.0,0.0,0.0,0.0,0.0
4670,1724557158310729938,-1.675316333770752,-0.16533803939819336,0.16915978491306305,-0.06336607784032822,-0.003512437455356121,0.48043137788772583,-0.8747332096099854,0.0,0.0,0.0,0.0,0.0,0.0
4672,1724557158321022311,-1.674330711364746,-0.16515661776065826,0.1691865622997284,-0.06399649381637573,-0.004888652823865414,0.48131194710731506,-0.874196469783783,0.0,0.0,0.0,0.0,0.0,0.0
4674,1724557158334906426,-1.673360824584961,-0.1650499403476715,0.16920548677444458,-0.06462965905666351,-0.005184551700949669,0.48194587230682373,-0.8737987875938416,0.0,0.0,0.0,0.0,0.0,0.0
4676,1724557158341395447,-1.6724276542663574,-0.16494505107402802,0.1689898520708084,-0.06312306970357895,-0.00453962804749608,0.4825720191001892,-0.8735669851303101,0.0,0.0,0.0,0.0,0.0,0.0
4678,1724557158350711120,-1.6713659763336182,-0.16479751467704773,0.16881924867630005,-0.06307975947856903,-0.003438360057771206,0.48330411314964294,-0.8731702566146851,0.0,0.0,0.0,0.0,0.0,0.0
4680,1724557158361803766,-1.670318365097046,-0.16449770331382751,0.16918055713176727,-0.06400327384471893,-0.0057235052809119225,0.4850025773048401,-0.8721487522125244,0.0,0.0,0.0,0.0,0.0,0.0
4682,1724557158370708950,-1.6693588495254517,-0.16435250639915466,0.16911251842975616,-0.06319312006235123,-0.005511410068720579,0.4856422245502472,-0.8718531131744385,0.0,0.0,0.0,0.0,0.0,0.0
4684,1724557158381248429,-1.6683349609375,-0.16417546570301056,0.16876868903636932,-0.06185552477836609,-0.005203304346650839,0.48592090606689453,-0.871795654296875,0.0,0.0,0.0,0.0,0.0,0.0
4686,1724557158391423013,-1.6673082113265991,-0.1639564335346222,0.16853369772434235,-0.060739316046237946,-0.004853770602494478,0.48654457926750183,-0.8715282678604126,0.0,0.0,0.0,0.0,0.0,0.0
4688,1724557158402049066,-1.666290521621704,-0.16368597745895386,0.1686212569475174,-0.06141170114278793,-0.004155854228883982,0.4876856505870819,-0.8708467483520508,0.0,0.0,0.0,0.0,0.0,0.0
4690,1724557158411120774,-1.6653519868850708,-0.16348883509635925,0.1685786098241806,-0.060592085123062134,-0.004145264159888029,0.4887368381023407,-0.8703148365020752,0.0,0.0,0.0,0.0,0.0,0.0
4692,1724557158422888462,-1.6644196510314941,-0.1633601188659668,0.16825807094573975,-0.06001801788806915,-0.0038630820345133543,0.48915037512779236,-0.8701234459877014,0.0,0.0,0.0,0.0,0.0,0.0
4694,1724557158431403759,-1.6635576486587524,-0.16318848729133606,0.16816098988056183,-0.059709567576646805,-0.004310099873691797,0.4899865388870239,-0.8696720004081726,0.0,0.0,0.0,0.0,0.0,0.0
4696,1724557158464807774,-1.6628140211105347,-0.16304756700992584,0.1681434065103531,-0.05961614474654198,-0.004847943317145109,0.49060094356536865,-0.8693291544914246,0.0,0.0,0.0,0.0,0.0,0.0
4698,1724557158465133082,-1.6622446775436401,-0.16289180517196655,0.16833369433879852,-0.05892528221011162,-0.005170933902263641,0.4911693036556244,-0.8690533638000488,0.0,0.0,0.0,0.0,0.0,0.0
4700,1724557158465570779,-1.6617475748062134,-0.1627836674451828,0.16846954822540283,-0.058181390166282654,-0.00582439498975873,0.4922015070915222,-0.8685153126716614,0.0,0.0,0.0,0.0,0.0,0.0
4702,1724557158470957003,-1.6613181829452515,-0.16273830831050873,0.16856005787849426,-0.05780182406306267,-0.006054552271962166,0.49285876750946045,-0.8681662082672119,0.0,0.0,0.0,0.0,0.0,0.0
4704,1724557158481747333,-1.6609899997711182,-0.16276772320270538,0.1685493141412735,-0.05760588496923447,-0.005872173234820366,0.4932367503643036,-0.8679658770561218,0.0,0.0,0.0,0.0,0.0,0.0
4706,1724557158490852149,-1.6607855558395386,-0.16279463469982147,0.16853871941566467,-0.05739458277821541,-0.0059755281545221806,0.49350616335868835,-0.867825984954834,0.0,0.0,0.0,0.0,0.0,0.0
4708,1724557158501636698,-1.6606899499893188,-0.16280433535575867,0.16856922209262848,-0.057238973677158356,-0.005974925588816404,0.4936467707157135,-0.867756187915802,0.0,0.0,0.0,0.0,0.0,0.0
4710,1724557158510956569,-1.6606636047363281,-0.16286207735538483,0.1685369461774826,-0.05713951960206032,-0.006269779056310654,0.4937223196029663,-0.8677176833152771,0.0,0.0,0.0,0.0,0.0,0.0
4712,1724557158520770798,-1.6606783866882324,-0.1628865897655487,0.16858379542827606,-0.056919779628515244,-0.006518302485346794,0.4937649667263031,-0.8677060604095459,0.0,0.0,0.0,0.0,0.0,0.0
4714,1724557158530846969,-1.6606597900390625,-0.1628381758928299,0.1689465492963791,-0.057231511920690536,-0.007029440253973007,0.49431830644607544,-0.8673664331436157,0.0,0.0,0.0,0.0,0.0,0.0
