seq,stamp,px,py,pz,ox,oy,oz,ow,lx,ly,lz,ax,ay,az,timestamp,wx,wy,wz,aa_x,aa_y,aa_z,roll,pitch,yaw,vx,vy,vz,jx,jy,jz,fw
19084,1724816793624205844,-1.8381743431091309,-0.6105588674545288,0.1752305328845977,-0.0149903772398829,-0.0379538312554359,0.3887545466423034,-0.920437216758728,0.0,0.0,0.0,0.0326645377178416,-0.0937294955532718,-0.0926919671586598,0.0,0.0,0.0,0.0,4.7281658479519955,-1.0995959105827249,0.509047328534941,-0.0019204402155591,0.0816139649754253,-0.7993408045733769,-0.000443383801165,0.0018289581797111,-0.0001724270337746,0.7783309928427925,2.0987676309555607,5.826261137671818,0.0
19086,1724816793633884895,-1.838178634643555,-0.6105411648750305,0.175228863954544,-0.015175113454461,-0.0378199629485607,0.3887417614459991,-0.9204450845718384,0.0,0.0,0.0,0.0401980430924476,-0.0734154166161037,-0.0362992884678162,0.009679051,0.0457641583787856,-0.0106430448979216,0.0049270950543034,1.4759622684662568,-0.5788872370537809,0.5703101390258151,-0.0014735739248306,0.0815110292083925,-0.7992927605926298,-0.0001272220747026,0.0009217456120467,-0.0010695973111936,8.909806012228628,21.389815422051345,6.49910071762447,-2.9266087142137663e-06
19088,1724816793648794550,-1.838173270225525,-0.6105482578277588,0.1751923114061355,-0.015110595151782,-0.0377881526947021,0.388638824224472,-0.9204909205436708,0.0,0.0,0.0,0.3597949637541708,0.6885549488584206,0.0760531014898644,0.024588706,-0.0069227931063194,-0.0073149890018411,0.0148372394124932,-1.5058671933504657,0.6710179649177799,-0.6146788605737618,-0.0015587172526365,0.081402300818257,-0.7990706412993903,0.0006451381563721,0.0002936985313368,-0.000315642074673,-3.2054731603529816,3.9614180930754888,-5.454674852581448,-3.57156364728219e-05
19090,1724816793662771156,-1.838160514831543,-0.6105340719223022,0.1752158850431442,-0.0151203488931059,-0.0378440842032432,0.3887052834033966,-0.9204604625701904,0.0,0.0,0.0,-0.0078522937583009,0.12623846163833,-0.1703819288603316,0.038565312,-0.0014005285230131,0.0079306580081166,-0.0105159728053944,145.92279028539105,90.05646960705303,91.04348307347551,-0.0015903052987707,0.0815129223416785,-0.7992183655738169,0.0097091491743412,0.0194906705509083,0.0010812232771968,-71.3478494135512,-154.83638127337323,-11.447573244732496,2.3421816351500828e-05
19092,1724816793663686776,-1.8381510972976685,-0.6105151176452637,0.1752168387174606,-0.0151981329545378,-0.0378587990999221,0.3886740207672119,-0.9204717874526978,0.0,0.0,0.0,-0.0758816524290268,-0.0224071089233563,-0.180492596950326,0.039480932,0.1409384964756127,0.0957245984275406,0.0784151382168126,145.97641964297185,89.9705670998159,91.32052998511163,-0.001455401465334,0.0816006803797753,-0.7991464743694773,0.0096625886386858,0.0195314419678731,0.0009090032454726,-70.63336155727751,-154.28012288816106,-10.000272907632716,4.0746847400357914e-07
19094,1724816793678829186,-1.838160753250122,-0.6105122566223145,0.1751974076032638,-0.0149748930707573,-0.0377647392451763,0.3886196911334991,-0.9205021858215332,0.0,0.0,0.0,-0.2275594856083506,-0.339154262436017,-0.0709408685822563,0.054623342,-0.0226445124727715,-0.022938504847266,0.0072381994097791,5.053939913889556,4.654851732046424,0.596097442145934,-0.0017893033054854,0.0812535049029886,-0.7990358572483558,0.0022453928209245,0.0024298449651638,7.876860422229015e-05,6.030233483607606,25.95576215959058,7.507581199067795,-2.0088771826497715e-05
19096,1724816793684221251,-1.8381431102752688,-0.61049485206604,0.1752004474401474,-0.0150913763791322,-0.0377920642495155,0.38857102394104,-0.9205197095870972,0.0,0.0,0.0,-0.1642328602243194,-0.1091988050855264,-0.0299356724878918,0.060015407,0.0350529101098624,0.0261448773746924,0.020622195817885,5.733693773740887,4.764966959525416,1.1211120235212315,-0.0015912522572596,0.0813946679200549,-0.7989245349611204,0.001521951534471,0.0021183933528376,-0.0003346860407944,12.24035887186643,26.65241596180251,9.43420931792498,3.0556558746194395e-06
19098,1724816793693887885,-1.8381587266921997,-0.6104936003684998,0.1751816421747207,-0.0151068391278386,-0.0377700068056583,0.388537049293518,-0.9205347895622252,0.0,0.0,0.0,-0.0373150695176526,-0.1287439951563172,0.0929660317416327,0.069682041,0.0044054836153513,-0.0029696200169982,0.0078726928994206,-3.1389132342097437,-1.415402614024772,-1.3718497648880796,-0.0015424556984736,0.081366094124501,-0.7988482507712678,-0.0005866518356754,0.0001713994885328,0.0001859815247406,10.416438077008973,2.6441993042284673,3.4351834283733895,-1.97171773394309e-05
19100,1724816793704110947,-1.838153600692749,-0.6104913949966431,0.1752065867185592,-0.0149765266105532,-0.037823986262083,0.3885634243488312,-0.9205235838890076,0.0,0.0,0.0,0.0398408159804158,-0.0512643115149422,0.0277658900176462,0.079905103,-0.0273430320733773,-0.0001792963312547,-0.0067240791122776,0.8256910505631743,-0.0012636452009807,0.4443113016414591,-0.0018275904642101,0.0813641474645282,-0.7989172351508902,0.0009867808653041,-0.0003590869622271,0.0015591492924205,-1.4495977929306394,7.702295947435429,-9.693472862803688,2.5033640499828186e-05
19102,1724816793713637297,-1.838139891624451,-0.610499918460846,0.1752136200666427,-0.015041827224195,-0.0377829223871231,0.3885044157505035,-0.9205490350723268,0.0,0.0,0.0,-0.0538345505826682,0.0232057526949008,-0.0940115866969647,0.089431453,0.0154211348595021,-0.0026255085447894,0.0141277885205745,0.7164986001451988,1.2051235593957013,0.7841692232348639,-0.0016697064947969,0.0813393598615307,-0.7987820574804848,0.0003537115635765,-0.0008418842098798,0.0008777580184045,-0.4022276711298609,7.511231888636496,4.1035587382015315,8.2897624317797e-06
19104,1724816793723887401,-1.8381482362747192,-0.6105079650878906,0.1752241551876068,-0.0150056984275579,-0.0379418805241584,0.3884672820568084,-0.920558750629425,0.0,0.0,0.0,0.0460562981287202,0.0968213976293307,0.1342920291207414,0.099681557,-0.018841452972259,0.0258502819289324,0.0066734640704781,-1.7833008781720228,0.6522156676483831,-0.2227150625289908,-0.0018572861459053,0.081604447100985,-0.7987138857532303,-5.8914169343893263e-05,0.000210853757963,-0.0003338494874123,4.4686904439028,-0.2245639421178341,9.979633840230344,1.0473917957912728e-05
19106,1724816793735812712,-1.838138461112976,-0.6104916334152222,0.1752012819051742,-0.0149163668975234,-0.0380063690245151,0.3884022533893585,-0.9205849766731262,0.0,0.0,0.0,0.0261368542534154,-0.0086166901948595,0.0827362591821466,0.111606868,-0.0184728841321822,0.0041330262665722,0.0110175017742488,0.1369847835505477,1.1737272055360135,-5.8998079838121305,-0.0020668400371157,0.0816539917592962,-0.7985821511427771,0.0016878411124707,0.0012838467546885,0.0047708366875838,-13.029550282068763,-10.01885577245302,-32.96607001947182,-2.3156955415565805e-05
19108,1724816793743375206,-1.83812153339386,-0.6104823350906372,0.1752694398164749,-0.0148884942755103,-0.0381301008164882,0.3886198103427887,-0.9204885363578796,0.0,0.0,0.0,-0.1268754073560336,-0.0900303994738641,-0.3039345982885749,0.119169362,-0.0169282077902218,0.0273719295515853,-0.0636409799787841,2.312723637161641,0.1528628018894726,-2.546907281647271,-0.0022343323499583,0.0818599630656396,-0.7990655536003819,0.0013083860235525,0.0007458525271566,0.0037404533050287,-10.829161488447314,-3.6023667138704334,-22.26255010361461,6.839145849522741e-05
19110,1724816793754535864,-1.8381222486495972,-0.6104819774627686,0.1752243489027023,-0.0150773506611585,-0.0379354618489742,0.3884838223457336,-0.9205509424209596,0.0,0.0,0.0,-0.0928465824699733,-0.0122533804227319,-0.076928287549941,0.13033002,0.0436114659722193,-0.0190176060432355,0.0285873142870394,-0.7626397499655694,-3.789591814849808,3.998803460730155,-0.0017214232759121,0.0816483511965622,-0.7987450603138211,-0.0013709285364598,-0.0005700893399662,-0.0024135694067943,12.799025741989045,5.6052338852773165,20.767144385326027,-4.500267744551015e-05
19112,1724816793763636138,-1.8381444215774536,-0.6104916334152222,0.1752144545316696,-0.0149546433240175,-0.0377367958426475,0.3883460462093353,-0.9206191301345824,0.0,0.0,0.0,0.0959758013232875,0.028637352410919,0.1152289183801996,0.139430294,-0.0092380771775139,-0.0507812024123562,0.0333309026442227,-4.73621907197213,1.9585374481538993,-2.168558483429374,-0.0017806756553854,0.0811867436778218,-0.7984397751801328,-0.0011234381640861,0.0001023936300796,0.0004070895460221,10.005583222202327,1.4735016709408897,6.98267948142927,-1.0595960024282702e-05
19114,1724816793774167798,-1.8381402492523191,-0.6104763746261597,0.1752369552850723,-0.0148010607808828,-0.0380085185170173,0.3884420990943908,-0.9205699563026428,0.0,0.0,0.0,0.070407334775688,0.0073492655657708,0.0165141365651176,0.149961954,-0.0460617506244023,0.0362581292870242,-0.02229160748655,4.574723089202949,2.037156488402075,-0.9074729583782072,-0.0022849928879017,0.0815681309691095,-0.7986761625990445,0.0007256484932867,-0.0001476406941236,-0.0007526949462004,-3.1858248641953892,2.771455076240147,4.584245438149797,2.180350291635653e-05
19116,1724816793784333429,-1.838129639625549,-0.610493540763855,0.175200954079628,-0.0151677373796701,-0.0378310568630695,0.3884044289588928,-0.9205872416496276,0.0,0.0,0.0,0.0305831524059219,0.0825513301482427,0.2000703177619433,0.160127585,0.0796403903264083,-0.0041379963062219,0.011402303797318,-1.206922975203364,-0.3251911555431486,-0.0012097315362322,-0.0014659185078972,0.081526290553747,-0.7985598512377281,0.0004094532332459,0.0002321390023425,0.0006577922622685,-0.6913520883064193,1.722065598483029,-0.1472070807548755,-3.428374107568909e-05
19118,1724816793793894147,-1.8381314277648928,-0.6104740500450134,0.175245001912117,-0.0149744944646954,-0.0380450226366519,0.3884738683700561,-0.9205522537231444,0.0,0.0,0.0,0.0529824949731569,0.0479815379349416,0.034978393643601,0.169688303,-0.0539383260080049,0.0255604545082345,-0.0184233991542199,-4.214126396892034,0.6259496855511759,-1.496695615146236,-0.0019960557841886,0.0817703565510197,-0.7987369608145785,0.0012565317859269,0.0014277477496023,0.0031219830060535,-2.0918467656016824,-5.453274278954117,-15.202806495207115,4.2682642953661336e-05
19120,1724816793804195790,-1.8381024599075315,-0.6104661226272583,0.1752606779336929,-0.0150323053821921,-0.0380455441772937,0.3885506987571716,-0.9205188155174256,0.0,0.0,0.0,-0.0177920581697066,-0.0285919161436684,-0.0987148353140067,0.179989946,0.0109573006022818,0.0044769164014117,-0.0158275038813072,1.0581740982339378,-1.0228040866759012,0.193927391030574,-0.0018965508973791,0.0818161514512558,-0.7989005830932595,0.0014069859136043,0.0010665299167627,0.0010096538222121,-4.160854189910992,-6.022822401203429,-4.120565606076273,1.6860400398530034e-05
19122,1724816793813782767,-1.838101506233215,-0.6104532480239868,0.1752657890319824,-0.0149235222488641,-0.0381111726164817,0.3886096477508545,-0.920492947101593,0.0,0.0,0.0,-0.0335094077921123,-0.0737499642786254,-0.0591948394665495,0.189576923,-0.0256609123969495,0.0038056812528804,-0.0144863410296908,1.282790631841277,2.1080035703047875,-0.3396419952963391,-0.0021539579641987,0.0818523491921446,-0.7990399518139838,0.0009473720495662,0.0008501639817239,0.0010119679618458,-3.24347973845254,-2.185479473692679,-1.3120177169388096,4.414752608854744e-06
19124,1724816793824898166,-1.838080048561096,-0.6104501485824585,0.175283208489418,-0.015315861441195,-0.0382787398993968,0.3887415826320648,-0.9204238653182985,0.0,0.0,0.0,-0.0902339272257722,-0.0655031487645018,-0.1438126321717868,0.200692322,0.054354564003659,0.0553061841597479,-0.0244416169846074,2.4017783386813143,-2.41424426876352,2.9974648247661917,-0.0015722509337382,0.082466596435601,-0.7993137347145909,0.000760894832382,-0.0006291940211013,-0.0004119901820001,0.5410876110031881,4.8978433414388665,4.243537035978302,1.8437115837793726e-05
19126,1724816793835374161,-1.8380836248397827,-0.6104657053947449,0.1752593517303466,-0.0153994178399443,-0.0380188599228858,0.3885323405265808,-0.9205216765403748,0.0,0.0,0.0,-0.0288369749958048,0.0268395415912251,0.0177033215143308,0.211168317,0.0321546296300523,-0.0395680320664697,0.045397775801204,-4.382208570912168,-3.8877322899949704,2.6139008268029307,-0.0011961420351311,0.0820527542158784,-0.798836077583286,-0.000909668099851,-0.0006480860606039,-0.0020736401708454,10.329842147919956,3.5519763938141864,16.22462626953657,-2.308335405602102e-05
19128,1724816793846711266,-1.8381009101867676,-0.6104627847671509,0.1752383410930633,-0.0151239773258566,-0.0380108393728733,0.3883922398090362,-0.9205856323242188,0.0,0.0,0.0,0.1431050833744098,0.002540405029905,0.2115435482272049,0.222505422,-0.0452927042910167,-0.0202299783333924,0.0253091446651618,1.842532825579759,2.285263279652831,-5.741114173455054,-0.0016860394017178,0.081823809080356,-0.7985477649488761,0.0003660887410603,7.6163678812690705e-06,0.0002903132264737,-5.907852932176891,-0.9452950575012214,-7.155079065243976,-2.21145109304142e-05
19130,1724816793853664843,-1.8380903005599976,-0.6104637980461121,0.1752495020627975,-0.0151317324489355,-0.0380004271864891,0.3884938955307007,-0.9205430746078492,0.0,0.0,0.0,0.0121440307584499,0.0010767793811641,0.0583524845041639,0.229458999,0.0045130523525786,-0.0018675464073438,-0.0315404952534125,5.1064828924093115,2.3159864192873996,-4.153520852206062,-0.0016726400586374,0.0818104598977023,-0.7987678440565227,0.0014915851396608,-0.000210555528131,0.0017742153453284,-16.860028219490303,2.3505672268816,-19.84179877647684,1.1799303933337275e-05
19132,1724816793864695512,-1.8380744457244873,-0.610467255115509,0.1752720326185226,-0.0152950603514909,-0.0380391106009483,0.3885330259799957,-0.9205222725868224,0.0,0.0,0.0,-0.1392988274353414,0.0718191302241114,-0.1222165978747276,0.240489668,0.024862289606859,0.017997098197985,-0.006977190467359,-4.00464633643591,-2.0729696808257594,1.861307223059758,-0.0014047356218529,0.0820088627968286,-0.7988453857675781,-0.0009942063903025,0.0003691810903347,-0.0002952051379541,4.118205790881554,-0.1544396755863454,3.552935405458217,2.3576248323749617e-05
19134,1724816793874555388,-1.8381056785583496,-0.6104575991630554,0.1752485185861587,-0.0149261988699436,-0.037999227643013,0.3884863257408142,-0.9205496311187744,0.0,0.0,0.0,0.0586020952262822,0.0124130911544494,0.088400349741826,0.250349544,-0.0661761362704113,-0.0365835087409245,0.0081536832842575,-0.1355388423123764,-1.2246610918659182,-0.5878066906367465,-0.0020505796002183,0.0816482853249064,-0.7987640259026656,-0.001609252204858,0.001247074517785,-0.0009239452677896,11.394473534673518,-5.69515672364388,8.314921033773615,-2.5808931531838924e-05
19136,1724816793884662261,-1.8381057977676392,-0.6104422211647034,0.1752543151378631,-0.0150381987914443,-0.0379282906651496,0.388583779335022,-0.92050963640213,0.0,0.0,0.0,0.0838717579889419,-0.0417296385862675,0.0372799297114793,0.260456417,0.0267065120373874,-0.0042991366772323,-0.019775362916983,4.70199908554015,2.799500757841122,-1.3233151062796116,-0.0017970042851906,0.0816044554385994,-0.7989645235840027,0.0002363992639402,0.0005787043255338,0.0015459740177217,-3.869972451222568,-1.8045290667630347,-16.78095863212218,4.891280863881398e-06
19138,1724816793897717553,-1.8380985260009768,-0.6104505658149719,0.175290897488594,-0.0151744997128844,-0.0380518436431884,0.3886610269546509,-0.9204696416854858,0.0,0.0,0.0,-0.0740781718713305,-0.0053796529032973,-0.3794946772218101,0.273511709,0.0124067615112195,0.0255913541035681,-0.0127667507832465,-7.255331136739236,-3.1848440300887497,4.822384187900024,-0.0016487369878997,0.0819382635422839,-0.799132273258002,-0.0003337950201398,0.0004453998760567,-0.001459830017275,4.521735853511783,3.577026062245342,18.102489738717793,3.736311982972668e-05
19140,1724816793903880847,-1.838103175163269,-0.6104446649551392,0.1752694994211197,-0.015023523941636,-0.0380823649466037,0.3885721564292907,-0.9205084443092346,0.0,0.0,0.0,0.0021496167569777,0.0189731270580163,-0.1223652265560015,0.279675003,-0.0502333826463628,-0.0099662325667062,0.0294244072335574,-2.737887775304394,-3.9893139282636474,4.371517511070619,-0.0019434439150077,0.0818771749030726,-0.7989502923010164,-0.0008788218593736,0.0004263002726396,-0.0042330549248488,10.553842470627927,2.612693112462681,40.73868944153051,-2.1935863473334455e-05
19142,1724816793914281181,-1.8381145000457764,-0.6104495525360107,0.1752121150493621,-0.015235953964293,-0.0378788374364376,0.3884333074092865,-0.9205719828605652,0.0,0.0,0.0,0.0800738243119513,0.0226539038313709,0.2841176098866892,0.290075337,0.0516111273347729,-0.0202182153932013,0.0314698634438268,2.4407647328179496,3.1174824227846245,-4.716583948232563,-0.0013798187883547,0.081667447840039,-0.798621591599589,0.0007332430891722,0.0010109957687092,0.0002436236637688,-2.3593086321834664,-3.975738207969022,3.6012045849963905,-5.756788577873491e-05
19144,1724816793924211282,-1.838089942932129,-0.6104254722595215,0.1752691566944122,-0.0153481317684054,-0.0380985625088214,0.3887138068675995,-0.9204425811767578,0.0,0.0,0.0,-0.0367603460494049,-0.057875525344943,-0.0165355369891539,0.300005438,0.0061461124026331,0.0496418414171008,-0.061949505415462,-3.1908636093361196,-1.1889386960433912,-0.0424870797042238,-0.0013693459957529,0.0821595407808296,-0.7992394219048418,0.0008179875185589,0.000917717126164,0.00167767634262,-4.73624380979918,-3.939510922869272,-14.394914340557689,5.688487876505973e-05
19146,1724816793934106682,-1.838098168373108,-0.6104312539100647,0.1752456575632095,-0.0152171701192855,-0.0379220470786094,0.388578325510025,-0.9205092191696168,0.0,0.0,0.0,-0.0143115850539771,-0.0557377827199817,-0.0023690977219979,0.309900838,-0.0117454791454651,-0.0432197476389234,0.0299787072498789,-0.0025741273424843,-0.5224828928893208,2.880995908196291,-0.0014611585310267,0.0817322799975551,-0.7989411266930492,7.588844070482992e-06,-0.0001330566481385,-7.305088954545624e-05,2.4320331115735856,2.1482218691217327,3.1409560761811597,-2.3565279821992263e-05
19148,1724816793944467942,-1.8380889892578125,-0.610427737236023,0.1752698719501495,-0.0153481755405664,-0.0381336398422718,0.388622373342514,-0.9204797148704528,0.0,0.0,0.0,0.0126603746576067,-0.0125170905636165,0.0487198553041556,0.320262098,0.0078157853722963,0.0475091903796334,-0.0097021050301478,-0.4457258320485656,0.1176573338948214,-0.5517466283130625,-0.0013884942506465,0.0822243924936383,-0.7990427051534723,0.000592535097482,-0.0001632321386999,0.0017961503325363,-1.7973133291710544,3.1761137006957503,-6.215787473278427,2.446385500748212e-05
19150,1724816793954790869,-1.838085889816284,-0.6104345917701721,0.1752828508615493,-0.0151725392788648,-0.0379832498729229,0.3885344564914703,-0.9205260276794434,0.0,0.0,0.0,-0.0511508078600497,0.0100337084899102,-0.1300846272577934,0.330585025,-0.0207863750141127,-0.0401250168074377,0.0183154319369335,0.9044341859975012,1.7911968509263765,-1.3546185791382108,-0.0015874782269977,0.0818104772804589,-0.798852473281008,0.0002728097585844,-0.0003912274942194,0.0009447566444276,-2.525130454652814,3.709637271619712,0.8939138423859687,1.350947060730569e-05
19152,1724816793963902092,-1.8380836248397827,-0.610435962677002,0.1752889454364776,-0.015343434177339,-0.0382018536329269,0.3886454403400421,-0.92046719789505,0.0,0.0,0.0,-0.0447542223594858,0.0560975271997968,0.0245406092870481,0.339696248,0.0170089643134907,0.0588679800564459,-0.0267464752144866,0.8598840578248141,3.101669516233964,-1.719073791326434,-0.001452619515726,0.0823464506137756,-0.7990976768494359,-0.000355506721263,-4.1507030452692106e-05,-0.0006233300491969,-0.1441251447836087,0.5630434784072298,12.949422791809944,6.2856237818864075e-06
19154,1724816793977367335,-1.8381004333496096,-0.610434353351593,0.1752548366785049,-0.0149778295308351,-0.0379630401730537,0.3885527849197387,-0.9205222725868224,0.0,0.0,0.0,-0.0635338472750037,-0.0257249955086719,0.1188815011006507,0.353161491,-0.0368501282815444,-0.0538561150409762,0.0143165996099497,0.7525003217775268,8.344804972010222,-4.012510419682615,-0.0019328747243349,0.0816216009480659,-0.7989030951239888,-0.0004764254483404,0.0010663681994458,0.0036203498256348,8.838368827354289,-4.8900875647676845,-13.846516586044295,-3.506612812644098e-05
19156,1724816793983711978,-1.838101148605347,-0.6104247570037842,0.175296202301979,-0.0149822393432259,-0.0381298661231994,0.3886424601078033,-0.9204773902893066,0.0,0.0,0.0,0.0231342439415455,-0.0532038459197046,-0.0313092900870589,0.359506134,-0.0178685466886527,0.0490622329494885,-0.0322534870323978,3.010097211393971,8.701252677248373,-2.698657274115864,-0.0020630670018433,0.0819324650730133,-0.7991089649797226,-0.0010426141777131,0.0005802801255292,0.0037878395347359,13.135173966204356,0.0311303625460281,-15.646498464492131,4.063579578550259e-05
19158,1724816793995607232,-1.8381342887878416,-0.6104386448860168,0.1752803325653076,-0.0150565532967448,-0.0380010567605495,0.3884336054325104,-0.9205697178840636,0.0,0.0,0.0,0.1676749589286502,0.0444505997030803,-0.03844368280786,0.371401388,0.0183465147783436,-0.0151448428684679,0.0391571064939235,1.8964928446856733,2.565462255641541,-6.259889433573515,-0.0018065958239727,0.0817532238390924,-0.7986413467164154,0.001738698014293,0.0004694944158245,0.0021284167092296,-15.35633987604276,-1.523295183058408,-14.0616273368729,-1.6952745247497285e-05
19160,1724816794003745005,-1.83809494972229,-0.6104257106781006,0.1753169298171997,-0.0152258900925517,-0.0381501987576484,0.3887346088886261,-0.9204337000846864,0.0,0.0,0.0,-0.1104312172191411,-0.0221302902879866,-0.2278189807359208,0.379539161,0.0273885672051609,0.0500649142847148,-0.0800560885963782,-0.6789219819102253,1.438573903598622,-4.6711120902052485,-0.001637284083679,0.082159518884633,-0.7992957265937296,0.0027349724820169,0.0011305388689883,0.0023781885805931,-21.957108695166024,-6.860017534159319,-14.15243155097647,3.802466469587677e-05
19162,1724816794013494396,-1.838092803955078,-0.6104200482368469,0.1753153651952743,-0.015199514105916,-0.0380941368639469,0.3887761235237121,-0.920418918132782,0.0,0.0,0.0,-0.1817957091645365,-0.0735736947752491,-0.2592883835437405,0.389288552,-0.0001385294109018,-0.0127028812302588,-0.0090488487686638,0.2098526787666936,-4.186859832752144,6.531818824975211,-0.0016458769281492,0.082035528032775,-0.7993840340365065,-0.0010614772671146,-0.0002925032941867,-0.0028623721579155,8.506280609301303,3.336472434963601,23.728020401023976,-1.7604020589105206e-06
19164,1724816794023961070,-1.838118314743042,-0.6104329228401184,0.1752550452947616,-0.0153202107176184,-0.0378661267459392,0.3885407149791717,-0.9205256700515748,0.0,0.0,0.0,0.0850711728894235,0.0581305678898767,0.2919606867225851,0.399755226,0.0361425361979256,-0.0312285243681914,0.0508739550505259,-1.3213157208421469,2.039000705771144,1.0639149288069183,-0.0012238529630121,0.0817094255081156,-0.7988492222586089,-0.0006314380111973,-0.0002491656123844,-0.002449767390436,7.677005241166828,3.9116149797509423,19.99887705837615,-6.085137734634309e-05
19166,1724816794034054977,-1.838107109069824,-0.6104258894920349,0.1752625703811645,-0.0152645735070109,-0.0380343347787857,0.3884586691856384,-0.9205542802810668,0.0,0.0,0.0,-0.0109033200562204,0.0132012203587951,0.1758216960361834,0.409849133,-0.0237997479237889,0.0264310124562179,0.0162390538992236,-1.502638655066674,2.574399851429382,-5.209628992867609,-0.0014506693118427,0.0819764357978455,-0.7986851068861259,0.0006554273616785,0.0008631603239166,0.0029555848373306,-8.486546983334621,-6.636534145001767,-31.613041190376897,7.746101839118432e-06
19168,1724816794043629393,-1.8381049633026123,-0.6104161143302917,0.1753109395503997,-0.0153067475184798,-0.0381335876882076,0.3886768221855163,-0.9204574227333068,0.0,0.0,0.0,-0.0828790990220753,-0.0701867682562685,-0.3094613960559175,0.419423549,0.0020980093313943,0.022581941470489,-0.049790572032303,-4.3365807068621685,-4.536818341147296,0.71843433625644,-0.0014698270740051,0.0821919539274628,-0.7991637980746208,-0.0007058006349325,0.0001086646104795,0.001372439956226,3.1819122859367974,-1.291660209138806,-14.46946750004382,4.776571562231972e-05
19170,1724816794053508163,-1.8381214141845703,-0.6104243397712708,0.1752869933843612,-0.0146781746298074,-0.03805423527956,0.3885016143321991,-0.9205448627471924,0.0,0.0,0.0,0.0576113517871381,-0.0073386458106186,-0.0832602346189845,0.429302319,-0.1125143849558614,-0.0643814494103199,0.034923814149215,5.130683707646168,-1.3785080190774226,2.967982033805712,-0.0025529155750317,0.0815566327098968,-0.7988162909766297,-0.0009201685397499,-0.0004968676091152,-0.0031535402991398,6.913572962704645,4.1895257577455,28.36291080098769,-2.436594605913083e-05
19172,1724816794063282418,-1.8381232023239136,-0.6104259490966797,0.1752491146326065,-0.0151159027591347,-0.0378374755382537,0.3884768486022949,-0.9205572009086608,0.0,0.0,0.0,0.0545130085150836,0.0126017834032238,0.2468192501401083,0.439076574,0.099452356737291,-0.0060536552440503,0.0097051709089489,4.52912970651767,4.3054096304676595,-2.8608241723510037,-0.0015730821046811,0.0814976638591724,-0.7987210383521888,0.0004099459777222,-4.67810878141961e-05,-0.0003418246504152,-4.6698623545023,-0.3930345768789005,8.155940925198813,-3.7764450025182226e-05
19174,1724816794074048363,-1.8381117582321167,-0.6104250550270081,0.1752873361110687,-0.014880247414112,-0.0380570031702518,0.3885849416255951,-0.9205064177513124,0.0,0.0,0.0,-0.0473799242219582,-0.0204822919455396,0.030884202752457,0.449842519,-0.0552404878642329,0.0205887508227745,-0.0244230958985439,-1.9423868495697632,0.5279285646097227,-0.1233939837286562,-0.0021893380658065,0.0817188337218341,-0.7989853382011056,2.9547024652742948e-05,-0.0003077265951176,0.0018310530949356,2.0240161218592845,9.04288546906818,-30.644022263542887,3.8712368162107935e-05
19176,1724816794084416995,-1.838121771812439,-0.6104321479797363,0.1752891540527343,-0.0151269659399986,-0.0379901118576526,0.3885714709758758,-0.9205107688903807,0.0,0.0,0.0,0.0883292100029144,0.1942693727673021,-0.3925718892448483,0.460211151,0.0487087485935335,0.0066222963120991,0.00472103429689,7.329269634373585,-0.9929138495264578,2.0103033899055935,-0.0016802947746227,0.0817875808358562,-0.7989362548990228,-0.0005820129415301,-0.0004825950171625,0.0004442304250535,-739.963087751034,-402.95158667604903,422.1351311448745,1.6361667209746572e-06
19178,1724816794117354172,-1.838100790977478,-0.6104269623756409,0.1753319203853607,-0.0153107810765504,-0.0381081737577915,0.3887681066989898,-0.9204198718070984,0.0,0.0,0.0,-103.07485044866308,-57.405200599466745,61.95191644662178,0.493148328,0.0080257963016672,0.0109651933404236,-0.0128200467682373,-367.97532280363697,-1261.6566438803566,882.23539071474,-0.0014506833962264,0.0821480898267189,-0.7993605698949868,0.0177402713939045,0.0280068424622186,-0.0395660226331529,7363.580293834093,1311.6043273216055,1139.592201176667,4.3544319211921085e-05
19180,1724816794117935610,-1.8380903005599976,-0.6104103922843933,0.175308495759964,-0.0151771772652864,-0.0379327833652496,0.3886328041553497,-0.9204865097999572,0.0,0.0,0.0,-98.68565624121965,-56.61117206919331,62.60678735274584,0.493729766,-0.2096932933788172,-0.7355610330196912,0.5092059440185377,-1001.4270727140344,459.5773909213533,779.377339092602,-0.0015482416275541,0.0817208576666838,-0.7990629159152502,-0.0432550427444766,-0.0059688127646495,-0.0028964759481482,16880.096377777736,6623.594744543516,-4639.2705779058015,-2.3689126379505486e-05
19182,1724816794118338744,-1.8381248712539673,-0.6104224324226379,0.1753177791833877,-0.0150319607928395,-0.0379804596304893,0.3884803056716919,-0.9205512404441832,0.0,0.0,0.0,-89.27255310808107,-52.4713282408337,59.12501339403864,0.4941329,-0.7886483647914405,-0.0629638923591572,0.7902940095996815,-1361.308351635238,1588.1269728782788,658.0200632594538,-0.0018400790076825,0.081696005999608,-0.798743137151756,-0.0813004361016958,-0.0282812492493684,0.0222138169520711,22795.973491102144,10104.381093017282,-8591.722058385787,7.927328766109145e-06
19184,1724816794126218282,-1.8380794525146484,-0.6104011535644531,0.1753674000501632,-0.0151842860504984,-0.0382773950695991,0.3887223899364471,-0.920434296131134,0.0,0.0,0.0,5.051888341901974,1.770163248944077,-1.6365443160734867,0.502012438,0.0090924134669217,0.0846045154032205,-0.0677602344888312,47.0389165932974,-1.655316557623861,-47.081514243529696,-0.0018124304745827,0.0823616827413392,-0.7992801519458772,0.0009622848698853,0.0012227351972313,0.001001457429373,5650.1872382971715,3317.2792168760734,-3764.888972913243,5.088876439143266e-05
19186,1724816794134073096,-1.8381094932556152,-0.6104031205177307,0.1753337979316711,-0.014891187660396,-0.0380264893174171,0.3885528147220611,-0.920521080493927,0.0,0.0,0.0,-0.058466487548042,-0.100006668986584,-0.3079114040638565,0.509867252,-0.0458454605846813,-0.088002890169061,0.046445059004389,-0.5344601120895265,-8.545803522456048,6.501709337799467,-0.0021424374884793,0.0816711590832467,-0.7989127329584393,-0.0015462311604181,-0.0003314096785551,-0.0035882597037302,-362.5287364045473,-128.60833526509109,114.9341997182322,-3.513345966181844e-05
19188,1724816794144304728,-1.83809494972229,-0.6104075908660889,0.1753062754869461,-0.0150631330907344,-0.0379735603928566,0.3885317742824554,-0.920529305934906,0.0,0.0,0.0,0.0716106482224776,0.0432838919558308,0.1454983184947641,0.520098884,0.0347789082527955,0.0035357453438264,0.0058428297778576,4.768483052928081,4.58131507402054,-1.1758398917181094,-0.0017817037455665,0.0817074462997087,-0.7988527659017574,0.0013326658500005,-5.0499779646884235e-05,-0.0030548291908889,-3.1815147601406646,7.0621018791637065,22.38709635702549,-2.632816950833958e-05
19190,1724816794153333285,-1.8380836248397827,-0.6104049682617188,0.1752757877111435,-0.0153042990714311,-0.0379213914275169,0.3884675502777099,-0.9205545783042908,0.0,0.0,0.0,-0.0837464190987275,0.0517334818513782,0.1729270405161853,0.529127441,0.0530428413544539,0.0101201815101038,0.0174741004638778,-2.8318687197442256,0.0916165027489543,-0.3368571025303278,-0.0012898882332862,0.0817990583681251,-0.7986946056481421,0.000308047925543,0.0004663988610182,-0.0009973723869665,-9.044086281038403,-2.078614001548513,-9.591227259215964,-2.9880958246678863e-05
19192,1724816794165777632,-1.838096022605896,-0.610396146774292,0.1753041893243789,-0.0149266365915536,-0.0380828715860843,0.3885356187820434,-0.9205253720283508,0.0,0.0,0.0,-0.0562751835040367,-0.0258393297801801,-0.1630515036457471,0.541571788,-0.0654691632343028,0.0003226336840501,-0.0145928574857911,3.244706043089451,-2.3356781317836752,-0.3032814383684807,-0.0021194978915659,0.081802761663023,-0.7988768017326101,-0.0002240093311343,0.0010155403934177,0.0002119588910733,-5.487475738945221,-0.4981184927687276,-11.177909134925256,2.707766347518702e-05
19194,1724816794174743703,-1.8380930423736572,-0.6103850603103638,0.1752927154302597,-0.0150631144642829,-0.0378763750195503,0.3885563910007477,-0.9205229878425598,0.0,0.0,0.0,-0.1551859677216168,0.0067455507430313,-0.1610725624481492,0.550537859,0.0461047585803807,-0.0306216796005384,-0.0026249908002476,6.622108010140929,-1.2077747222531554,2.665193746700978,-0.0017080029951502,0.0815281740764803,-0.7989000041901109,-0.0008159173653581,0.0003318758284187,-0.0029310615043911,-12.90467269513498,17.56151474198193,-2.717423627417821,-1.189660371464443e-05
19196,1724816794184096761,-1.8381118774414065,-0.6103907823562622,0.1752491891384124,-0.0152535438537597,-0.0376945585012435,0.3884149491786957,-0.9205869436264038,0.0,0.0,0.0,-0.2941584829690822,0.3068842955840404,-0.215155455363264,0.559890917,0.051238840593877,-0.0200288691149491,0.0352830860650211,-4.736846672763461,-1.1261148982314055,0.5851271779549465,-0.0012018073387152,0.081341313961424,-0.7985685475063788,-0.0031373853788636,0.0012047358138893,-0.0025889378917955,-7.490640017287298,17.893703362699647,-63.99164711418748,-4.413810260958168e-05
19198,1724816794193728956,-1.8381532430648804,-0.6103611588478088,0.1752447336912155,-0.0149474712088704,-0.0375454314053058,0.3883814215660095,-0.9206121563911438,0.0,0.0,0.0,-0.2932229932933823,0.3384184015743089,-1.4089518193635595,0.569523112,-0.0468204142185498,-0.0532810262657433,0.0065188756465683,-6.4050017491042865,-7.97848342473136,-1.4176338060856415,-0.0016476285939758,0.0808281836772896,-0.7985047537905786,-0.0064266285151148,0.0062791563784934,-0.0071584760680014,-4.543189213491212,-19.09710324287701,-98.86563013743596,-8.499425638674747e-06
19200,1724816794203410695,-1.8382362127304075,-0.6102691888809204,0.1751102656126022,-0.0142994299530982,-0.0369023717939853,0.3883448839187622,-0.9206638932228088,0.0,0.0,0.0,-0.3823663211668869,-0.064178287291618,-2.1221489362025396,0.579204851,-0.0720918852368809,-0.1745744263195268,0.0080588317781672,-2.809771838658558,-7.252784685414243,0.1361558234419365,-0.0023390798342468,0.0791381626950092,-0.7984231394017172,-0.0087958805060281,0.0077222102655625,-0.0298941811096611,-26.065006002046864,-30.35278618435138,-26.045078095080093,-0.0001438206900505
19202,1724816794213790638,-1.838330030441284,-0.6102088093757629,0.1746218502521515,-0.0134214796125888,-0.0361968576908111,0.3882949650287628,-0.9207261800765992,0.0,0.0,0.0,-0.8405198016687826,-0.2542619857293257,-1.862566548880436,0.589584794,-0.1034778664951278,-0.1911520332990415,0.0092172568258267,-6.460428162012894,-0.7195085510841253,4.175090551843299,-0.0034052367300013,0.0771542993291911,-0.7983214670681499,-0.0142966906034871,0.0046831433562317,-0.0494051554538383,-14.07271346940161,-7.328146463750149,43.677430866467226,-0.0004954246363774
19204,1724816794225285172,-1.8385612964630127,-0.6101694107055664,0.1740240305662155,-0.0118519999086856,-0.0356865040957927,0.3876864016056061,-0.9210241436958312,0.0,0.0,0.0,-0.6195794342044207,-0.1986766594778295,-1.1228761627657473,0.601079328,-0.2214827530054236,-0.1882520001098981,0.1089313435284753,-10.459152527245372,0.2306056578550741,11.329653802142824,-0.0058548794286468,0.074996264371757,-0.7970558209066,-0.0279113076323369,0.0022508421154157,-0.070596652342326,-5.9986718447882055,24.417627706600054,-43.754292838609416,-0.0006111566751173
19206,1724816794234478242,-1.8388751745224,-0.6101573705673218,0.1732383668422699,-0.0102074369788169,-0.0354536436498165,0.386658638715744,-0.9214845895767212,0.0,0.0,0.0,-0.860153545698914,0.1697699053819172,-2.3199505635501456,0.610272398,-0.319053331471698,-0.186291507730954,0.2326043862400249,-2.15600627214358,4.608133852952943,3.0767461964369325,-0.0086281984875511,0.0732991788793478,-0.7948989776704265,-0.0294540378693071,0.0005194483871306,-0.0756201624748813,-18.705639875829547,34.6159510799417,-65.33213387082196,-0.000802112670009
19208,1724816794249042849,-1.839195966720581,-0.6101680397987366,0.1723641008138656,-0.00912506878376,-0.035768873989582,0.3863646984100342,-0.9216071367263794,0.0,0.0,0.0,-0.9603770189617028,0.5478853936804857,-1.7743346431999,0.624837005,-0.1553003514902341,-0.0177651863118842,0.037989873110893,-37.42224267918424,5.981618451120615,-30.31048369300997,-0.010849347208529,0.0730458490606653,-0.794341806563955,-0.057957386016767,0.0112553033175402,-0.1503325177959666,175.26634165960206,-71.4493161751653,505.60158774033334,-0.0008902967555935
19210,1724816794253605340,-1.839511752128601,-0.6100995540618896,0.1715491414070129,-0.0082845576107501,-0.0361233539879322,0.3865939974784851,-0.9215050339698792,0.0,0.0,0.0,0.0996068522968021,0.0826754108633031,1.2015523748782404,0.629399496,-0.3955936303382119,0.0015373975732298,-0.1245246735841442,-30.678655193140983,-1.3573392183807056,-22.827410710535094,-0.0126958164509114,0.0730461675053784,-0.7949114424649381,-0.0609146432816416,0.0134845645615797,-0.153632251516413,183.40661258128668,-81.65366776932603,505.0205763417819,-0.0008346800223579
19212,1724816794263852381,-1.8399449586868288,-0.609996497631073,0.1705499738454818,-0.0070307203568518,-0.0358643420040607,0.3868642449378967,-0.9214121699333192,0.0,0.0,0.0,0.853150969699743,-0.2866072922630692,2.98814756586619,0.639646537,-0.2039131649624569,-0.1409755505710102,-0.064034501402806,15.61097765226404,-6.667328568385808,6.748903894352704,-0.0148314160075827,0.0715926935742066,-0.7955493554874215,-0.042684582814104,0.0049895918182549,-0.0970226491159351,-30.10740336372577,-14.119512842127708,-53.09300034685253,-0.0010269681631756
19214,1724816794274276975,-1.8403942584991455,-0.6099982261657715,0.1695436984300613,-0.0064086024649441,-0.035370897501707,0.38678178191185,-0.9214704632759094,0.0,0.0,0.0,-0.5598862736913817,-0.2013471919696245,0.0225663224824188,0.650071131,-0.0739977572794567,-0.1336938044915546,0.0152891263104333,0.6365572450155117,-3.7187743316738056,2.982800901760303,-0.0155899917232619,0.0702015837401334,-0.7953684231364634,-0.0436102608430672,0.0077542049495065,-0.0927708266376665,-82.38539003875843,-40.23372551927061,-132.3281896350354,-0.0010306680297508
19216,1724816794283965792,-1.840821385383606,-0.6098517775535583,0.1686787009239196,-0.0052383122965693,-0.0347622074186801,0.3867467939853668,-0.921515703201294,0.0,0.0,0.0,-0.8793716584621412,-1.0271173305740366,0.1105791994466862,0.659759948,-0.1743216055650795,-0.2095019035921577,0.0025276478961077,-10.402895578583063,-7.518136187898208,10.548283482701455,-0.017274954624247,0.0681724337444775,-0.795310439098772,-0.0532770374821325,0.0016021352207502,-0.0960217854558926,-24.34407718452323,10.006905005688957,9.599756284888898,-0.0008938455840418
19218,1724816794293495818,-1.841415286064148,-0.6099631786346436,0.16770039498806,-0.0035581977572292,-0.0340396240353584,0.3857665657997131,-0.9219613671302797,0.0,0.0,0.0,-1.030469726240641,-0.039023482579844,0.2069000677283696,0.669289974,-0.2739141628026246,-0.2782801152486537,0.2142775662624783,0.3859386238526658,-0.6559427788470664,8.175987238079706,-0.0197453532124429,0.0655586551567076,-0.7932148325621289,-0.0605480456241309,-0.0118622821279892,-0.0907861399203211,1.241602350476029,76.90485847663382,13.864006856773903,-0.0010080040585272
19220,1724816794304568799,-1.8420629501342771,-0.6100967526435852,0.166847825050354,-0.0024873004294931,-0.0332886166870594,0.3851119577884674,-0.9222660064697266,0.0,0.0,0.0,-0.7967615855004642,0.4680323278187316,0.4087514448843148,0.680362955,-0.1302231108858228,-0.2011304326867625,0.1241331957517431,1.9562344504325768,-17.048018517444085,-13.36683997063654,-0.0210956750628867,0.0633600820881624,-0.7917922805009251,-0.0754001575853067,0.0053808088318092,-0.0929014535360686,100.6493442366786,-93.14830135750918,79.0439260609619,-0.0008851592834766
19222,1724816794313793797,-1.8428884744644165,-0.6099130511283875,0.1658685654401779,-0.000679271062836,-0.0313289053738117,0.38525390625,-0.9222784042358398,0.0,0.0,0.0,0.7430517341584744,-1.4590774153526564,1.6053187920331138,0.689587953,-0.1968740442145364,-0.542966974906254,-0.0393392212153447,0.3761877287795858,4.472416007289977,-10.388535024031508,-0.0229272293608276,0.0583444251732728,-0.7920452242921512,-0.078565325096477,0.0013275173807549,-0.084521116522982,113.29773578434312,-123.9711468477078,31.25896725871042,-0.0010292742795135
19224,1724816794323523178,-1.8435407876968384,-0.6100908517837524,0.1652681976556778,-1.499843619967578e-05,-0.0312160793691873,0.3855289220809936,-0.9221675992012024,0.0,0.0,0.0,1.295158177184609,-1.7937474506113618,0.8992174739353684,0.699317334,-0.1152152284846127,-0.0733214212864325,-0.0651765058839515,13.157670899701142,20.44703918807584,3.988416128410699,-0.02408402921152,0.0576163509358376,-0.7926635094394262,-0.0601904391877639,-0.023331852929548,-0.0617514246766894,8.483103110076126,37.20899497276111,-111.0562444741795,-0.0006324612908917
19226,1724816794334459554,-1.8441147804260256,-0.6104081869125366,0.1645923107862472,-6.1019927670713514e-05,-0.0300652086734771,0.385240375995636,-0.9223263263702391,0.0,0.0,0.0,0.7946278587372668,-0.5065449839463154,-0.7884001718764049,0.71025371,0.0872544632539608,-0.1917460706583862,0.0601178373837915,11.157750802293029,-17.741723702130905,12.392941158909863,-0.0230897498269755,0.0555354241175115,-0.7919555209644973,-0.0533213169861994,-0.0338424781355826,-0.0696326528735369,19.670876308573657,205.55045282588316,220.55532928575496,-0.0006990848665973
19228,1724816794343434268,-1.8445994853973389,-0.6107474565505981,0.1639097034931183,5.831776434206404e-05,-0.0281714629381895,0.3845199644565582,-0.9226866960525512,0.0,0.0,0.0,1.4531163152800417,1.9852288079420064,3.951889667612555,0.719228424,0.1332182197773837,-0.401888210518326,0.1782365708452623,-0.1621452589046703,-12.56229645478498,6.140586528485442,-0.0218037559739571,0.0519654042000845,-0.7902729569980201,-0.044963285032864,-0.0350410343334957,-0.0772073411900491,34.64652334699278,89.18148502593128,202.18940833157453,-0.0006994300849195
19230,1724816794353480465,-1.84494948387146,-0.6110684275627136,0.163121148943901,0.0004853134450968,-0.0261501185595989,0.3837830722332001,-0.9230529069900512,0.0,0.0,0.0,1.3656960994911498,0.7617910109717652,2.3171315672525705,0.729274621,0.0721717998062753,-0.4060473036739064,0.1609741665045943,-41.33135965956538,94.8331109317715,-66.7643551694245,-0.0209935270246667,0.0479217155966115,-0.7885668823149112,-0.0244967035877579,0.0087298903796337,0.0164268312422928,-46.11325469552126,-254.0835211016098,-465.06009607674497,-0.0007983476275358
19232,1724816794363801933,-1.8450926542282104,-0.6105469465255737,0.1642972528934478,0.0009840111015364,-0.0351277850568294,0.3894672691822052,-0.9203697443008424,0.0,0.0,0.0,0.4930182482032077,-3.263695122759051,-5.689027642605498,0.739596089,-0.7282802217811947,1.5827967647999963,-1.217898647446999,24.659880454848125,-66.78910111841513,50.88242596149321,-0.0292374522471863,0.0639381761379179,-0.8015640754644836,-0.0175220263999875,-0.0215315411222078,-0.0339211753681665,-37.53101078070753,-30.363990925155072,-72.41978909826423,0.0011505075187949
19234,1724816794374146394,-1.8453117609024048,-0.6115167140960693,0.1624133288860321,0.0015925884945318,-0.0253898333758115,0.3837258219718933,-0.9230965375900269,0.0,0.0,0.0,0.592247508889893,0.1508480796151838,0.8528855064351408,0.74994055,0.586496696232895,-1.79825182391987,1.2209994911136666,27.69163291715762,-66.76796659868131,53.008474408192136,-0.0224509868789402,0.0456681723643464,-0.7884370354301875,-0.0143164356922795,-0.0587326765895923,-0.1011795480676056,8.873490722893642,262.8110658671931,488.7969313929485,-0.0018759788143942
19236,1724816794384011973,-1.845388412475586,-0.6117666959762573,0.1621766835451126,0.0019526565447449,-0.0254880264401435,0.3836051821708679,-0.9231433272361756,0.0,0.0,0.0,0.6730245537021581,2.1106674345108942,4.323939058181065,0.759806129,-0.0756256257368467,-0.009914439225948,0.0243940860229205,-31.805472871785103,97.2670917376272,-66.77230406443601,-0.0231859933375187,0.0455758811609347,-0.7881940131447663,-0.0058168576970558,-0.0219886490672713,-0.0235653993975946,-11.627573144534637,41.60019197991164,62.83956112398347,-0.0002360708953192
19238,1724816794396074505,-1.84542977809906,-0.611982524394989,0.1618986427783966,0.0017816419713199,-0.0249253045767545,0.3834854364395141,-0.9232087731361388,0.0,0.0,0.0,0.2405156709994285,0.2961541644785403,0.8196336401687123,0.771868661,0.0614812373110963,-0.0755683410082703,0.0230312973564191,4.615719123382985,-5.7504163557827,-4.486526064351226,-0.0224308932707725,0.0446709074612042,-0.7878951571963082,-0.0004788199794347,-0.020330142263198,-0.0236658154105668,-24.10498748270964,-32.21445963010684,-76.65265044254438,-0.0002762378122749
19240,1724816794403296147,-1.845420479774475,-0.612139880657196,0.1617250740528106,0.0017293965211138,-0.0244394671171903,0.3835847973823547,-0.9231805801391602,0.0,0.0,0.0,0.1172414589952265,0.5745962216071772,1.1906904650001435,0.779090303,0.0656281272716041,-0.1184257793590095,-0.0282777386468192,0.812125608489525,0.8242195648191637,-3.5353596071995237,-0.0219651481264691,0.0438113565980583,-0.7880805135089307,0.0003846912787395,-0.0175054520982591,-0.0141670538886673,-11.589051244979448,25.145321204581087,-0.8298912835520551,-0.0001704805778947
19242,1724816794415729288,-1.8454350233078003,-0.6122658252716064,0.161760151386261,0.0011779167689383,-0.0244562532752752,0.3835734724998474,-0.9231857657432556,0.0,0.0,0.0,0.0904780246516283,0.6001558802540339,0.0627662307973497,0.791523444,0.0808176592499992,0.0364975488566659,0.0041744771802767,-3.207501211756449,3.416934342731481,-2.45182602921252,-0.0209584754282828,0.0442661496749756,-0.7880383946684192,0.0017924693693487,-0.0064344913420057,-0.0020307657403115,-15.00515084459597,-15.30200020927226,-61.0028171014019,3.6454417430589376e-05
19244,1724816794424803311,-1.8453991413116455,-0.6122997403144836,0.1617095917463302,0.0010766532504931,-0.0244489107280969,0.3837920725345611,-0.923095166683197,0.0,0.0,0.0,-0.1307945518882372,0.3463541693877671,-0.2939795795163661,0.800597467,0.0223805614772433,0.0076122069723972,-0.0515960691669723,-1.8680252331061604,-3.2003019625014675,0.034151991106838,-0.0207762028596898,0.0443254339460159,-0.7885082990279515,0.0024628092522647,-0.002911053224011,-0.0075098929648937,-18.959854103046787,-15.99238954975689,3.7688396667531863,-4.828075036668939e-05
19246,1724816794433861285,-1.8453903198242188,-0.6123186349868774,0.1616240441799163,0.000917911005672,-0.0242775753140449,0.383777916431427,-0.9231057167053224,0.0,0.0,0.0,-0.2534759843292747,0.3097977990143599,0.1297211360911372,0.809655441,0.0468000084818553,-0.0215297714959133,0.004595520230221,-1.536095407031779,-0.4946149968738553,2.3511584610159915,-0.0203502691594917,0.044131312602614,-0.7884625891737146,-0.0005725333920736,-0.0001530534128271,-0.0073711392360467,1.2878395679212893,-8.864395377713738,27.708712644091037,-8.472490011821524e-05
19248,1724816794444940350,-1.845417618751526,-0.6122941374778748,0.1615704745054245,0.0010407598456367,-0.0243866238743066,0.3838845491409302,-0.9230585098266602,0.0,0.0,0.0,-0.0382195588796101,0.1461560146673446,0.1783173232210854,0.820734506,-0.0275668468028083,0.0098854236215913,-0.0215600497614687,3.8489982001702447,2.6906213690145293,0.5197960361583894,-0.0206663471366547,0.0442359236606961,-0.7887040656735533,-0.0022746902956498,0.0033512369440771,-0.0043836653654061,-20.97981862644511,33.210312318113445,-113.14672598259344,-5.51682739410111e-05
19250,1724816794453630757,-1.8454360961914065,-0.6122572422027588,0.1615354567766189,0.0006742859259247,-0.0243862010538578,0.3838824927806854,-0.9230596423149108,0.0,0.0,0.0,-0.4960001632133238,0.7618392128090253,-1.6061666320296366,0.829424913,0.0778767243977194,0.0322801060260993,0.0025935510614998,8.337335500985386,1.577843434797937,2.061783705906738,-0.0199888164461392,0.0445168450024764,-0.7886871193184152,-0.0018200608226557,0.0034615748530422,-0.0034566093824912,45.67097944734061,-88.10139091251902,137.2036084815951,-3.646232255491611e-05
19252,1724816794480317765,-1.845459580421448,-0.6122291088104248,0.1614901572465896,0.0008450040477328,-0.0243488159030675,0.3838935792446136,-0.92305588722229,0.0,0.0,0.0,8.78259967776063,-14.615407588759297,30.12748755659061,0.856111921,-0.010714103195253,-0.0074901895475653,-0.0011888448841411,154.13276877807562,370.93013392212566,104.62514809229494,-0.020275975132677,0.0443163568251723,-0.7887148550026317,-0.059992269126269,0.085186540068662,-0.1866912846832065,884.1976617326145,-1179.686275205684,2665.4736443334405,-4.6798677842984747e-05
19254,1724816794480661150,-1.8454804420471191,-0.6121994853019714,0.161425232887268,0.0008300465997308,-0.0243652518838644,0.3838881850242615,-0.9230576753616332,0.0,0.0,0.0,9.088590418965804,-15.023160558236578,31.04929437705967,0.856455306,0.0429084616173638,0.1215271480874208,0.0352007611495413,146.64215568816715,349.4035941304738,98.35988856505344,-0.0202607410526119,0.0443583209509631,-0.7887035587041614,-0.0569280201448236,0.0800897213379467,-0.176182505921854,817.4000534605574,-1070.628083734405,2436.349927186859,-6.630763117317393e-05
19256,1724816794485428523,-1.8454986810684204,-0.612226665019989,0.1614384055137634,0.0005418680375441,-0.0243623293936252,0.3838943243026733,-0.9230554699897766,0.0,0.0,0.0,8.107344409691898,-12.39498919462586,26.24178207790265,0.861222679,0.112126782476749,0.045303586894605,0.0002121055741135,7.306577253735274,-13.089566872390336,-4.676851717114713,-0.01972634008233,0.044574281747619,-0.7887069431026894,-0.0026825761718924,-0.0034643321012595,0.001347930433404,-344.92013121479056,703.3166530757383,-1364.1954508019892,1.2810294525313912e-05
19258,1724816794497084305,-1.8454973697662351,-0.6122032999992371,0.1614137887954712,0.0006383323925547,-0.0242482405155897,0.3837770223617553,-0.9231071472167968,0.0,0.0,0.0,0.1232037396673627,0.1352668153038037,0.2023660396558054,0.872878461,-0.0082488886791542,-0.02465128828269,0.0215691876950916,-4.044978479000755,-5.694174472862754,2.4273605613907954,-0.0198110573585912,0.0442919740683744,-0.7884495981947768,-0.0014035804229592,-0.0017112533810177,-0.0061640250255869,-257.5764119333692,408.3668127423305,-814.0281071185816,-2.493573423717489e-05
19260,1724816794504198994,-1.845513939857483,-0.6122316122055054,0.1613523364067077,0.0007538951467722,-0.0240520369261503,0.3836399912834167,-0.9231691360473632,0.0,0.0,0.0,0.1468193006172936,0.1455029208292952,0.5776203045612568,0.87999315,-0.0097436635967166,-0.0638279078339358,0.0414232639133115,-2.8635317833979745,3.5262425061368914,-3.2614575403498884,-0.0198669894444249,0.0438437929545888,-0.7881456194743476,-0.0004685128245256,-0.00081461083969,-0.0010465517450324,-4.226827900268212,-6.019206445498096,0.0368783239437933,-6.164356854051823e-05
19262,1724816794514297118,-1.8454920053482056,-0.6121944785118103,0.1614505648612976,0.0009247546549886,-0.0246721915900707,0.3839957416057586,-0.9230048060417176,0.0,0.0,0.0,-0.0040190324493767,-0.0221714924103661,-0.1774324252711256,0.890091274,-0.0766906253380669,0.1012425228427873,-0.0782528056236638,2.784396255679872,-1.494902688882886,-1.934385441044692,-0.0206774039167095,0.0448499336791356,-0.7889573334709655,0.0012346878067859,0.0009338373436094,0.0027559357995059,-16.02736699381429,-11.371748502398404,-57.23489504099224,9.84830680436366e-05
19264,1724816794523589617,-1.8454885482788088,-0.6122092604637146,0.1614165604114532,0.0009151152335107,-0.0243395045399665,0.3840478062629699,-0.9229918718338012,0.0,0.0,0.0,-0.1622749639454691,-0.0830973334332441,-0.559328831374545,0.899383773,0.0296842068226782,-0.0652145320790588,-0.0114269450740189,7.210446728227485,-6.824748578919941,5.278346342063742,-0.0204057364682457,0.0442418650494917,-0.789050991056492,-0.0002793059704089,-0.0009423783679061,-0.0036300726949907,-7.178001008513245,3.387339940418388,-10.017393576595753,-3.355496780740609e-05
19266,1724816794535602696,-1.845502018928528,-0.6122105121612549,0.1613734066486358,0.0005741926142945,-0.0243617370724678,0.383931815624237,-0.9230397939682008,0.0,0.0,0.0,-0.0954938507424692,0.1120238334928617,-0.196992771537006,0.911396852,0.050503480535378,0.0250024968613212,0.0222725648127857,-0.5686379824561847,-1.1882315089832105,-0.1949836759159063,-0.0197874177698548,0.0445475364198722,-0.7887892341147479,-0.0022186104056629,-9.550732526264484e-05,-0.0083631338818754,2.859080504769304,1.9092980898964544,22.010112070258597,-4.369218754853408e-05
19268,1724816794543572665,-1.8455255031585691,-0.6122112274169922,0.1612815260887146,0.000495993590448,-0.024197993800044,0.3839171826839447,-0.9230502843856812,0.0,0.0,0.0,-0.0869833523242863,0.0514531412285031,-0.0646757476330275,0.919366821,0.0338010354654955,-0.0304599503849994,0.0048545822707889,-3.229158267171028,-2.8773454158734286,-2.1765914754810116,-0.0195160946615698,0.0443055829677959,-0.7887458050645968,-0.0026310346164422,0.0010169032071338,-0.0088915044012374,0.8229572041638433,-7.299718626409377,11.091753783864364,-9.281830977002802e-05
19270,1724816794553735659,-1.845548152923584,-0.6121865510940552,0.1612253338098526,0.000575671554543,-0.0241927616298198,0.3839959502220154,-0.923017680644989,0.0,0.0,0.0,-0.0817929412998889,-0.0188441160407593,-0.0233594503802392,0.929529815,-0.013706237003366,-0.006807301549445,-0.0171512797689397,-1.253467641152037,-1.0975898349748,1.1986678304415288,-0.0196630536565306,0.0442330050324122,-0.7889189867831065,-0.0039716861752623,0.0003978065634058,-0.0095278166934313,5.965227879698132,1.4050448922202978,8.92011922413086,-5.758029048521318e-05
19272,1724816794563459447,-1.8456029891967771,-0.6122015714645386,0.1610954850912094,0.0006381324492394,-0.023960318416357,0.3838807046413421,-0.9230716228485109,0.0,0.0,0.0,0.0269580571161669,0.07224275236265,0.1085443930665335,0.939253603,0.005933425657298,-0.0493439965694304,0.0258011350707094,2.328837845272277,2.915289046661753,-0.7069765476797549,-0.0195939002898718,0.0437582097678853,-0.7886584601147507,-0.0043007094868698,0.0006059958391162,-0.0093897824570223,4.68665906587568,1.3191504491549124,-13.786518308984304,-0.0001318934085026
19274,1724816794573835462,-1.845632791519165,-0.612171471118927,0.1610419452190399,0.0003596511960495,-0.0241885110735893,0.3840682804584503,-0.922987699508667,0.0,0.0,0.0,0.0036482308109112,-0.0031801567470816,-0.3373412261741358,0.949629618,0.0335196520747687,0.0616175428231919,-0.0382698652809738,3.6493939835564384,3.578483114952353,-2.094706035004122,-0.0192641536633391,0.0443897116369734,-0.7890681725558758,-0.0033478705664578,0.001918404079813,-0.0072188944012765,-2.715179813053042,-7.656938921174236,-32.079460246914365,-5.5355439188736805e-05
19276,1724816794583883145,-1.8456710577011108,-0.6121617555618286,0.1609493792057037,-6.280232628341764e-05,-0.0241658613085746,0.3841689825057983,-0.9229465126991272,0.0,0.0,0.0,-0.0281930663674609,-0.0838895193250218,-0.5536768526994538,0.959677301,0.0798272558422619,0.0283404658767797,-0.0196174426376889,1.1013271743739796,-10.079631272493156,3.577927892295973,-0.0184710978024766,0.0446707032925456,-0.7892709017649099,-0.004169208906859,0.0006248444331831,-0.0159263080822587,-21.381945927253753,22.16846818277592,-82.0617534831556,-9.434453379441384e-05
19278,1724816794593470726,-1.8457143306732176,-0.6121588945388794,0.1607352644205093,-8.445867570117116e-05,-0.0234823636710643,0.3840410113334656,-0.9230173826217652,0.0,0.0,0.0,-0.3998160407295806,0.4049486979106176,-1.8942200036487944,0.969264882,0.0582981796393198,-0.130213587575784,0.0304357987439672,-2.082421191717242,-12.513850258405128,3.983826070060243,-0.0178982976269362,0.0434277802070933,-0.7889561025814066,-0.0039495984388704,0.0002308827069934,-0.018371853949526,-581.5112693862925,174.48912299063716,-1030.9190904966745,-0.0002158037398957
19280,1724816794631385715,-1.845779538154602,-0.6121602654457092,0.1606325507164001,-0.0001390577817801,-0.0234304796904325,0.3841120302677154,-0.9229891300201416,0.0,0.0,0.0,-103.82692671427506,25.538469519994777,-174.5913441222625,1.007179871,0.0037975260390663,-0.0013854193857454,-0.0039623047439546,1395.8882528675,-1400.6040354553195,-23.19452180587292,-0.0177607964908398,0.0433725809965819,-0.7891054973668725,-0.0824908367831085,0.0824629546690403,-0.3359620351093326,90095.58558130848,-58813.72091522319,261610.25331157647,-0.0001053892932575
19282,1724816794631997453,-1.8458307981491089,-0.6121090054512024,0.1604237407445907,-0.0002825096889864,-0.0230818968266248,0.3841234743595123,-0.9229931235313416,0.0,0.0,0.0,-47.795859916766005,-11.027156475333925,-11.927344279324757,1.007791609,0.8715071085900646,-0.8720457194290073,-0.0183712520013472,1314.3406393946236,-1652.7149922807164,-1719.7384515726892,-0.0172277447884006,0.0428390029838722,-0.7891074113798612,-0.1470100457972876,0.0983164665458389,-0.4444067472145434,136485.35134087707,-70385.13511815896,339425.9089109653,-0.000211696151623
19284,1724816794632315553,-1.8458880186080933,-0.6120753288269043,0.1602653264999389,-0.0003784763976,-0.0227934289723634,0.3842523694038391,-0.922946572303772,0.0,0.0,0.0,3.0457361297897387,-35.17196477835411,108.20518638229954,1.008109709,1.2723808855437169,-1.4357290397652984,-0.845985980571861,883.0243615549554,-1205.7755895620978,-1998.6089069979455,-0.0168341393187349,0.0423777782548037,-0.7893688967428021,-0.1526742424729263,0.0886980373521737,-0.4208509810332081,140095.3184463962,-63270.08210573311,321122.5961446925,-0.000161253893929
19286,1724816794633611040,-1.8459422588348389,-0.6120510101318359,0.1601271629333496,-0.0006270412704907,-0.022681264206767,0.3844099342823028,-0.9228836297988892,0.0,0.0,0.0,80.42320326458426,-50.48555600473687,225.94409667950188,1.009405196,0.4262905617608765,-0.0102438753223155,-0.2530348411667371,-597.9402466897216,1002.8558056871016,419.3217969151534,-0.0162957723920082,0.0423590829565325,-0.789696787975427,-0.0387135706699162,0.0170971352186479,-0.1004784243698275,53960.90190468411,-10453.279200958455,81438.92058128123,-0.0001407180975532
19288,1724816794647066192,-1.8460222482681272,-0.6120550036430359,0.1596376597881317,-0.000826668285299,-0.0215736199170351,0.3842687010765075,-0.9229688048362732,0.0,0.0,0.0,0.4707577137540129,-0.0393047447977558,1.804627930174199,1.022860348,0.090190763617852,-0.1408131983151553,0.0250173726590608,-0.7621902154375206,3.921062633360929,0.5499725670530888,-0.0150670621800494,0.0404699280164689,-0.7893301423241655,-0.0108952976291902,0.0063488959327031,-0.0446524189831087,-1966.5183599636357,1206.4739316849343,-5431.859728074482,-0.0004921091634633
19290,1724816794653333211,-1.8461049795150757,-0.6119958162307739,0.1593336760997772,-0.0011840192601084,-0.0211645737290382,0.384366899728775,-0.922937035560608,0.0,0.0,0.0,-0.2486182752652844,0.099442158097503,0.5328813537268249,1.029127367,0.1561036315740525,-0.0764682142412991,-0.0302519368125446,1.3935782237463457,7.591059017278268,-6.625616320931328,-0.0140961077768369,0.0399879897065149,-0.7895129233451589,-0.0126058784804996,0.0083195927706754,-0.0401861185758427,-75.72925684745856,5.547092014747197,-157.18253835536098,-0.000307959606766
19292,1724816794664608123,-1.8462350368499756,-0.6119248270988464,0.1590493321418762,-0.0010099640348926,-0.0209587085992097,0.3846801817417145,-0.9228114485740662,0.0,0.0,0.0,-0.3101784525522747,-0.1745786345668529,-0.3114348091998979,1.040402279,-0.0132568829270397,-0.0451647971794547,-0.06046186601695,2.9012404852787688,-4.56008713741636,4.015189450544349,-0.01427238649908,0.0394691455785094,-0.7901879186964244,-0.0149154760690635,0.005079351822971,-0.0378248075638421,5.2831201042871445,2.6474195768281823,-14.201950056493368,-0.0002903003851513
19294,1724816794674283374,-1.846407413482666,-0.6118857860565186,0.1585787087678909,-0.0014643082395195,-0.019983546808362,0.384545624256134,-0.9228885173797609,0.0,0.0,0.0,-0.1698683047430643,0.0747977925893771,0.0549774672320424,1.05007753,0.16361362835998,-0.1501961278351661,0.0339681888339233,6.462729276485425,-3.1124624233868623,2.8348555930552246,-0.0126758844225931,0.0380205179172703,-0.7898394135393226,-0.0187910750069306,0.0043268400833014,-0.0451625264057202,-15.315286303396515,52.99355113162692,-61.83312534007386,-0.0004771150377573
19296,1724816794683438659,-1.846587896347046,-0.6118436455726624,0.1581953763961792,-0.0017764783697202,-0.0193000864237546,0.3845575749874115,-0.9228975176811218,0.0,0.0,0.0,-0.5683988007337075,0.7957731577584952,-1.3748862291433703,1.059232815,0.1203994343522446,-0.1116101663561073,-7.189357478140433e-05,-3.281684176896197,3.11250363728605,-1.1121726106404348,-0.0115731524663808,0.0369987608715437,-0.7898276510690317,-0.018347652946943,0.0063334305077287,-0.0376126815597364,-25.568707296411365,47.438219783776454,-109.5535004666376,-0.0003899910123801
19298,1724816794699017295,-1.8468375205993652,-0.611699104309082,0.1577222794294357,-0.0022797754500061,-0.0183138418942689,0.3842032253742218,-0.923064112663269,0.0,0.0,0.0,-0.4905927203087437,0.7047737150184279,-1.8456017747662512,1.074811451,0.107406643317755,-0.0923369320043176,0.0516809635919181,24.39106297847768,-82.8369859108736,-26.438962321508,-0.0098701195470493,0.0355689941614602,-0.7890066600430143,-0.0435538979547232,0.0340153633211741,-0.1173380101599228,-523.7385275663063,335.71839868467777,-1012.0600047014242,-0.0004834195218384
19300,1724816794703059364,-1.847042441368103,-0.6115356683731079,0.1571567803621292,-0.002310067648068,-0.0171723347157239,0.384375125169754,-0.9230144023895264,0.0,0.0,0.0,-3.1620963682841072,2.419986361555171,-6.966141944718316,1.07885352,0.2324521697418645,-0.5153437299082205,-0.0863994321563752,24.044358895337115,-83.67634726649995,-27.810425286977363,-0.0089419161846545,0.0334827454814834,-0.7893364669472569,-0.0443545219422691,0.0357396820892734,-0.1213664972023218,-398.3605272681375,245.1945305724738,-727.545939171973,-0.000574146238599
19302,1724816794723302784,-1.8472973108291624,-0.6112880706787109,0.1565792262554168,-0.0021785895805805,-0.0163194797933101,0.3844323754310608,-0.9230062961578368,0.0,0.0,0.0,15.393211108298717,-10.778724600281803,32.9780802059131,1.09909694,0.0204967257764191,-0.082765394803542,-0.0055569940617744,4030.9219969040505,-1354.2389301679789,-249.54895810171328,-0.0085301867593077,0.0318063684550029,-0.7894342970798347,-0.4088670127293881,0.2868241638259405,-0.8675895468362285,3411.9229577495425,-2355.866232972012,7193.559460286662,-0.0005885947513136
19304,1724816794724015253,-1.8475985527038576,-0.611076831817627,0.1559400558471679,-0.003013655077666,-0.0155538246035575,0.3845127820968628,-0.9229837656021118,0.0,0.0,0.0,17.886671461007484,-12.4999314040631,38.2341710965845,1.099809409,2.9937432636748045,-1.082112581229269,-0.1897105724486289,3878.3119482615207,-1303.0761619428458,-240.29945487052228,-0.0064013054262622,0.0310344144818914,-0.7895638843667614,-0.3970623163288511,0.2785633587983964,-0.8423424057837949,3285.480816949234,-2263.634291676766,6927.009621828112,-0.0006505024356112
19306,1724816794734050954,-1.8479430675506592,-0.610815167427063,0.1552300155162811,-0.0039413259364664,-0.0147154545411467,0.3846818804740906,-0.9229235649108888,0.0,0.0,0.0,20.57008053707299,-13.70199902156014,44.09941494086706,1.10984511,0.2354395967432986,-0.0830383263860351,-0.032338070696618,-164.1270517646661,58.648343747523555,9.471965634436057,-0.004048309229088,0.0301993829850541,-0.7898842252265553,-0.031249570201119,0.0251416505330546,-0.0631013439573244,-460.86133664169046,319.5836119288167,-937.8614180927252,-0.0007228900348648
19308,1724816794748551700,-1.8483316898345947,-0.6104701161384583,0.1544752866029739,-0.0048621352761983,-0.0136273400858044,0.3848705887794494,-0.922857105731964,0.0,0.0,0.0,-1.3712605862049845,0.1378889014189397,-1.396040422010202,1.124345856,0.1753638632185385,-0.0896220908498698,-0.0250870185753281,39.49309639844128,-23.301957718674764,-9.587802410048557,-0.0015160462189524,0.0288987832458774,-0.790244416552997,-0.0657137632002218,0.0684526276556312,-0.1265259399894667,-145.08253893099294,22.31039404429515,-471.1907259475493,-0.0007694491128422
19310,1724816794753685119,-1.848739743232727,-0.6100375652313232,0.1536904275417328,-0.0056946156546473,-0.0125826615840196,0.3851087987422943,-0.9227678179740906,0.0,0.0,0.0,0.3700806720553942,-1.4415022281846204,1.0305048425603918,1.129479275,0.4573975979884077,-0.2507620046592571,-0.0926377244418979,23.48756453988305,-20.262222831733055,8.200278664326815,0.0008185408423727,0.02761135182423,-0.7907197285350654,-0.0709258143784978,0.0639831666084695,-0.1282808075556927,291.32256992762643,-168.36019164478344,372.31329806192394,-0.0008009835506418
19312,1724816794763374361,-1.8492703437805176,-0.6097884774208069,0.1528975814580917,-0.0057538077235221,-0.0112785724923014,0.3834339082241058,-0.9234815239906312,0.0,0.0,0.0,2.3168749237452304,-0.5250760332702664,2.8021162558963755,1.139168517,0.1097501451127413,-0.2435729281157539,0.3774414170741811,-2.7407725188694094,7.158091927702858,-8.296695636866245,0.0019785277753086,0.0252461983708082,-0.7870646435407332,-0.0420034580705248,0.0395763739636159,-0.0931979558926565,40.93932193932026,165.35354516984194,128.4422382829825,-0.0008061051243473
19314,1724816794773735851,-1.8495641946792605,-0.6092247366905212,0.1518059223890304,-0.0076847169548273,-0.0099272252991795,0.3850785791873932,-0.9227983355522156,0.0,0.0,0.0,0.9683844218706364,1.9724105597170785,3.5301866271783444,1.149530007,0.4485439470266753,-0.0983113089955135,-0.3380262045278779,6.852893591444021,19.155359133365764,-37.657711549850504,0.0065393324762576,0.0242424682072486,-0.7905723995539631,-0.0254002253585383,0.0562287709147923,-0.0732352331953025,-117.07258755286912,63.469883538834296,-115.52291441829895,-0.0011072652283183
19316,1724816794786491433,-1.8498417139053345,-0.6084789037704468,0.1513761729001999,-0.0089866276830434,-0.0109576433897018,0.386989563703537,-0.9219751954078674,0.0,0.0,0.0,-0.3196790095574184,-0.006279001249787,-0.8608049453974682,1.162285589,0.1301242846663621,0.2266760003363691,-0.325413780143251,-30.113507028561024,46.16400432160517,-16.475348501459344,0.0080929823564323,0.0271641536385779,-0.7947034355798612,-0.023003738264407,0.0871237541910687,-0.0030251942091918,-50.79047635740834,-226.09498337476847,-426.1098043777298,-0.0004519384939351
19318,1724816794794950382,-1.8500432968139648,-0.6075811982154846,0.1515226066112518,-0.0095620239153504,-0.0140893338248133,0.3891459703445434,-0.9210187792778016,0.0,0.0,0.0,-0.467767398409691,-2.316927578023651,-4.924499171427485,1.170744538,-0.1534957524330386,0.7332150793285251,-0.5627448148348825,22.50663052756881,-36.42916861014427,37.092174153529754,0.0066517514127721,0.033401338581219,-0.7994200544461127,-0.0285550799966927,0.0734485226891692,-0.0460122199036714,18.41793602955328,-84.80578129348022,-42.66866032916079,0.0001169615616381
19320,1724816794803329347,-1.8503217697143557,-0.6072369813919067,0.1506115049123764,-0.0109035009518265,-0.0118292653933167,0.388074517250061,-0.9214876294136048,0.0,0.0,0.0,-0.0152790112779643,-1.4642196890565984,-1.6489484172057307,1.179123503,0.500167466709109,-0.3713813366615994,0.2887685790200753,32.247788528457846,-61.03559101628127,45.026190108366634,0.0109188278368904,0.0302684068416322,-0.79702667633989,-0.0309099770723264,0.048223017929299,-0.0859685382585286,29.05325144146136,138.33976990087248,330.69375290887865,-0.0009244217808406
19322,1724816794814389045,-1.8506296873092651,-0.6065993905067444,0.1499930918216705,-0.0118348747491836,-0.0113605726510286,0.3882886469364166,-0.921391785144806,0.0,0.0,0.0,-0.0581761046944477,0.5996590939067552,1.1291564775577625,1.190183201,0.1887420754691801,-0.0129575189435833,-0.0394919853727123,-16.837475927684284,13.6084229070127,-13.90206841789879,0.0129930127068471,0.0301303303333182,-0.7974652720408965,-0.0271992276402954,0.0546030346046428,-0.0586637700360865,4.423480470884047,66.83765070506671,115.87424997736991,-0.0006412268788657
19324,1724816794826408339,-1.8509482145309448,-0.6059828996658325,0.149252101778984,-0.0123566025868058,-0.0105215366929769,0.3883070349693298,-0.9213871359825134,0.0,0.0,0.0,0.1034351440615113,-0.1615175661080705,0.7543457456037994,1.202202495,0.1342454559122334,-0.094958097534009,-0.000481024414597,-11.807383323406787,3.0243944578458337,1.8805486554424544,0.0146059117762817,0.028989188663164,-0.797486793218994,-0.0330409801869677,0.0621081778412531,-0.0625914221376469,22.57727242475729,-28.86815862490985,99.68852511031554,-0.0007627941007232
19326,1724816794834344172,-1.8512446880340576,-0.6054333448410034,0.1487504541873932,-0.0123359728604555,-0.0104466388002038,0.3882814347743988,-0.9213990569114684,0.0,0.0,0.0,0.3304497759960393,-0.2100431628026187,2.231189930694169,1.210138328,0.0024342141822526,-0.0193627355417266,0.0072897446146987,-9.293626144974144,3.6801027160964463,-0.5465248666119191,0.0146268372951788,0.0288347003141501,-0.7974311768564512,-0.0291315114875274,0.056708303301157,-0.0509402957240832,-0.4436152862051994,-9.911127643059826,46.916718845122375,-0.0005212038493809
19328,1724816794846101984,-1.851443886756897,-0.6049850583076477,0.1483653038740158,-0.0122681474313139,-0.0099793337285518,0.388427585363388,-0.9213435053825378,0.0,0.0,0.0,-0.1808296756763696,-0.3927112016953904,0.3582176385675817,1.22189614,0.0206098994982323,-0.0779281706822946,-0.0257150781619939,-43.49811064537312,35.70405337740226,-28.755176742213912,0.0148601984331156,0.027922990825511,-0.7977470864785946,-0.028071491252831,0.0624332371193645,-0.0114141426920575,10.613123915576448,-118.6289703042217,-247.7628194603844,-0.0004003316754297
19330,1724816794853882921,-1.851719617843628,-0.6043741106987,0.1483863890171051,-0.0109011735767126,-0.0122957825660705,0.3897580206394195,-0.9207707643508912,0.0,0.0,0.0,0.1803069026076528,-1.8465996258688475,-2.0251400580633887,1.229677077,-0.5497851434858952,0.4093770033562143,-0.3830686049799547,-21.06994751613906,14.87516190611758,-12.533597092150163,0.0104954869379627,0.0311458692380412,-0.8006885235939194,-0.0308738595850428,0.0548482836516264,-0.024092280475342,42.63433412879384,-122.83613727679048,-181.82318143823343,-9.471501559672766e-07
19332,1724816794865092302,-1.8519920110702517,-0.6041415333747864,0.1476835161447525,-0.010773372836411,-0.0111626200377941,0.3896926641464233,-0.9208142757415771,0.0,0.0,0.0,0.5971918328736341,-2.1897485658288014,-2.0530376270780817,1.240886458,0.0575778563155382,-0.1950182324957207,0.0156866204864059,25.1191640409555,-17.244173696480665,13.926141068432129,0.0111454721788913,0.0289580555473857,-0.8005361632225285,-0.0201250465492535,0.020071014785401,-0.0531836941981378,-1.5562219505900146,36.89138798602531,67.53475800392249,-0.0007124849499958
19334,1724816794874125295,-1.852143406867981,-0.603965163230896,0.1472724080085754,-0.0109282685443758,-0.0106864525005221,0.3897672891616821,-0.9207864999771118,0.0,0.0,0.0,0.3010890209169062,-1.3651356592453985,-0.9332836387067642,1.249919451,0.0729152396512881,-0.0838247207034123,-0.0160923004558462,21.44916309048663,-10.21563250597819,-3.795503136003859,0.011799711101868,0.0282025841087058,-0.8006902455714853,-0.0173636406110375,0.0069352086504146,-0.0677817401687379,-23.61529521336136,71.39709390268001,290.67400186005455,-0.0004176244897371
19336,1724816794886046314,-1.8523598909378052,-0.6040805578231812,0.1461140215396881,-0.0131319388747215,-0.006131871137768,0.3902000486850738,-0.9206159710884094,0.0,0.0,0.0,0.1637557416331888,-0.8269570616717423,5.154616561184508,1.26184047,0.639345507492366,-0.5599832337192169,-0.0657028737220304,2.651600489408546,-8.202136119174629,2.691030865532755,0.019399349168121,0.0215400290067944,-0.8015777630290797,-0.0138469292522387,-0.0079373550331389,-0.0681653924736496,-4.061020518740753,36.4037338497931,192.20727841685851,-0.001154783100471
19338,1724816794898142839,-1.8524744510650637,-0.6041551828384399,0.1456454992294311,-0.0131698288023471,-0.0043417238630354,0.3899415731430053,-0.920735239982605,0.0,0.0,0.0,0.2061908394067801,-0.4938983797724252,3.5704502875366417,1.273936995,0.1207365678531937,-0.2695965290173769,0.0509627155282799,-112.3208718115352,162.48040076754228,-17.536706497774226,0.0208708106626673,0.0182670997468284,-0.8010271217831034,-0.0134770376277231,-0.0127775343138267,0.0578535207379395,27.70224350864019,42.62039810947629,-732.741781111966,-0.0004660189308139
19340,1724816794903511307,-1.8525563478469849,-0.6042395234107971,0.1461862027645111,-0.012543836608529,-0.0073283622041344,0.3901659846305847,-0.9206299185752868,0.0,0.0,0.0,0.4125530919953658,-0.2291468108128619,-1.7970183269447904,1.279305463,-0.6477177952165489,0.932595520545172,-0.1079429591530911,-75.76728797623346,120.3444822271502,-16.221021154544122,0.0173834944207562,0.0232838795143953,-0.801510771487967,-0.0119517049814774,-0.0156524194734508,0.0607073398497171,16.10590248238196,93.3712325644902,-666.7983260091426,0.0005426021435889
19342,1724816794914670887,-1.852613091468811,-0.604412853717804,0.1459355056285858,-0.0126251718029379,-0.006520212162286,0.3900677263736725,-0.9206765294075012,0.0,0.0,0.0,0.0741951855976892,1.8348170773798151,-1.5130063901966968,1.290465043,0.0696957268021404,-0.1274925985660392,0.0213948568226771,29.733814297437895,-45.94885443275705,5.01651201413813,0.018166088044544,0.0218570969963638,-0.801297296578701,-0.0043686186883746,-0.011102600828746,-0.0133650167741956,-21.84903673094246,78.48356534475441,106.4629217666583,-0.0002458071283937
19344,1724816794927519913,-1.8526586294174192,-0.6044899821281433,0.1458984017372131,-0.0122923869639635,-0.0067155635915696,0.3901319801807403,-0.9206523895263672,0.0,0.0,0.0,-0.081222960209738,1.268165376914887,1.0534619788330168,1.303314069,-0.0594385535292634,0.007688214221154,-0.0113953125711525,-97.9809523838895,11.289597561276931,-48.007400333804526,0.0173991908292527,0.0219584704629235,-0.8014419521103455,-0.0123705066682191,0.033586042763261,0.0430081509873812,73.46861765170088,-284.77109739587195,-268.4188954280938,-3.506578526294058e-05
19346,1724816794933834252,-1.852764129638672,-0.6041550636291504,0.1463123857975006,-0.0096187144517898,-0.0081410221755504,0.3914307057857513,-0.9201213121414183,0.0,0.0,0.0,0.6481912453886041,-1.276782496436172,-2.094136647003464,1.309628408,-0.9509752593472388,0.0813604547483187,-0.4555797874348069,-48.91598564649321,9.047826721257518,-25.28532270243416,0.0113305899625039,0.0225134781889239,-0.8043116976874833,-0.0112029649218925,0.0347365568701647,0.0393149234365814,69.85760668096519,-346.9131574964897,-437.19995503177734,0.0004050036165888
19348,1724816794943725962,-1.8527896404266355,-0.6040951013565063,0.1462945491075515,-0.0098481280729174,-0.0087437462061643,0.391458123922348,-0.9201016426086426,0.0,0.0,0.0,0.6316704775239688,-3.8385738681420793,-5.469140559377395,1.319520118,-0.0049382610943859,0.1302656799316301,-0.0074521068420787,48.01453834563236,-13.495859175474385,24.525272642320424,0.0112803712455827,0.0238027775745829,-0.8043707920240664,0.0023877872793747,-0.000501252697461,-0.0047866161875873,-43.88447813060746,-31.64835910891027,-50.57364575482973,-1.9541432221118144e-05
19350,1724816794953390469,-1.8527196645736697,-0.6041619181632996,0.1462201178073883,-0.0095616476610302,-0.0079494761303067,0.3913182914257049,-0.9201713800430298,0.0,0.0,0.0,-0.1910609947893411,-1.9978208252181444,-3.213709365942806,1.329184625,0.0093999483228518,-0.1742845163526701,0.0333750198537234,28.00440175248707,-81.16347972391563,55.09598883852038,0.0113781858950967,0.0221148586584976,-0.8040673043784233,0.0014835442848095,-0.0402073538652807,-0.0671867796840866,-34.120240222777824,286.7007964984848,425.58826969660765,-7.231674304166357e-05
19352,1724816794963546305,-1.852766036987305,-0.6049255728721619,0.1449029445648193,-0.0092651741579175,0.0003940889728255,0.3860886096954345,-0.9224151372909546,0.0,0.0,0.0,0.0067940701807916,1.940904667704442,3.159848426486299,1.339340461,0.5768419186221575,-1.5284527321472032,1.135829315927796,3.2143028669899323,2.9035833237292583,5.021855550578827,0.0173982173842578,0.0064273734040692,-0.7927554019907973,-0.0014973494181873,-0.0379720043078748,-0.0652157513191245,19.307245626241706,189.02201288728185,313.1655885215584,-0.0013037606975247
19354,1724816794974202927,-1.852747678756714,-0.6049140095710754,0.1449289917945861,-0.0094279088079929,0.0003138076572213,0.3859317302703857,-0.9224790930747986,0.0,0.0,0.0,0.2105909936363079,1.7321632839426435,2.9813677415939193,1.349997083,0.0222551697978784,0.0259672183203761,0.0316409090533685,-28.26011759957404,67.03681869200601,-49.83135215549347,0.0176376242882421,0.006698146397595,-0.7924133160345204,0.0019331428797357,0.0019536410079084,0.0016211014580385,-0.435398322316358,-111.57011587568664,-172.01626009117473,2.5700039201388695e-05
19356,1724816794983960291,-1.852726936340332,-0.6048871874809265,0.1449374556541443,-0.0091977156698703,0.0003465460904408,0.385816216468811,-0.9225296974182128,0.0,0.0,0.0,0.0315994532994244,-0.1782346756325447,-0.0842195726408759,1.359754447,-0.0410263266038216,-0.0241734186936712,0.0259229398553822,-1.4151564307481683,0.4841588410155832,-1.4779254180284709,0.0172389511994767,0.0064579024870758,-0.7921644883435308,0.0029934169717904,0.0008584127794861,0.0013141578058242,-16.797784714073096,-95.48092546549276,-162.58914633735472,7.853941205660135e-06
19358,1724816794993615950,-1.852689743041992,-0.6048969626426697,0.1449544131755828,-0.0092336600646376,0.0001826089719543,0.3858007788658142,-0.9225358963012696,0.0,0.0,0.0,-0.1158177147703625,-0.1417077240352413,-0.2056538755868005,1.369410106,-0.0062432803162511,0.0342284104248141,0.0031303867370959,-0.1504503263802283,-1.5244969419342729,0.0445597640805548,0.0171789077761822,0.0067878319506007,-0.792128650882144,0.0025621777934787,-0.0014930801137786,-3.1786717427095823e-06,-11.48686346159622,10.017330721445544,-1.3882537861933182,1.6842265753730612e-05
19360,1724816795003447206,-1.8526774644851685,-0.6049164533615112,0.1449367702007293,-0.0089209880679845,0.0003544900100678,0.3856780230998993,-0.9225903153419496,0.0,0.0,0.0,-0.1909042909007031,0.0191815797857239,-0.1073073861653282,1.379241362,-0.0452880838262556,-0.0565649200820363,0.0276436086301235,4.164760322386787,0.6872607111509388,-0.5599748397049691,0.0167353780447083,0.0062272002303086,-0.7918664296149233,0.0007112702519549,-0.0018669472182217,-0.002717933308296,-1.9349765306934368,12.077003802645551,16.816248299037618,-1.741718152851468e-05
19362,1724816795013685106,-1.8526759147644043,-0.6049343347549438,0.1448991000652313,-0.0094292229041457,0.0002543391892686,0.3857254683971405,-0.9225653409957886,0.0,0.0,0.0,-0.149917321387198,0.0971079828885093,0.1374893906017963,1.389479262,0.0840939146005065,0.0562578404042324,-0.0106424631317733,0.8679589519600437,2.106260942044904,-1.7309810539944703,0.0175956740207205,0.0068049463205468,-0.7919653315981342,-0.0012712988911687,-0.0010606315344503,-0.0020166021684522,5.917140878017392,3.9084279088105185,10.131218164892283,-3.7367837695900016e-05
19364,1724816795023796128,-1.8527029752731323,-0.6049382090568542,0.144895315170288,-0.0092918863520026,0.0002593049430288,0.3857637643814087,-0.9225507378578186,0.0,0.0,0.0,-0.0709794529735834,0.0996477439634912,0.1023269764441452,1.399590284,-0.0246579562957254,-0.0114568544577978,-0.0080865409554545,-2.379673306223524,-0.5463820980318594,-0.1867223957703739,0.017345792140921,0.0066905520969583,-0.7920491306534496,-0.002350414287207,0.0001044679655244,6.243044556875077e-05,8.721468622154163,-3.4515325962870937,-11.89312770415173,-3.51165083094744e-06
19366,1724816795034209826,-1.8527239561080933,-0.6049318909645081,0.1449006497859954,-0.0095840282738208,0.0001052125444402,0.3858321905136108,-0.9225192666053772,0.0,0.0,0.0,0.0296501731526462,0.0239912446684008,-0.1117843127108054,1.410003982,0.0403981689995639,0.0488225902105383,-0.014744927395279,-2.4265174467140396,-1.4300351382939664,0.4744046624330723,0.0177654853869208,0.0072015942961678,-0.7921938689544461,-0.0027061687646749,0.0009750361822717,2.0165568318297744e-05,13.024525082565788,-7.502622761652672,-6.147770372327052,5.381666140605467e-06
19368,1724816795044070400,-1.8527570962905884,-0.6049188375473022,0.1448962539434433,-0.0092284427955746,0.0001311282394453,0.3858322203159332,-0.9225228428840636,0.0,0.0,0.0,0.1894636030187795,-0.0522066837669772,-0.0378352577586394,1.419864556,-0.0645134093667028,-0.0326763860386132,0.0003322603794403,-1.4775409015734715,-3.993561615975103,1.3620298377525542,0.0171293285256944,0.0068793778172056,-0.7921961705478506,-0.0018179961284516,0.0006550620427887,-0.0020879086408509,7.739257895279314,-3.034427664144916,15.20266942705622,-4.372014289015411e-06
19370,1724816795053908014,-1.852759838104248,-0.6049189567565918,0.1448595970869064,-0.0092207640409469,0.000288621900836,0.3857786953449249,-0.9225452542304992,0.0,0.0,0.0,0.182487930625605,-0.0359967385098237,0.1873274085611422,1.42970217,0.0108730631874289,-0.0300392595798428,0.0120922524754031,5.049695336063468,3.971536859514631,0.8528254548480185,0.0172370594716646,0.0065818626357831,-0.7920822860666176,0.001021362209201,-5.243471181515247e-05,-0.0007331908036984,-9.336682033559038,2.961616239313948,5.501500116405068,-3.662764921062521e-05
19372,1724816795064052483,-1.8527358770370483,-0.6049199104309082,0.1448834687471389,-0.0094792628660798,0.0001281945296796,0.3856960237026214,-0.9225772023200988,0.0,0.0,0.0,-0.0024801753351175,0.0077914851002228,0.0612595324902528,1.439846639,0.0347611447102806,0.0489914979368338,0.0171599621889806,-2.1815724244670007,0.7014658958941739,-0.4504403541326728,0.017590939414878,0.0070757483315764,-0.7918995298366364,0.0017623410412994,-4.1839020923362114e-05,0.0016862100606402,-10.79308814720832,1.3701823600704404,-12.689636085972907,2.370307902554459e-05
19374,1724816795073424692,-1.852724552154541,-0.6049198508262634,0.1448934972286224,-0.0093608200550079,0.0001084299365174,0.3856759369373321,-0.9225868582725524,0.0,0.0,0.0,-0.0392115875668265,-0.0048779509964915,-0.0599423012537307,1.449218848,-0.0249641719608483,-0.0058165396510951,0.0047125889183952,-3.9623528001637807,-3.6082494543803936,-0.8544675010862653,0.0173572760254723,0.0070204716910345,-0.7918563820892486,0.0010851640016014,8.960496033694199e-05,0.0007257153288522,-41.26427962845053,-69.39671335951923,-93.76194337191626,9.941662281411744e-06
19376,1724816795090633367,-1.8527097702026367,-0.6049156785011292,0.1448951065540313,-0.0092354044318199,2.9745944630121812e-05,0.3856362104415893,-0.9226046800613404,0.0,0.0,0.0,-1.929327305299688,-3.349153185287274,-4.227484855178942,1.466427523,-0.016993271949746,0.0028586551707795,0.0049744248299321,34.8322294406261,-4.661139208381772,-20.59541251934383,0.0170654515102952,0.0070681840918622,-0.7917698715195651,0.0014544339946951,-0.0005916201378113,0.0010383769172577,-59.21544950808561,-112.4013855860352,-73.60896042200443,1.431941569786182e-06
19378,1724816795093761100,-1.8527048826217651,-0.6049180030822754,0.1448988914489746,-0.0093874307349324,0.000117103147204,0.3857390880584717,-0.9225601553916932,0.0,0.0,0.0,-2.0857614062861844,-3.654136534279195,-4.361887284229802,1.469555256,0.111490605137247,-0.014656466737554,-0.0711591678403011,33.035216458259555,-22.79432804219509,1.8742250533917044,0.0174125913183418,0.0070261863569397,-0.7919932337534165,-0.0056889609514669,-0.0129482855469476,-0.0145976179628037,12.285988613080526,6.776396269613832,83.88424937383732,3.787828795633339e-06
19380,1724816795103608667,-1.8529857397079468,-0.6054239273071289,0.1442650258541107,-0.0087714837864041,0.0040160468779504,0.3823162615299225,-0.923981249332428,0.0,0.0,0.0,-0.0331425081937279,-0.3540507968590027,0.3972897056145261,1.479402823,0.187414269811914,-0.7722327731898029,0.7601081664820427,-7.528208361606376,-5.673324879328285,25.932976027152023,0.0192813727614541,-0.0007145423055597,-0.7846488224833931,-0.0200857403531244,-0.039738451648013,-0.0377935393136192,157.25242954901205,268.5864167257706,317.9588589907037,-0.0006231324080814
19382,1724816795113999621,-1.8531019687652588,-0.6057092547416687,0.1441636830568313,-0.0083863595500588,0.0041582994163036,0.3804544806480407,-0.9247522354125975,0.0,0.0,0.0,1.0396319662672713,1.707356895634944,1.8885009724230728,1.489793777,-0.0578864668237067,-0.0498993719562089,0.3883773489723988,-9.766376174396743,40.71796107866236,-34.53154581369614,0.0186757984063295,-0.0013095376014777,-0.780623625613786,-0.0047640694956498,-0.0174710148269952,-0.003482864567661,13.8239251857152,55.335450958512304,-11.6297024420128,-9.616665491605956e-05
19384,1724816795124515197,-1.8530837297439575,-0.6057866811752319,0.1441937834024429,-0.0084645301103591,0.0037842099554836,0.3802644908428192,-0.9248313903808594,0.0,0.0,0.0,0.233447435403247,0.7669534619913325,0.1152533342911902,1.500309353,-0.0132963517507521,0.0718178210940342,0.0384850157722886,2.2946207816869446,3.252757399626624,-19.78826116679754,0.0185355919271318,-0.0005619918735499,-0.7802051084844002,0.0015403132753988,-0.0041527669326555,0.0013340502721606,-53.18989680552375,-67.9391028137718,-88.62173470791181,3.083948753345213e-05
19386,1724816795134038110,-1.8530707359313965,-0.6057985424995422,0.1441933065652847,-0.0084850881248712,0.003631348023191,0.3804115951061249,-0.9247713088989258,0.0,0.0,0.0,-0.0706205748022416,0.305308149683991,-0.0386909528065988,1.509832266,-0.0082250839869256,0.0310233784329367,-0.0336588593789108,0.3818368190703566,-3.9745286029852673,-3.0122345197012352,0.0184573944960487,-0.0002606811155035,-0.7805201105550085,0.0006063495294412,-0.0011574257086088,-0.0005248751875646,-12.893893660314914,-35.47851286672762,0.8494816953229254,-4.945347783012128e-07
19388,1724816795146895353,-1.8530761003494265,-0.6058118939399719,0.1441783159971237,-0.0084136929363012,0.0037046601064503,0.3803718984127044,-0.924787938594818,0.0,0.0,0.0,0.0940507208544784,0.0747992177556121,0.2675978965096495,1.522689509,-0.005931661612944,-0.0147091021932748,0.0068316065174811,0.1600997018918431,-0.036467490085538,-2.3453600098110265,0.0183810975974329,-0.0004513852717205,-0.7804356944865382,0.000174953694028,0.002607731635507,0.001694610113736,5.209533590099408,-24.504819475549997,-3.153876391196862,-1.4746797580446616e-05
19390,1724816795153718332,-1.8530727624893188,-0.6057808995246887,0.1442002356052398,-0.0083957146853208,0.0037044361233711,0.3804637193679809,-0.9247503280639648,0.0,0.0,0.0,0.1020842088447935,-0.1162085568943707,0.1484047666959831,1.529512488,-0.0049054785321577,-0.0022111081278456,-0.0290653634392059,-0.3987379289298579,1.3596613724672688,-2.079427555638597,0.0183477182836423,-0.0004628273854234,-0.7806342467194042,0.0012786818323746,0.0023285990019417,0.003864298335575,-6.37676489821062,-17.21818893733861,-22.714583231054043,2.1477813209734176e-05
19392,1724816795163905449,-1.8530477285385132,-0.6057908535003662,0.1442495137453079,-0.0083228107541799,0.0036497872788459,0.3804726004600525,-0.9247475862503052,0.0,0.0,0.0,-0.0777755654488182,-0.1277006090357081,-0.1627709552861665,1.539699605,-0.0173198593556934,0.0044594591611914,-0.0018542442538043,0.5126509469070537,0.4726436089222171,0.5748793348739777,0.0181712880027541,-0.0004170610634107,-0.7806523501117664,0.0014108622284823,-5.10300974809752e-07,0.0027966180601346,-9.249893565545978,2.677124959285346,-14.272623265352582,4.906804589862669e-05
19394,1724816795175031395,-1.8530447483062744,-0.6057789921760559,0.1442558318376541,-0.008387585170567,0.0036301524378359,0.3805797100067138,-0.9247029423713684,0.0,0.0,0.0,-0.0785490216438513,-0.0516766875563533,-0.1238247178587074,1.550825551,0.0094212396286882,0.0075045788157228,-0.0209303365951916,-0.6264902197217395,0.4501638739951942,1.023655523231647,0.0182761925047692,-0.0003293358232583,-0.7808835814629836,-0.00055720454408,-0.0001948431879981,0.0002812989525651,2.0120614342751546,4.62531687345379,0.0315442145536302,6.126782893241142e-06
19396,1724816795183939352,-1.8530555963516235,-0.6057897210121155,0.1442562937736511,-0.0083359256386756,0.0035477115307003,0.3805477321147918,-0.9247168898582458,0.0,0.0,0.0,-0.0457795671832621,-0.0262202608396665,-0.1482846809030379,1.559733508,-0.01776972178551,0.0127732157955639,0.007717646842638,-1.449620672340779,0.1398217423899392,1.776525642246524,0.0181178812475369,-0.0002168223535146,-0.7808127738517513,-0.0005555363317668,-0.0008991674236007,-9.245058637041836e-05,3.7907219273050834,3.078940559918935,0.1598470339152324,7.382959775765795e-07
19398,1724816795199329924,-1.8530465364456177,-0.6057954430580139,0.1442510336637497,-0.0083626266568899,0.0035341936163604,0.3805703818798065,-0.9247074127197266,0.0,0.0,0.0,0.0155413014562142,0.0270488874657703,-0.0685595865792846,1.57512408,0.0025399077777822,0.0029159184885228,-0.0032173639381044,12.101735551695086,-18.77156451314327,7.632082721715449,0.0181569824499476,-0.0001710540302428,-0.7808615125213093,-0.00248240510615,0.0001025212728507,-0.0052019795979845,16.989091444176957,-1.875384887952813,35.61550169389581,-5.303023029663901e-06
19400,1724816795203472786,-1.853060245513916,-0.6057944893836975,0.1442240625619888,-0.0084113329648971,0.003767957445234,0.3804993033409118,-0.9247352480888368,0.0,0.0,0.0,0.1004274708411347,0.0133282081685186,0.1129315387040367,1.579266942,0.0646997665880604,-0.0950715656369868,0.0377048093598892,9.058467650145731,-14.35364214188726,5.783840343076456,0.0184249679524167,-0.0005677134896852,-0.7807124720227401,-0.0022610695549118,0.000172164335769,-0.0051922384201095,14.27537018951806,-2.8429226733735473,33.82419757108273,-2.6795334085685664e-05
19402,1724816795214172626,-1.853055477142334,-0.6057942509651184,0.1442049294710159,-0.0084152519702911,0.0037207927089184,0.3805660009384155,-0.9247080087661744,0.0,0.0,0.0,0.0814396334640723,-0.0041310173492087,0.198941890591783,1.589966782,-0.0026812179586806,0.0083071187327783,-0.0135429403837686,-4.660964789162695,5.678347438701951,-2.9475404352547097,0.0183963558902666,-0.0004761760733406,-0.7808557862826279,0.0001123645342957,0.000218545545735,-0.0009280423497353,4.493597380321873,-3.0577176023154893,12.400268538711329,-1.9196241249656097e-05
19404,1724816795231851337,-1.8530632257461548,-0.6057846546173096,0.1442136466503143,-0.0080851390957832,0.003657097229734,0.380664587020874,-0.9246705770492554,0.0,0.0,0.0,0.3439711947426264,-0.0998399541494666,0.5455685214196699,1.607645493,-0.0372821495518084,-0.0076588071573532,-0.011846600212939,14.451558108145608,-20.136504337694262,29.041953423292725,0.017737368612497,-0.0006077681790979,-0.7810675635356282,-0.0025483139544348,-0.0001017664401388,-0.0032408416930991,22.55454151160808,11.813384524808823,24.580794432614,8.69914048004558e-06
19406,1724816795235099548,-1.8530727624893188,-0.6057853698730469,0.1442008912563324,-0.0080614909529685,0.0037974005099385,0.3805157840251922,-0.9247315526008606,0.0,0.0,0.0,0.4218311795744366,-0.0511861928299529,0.6283805458208601,1.610893704,0.0194525168230885,-0.084545147558549,0.0997631250848974,13.923406068723205,-12.173932842741864,21.009196196560534,0.0178003187684053,-0.000888103154789,-0.7807485595213974,-0.001135915277679,-0.0004748400493426,-0.0010650405590828,7.3878824971352435,15.120308020632669,2.282775484094759,-1.2619284830129848e-05
19408,1724816795244249299,-1.8530367612838743,-0.6057962775230408,0.1442649066448211,-0.0084720496088266,0.0034675283823162,0.3807315230369568,-0.9246403574943542,0.0,0.0,0.0,0.0620454416958133,0.0908123227767179,0.0510146860913408,1.620043455,0.0555317654191668,0.1003703228913217,-0.0521151156088801,-1.0191372613512493,4.30248467465816,-6.252752084101011,0.0183086155365109,3.871933554274336e-05,-0.7812087203800667,0.002388875105538,0.0006977931621676,0.003615772914828,-29.588928948094996,4.012538007535802,-45.06418519723199,6.368364679383421e-05
19410,1724816795254867283,-1.8530304431915283,-0.6057655811309814,0.1442616432905197,-0.0082902368158102,0.0036799337249249,0.3806899785995483,-0.9246582984924316,0.0,0.0,0.0,-0.1322012218037723,-0.0083679191344126,-0.205219732277209,1.630661439,-0.016434377156537,-0.0499541600479751,0.0089799187114824,-3.8739750124693666,-5.021440231284734,4.13334470666946,0.0181340963942877,-0.0004933423813281,-0.7811230631373783,-0.0009345921506991,0.0012018440860757,-0.0015175350893024,2.527339765565065,-4.82296588492212,3.588852628963352,-3.7303029329322937e-06
19412,1724816795264053584,-1.8530511856079104,-0.6057679653167725,0.1442380845546722,-0.0081256916746497,0.0037303089629858,0.3805466294288635,-0.9247184991836548,0.0,0.0,0.0,0.0564975561972201,-0.0167670932062015,0.0480653776417109,1.63984774,-0.0289435855608012,-0.0234720449618124,0.0340702831262456,0.7285886079323382,2.2119165243447294,-0.9428187421603276,0.0178680231480665,-0.000714562315164,-0.7808139329327738,-0.0007120765192496,0.0006811816743415,-0.0011914331042843,5.132346876937751,1.2880458512746085,8.836387555068416,-2.3254527788408553e-05
19414,1724816795273897844,-1.8530418872833252,-0.6057513356208801,0.1442408412694931,-0.0081107886508107,0.003770213574171,0.3806105852127075,-0.9246922135353088,0.0,0.0,0.0,-0.055532888237161,0.0191462300849676,-0.0625958388612259,1.649692,0.0002802603116371,-0.0087745683730142,-0.0139704083151959,2.079000304353543,1.0804525904041336,-2.2870393364933133,0.0178708895265627,-0.0007984703258035,-0.7809530706447252,0.0001845802804183,0.0009371573870602,-0.0005856950942995,-2.993957592457549,1.8242458127964605,-2.981556466047679,2.4323134593255455e-06
19416,1724816795289634283,-1.853058099746704,-0.6057555079460144,0.1442098468542099,-0.0081811482086777,0.0038186265155673,0.3804993033409118,-0.9247371554374696,0.0,0.0,0.0,0.1083135297913014,0.0019725045362752,0.0982588555997799,1.665428439,0.010617707782266,-0.0021498450997784,0.0152682879035889,-22.159836104231644,5.482606558118366,-8.554905887293572,0.0180377773320619,-0.0008366093530989,-0.780713400914344,-0.0043775100751872,0.0010659783297057,-0.0046932087907798,30.213596777519548,-4.576180797843715,31.873628661675554,-3.072292033569746e-05
19418,1724816795293348380,-1.8530772924423216,-0.6057503819465637,0.144190028309822,-0.0080398824065923,0.0037145540118217,0.3805436491966247,-0.9247206449508668,0.0,0.0,0.0,0.2378878580597016,-0.0180786805595006,0.2356205361399057,1.669142536,-0.0916871673926528,0.0226500947032977,-0.0256334071821854,-18.927297741061043,4.522029877433737,-8.377461524997567,0.0176973191246557,-0.0007507972533373,-0.7808071849369482,-0.0036261449143921,0.0010678575342435,-0.00401332371995,24.520276863944368,-5.1790188060375,27.924501404743275,-1.962787156947701e-05
19420,1724816795305015651,-1.8530631065368652,-0.6057493686676025,0.1441916823387146,-0.0080504799261689,0.0037400077562779,0.3806882500648498,-0.9246608018875122,0.0,0.0,0.0,0.1440160608794938,-0.0704532595226119,0.2293887258045824,1.680809807,0.0033306862240324,-0.0035808971070141,-0.0267968449143389,4.11054239172937,1.4736193665833748,3.445751613699383,0.0177364158641393,-0.0007870309926701,-0.7811203549129491,0.0004536533422196,0.0001757835935265,0.0006622918704941,-11.88229460552052,0.2853340247228528,-11.494774882775488,1.456499733033534e-06
19422,1724816795313650330,-1.8530640602111816,-0.6057472825050354,0.1442007273435592,-0.0081562772393226,0.003630896564573,0.3805846571922302,-0.9247030019760132,0.0,0.0,0.0,0.0168994037853381,-0.0374798250877975,0.0600929093610377,1.689444486,0.0130490055200309,0.0329273241130623,0.0256128262046433,0.5059647596984569,2.338391070683139,2.4482646535302077,0.0178489451548066,-0.0005066939737466,-0.7808942370864451,0.000382933052343,-0.0003941757159271,0.0015479589356734,-12.885354581554784,-0.671105526511167,-18.905773393676157,9.030184898375883e-06
19424,1724816795328874572,-1.8530449867248535,-0.6057703495025635,0.1442377269268036,-0.0082378163933753,0.003515392774716,0.380825012922287,-0.9246037602424622,0.0,0.0,0.0,-0.1299795453903412,-0.1682156904246757,-0.208923864823362,1.704668728,0.004122013636147,0.0178029891765318,-0.0343223245446174,0.1423882550932851,-2.0457268421298886,-0.7534365298704868,0.0179118892639642,-0.000226357689479,-0.7814118334156213,0.0013136864491087,-0.0001990018230344,0.0013226058579123,-4.946639183722184,6.060711625979435,9.782907555030947,3.70396104941862e-05
19426,1724816795342886981,-1.853025794029236,-0.6057561635971069,0.1442419737577438,-0.0082732290029525,0.0037148531991988,0.3808507919311523,-0.9245920181274414,0.0,0.0,0.0,-0.1386640983910974,0.1056260415942397,0.2822231327173221,1.718681137,0.0155159982487424,-0.0244339844611508,-0.0038235296320349,-16.539477609396332,7.249865163014389,24.831436502925083,0.0181293285734621,-0.0005677156282802,-0.7814715349425064,-0.0029724677878562,-0.0048909320456829,-0.0041085143180268,45.67689921801229,54.97724402893974,55.51390183936087,3.816456275423927e-06
19428,1724816795346680519,-1.8530415296554563,-0.6057807803153992,0.1442218571901321,-0.0081681814044713,0.0036457777023315,0.3806517124176025,-0.9246751666069032,0.0,0.0,0.0,0.0821602560710123,0.3505759497642868,0.5138330443819429,1.722474675,-0.0650485030112525,0.0136100425407591,0.1136423320156426,-11.5801166653119,4.953930200031877,16.372940821335593,0.0178823275530882,-0.0005238557546908,-0.7810395183978146,-0.0033267595305659,-0.0040378700419445,-0.0023499794300745,46.55455599713426,42.42672128718151,26.813027764972052,-1.960587128427984e-05
19430,1724816795354022553,-1.8530542850494385,-0.6057755947113037,0.1442465633153915,-0.0080933077260851,0.0037037413567304,0.3805625736713409,-0.924712300300598,0.0,0.0,0.0,0.2583343239950216,0.3474182005690227,0.2241402515366378,1.729816709,-0.0128433623227815,-0.0221287079408917,0.0265065020333628,4.961115154367617,-0.9966670910892598,-8.810584024510717,0.017787915356964,-0.0006897703985919,-0.7808478558432455,-0.0002289503813557,0.0003222943247322,0.0021369617434414,1.4892457063267188,-13.081057810511048,-41.71132475443872,2.4805156457959744e-05
19432,1724816795364291222,-1.8530349731445312,-0.6057778000831604,0.1442508697509765,-0.0081734200939536,0.0036067382898181,0.3806566894054413,-0.9246732592582704,0.0,0.0,0.0,-0.0496023505717279,0.0314012316348665,-0.2365595286500897,1.740085378,0.0072322023445978,0.0232321038916742,-0.0200550485525221,-1.195532665120838,0.2863054406382929,-1.14978121406611,0.0178622957451401,-0.0004475748462501,-0.7810495341321987,7.428427745992394e-05,0.000350397131001,-0.0011193322296225,-15.835433681016063,-17.855476688345902,-8.080231082923374,4.0840462970675245e-06
19434,1724816795374244938,-1.8530516624450684,-0.6057688593864441,0.1442248821258545,-0.0079859280958771,0.0036037536337971,0.3806525468826294,-0.9246765971183776,0.0,0.0,0.0,-0.0706739747718998,-0.0216753262720739,0.037923346983924,1.750039094,-0.0350657597551394,-0.0137766346357613,0.0011559298193916,1.9437565554790843,-1.335054327270539,1.5171316760883016,0.0175132558735134,-0.000584885589418,-0.7810404328823854,-0.0011829466358506,0.0009395230919828,-0.0026967970069229,2.3594822311065142,-6.945329229369098,19.152558471216917,-2.587845533009413e-05
19436,1724816795385544644,-1.853058695793152,-0.6057577133178711,0.1441933065652847,-0.0083359805867075,0.0037379884161055,0.3805966675281524,-0.9246960878372192,0.0,0.0,0.0,0.0134099787557797,-0.1208465100344241,0.1462892110614731,1.7613388,0.0663429440991354,0.001706433550234,0.0104250516780282,-0.5635420145573773,-1.4237855252175278,0.070845814617349,0.0182628472741001,-0.0005677136962422,-0.7809224521814043,-0.0012678887065078,-0.0003426740135736,0.0002511301449459,5.946481407818652,3.705969854282244,-8.406067368019404,-3.161715874215404e-05
19438,1724816795393775282,-1.853073000907898,-0.6057685017585754,0.1442136317491531,-0.0083111738786101,0.0038471391890197,0.3805727064609527,-0.924705684185028,0.0,0.0,0.0,0.0533919480873347,-0.0155101322477942,-0.0307880543070794,1.769569438,0.004522936307507,-0.0267626964287398,0.0065150840087776,-5.547310688369838,-0.9421016098926704,-0.4335956521646811,0.0183000389006795,-0.0007889311600146,-0.7808728110629422,-0.0010320545486877,-0.0013815308277287,0.000768163271692,3.6290168164947527,12.357013017185974,-10.356266347139195,2.0648284357008432e-05
19440,1724816795403882381,-1.8530746698379517,-0.6057833433151245,0.1442002803087234,-0.0081744352355599,0.0038185773883014,0.3805610537528991,-0.9247117638587952,0.0,0.0,0.0,0.0748211465222108,0.103909157035882,0.0030278439351224,1.779676537,-0.0271726915731252,-0.00504744218982,0.0026471995126554,0.761339739591071,1.30359161344452,0.3864225381237317,0.0180253789867712,-0.0008404235891095,-0.7808469170891009,-0.0001853752799831,-0.0001642543068065,-0.0007047948928597,1.1744652287830553,3.148028506107605,5.852443725736634,-1.3145857828779489e-05
19442,1724816795413760018,-1.853076696395874,-0.6057723760604858,0.1441992670297622,-0.0082556260749697,0.0038544081617146,0.3804973065853119,-0.9247371554374696,0.0,0.0,0.0,0.077292424923269,0.0513348928393902,0.0850341684072301,1.789554174,0.0179698409415194,-0.0003274081607571,0.0138886789523824,1.265323668600893,0.4323035656858846,-0.884819044304696,0.0182027639121548,-0.0008461420082817,-0.7807098488108555,0.000467286876983,0.0007025655177059,0.0007611780681022,-4.611789821127733,-5.446750103268693,-3.2903646111764653,-1.121217632687952e-06
19444,1724816795426627801,-1.8530594110488892,-0.6057701706886292,0.144223541021347,-0.0081415297463536,0.0037743621505796,0.3806844353675842,-0.9246614575386048,0.0,0.0,0.0,-0.0635529378732768,-0.0208346041681182,-0.1516332262538891,1.802421957,-0.0211478143776702,0.0044718719701576,-0.0314069394187975,3.771253817112522,1.9308275705347553,3.044766922431422,0.0179309656885382,-0.0007813071853192,-0.781112854297105,0.0016499124651261,0.0007526045781318,0.0007929479921706,-10.530234004222526,-4.2727924977774006,-3.2235931615283935,2.401541598074086e-05
19446,1724816795433946471,-1.8530460596084597,-0.605762243270874,0.1442247927188873,-0.0082939947023987,0.0037385020405054,0.3806216418743133,-0.9246861934661864,0.0,0.0,0.0,-0.1388913378591483,-0.0465456251903268,-0.1120852109545617,1.809740627,0.0348048756996831,0.0250876442840684,0.0182032777879536,1.7920003472987815,-0.7618355917936942,2.81869323992139,0.0181855999855329,-0.0006001347155775,-0.7809764611318257,0.0005376824701954,0.0004972106895948,-0.0009582652511257,-2.528403188446386,-1.26100328528088,12.355175066862056,9.758469777051963e-07
19448,1724816795443562863,-1.8530571460723877,-0.6057648658752441,0.1442013084888458,-0.0081463688984513,0.0038202730938792,0.3806441128253937,-0.924677848815918,0.0,0.0,0.0,-0.0650832998718123,-0.0302159202226355,0.0945620981273641,1.819357019,-0.0219205929475269,-0.0274572231254072,-0.0047262267701451,-2.126294306113461,-0.1461115038215579,-1.2862683867769449,0.0179748372741214,-0.0008633091957141,-0.7810265816521492,-0.0006326755255514,-9.758630400114043e-05,-0.0004289486018143,7.738339519718835,2.3352153438932324,3.5954927376797103,-2.3301462377463976e-05
19450,1724816795453743305,-1.8530579805374143,-0.6057639718055725,0.1442186385393142,-0.0081877652555704,0.003680856199935,0.3806711733341217,-0.924666941165924,0.0,0.0,0.0,0.0143765647098396,0.000424040467068,-0.061683579144368,1.829537461,-0.0029084093306148,0.0283702570325049,-0.0059856089925269,0.6107490651097232,1.792487911405569,0.6649050364744358,0.017945269499897,-0.000573439704314,-0.7810823632237304,-0.0006850131824336,-6.423307259950661e-05,0.0009596536764719,5.5214692110773935,0.6805541907950622,-10.48043053428282,1.7327106994294618e-05
19452,1724816795463605395,-1.8530704975128176,-0.6057660579681396,0.1442210078239441,-0.0081673143431544,0.0036153297405689,0.3806339502334595,-0.9246827363967896,0.0,0.0,0.0,0.0470122169916888,-0.0151161087737507,-0.1185427790617475,1.839399551,-0.0088919552672323,0.0107822970396945,0.0081058926246317,-0.1182982493317501,-5.08967386510656,0.4793659262290208,0.0178575346801682,-0.0004685517696497,-0.7810005739007599,-0.0003567653784983,-8.729986756605967e-05,-0.0015410956748276,0.8423355008267307,-0.0567071405773518,5.072339618097805,2.556188923182983e-06
19454,1724816795473788222,-1.85306453704834,-0.6057656407356262,0.1441865861415863,-0.0079969884827733,0.0039627351798117,0.3806229829788208,-0.9246872067451476,0.0,0.0,0.0,0.0296529468280235,0.0002776197105354,0.0470562452222906,1.849582378,-0.0049612820650201,-0.0758072159062405,0.0030042641321409,1.0638850903985115,2.780573057209068,-0.2465874505678263,0.0178069968169027,-0.0012409061451285,-0.7809836091376953,0.0002662924316894,-0.0003755637222937,-0.0013285002913665,0.5167789619862511,0.3890841909017421,7.367034985056076,-3.4501077751279326e-05
19456,1724816795483806293,-1.853065013885498,-0.6057735085487366,0.1441935002803802,-0.0081748766824603,0.0036934295203536,0.3806061148643493,-0.924693763256073,0.0,0.0,0.0,0.0567255145323919,-0.0068893247167973,0.0331854185901096,1.859600449,0.0123779179791698,0.0632642174407077,0.0030414498591716,2.2130333987375552,0.687546429151773,-0.4436412148330895,0.0179309628426006,-0.000607766415197,-0.7809418903688792,0.0002525576015273,-9.10350728844378e-05,-0.0005990735808447,1.6426149621803878,-2.2332034357152946,0.225300344359292,7.016079799205906e-06
19458,1724816795493333871,-1.8530598878860471,-0.605768084526062,0.144176110625267,-0.0082514332607388,0.0039809355512261,0.3806304335594177,-0.924681842327118,0.0,0.0,0.0,0.0627730803910025,-0.0419192983980181,0.0499192772122062,1.869128027,0.0378324011870996,-0.0497419099092333,-0.0052388873843307,-1.157529683247255,-3.5670037692346286,0.1344292858129009,0.0182914621179057,-0.0010807046107065,-0.7810003296098211,0.0013194327398053,-0.000476447708376,-0.0006419491230031,-4.222600192906258,3.4123270567009927,0.6733873873475968,-1.7523005881912783e-05
19460,1724816795503791955,-1.8530371189117432,-0.605785071849823,0.1441829800605774,-0.0081793759018182,0.003905507735908,0.3805932998657226,-0.9246981143951416,0.0,0.0,0.0,-0.0371469428181159,0.0751452723426659,0.0445296682034394,1.879586111,-0.0182302407379445,0.008164151619607,0.0076868697407489,-3.042024775601532,-0.1363642938551628,2.0940055739831487,0.018100724485045,-0.000996800112741,-0.7809184327685929,0.0014110774260558,-0.0009316833812249,0.0005048169258188,-2.105310758912585,7.499229975116907,-6.052203762440113,6.7685551911822794e-06
19462,1724816795513504126,-1.8530303239822388,-0.6057878732681274,0.1441865116357803,-0.0079761454835534,0.004056345205754,0.3804349601268768,-0.9247643947601318,0.0,0.0,0.0,0.0095920791078532,0.1146570258648887,-0.0641897676219244,1.889298282,-0.0268617159047784,-0.0443306199499166,0.0357633314135706,2.387716020831773,1.078268816393782,-0.5808425370072017,0.017839426286591,-0.001433518551245,-0.7805788853254108,0.0006362166655122,0.0008685230973561,0.0003499144504797,5.356067205202979,-7.437823575440705,-7.87611315998355,3.4714753938100978e-06
19464,1724816795523766109,-1.8530244827270508,-0.6057664155960083,0.1441899538040161,-0.0082059735432267,0.0039450484327971,0.38046994805336,-0.9247484803199768,0.0,0.0,0.0,0.0704506998123051,-0.086429469531558,-0.1090371688382733,1.899560265,0.0331672028501082,0.0370326667555904,-0.007840585833157,1.867321424673102,1.7959517707729815,-2.337235168392329,0.0181798793491389,-0.0010521026246971,-0.7806525005118488,0.0017037312640866,0.0012785512154565,-0.0008318672308647,-1.4592421489887242,-13.173615723491784,1.8094540809082684,3.1012566751836977e-06
19466,1724816795535873894,-1.8529876470565796,-0.6057625412940979,0.1441632062196731,-0.0081335436552762,0.0041034505702555,0.3805208206176758,-0.924727499485016,0.0,0.0,0.0,-0.0527842028504478,-0.154195437802019,0.0011519746898563,1.91166805,-0.0011134492981425,-0.0288309977303134,-0.0088275965527242,-1.733110525967751,-5.888134230416952,2.252079071067196,0.0181665367234714,-0.001399182214247,-0.7807657101404578,0.002077088132097,-0.0015734093748562,-0.0020645812729682,115.20510587589744,-91.68976158112368,-23.965961245459205,-2.7296888095457747e-05
19468,1724816795543365409,-1.8529765605926511,-0.6057831048965454,0.1441484093666076,-0.0079951267689466,0.0043510431423783,0.3804579079151153,-0.924753487110138,0.0,0.0,0.0,1.3914612642122623,-1.2401539611502916,-0.3316620673889101,1.919159565,-0.0090067188752322,-0.0750202929943523,0.0188607325506681,-0.8434096008792367,-3.970920435233805,2.7385206852658404,0.0180988432381568,-0.0019636674908829,-0.7806346626325861,0.0012940521877453,-0.0023514776050816,-0.0015786873281093,-72.23979920275366,44.563274700983186,15.661339496739885,-1.4715069511562056e-05
19470,1724816795567774549,-1.8529597520828247,-0.605809211730957,0.1441414058208465,-0.007861353456974,0.0042629241943359,0.3803504407405853,-0.9247992634773254,0.0,0.0,0.0,-21.449415712822827,14.920411254996054,4.829368915067207,1.943568705,-0.0128747904182402,0.0025934202275964,0.0095598744224371,-2776.8447979565335,1943.4623737123104,-606.312705866075,0.0177841276504235,-0.0019045609574266,-0.7804002323959075,0.1542352406249847,-0.1229929325720604,-0.0412099262240417,-2169.9159811871505,1801.824918552702,488.10260969350384,-6.940529869183319e-06
19472,1724816795568096488,-1.8529094457626345,-0.6058493256568909,0.1441279649734497,-0.0077636991627514,0.0041116885840892,0.380378246307373,-0.9247892498970032,0.0,0.0,0.0,-22.153236735968846,15.505328529763412,4.987682936905452,1.943890644,-0.9186396374131688,0.636508472707565,-0.1882087048086655,-2651.655982636218,1851.7875076655728,-577.1822200073619,0.0174884815174854,-0.0016986070750311,-0.7804570877880515,0.1472121546655351,-0.1181051296397077,-0.0396277636933386,-2019.552801501436,1707.4208398309331,460.9277810116802,-1.3667927495300036e-05
19474,1724816795573556503,-1.8529435396194456,-0.6058926582336426,0.1441080868244171,-0.0066043036058545,0.0039667449891567,0.3801378011703491,-0.924897849559784,0.0,0.0,0.0,-17.74896543237437,14.693968423805728,4.650048558070585,1.949350659,-0.412886938016283,-0.111594308283512,0.0979161420607673,72.44715857760292,-92.2531556660254,34.729566639879664,0.0152330618364342,-0.0023165789904653,-0.7799326323134476,-0.0050696279985373,-0.0035413322675381,-0.0056162290264243,1145.320816550434,-526.3015389033917,-156.96165735220598,-1.905573760302927e-05
19476,1724816795584153822,-1.8529731035232544,-0.6058397889137268,0.1440079361200332,-0.0059674303047358,0.0046750651672482,0.3796427547931671,-0.925102174282074,0.0,0.0,0.0,1.3544316530613802,1.34791554485152,1.0301372254000505,1.959947978,-0.0602358334945911,-0.1685602717415241,0.1024302761531017,15.7314287999251,27.047016912417455,-39.27251104452252,0.0145913162620762,-0.0041188541884338,-0.7788738897133681,0.0154300594044087,0.0228346437310023,0.0111813398915057,730.7021557978672,-722.3787721551113,-298.96446285561495,-0.0001001455752165
19478,1724816795593294092,-1.8526884317398071,-0.6054903864860535,0.1442727893590927,-0.0063279578462243,0.0031512794084846,0.382040798664093,-0.9241184592247008,0.0,0.0,0.0,-0.4176161167501238,-1.0213423939053827,-1.3664579504032397,1.969088248,-0.0547708483399135,0.3342614815394043,-0.5694961895864853,5.680391296756213,19.821774553497175,-32.79460786633627,0.0141038743985301,-0.000989234965484,-0.78403485733938,0.0232375449517689,0.0261597136044073,0.0162221729190381,-110.91053878093666,-151.07937363454042,-116.4089417042232,0.0002585471853241
19480,1724816795606680882,-1.8525323867797852,-0.6053767800331116,0.1442398875951767,-0.006849342957139,0.0040103173814713,0.3833416104316711,-0.9235726594924928,0.0,0.0,0.0,-0.2757800657615462,-0.92375902438991,-0.0663532722660082,1.982475038,0.1209197626920606,-0.0903299317184973,-0.210181680011642,1.3945075439049663,-62.13455946250072,71.79188964723888,0.0157270597056653,-0.0021563643308004,-0.7868663636090555,-0.0072882156942455,-0.0146698453916656,-0.0396741631499164,139.38304221547884,133.87550073812628,275.8352208011211,-3.596099755862369e-05
19482,1724816795614300132,-1.8526700735092163,-0.605588972568512,0.1437762081623077,-0.0061091156676411,0.0065896329469978,0.3814854025840759,-0.9243312478065492,0.0,0.0,0.0,1.3447136670405475,0.6452228875589682,2.810324815607671,1.990094288,0.0806781369238421,-0.6956562059825068,0.5317521928293667,-1.9125853866353584,6.190513685412466,16.969770687004456,0.0163225769804402,-0.007521001293782,-0.7829001233327022,-0.0006967234563859,-0.0124876175368626,-0.0223601223734508,90.77680176529611,86.80707137613477,119.8858913730212,-0.000459955887041
19484,1724816795623525318,-1.8524824380874632,-0.6055325865745544,0.1439999192953109,-0.007104218006134,0.0054050730541348,0.3823672533035278,-0.9239673018455504,0.0,0.0,0.0,0.8204888864295548,0.1155511738230119,1.0382423175402382,1.999319474,0.1006644622748744,0.317989716790911,-0.209807416326695,0.053517827991584,36.31752156479029,-30.41740630996983,0.0172626126228452,-0.0045553966357718,-0.7847860420704867,0.0170654923077933,-0.002527513846033,0.0095739739034739,-67.91209789438234,-61.188333595028666,-181.9203135703436,0.0002202747685547
19486,1724816795633611104,-1.852346420288086,-0.6056533455848694,0.1439346522092819,-0.0072216829285025,0.0061475657857954,0.3822093904018402,-0.9240270853042604,0.0,0.0,0.0,0.0132925199510393,-0.5431794125605915,-0.6844095154430646,2.00940526,0.0779051230271084,-0.126847751827454,0.0343769578257241,2.277059167791987,-24.11901590272449,11.859977299685715,0.0180466633607794,-0.0058406777375921,-0.7844619880336304,0.0131572267327726,-0.0119930461097084,-0.0066763310672852,-18.532210881843103,-17.000828814611356,-55.39537808283296,-6.650734677740634e-05
19488,1724816795644812615,-1.852203130722046,-0.6057879328727722,0.1438573151826858,-0.0077306651510298,0.0072580859996378,0.3821393549442291,-0.9240438938140868,0.0,0.0,0.0,0.5708150583904776,-0.1325819242260489,0.1307878611690292,2.020606771,0.1598130422529102,-0.1483735303357127,0.0135749281024506,3.718074682156729,-0.2106742935831747,-1.4101008476172197,0.019836007869653,-0.0075052677698385,-0.7843414525456867,0.018292276064642,-0.0131593994343006,-0.0028127583865806,-8.450924888733072,15.476076237124364,8.749506905674975,-7.891201137866207e-05
19490,1724816795653562504,-1.8520054817199707,-0.6059108972549438,0.1438606679439544,-0.0081772143021225,0.0080987261608242,0.382121205329895,-0.9240406155586244,0.0,0.0,0.0,0.0989253437522946,-0.1419262956637548,-0.2302635755236237,2.02935666,0.1677803638075947,-0.1385224174978181,0.00429168994709,-0.0038339997839953,0.2192746969534589,0.6408950169404055,0.0213039672335675,-0.0087178402696724,-0.7843288975836329,0.0240550147962466,-0.0145139775804672,-0.0031319064184698,572.5075494513281,-166.69440464077917,123.46072096751902,2.55639860589913e-07
19492,1724816795663951077,-1.8517374992370603,-0.6060673594474792,0.1437847763299942,-0.0086342226713895,0.0091182375326752,0.3819673061370849,-0.9240905046463012,0.0,0.0,0.0,13.773048473636893,-3.916505030077496,3.084051044223968,2.039745233,0.156462228791157,-0.1474263735671888,0.0319405486218796,-2.7932407420678302,-1.1659481934735982,3.81292491387149,0.0229265577802629,-0.0102563517120478,-0.7840309068668357,0.0181795092674406,-0.0158294686760029,-0.0079142397414404,246.7869556903281,-63.82876629601349,64.20201202012741,-8.074448082990863e-05
19494,1724816795683232344,-1.8516595363616943,-0.6064000725746155,0.1436103880405426,-0.0083258477970957,0.0108958762139081,0.3806711137294769,-0.924608826637268,0.0,0.0,0.0,-19.741139135910316,5.571137390162846,-4.797536905987698,2.0590265,0.0416339079713332,-0.1809601359837384,0.1466647927464967,9957.644348243784,-56.21103944456644,-4597.804939340678,0.0236962724935549,-0.0138104661404832,-0.7812849523953653,0.7968657357846496,-0.226969814320455,0.1783905568897239,-6225.124210248832,1529.3359502574012,-1642.0404268966277,-0.0001740252261156
19496,1724816795683918071,-1.8510937690734863,-0.6065608263015747,0.1437372863292694,-0.0105635216459631,0.011885299347341,0.3816324174404144,-0.9241774082183838,0.0,0.0,0.0,-24.119300306813592,6.6451407608553605,-5.953604739687362,2.059712227,7.112846587069947,-0.2208339946132864,-3.118448178532915,9716.538137657524,-54.79793989872664,-4486.822490587111,0.0286034325160277,-0.0139059338609031,-0.7834268002845287,0.781862363131383,-0.2227466128339137,0.1747481129988588,-6038.280185892356,1476.4202855644978,-1596.48014440961,0.0001115239907226
19498,1724816795695781503,-1.850684642791748,-0.6068058013916016,0.1436946541070938,-0.0110829276964068,0.013279122300446,0.381437599658966,-0.92423278093338,0.0,0.0,0.0,-24.653608671946255,5.728537677737717,-6.540288183188322,2.071575659,0.1708918460301589,-0.1832861543787829,0.0353571543144471,-224.27859843790975,-30.384735104514228,129.91320924273302,0.0306254748598332,-0.0160918040649169,-0.7830718784339428,0.0360228203942369,-0.0440779997731439,-0.0276085675494641,2059.2477624100684,-295.29572597996537,849.7691850796564,-5.357125990431753e-05
19500,1724816795703512193,-1.8503984212875368,-0.6072645783424377,0.1433602422475814,-0.0111100003123283,0.0157680157572031,0.3801802098751068,-0.924711287021637,0.0,0.0,0.0,1.866409502033896,2.347329464166453,4.558962108181328,2.079306349,0.2550283944624301,-0.5871922703985775,0.3549141916252907,2.713554455185423,-14.786145135402627,14.6486951455448,0.0325491900561878,-0.0207156013920837,-0.780472421855473,0.0379472854592961,-0.0468031571817881,-0.0251893160222191,2020.1782517975596,-232.0745072082526,855.3046166807023,-0.0003410015337541
19502,1724816795714421702,-1.8499702215194704,-0.6075820922851562,0.1433636099100113,-0.0115460995584726,0.0169701632112264,0.379652738571167,-0.9249014258384703,0.0,0.0,0.0,2.193262944555558,2.9761976610775145,4.953877508550907,2.090215858,0.1588528503088892,-0.1717739447784015,0.1038589587170214,-19.899844768431965,107.39955639735216,-107.51796046465422,0.0342590142929215,-0.0226263702227075,-0.779402430140146,0.0832105797162938,0.020370299254921,0.0899160889182955,-187.93318600277385,-383.5687147685195,-580.6084524851046,-1.1140896591488948e-05
19504,1724816795723597579,-1.848867416381836,-0.6070133447647095,0.1448802351951599,-0.0135505534708499,0.0109746288508176,0.3860862255096435,-0.9222978353500366,0.0,0.0,0.0,-1.212834328169248,-3.9485456030200257,-5.134073265155807,2.099391735,-0.1092897748990642,1.3487124248844216,-1.534903409937952,-4.890173471504216,46.461947861524685,-57.75323941725963,0.0334774521287437,-0.0097805447117022,-0.7930611229324996,0.0882420098754437,0.0231283742681149,0.0921757248590493,-196.96034316781365,-408.8644061550742,-551.7331621774216,0.0014724427588313
19506,1724816795736934281,-1.8483097553253176,-0.6074580550193787,0.1446924060583114,-0.0144920796155929,0.0138529604300856,0.3858644366264343,-0.9223376512527466,0.0,0.0,0.0,-0.4621034801847372,-2.6982949409324473,-1.8762733267843543,2.112728437,0.2971568568577999,-0.3430722801874614,0.0372802608112431,35.84731543646528,-225.5240605212815,212.72334751250128,0.0374365194802887,-0.0143707523317814,-0.7927264847884237,0.0379278804879561,-0.1118983519950589,-0.0805896467874465,194.6471962526111,642.2167570457128,856.966840118217,-0.0002010313544408
19508,1724816795743410608,-1.848076343536377,-0.6084297895431519,0.1439613252878189,-0.0134046236053109,0.0209289919584989,0.3808067739009857,-0.924320638179779,0.0,0.0,0.0,1.2336153519888955,3.185808185885787,5.600594118474885,2.119204764,0.546208767432218,-2.113955830380678,1.7132080544443713,5.371345518757694,-96.69419840440736,98.43182399009248,0.0407479451904859,-0.0284849073710657,-0.7821723395797375,0.0453464022995717,-0.1060187672556018,-0.0579020744136471,161.07232965207908,604.2029613961228,710.3048767505036,-0.0007330006115161
19510,1724816795753961058,-1.8474379777908323,-0.6087916493415833,0.1442954540252685,-0.0133785735815763,0.0214670803397893,0.3808304071426391,-0.9242989420890808,0.0,0.0,0.0,1.201167769464662,4.329354571552611,5.460156163739052,2.129755214,0.0342403089905816,-0.0963100329382327,-0.0042365279883871,-18.4411645645959,94.79847680536156,-76.98476759658777,0.0411116970735442,-0.0294983418690891,-0.7822586185560022,0.0598763776656454,-0.0332547431046563,0.0372365022042329,-42.888311388146434,-133.496756699519,-283.73383336292517,0.0003048960960264
19512,1724816795763518952,-1.8468711376190183,-0.6091004610061646,0.1446995586156845,-0.0138555988669395,0.0217945352196693,0.3808071315288543,-0.9242937564849854,0.0,0.0,0.0,0.4465177876851225,0.9589921394183268,0.4067448175697228,2.139313108,0.1184754250870547,-0.0252776167387585,0.00286241478697,-3.2842095797040836,24.741872418479655,-26.56986006895903,0.0422435545580519,-0.0297408681388997,-0.7822412324773219,0.0698328846593199,-0.0141057466503902,0.0586221574700118,-75.92106650291981,-279.4872459794241,-389.8788692389601,0.0003775301061417
19514,1724816795774412698,-1.8459796905517576,-0.6090281009674072,0.1455410867929458,-0.0145423291251063,0.0192953441292047,0.3839271962642669,-0.9230472445487976,0.0,0.0,0.0,-0.3428683979246938,-1.1775573909613395,-2.11665293833318,2.150206854,-0.0675063456927179,0.4591810727399371,-0.6257042794363593,11.772491685881572,-9.46097100168734,0.9538554761797564,0.0416870646863393,-0.0244570752535415,-0.7888441431657248,0.0673071102979605,-0.0166273380928352,0.0403220944939368,-29.84522726575687,-113.22397874590976,-103.17849866657556,0.0007979665908089
