seq,stamp,px,py,pz,ox,oy,oz,ow,lx,ly,lz,ax,ay,az,timestamp,wx,wy,wz,aa_x,aa_y,aa_z,roll,pitch,yaw,vx,vy,vz,jx,jy,jz,fw
5502,1724811860385924177,-0.6388648152351379,0.0608207434415817,0.1742250174283981,0.046206671744585,0.0460193380713462,0.2327423691749572,-0.9703495502471924,0.0,0.0,0.0,0.1268307755664275,0.3066421218149022,-0.3530506451607081,20.007157908,-0.0771335170015924,-0.4505812700723875,0.3322800681501062,11.166849887662616,-13.472270658956267,15.889647553709038,-0.0687290327165209,-0.111046271508801,-0.4669927110608733,0.061831757224219,0.0681169691656751,0.0009348428434652,76.57069038587383,17.618724342312948,153.54864288190447,0.0001413385707526
5504,1724811860395681573,-0.6382367014884949,0.0615757927298545,0.1741438657045364,0.0460970923304557,0.0470131114125251,0.2307760268449783,-0.970776617527008,0.0,0.0,0.0,1.080180580654448,0.2426168999589162,0.8697576113290281,20.016915304,0.0917963413853745,-0.2070241944168251,0.4010238623828134,4.4306484158319535,27.199329260537247,-18.246290930623232,-0.0682876155300821,-0.1127936820937905,-0.462925162746946,0.068134509947189,0.0704652969202976,0.0142218160591749,50.61351956891698,16.261225929520773,31.05042512363402,-4.0456792948016825e-05
5506,1724811860406290455,-0.6374704837799072,0.062243565917015,0.1745547205209732,0.0459950901567935,0.0464689545333385,0.2312386631965637,-0.9706976413726808,0.0,0.0,0.0,1.0739445314291034,0.6783854641931386,0.111785673831671,20.027524186,-0.0097932247430691,0.1073454689797283,-0.0842791437025712,2.2870705866921797,15.6341572042241,-0.3491083046685634,-0.0682822037621116,-0.1117185442742135,-0.463901100670784,0.0846027702507044,0.0730616297998407,0.017774190421651,-68.62288823166358,34.160602840815045,-2.4132077635488827,0.0004284963701902
5508,1724811860414952672,-0.6366500854492188,0.0629479959607124,0.1745604872703552,0.0455032512545585,0.0459119975566864,0.2302653789520263,-0.9709785580635072,0.0,0.0,0.0,-0.001677101810134,0.9253823705197824,0.5791403446770754,20.036186403,0.0939217212924698,0.1437637967742643,0.2337705387392359,6.600245433558843,7.376228642776194,10.712942181598995,-0.0676844259039336,-0.1103385286518232,-0.4619533287054284,0.0905221588396614,0.0820050758159234,0.0171648297920832,-95.1415241705922,-19.414957054303407,-18.100362765386976,2.690613856797376e-05
5510,1724811860425728120,-0.6357308030128479,0.0638407915830612,0.1749666035175323,0.044687021523714,0.044636882841587,0.2303038835525512,-0.9710667729377748,0.0,0.0,0.0,-0.6377126717103891,0.0737233377766193,-0.5817216568679797,20.046961851,0.0930212895996961,0.2657635582894594,0.0006445797533983,-18.556078157935776,-24.002671553743586,6.78499761345412,-0.0666618169713981,-0.1074807957911646,-0.4621397124227064,0.0813217351013477,0.0905411103998399,0.0321111984679536,-10.127423882355846,-75.70113455095074,-82.93053121992888,0.000437944443537
5512,1724811860434946441,-0.6350126266479492,0.0647360458970069,0.1752186268568039,0.0459958165884017,0.0453878343105316,0.2290152758359909,-0.9712756276130676,0.0,0.0,0.0,-0.3454431827524882,-0.5978067234679041,-1.150611279651417,20.056180172,-0.2237127206141913,-0.2340786407516573,0.2873162970199771,3.979796357265697,-22.373618622570586,21.660309705353967,-0.0690277636260322,-0.1094540998849094,-0.4593344942072784,0.0771474583616402,0.0855548597010704,0.0112223479477915,53.56328841182054,-12.442528924701712,36.50108963784646,0.0003003302056269
5514,1724811860445241906,-0.6342270970344543,0.0654839277267456,0.1751488447189331,0.0449148602783679,0.0460878685116767,0.2269220501184463,-0.9717844128608704,0.0,0.0,0.0,0.4573494104975157,-0.0313454855658825,0.3544955286261828,20.066475637,0.2581008277146692,-0.0982097683230865,0.4017997838451845,20.7729558654898,25.4023933260487,-12.744986074766608,-0.0668331257708116,-0.1101820903535985,-0.4551132489904095,0.0748256751003992,0.0787458971015904,0.01220170355211,62.35693707271345,31.310028339110456,28.782965780147336,-4.262574567410465e-05
5516,1724811860455343271,-0.6334858536720276,0.0663398653268814,0.1754602044820785,0.0435724183917045,0.0449490621685981,0.2267568707466125,-0.9719374775886536,0.0,0.0,0.0,0.9324465805237558,0.0499362270926733,-0.5183817662904969,20.076577002,0.2099976540999224,0.2793561735861227,0.0365359618883184,-10.872247052273462,-14.343792218504628,-6.209010889134353,-0.0647318248951487,-0.1073420662301473,-0.4549294446607346,0.0862133473655575,0.0846732466990438,0.0183531944529775,-10.878047020536414,5.166436668423099,-34.609302709904156,0.0003487460656716
5518,1724811860464868884,-0.6325493454933167,0.0671458765864372,0.1755230128765106,0.0437340997159481,0.0464435145258903,0.2255378514528274,-0.9721435904502868,0.0,0.0,0.0,0.3086305549938912,0.0732780639352808,-0.3827313240077155,20.086102615,0.0515468792244648,-0.32187485351999,0.2464300335473119,-14.566665465442638,-26.181776577300532,12.95894152073062,-0.0645183041018107,-0.1102501340845506,-0.4523738493833072,0.0933448084141872,0.0803265626311056,0.0032885974180016,-56.17350896865434,21.61159762805282,49.94792319296796,8.162782158253576e-05
5520,1724811860475685215,-0.6316007375717163,0.0679620429873466,0.1755179911851883,0.0444116853177547,0.047076154500246,0.2240754216909408,-0.9724205136299132,0.0,0.0,0.0,-0.1845572254208267,0.5423726007148559,0.5960771835026811,20.096918946,-0.080617887040942,-0.1514256285718205,0.2751302443443872,9.611479399635968,32.087810457416175,-9.792026323973165,-0.0657330600103976,-0.1116908471128832,-0.4492785642566853,0.0912786228575868,0.0876235982813007,0.0138718486147872,-49.607990550369976,-29.684082645286804,-8.793065999012905,1.4764370845319144e-05
5522,1724811860484921011,-0.6307294964790344,0.0688672661781311,0.1757591664791107,0.0433375276625156,0.0460158325731754,0.2237034440040588,-0.9726053476333618,0.0,0.0,0.0,-0.6743613007364941,-0.3078967408132458,-0.2681297587005529,20.106154742,0.1803116752569877,0.2737072669476917,0.0865456453622503,24.415489674037055,15.22979258633766,-9.91880315528063,-0.0641379723137624,-0.1091163995671619,-0.4486410761460557,0.0896250932743321,0.0915898200934415,0.0163616122321297,-16.01917014698402,-54.60902497457083,-53.899134712446454,0.0002731031672003
5524,1724811860495076974,-0.6298718452453613,0.0697257220745086,0.1758164316415786,0.0413620620965957,0.0460140518844127,0.2231224179267883,-0.9728249311447144,0.0,0.0,0.0,-0.423685556374124,-0.4442321721856781,-0.3724744846779364,20.116310705,0.3854292561838474,0.0843985828657907,0.1030734624608089,-21.373793361863356,-25.330340772150755,5.088047055839208,-0.0603317244290885,-0.1081958128518435,-0.4476437565617,0.0772445950799785,0.0802283960830414,0.0076334846037813,75.37831190221998,34.80131155806634,39.28941199983122,8.25860808617971e-05
5526,1724811860506126737,-0.6291049122810364,0.0705605447292327,0.1759247630834579,0.0436370633542537,0.0470189191401004,0.2220678776502609,-0.9729188084602356,0.0,0.0,0.0,1.0187019273549138,0.5200916836538303,0.6575294449179482,20.127360468,-0.3505166399855934,-0.2759266393230614,0.2008998472832668,-6.840656296022665,0.3694390392352353,8.006790969822681,-0.064469706447219,-0.1111003780841127,-0.4452235362396813,0.0821248675026709,0.0834282778697117,0.0093717675729472,42.05274575112007,33.806788067206284,42.201949824677726,0.0001404547819127
5528,1724811860515048122,-0.6282806396484375,0.0713615790009498,0.1760052591562271,0.0436455123126506,0.0471380725502967,0.2209014892578125,-0.9731781482696532,0.0,0.0,0.0,0.7565312999608969,0.4365939533316192,0.6665836449944402,20.136281853,0.0189206370053891,-0.0350857457176911,0.266234447237126,26.902168753470935,25.023738444068595,-5.821643443251951,-0.0645677743681201,-0.1112596011402045,-0.4428182583421709,0.0953694930059256,0.0897285251426471,0.0188408773341723,-68.51333439773336,-12.199426654581174,-38.56521091582801,0.0001048307127505
5530,1724811860525421435,-0.6272554397583008,0.0722916424274444,0.1763191223144531,0.0428062640130519,0.0462551787495613,0.2206779569387436,-0.9733085036277772,0.0,0.0,0.0,-0.4261055821148822,0.2757889325724614,-0.2108622099982634,20.146655166,0.1229948155935665,0.2007059212618693,0.0472956452984367,17.51237082607116,11.71321449362444,-9.763536318921648,-0.063331365323809,-0.1091505198963566,-0.4424595309973894,0.0944356855382508,0.0910056344136536,0.0209935309966171,-57.95344932451563,-35.1018347999739,-38.06941932094424,0.000334915641248
5532,1724811860536233246,-0.6262839436531067,0.0732907503843307,0.1764417141675949,0.0404942594468593,0.0456429719924926,0.2202591896057129,-0.9735311269760132,0.0,0.0,0.0,-0.4210213890742063,-0.3245952295790708,-0.0982638741196075,20.157466977,0.3966205106603095,0.2031937303533171,0.0695502301197263,-34.23425876432685,-35.615422551850344,15.48452342118696,-0.0591099905353295,-0.1069117260230829,-0.4418397352771576,0.0860414181514883,0.0957078723805402,0.0139990619832381,38.83645846893447,-68.29693297597692,8.998310097530819,0.0001515355858644
5534,1724811860544927400,-0.6255625486373901,0.0741459131240844,0.1765820235013961,0.0422379449009895,0.0467976443469524,0.2189973294734954,-0.973686933517456,0.0,0.0,0.0,0.1848574082093179,-1.00763360752266,-0.0299313284180255,20.166161131,-0.3172937932803095,-0.3570580510884732,0.2980410339191556,-45.17869735106141,-18.997972119694253,-5.040664063248841,-0.062170504594614,-0.1098533177215377,-0.4390488207020405,0.0848655273023837,0.0875758363000511,0.0169806047005245,60.73375029482756,0.1180549399463237,-17.2335429996487,0.0001746655352363
5536,1724811860555067023,-0.624679684638977,0.0749063640832901,0.1767641603946685,0.043893776834011,0.0465088635683059,0.2196841090917587,-0.973472774028778,0.0,0.0,0.0,0.6947862390498987,-0.0760012719566738,-0.5014096793525471,20.176300754,-0.3386101162959964,-0.012318939368634,-0.1234606367700568,23.76874211948013,21.491516499955004,-11.52489580785645,-0.065466838765328,-0.1100578040949806,-0.4402976707808311,0.0905253226424811,0.0765039723643852,0.0122677965910877,2.112521185660114,97.4273735166358,34.554750889644126,0.0001982567448631
5538,1724811860565233336,-0.6237241625785828,0.0756994783878326,0.1768308281898498,0.0429963506758213,0.0462910644710063,0.2193374186754226,-0.9736014008522034,0.0,0.0,0.0,0.2251789917885878,0.9710168923854684,0.6760675542969594,20.186467067,0.1667355757006216,0.0786787684155593,0.0656231427553071,33.30572561672332,7.668870522509035,20.66243206425524,-0.0638393519854035,-0.1092165049817224,-0.4396799105744233,0.0989811135251699,0.0860868615406138,0.0067970545777562,-44.94866270140102,-11.686875803107077,57.967721225314406,8.053630324009981e-05
5540,1724811860574809546,-0.6227312684059143,0.0765966847538948,0.1768980771303177,0.0413367860019207,0.045932337641716,0.2179758697748184,-0.9739959239959716,0.0,0.0,0.0,-0.1940391291573906,-0.1753164917334166,0.7093170872797607,20.196043277,0.3377250243980426,0.1405530658808118,0.2821033653510502,-4.165439379935014,2.8014355210966033,-4.8318846860031535,-0.060889668460292,-0.1077047772671403,-0.4370520868775803,0.0956660217381752,0.0956417450712319,0.024223668196627,-15.879487262788642,-109.71800957431832,-71.79759163039603,8.600044006187556e-05
5542,1724811860585372943,-0.6218141317367554,0.0776297152042388,0.1773543953895568,0.040977481752634,0.0453385114669799,0.2184506803750991,-0.9739325046539308,0.0,0.0,0.0,-0.036708401209057,-1.217923450706837,-0.9261781805894534,20.206606674,0.0371263874240959,0.1275002871805071,-0.0886541127200595,-44.58662935375288,-36.969924265385394,-7.077104457410768,-0.0603882488042955,-0.1064171594020567,-0.4380742889601934,0.0953891074295683,0.0801205576489643,0.0187769408920246,-25.859016212321016,-3.891569082204043,-38.52207746115121,0.0004912518308022
5544,1724811860594711131,-0.6208526492118835,0.078232005238533,0.1773281395435333,0.0438464358448982,0.0471325255930423,0.2181115895509719,-0.9737985134124756,0.0,0.0,0.0,-0.6146040306148541,-0.4716121177675854,-0.3258003646419204,20.215944862,-0.5123865119889658,-0.5127212465835187,0.07657610334742,-16.154136658188303,-11.19185016278305,8.078380260354628,-0.0652838238333941,-0.1111507253171459,-0.4370540338313989,0.0949596895243409,0.0708227980136122,0.0067389439651464,-41.84130531886533,82.57033016223579,77.40992688519324,-3.209163795201592e-05
5546,1724811860606778895,-0.6198315024375916,0.0791853219270706,0.1775584071874618,0.0437724478542804,0.0456208102405071,0.2180468142032623,-0.9738882780075072,0.0,0.0,0.0,-0.806946447057737,0.5661539829397191,0.8129293380424374,20.228012626,-0.0415461157386124,0.2468782891657129,0.0241060274583453,36.04836198352506,57.96622174841803,-4.027706634828833,-0.0657956621601696,-0.1081587863536478,-0.4369582478614933,0.0786750667202357,0.0733042928004919,0.017830346193775,739.4603232139518,610.13678405421,356.5723557657495,0.0002574260382579
5548,1724811860751064397,-0.6187316179275513,0.0799415484070777,0.1779731661081314,0.0406262539327144,0.0446812883019447,0.2183074355125427,-0.9740098118782043,0.0,0.0,0.0,1409.0379394650704,992.8061836831624,504.60595601720786,20.372298128,0.0395412103801852,0.0224271939766064,-0.0045704204653324,-377.18945573286294,-1028.2296984689208,3672.966384135733,-0.0599982698348175,-0.1049707230228866,-0.4378247351777747,0.8980949127957274,0.7769381259454775,-0.0480211729611426,-670341.8129495658,-853479.8234100526,-571836.7956702206,0.0004101107258867
5550,1724811860752047172,-0.6178430318832397,0.080710269510746,0.177925631403923,0.04097231477499,0.0450491607189178,0.2165572792291641,-0.9743689894676208,0.0,0.0,0.0,745.6900897436353,148.2683248641415,-61.232197602788574,20.373280903,-0.3336798239928493,-0.9949638011253368,3.629717273650406,-22455.34475679423,-5314.456850838784,-8607.145196764202,-0.060708956581976,-0.1057316049882871,-0.4341848643530837,2.292256253077767,1.7592564201515015,0.4512738312830038,-919333.913768408,-843123.6818871684,-707027.3395965417,-3.304481032893923e-05
5552,1724811860752396063,-0.6168713569641113,0.081445075571537,0.1781449615955352,0.042945958673954,0.0452179834246635,0.2167708724737167,-0.97422856092453,0.0,0.0,0.0,394.6767704698873,-143.88141378777868,-324.16678662506274,20.373629794,-10.902393609798654,-3.37914902066527,-0.8973319054101822,-11118.301378234468,-3988.560468380947,-3446.9441305834184,-0.0644872152228079,-0.1069278121200579,-0.434424833270901,2.4690756883447875,1.7055493480122834,0.3594005750635176,-489023.4582491053,216367.34328971943,-287699.0192433706,0.0002259984228162
5554,1724811860752943066,-0.6157917380332947,0.082034483551979,0.1781106442213058,0.0433415509760379,0.0459541790187358,0.2153046876192093,-0.9745017886161804,0.0,0.0,0.0,570.6147525673678,878.164718778637,-81.95244904268691,20.374176797,-0.5403246795009357,-3.1209612070668835,5.388995038621188,20678.604065849897,8946.971945119269,3235.792667606832,-0.0651127337102939,-0.1084405443060757,-0.4313549770228064,2.588803474931865,1.6354691530712842,0.1299056379153285,348508.333345491,1307516.6994981924,315911.8579902169,-4.913784482809932e-05
5556,1724811860753263617,-0.6148463487625122,0.0826635435223579,0.1781884729862213,0.0423293933272361,0.0459324792027473,0.2145051062107086,-0.9747236371040344,0.0,0.0,0.0,687.3766082072766,1191.9213510327124,-4.522644277509215,20.374497348,6.41418514841172,1.338997929448536,4.875268908860028,17586.177957908065,8894.631539348205,3035.7108357162615,-0.0632230421278938,-0.107912005725602,-0.4298139604703993,2.837787047241477,2.105992799884973,0.1670523705368509,-882484.3274158983,-1843150.385207055,-743864.4055777342,7.404183308927258e-05
5558,1724811860753626486,-0.6138623952865601,0.0834867134690284,0.1782179772853851,0.0403330810368061,0.0458610877394676,0.2130371481180191,-0.97513347864151,0.0,0.0,0.0,-144.97671287799676,-636.0853896635981,-679.2311813133276,20.374860217,11.107668284229549,2.5049998155690107,7.882144456074397,-36836.64891068894,-10572.771301152085,22371.35690815599,-0.0594941009487739,-0.1068293356652387,-0.426998659932097,3.050508133542735,2.425156217555525,0.115951363102738,-1564452.2953760033,-2866058.041995623,-775919.5577028634,3.9022892798735705e-05
5560,1724811860753878144,-0.6130355596542358,0.0841243639588356,0.1782532036304474,0.0413342006504535,0.0459106564521789,0.2111035734415054,-0.9755095839500428,0.0,0.0,0.0,-411.3880261812714,-978.342682350284,-685.4018887008708,20.375111875,-6.849136132457085,-2.5618116986920163,15.97033258111716,-46293.919270354265,-16572.80893147687,648.5544443688274,-0.0616529454564504,-0.1072295382140252,-0.4229245625721594,2.886407363338435,2.000554510575256,-0.1489509677049341,1593101.36441586,2636620.230146556,-561367.3735162413,3.910794759726876e-05
5562,1724811860754234171,-0.6122089624404907,0.0845680311322212,0.1780546456575393,0.0434470921754837,0.0466636456549167,0.2110824882984161,-0.9753866195678712,0.0,0.0,0.0,1491.4216334870953,1973.389772633851,-1155.6632721513165,20.375467902,-10.708748621564228,-6.668618100059962,0.3398088842314204,22914.8842344622,24954.541975521097,-17785.55642550963,-0.0654951144561921,-0.1095912698318032,-0.4226514058096003,2.861173212404992,2.0092843664475595,-0.2080077710238015,1397464.5732329234,2106631.4067531493,-3005044.8867406435,-0.0002106842915677
5564,1724811860754496878,-0.6113527417182922,0.0852438136935234,0.1780677884817123,0.0430209450423717,0.045819092541933,0.2110172063112259,-0.9754596948623656,0.0,0.0,0.0,1093.4094256022,1328.039370556362,-2271.584981867054,20.375730609,1.854606413902286,6.960542736108223,0.7301510041931215,51309.394403581085,5266.291473483194,43353.6570746037,-0.0650157729602853,-0.107754075339024,-0.4225788303775387,3.5558279187521293,2.9054912976949367,-0.7034762019542882,-5945647.171250517,-4171073.431993578,2375237.5659029847,2.183425189569589e-05
5566,1724811860754712780,-0.6105324029922485,0.0859302207827568,0.1777822077274322,0.0416844710707664,0.0460645407438278,0.2091039717197418,-0.9759180545806884,0.0,0.0,0.0,-976.4164071052464,123.27645744520942,-583.6047242061175,20.375946511,13.551074352842106,-0.1733504848618582,17.51914831627625,20581.30374242912,-37001.97230338005,51748.50346395112,-0.0624982560195974,-0.1075504320304307,-0.4187797120701229,3.51672787709731,2.822548935379814,-1.2623305454730485,-6397762.23077132,-1244795.1040643065,8360035.167090048,-0.0002737622928339
5568,1724811860754961480,-0.609738826751709,0.0865299999713897,0.1774855703115463,0.0409911572933197,0.0474560596048831,0.2062130272388458,-0.9764956831932068,0.0,0.0,0.0,-1653.9211318721627,1055.6866006588662,1650.7409502803634,20.376195211,9.045739658101754,-10.510116687616671,22.93660990987848,-16375.762924180688,20882.517627394383,-11951.466807857509,-0.0608873609218597,-0.1098076345166666,-0.4128902906258765,3.0460508104663404,2.9985803105479363,-0.8331204453452301,15798.035933678504,37055.43145120476,1975534.110074901,-0.0002946835534161
5570,1724811860755214395,-0.6090056896209717,0.0874393433332443,0.1773673593997955,0.040115188807249,0.0461996048688888,0.204848974943161,-0.976879358291626,0.0,0.0,0.0,-945.1980867711364,110.3060002535567,347.76994130748744,20.376448126,5.351536634191363,10.832511833865148,11.237320862193066,-50326.84632358856,15768.037199077358,-45327.31461636254,-0.0598245009773248,-0.1069014854240364,-0.4102028865775027,2.689124912623811,3.355054653576218,-0.4349323578639996,1898915.4147899617,-4841796.585425708,-4629842.668917999,-8.296962034644225e-05
5572,1724811860755462041,-0.6083905696868896,0.0882119163870811,0.1772675216197967,0.0420726612210273,0.0460282675921916,0.2049005925655365,-0.9767942428588868,0.0,0.0,0.0,-693.9782821014824,-1356.416648678609,-672.2209620763887,20.376695772,-15.773416863948247,-1.9016823790595203,0.2378207626319195,3692.210450419705,-22817.260350630255,-3507.291159112341,-0.0637401725812507,-0.1073678882042553,-0.4101144957184202,2.568061430515172,3.067343101292579,-0.6462488479324975,-5547.624751060735,-3308672.0777324527,-1432304.3278217823,-6.569506842150402e-05
5574,1724811860755709630,-0.6077339053153992,0.0889584049582481,0.1770473420619964,0.0412716642022132,0.0462175421416759,0.2037088274955749,-0.9770687222480774,0.0,0.0,0.0,-947.8292005119072,-1528.5621763237575,-361.8635115793506,20.376943361,7.169904186234565,-0.4706545422273285,9.495724443040572,79891.67788642277,5015.505679480176,31687.6377447273,-0.0622186345317593,-0.1073362202240305,-0.4077471691189436,2.3454659592243416,2.68333183995927,-0.7678603467263851,-898253.4573448278,-572428.4776641591,1149929.981628041,-0.0001924931376012
5576,1724811860757336455,-0.6071974039077759,0.0897780731320381,0.1770962178707122,0.0408926717936992,0.046694241464138,0.2036169320344925,-0.9770811200141908,0.0,0.0,0.0,-1051.178389352434,-1146.5233668402948,401.57733879421113,20.378570186,0.5804783515861486,-0.4816542443834658,0.0677681289194135,-3346.722320162929,11.997225988428074,-4777.261670305475,-0.0612914236923549,-0.108111484045938,-0.407587829291491,0.2821220119579326,0.4365050795754288,0.02578885156852,-28705.557545979867,219339.5231792962,377728.9990353685,8.95655764366729e-05
5578,1724811860764988356,-0.6067540645599365,0.0906945019960403,0.1771404147148132,0.039572786539793,0.0458380803465843,0.203033447265625,-0.9772974848747252,0.0,0.0,0.0,-17.51905926562102,-25.936156757327215,-3.217338833111872,20.386222087,0.3009446091921943,0.2852971024016832,0.153568943301859,-15.160629343311976,52.03320941243073,16.52450292273233,-0.0591005006043288,-0.1058616957295774,-0.4065402681549442,0.0540284767460121,0.1065607398439461,-0.0065065913568931,78797.61916611907,85677.42649248854,-30466.959319907197,9.921829924739124e-05
5580,1724811860775477976,-0.6062435507774353,0.0916224122047424,0.1768955439329147,0.0372199453413486,0.0455248989164829,0.2008858919143676,-0.9778481125831604,0.0,0.0,0.0,-0.3625582112040053,-1.0412620310285083,-0.2063860165669471,20.396711707,0.4492191647904232,0.1380472983728368,0.4032824874878261,11.758635815739792,-32.7025589839178,14.423103946368611,-0.054824821873056,-0.1041751205589358,-0.4023762770639125,0.0469822786265297,0.0815884344089319,-0.0258289674153022,814.422091903074,1230.625043975584,219.3709520372149,-0.0001964801799832
5582,1724811860785920444,-0.605770468711853,0.0924029648303985,0.1765999943017959,0.034950703382492,0.0480392128229141,0.1983467787504196,-0.9783298373222352,0.0,0.0,0.0,-0.3942409419188784,-0.0690894968269164,1.380920469043445,20.407154175,0.5473010396955017,-0.3974795222924627,0.4563574591573854,-38.122666923013895,-14.010126558221884,-10.929302102634187,-0.0496396494415133,-0.1080713549966859,-0.3973724688456634,0.046410285706699,0.0846389239057652,-0.0109805843340211,30.94519352450444,126.8082838370085,43.01531138844483,-0.0002631180742982
5584,1724811860794719611,-0.6053538918495178,0.0932210534811019,0.1766318082809448,0.0358194783329963,0.0489313900470733,0.1972992718219757,-0.978465974330902,0.0,0.0,0.0,0.1299888115505696,1.296661824184986,0.951319483018088,20.415953342,-0.1404470411873172,-0.2443943843048391,0.2414689170581963,-42.96521269796831,15.916985557878975,-18.162156878253494,-0.0511197452473076,-0.1101120917843176,-0.3951287872220097,0.0404243393995802,0.0813527924205588,0.0008663552172807,56.174141502437806,81.12613671803138,-92.67621453514944,7.071937980646033e-05
5586,1724811860810006344,-0.6049196720123291,0.0941560566425323,0.1765720397233963,0.0349009931087493,0.0494051612913608,0.1962639093399047,-0.9786836504936218,0.0,0.0,0.0,0.8983309970011781,0.5692320271198419,-1.6300326915690049,20.431240075,0.1374577594053573,-0.0403994133998278,0.1300606624873019,49.14363932126942,50.864679829042856,-3.6547626674750457,-0.0492419629156485,-0.1106291815511315,-0.3930998322662152,0.0639303356725946,0.1455288217933734,0.004917337986793,-175.09698037270977,-506.80245952689035,-117.0636339889187,-1.3367062633020953e-05
5588,1724811860815519279,-0.6044965982437134,0.0951260775327682,0.1766166985034942,0.033478919416666,0.0487993359565734,0.1959139108657837,-0.9788337349891664,0.0,0.0,0.0,-0.515016761747265,-3.1377328310998496,-2.172413017936463,20.43675301,0.4699451209445432,0.314610183782503,0.1171354568322802,47.44703120403911,20.784895280437325,3.246708194097181,-0.0467130831084848,-0.1088657589218506,-0.3925345172845479,0.067611662697292,0.1414520917953989,-0.0078365519673955,104.34704503817656,90.32034536950982,29.119951483758665,9.160184015708524e-05
5590,1724811860825442203,-0.603988766670227,0.0959134772419929,0.1762542873620987,0.0303368531167507,0.0507019311189651,0.1944870799779892,-0.9791240096092224,0.0,0.0,0.0,6.963029057288088,11.381383320528656,0.3938274579630725,20.446675934,0.7110105512141242,-0.2580596968332963,0.2492151434488924,13.774783943328847,-40.511615532769454,7.853108545689002,-0.0399431175375082,-0.1113169624736454,-0.389937295877311,0.0413760368091775,0.0674824124630667,-0.0268742645658388,557.0606540689686,-4425.232243022382,-1291.9562193269055,-0.0003420032770479
5592,1724811860855569241,-0.603638768196106,0.0968608632683754,0.1763271689414978,0.0276324693113565,0.0497907102108001,0.1946018040180206,-0.9792280793190002,0.0,0.0,0.0,5.767188129726037,-660.5448860627384,-180.35816500341923,20.476802972,0.1638426478261819,0.0947270608083859,-0.0133808544124184,17706.669062699977,5093.6218815343855,6851.220169688186,-0.0349507771166081,-0.1084802197678903,-0.3904501135998194,1.129889956197303,2.1332593289220654,0.1965018902166093,-173440.2225568148,-274274.36170815234,-9575.077636029397,0.0001116724596453
5594,1724811860855926251,-0.6032306551933289,0.097631350159645,0.1763981431722641,0.0264403969049453,0.0496682301163673,0.1941225826740265,-0.9793622493743896,0.0,0.0,0.0,-56.88629799359899,-759.5295713627065,-183.7916897132782,20.477159982,6.560287648051772,1.9347006621729537,2.461595063369835,8268.366777574913,-1017.54312858536,7515.433862837353,-0.0327014825662708,-0.1077601707692152,-0.3895900860488285,1.131820443045683,1.8943535937237217,0.1313178264802843,-173674.2039615036,-234623.307107697,1203.458668085601,8.97711474346177e-05
5596,1724811860856453287,-0.6026429533958435,0.0984244868159294,0.1764148473739624,0.0258240438997745,0.0506729856133461,0.1922791898250579,-0.9796908497810364,0.0,0.0,0.0,-147.00217404282628,-850.0113792599255,-174.73836011820882,20.477687018,3.41124698492148,-3.403147429597376,6.876034387109485,-5650.7880229301245,-9513.062847083567,7839.612855605484,-0.0313047928432319,-0.1094368862853751,-0.3858888502991393,1.0533725415499706,1.423762754836457,0.0335128173142171,-160468.09475059665,-156475.96481647255,17370.73115840405,1.96686264441539e-05
5598,1724811860864979673,-0.6021772027015686,0.0993719324469566,0.1769513934850692,0.0257063284516334,0.0493419244885444,0.1934342980384826,-0.9795345067977904,0.0,0.0,0.0,-64.35119501659146,-86.87377904784114,-0.0186820506465592,20.486213404,-0.0476593007180982,0.3163285910203161,-0.2658340970353615,-207.28295726676436,224.03647731999968,-441.32176724638913,-0.0314560562560403,-0.106812191317849,-0.3882527815964288,0.0544957901721652,0.0923900934848145,0.0385098390243756,8099.976260574334,52999.84706593982,11290.359479204297,0.0005586343075129
5600,1724811860875438891,-0.6016088724136353,0.1000979617238044,0.1770408898591995,0.0241334661841392,0.0499703921377658,0.1923011541366577,-0.9797657132148744,0.0,0.0,0.0,-0.0776931277408223,-0.8803057781848826,0.0153072110353469,20.496672622,0.3296795291874406,-0.0629265094091766,0.2028666305550171,46.63570209227822,2.2121877935499477,11.868223730096476,-0.0282380114713917,-0.1074067325365756,-0.3860998955311264,0.0588678602604559,0.0725522224766566,0.0305554055516665,2880.265913786985,3937.077266855724,-22.273537687660124,8.685770405876834e-05
5602,1724811860884980296,-0.6010077595710754,0.1008175164461135,0.1775239109992981,0.0198209714144468,0.0493917502462863,0.1919892579317093,-0.9799529314041138,0.0,0.0,0.0,-1.013922069161473,-0.6097431201470878,-0.4193712020775086,20.506214027,0.8665526323861698,0.293051062550653,0.0293573244912123,-11.16873856528118,6.012760770759801,-5.966115756068136,-0.0199924721271332,-0.1046046701652949,-0.3858860846331662,0.0538118831337079,0.0729995912038479,0.0374543508011884,489.78083447864486,669.2442384084608,213.52062152596665,0.0004682695730582
5604,1724811860895613444,-0.6005444526672363,0.1015651226043701,0.1777661144733429,0.0201315451413393,0.0493999347090721,0.1914244443178177,-0.9800567030906676,0.0,0.0,0.0,11.16053586081838,14.100825602557446,4.921046535046111,20.516847175,-0.0513154367009161,-0.0138654887392936,0.1107087687812914,-67.14517399432685,-22.89669876872403,5.832134430857424,-0.0206620706191666,-0.1047281518253383,-0.3846996755775584,0.0372951135356141,0.0587351591191785,0.0194576003628101,-6561.812125420257,-7697.522164229856,-4539.739919371033,0.0002431740103576
5606,1724811860933667883,-0.5999800562858582,0.1022239997982978,0.1780543327331543,0.0203794483095407,0.0507375113666057,0.1898069232702255,-0.9802978038787842,0.0,0.0,0.0,-1288.1385532091508,-1515.5736199639905,-854.5094243397866,20.554901614,0.0051423631408068,-0.0724755674430733,0.0849695272046947,19218.34298253305,7566.850219285506,4265.681291047644,-0.0208166733542652,-0.1074185225959999,-0.3813911021147607,2.1935184337235114,2.6984425952504125,1.1074334591176012,-235992.87923839316,-477980.22621351294,123151.70590699138,0.0002737339516302
5608,1724811860933932702,-0.5993951559066772,0.1029435396194458,0.1783496290445327,0.0196728948503732,0.0506106205284595,0.1896189749240875,-0.980355143547058,0.0,0.0,0.0,-1351.005932782885,-1642.9586398213012,-821.627941412868,20.555166433,5.1299387650820885,1.9453176444424716,1.2224652920557548,14321.810277897865,4379.970980674806,3555.779498413359,-0.0194918668804205,-0.1068969407699451,-0.3810759922333275,1.8499165883801536,2.2941690776941073,0.8795156969890456,183831.34980119253,16913.13045795972,403866.774063281,0.0002814426277911
5610,1724811860934417672,-0.5988166332244873,0.1036805212497711,0.1785669475793838,0.0178375523537397,0.0506659820675849,0.1889865547418594,-0.9805095791816713,0.0,0.0,0.0,-887.743724489603,-1192.5168019167827,-377.3515865667168,20.555651403,7.608018759541683,1.1923060839393271,2.2900524192592244,4376.2520270158175,398.09868287896415,-1010.2854940896542,-0.0159199308100976,-0.1062991516176097,-0.3799695733133731,1.147195865069932,1.3940436504754388,0.5157121052697846,1048710.2351084936,1134187.873897025,845107.0831956314,0.0002023776558132
5612,1724811860935024489,-0.5981552004814148,0.1044310852885246,0.1789312213659286,0.014770925976336,0.0503592230379581,0.1890787631273269,-0.9805585741996764,0.0,0.0,0.0,-180.3978304710341,-348.328565560181,81.57772397553686,20.55625822,9.706667181236432,2.9150748031137996,-0.7615264976872727,3223.511711626779,2671.0791282782857,-4753.018116444526,-0.0099784334852728,-0.1045363616677861,-0.3804572376233381,1.0346459522881908,1.1742051773120146,0.5697914817239553,1103355.0967194252,1317498.9211021643,714874.0356048914,0.0003366739737008
5614,1724811860945649886,-0.5974610447883606,0.1052454560995101,0.1793088614940643,0.0134501866996288,0.0503434874117374,0.1887522786855697,-0.98064124584198,0.0,0.0,0.0,-49.81767466122727,-56.78230947003323,-27.996172264185304,20.566883617,0.2465318874851588,0.0497852935220559,0.0507255581207428,-507.7793811115486,-155.4150998656627,41.19052958605751,-0.0074148527980121,-0.1040026977559489,-0.3799199321561974,0.0626235322458299,0.0690061705361788,0.0333846990216217,8576.655590182316,17389.449041988555,-5074.87140665121,0.0003475342549615
5616,1724811860959655763,-0.5966339111328125,0.1060709431767463,0.1797366291284561,0.0121105965226888,0.0507278591394424,0.188840314745903,-0.9806219339370728,0.0,0.0,0.0,1.7610432159963023,1.245744580719876,-2.3787185014119254,20.580889494,0.1972767044115569,-0.017688031776179,-0.0232168925445462,-3.518262201343898,14.71987599445936,-33.068379413053734,-0.0046179924595807,-0.1042523833257305,-0.3802453617496332,0.1340666118272508,0.1457205543738595,0.0564308712265528,516.5247035830527,574.2495517663481,234.08792505299164,0.0003823548502528
5618,1724811860964791321,-0.5958041548728943,0.1069827154278755,0.1800751835107803,0.0115814693272113,0.0505839213728904,0.1894377022981643,-0.9805205464363098,0.0,0.0,0.0,-1.5483258704164655,-2.525576622191786,-4.179961872411832,20.586025052,0.1792056192808891,0.0946968667838394,-0.2453699099446772,4.611089478800626,2.9256853712719018,-16.705085911791812,-0.0035659236485822,-0.1037712249135039,-0.381514319702404,0.1368213215108156,0.1441498611413649,0.0366370323700646,57.557912328741224,-76.16707372085011,-205.66126079058785,0.0002962445318152
5620,1724811860976104682,-0.5948730707168579,0.1077813357114791,0.1797597706317901,0.0096087036654353,0.0529456064105033,0.1880285441875457,-0.9806883931159972,0.0,0.0,0.0,16.59763196291882,13.016552008229738,-2.8909342633314754,20.597338413,0.4339920039667957,-0.3446887777449248,0.2274059784764757,13.269124133008564,-23.242340355567045,27.403876730220645,0.0010704811616263,-0.1076676033549535,-0.3789222479194993,0.0673475048629876,0.0602553653700903,-0.0187694597035452,22311.5492401891,14686.971427436303,12355.763638945322,-0.0003759594985994
5622,1724811861004412644,-0.5940256714820862,0.108754962682724,0.1798737347126007,0.0071835406124591,0.0519422180950641,0.1881451159715652,-0.980740487575531,0.0,0.0,0.0,2114.9401490601313,1371.765823868628,1213.9806394299935,20.625646375,0.154302327358623,0.1020129551881579,-0.0157754781263393,15795.57920097595,-11776.556760485324,235.51281780660497,0.0054850798639982,-0.1047783819594908,-0.3793618529996583,2.147791200007078,1.8759590697266049,0.0415175157643261,-532043.2583128447,-437088.0805546972,-79600.74251427175,6.20404770822158e-05
5624,1724811861004753494,-0.5932849049568176,0.1094019412994384,0.1798880398273468,0.006374588701874,0.0527837164700031,0.1880795806646347,-0.980713665485382,0.0,0.0,0.0,1931.10542682906,1220.7935061220564,1186.3456143264248,20.625987225,5.603092692885803,-3.9604233527545496,0.065500890661576,-4203.027631116747,-4504.076659508395,-1925.6833245584317,0.0073934510236182,-0.1061283967624045,-0.3793481036786956,2.8770468532258064,2.348892074162478,0.4602763748967504,-679103.8384184837,-532445.0153765352,-164124.89539823402,-3.9756944197831686e-05
5626,1724811861005069580,-0.5921692252159119,0.1102765202522277,0.1801561415195465,0.006714894901961,0.0532337017357349,0.1882725358009338,-0.9806500673294068,0.0,0.0,0.0,1675.483055148201,1026.2560221345666,1110.1248737822618,20.626303311,-1.6432249582818177,-3.210760895318898,-1.177534585604004,-22227.85672060602,2309.628816281813,-3810.472699442403,0.0069146676920627,-0.1071405890405135,-0.3797297395643464,3.426351289741184,2.6858994823913456,0.8228860861907961,-789790.6189751447,-600329.632702866,-237285.7092617644,0.0001819428633454
5628,1724811861015225103,-0.5910848379135132,0.111123226583004,0.1802559196949005,0.0060315025039017,0.0534139312803745,0.1883885562419891,-0.980622410774231,0.0,0.0,0.0,-171.63441689371655,-134.39982633845773,-42.277086483794854,20.636458834,0.1374107795628425,-0.0096048802404329,-0.0308348772671236,91.78837419248266,163.49303370445983,58.4879803855135,0.0083439195125639,-0.1072357363607802,-0.3800454190235897,0.0980553394419594,0.0784761566168592,0.003947183405514,-87081.62045146615,-53530.072703168626,-57385.664249492445,1.5123845486317984e-05
5630,1724811861026270745,-0.5901065468788147,0.1119312047958374,0.180228903889656,0.0052485642954707,0.0537119731307029,0.1885534524917602,-0.9805789589881896,0.0,0.0,0.0,5.416555660913498,4.260153446433142,-2.288997932840852,20.647504476,0.1475413725724146,-0.0264531980373542,-0.038658545161072,0.7580210924556928,-1.0827927527063292,-0.538441574604448,0.010019925669513,-0.1075239996793417,-0.3804775945229074,0.0775720545520077,0.0638231930586259,-0.0021497448118982,17680.578951664247,8956.336228377706,6350.776882121605,-0.000103290567428
5632,1724811861086847726,-0.5890605449676514,0.1126991957426071,0.1801970452070236,0.0007347775390371,0.052883893251419,0.188772365450859,-0.9805956482887268,0.0,0.0,0.0,1625.126995379689,-648.1929692424228,1289.551327996457,20.708081457,0.1405918973225307,0.0549757729500409,-0.0148443442170626,2061.212816748549,-17507.949549768175,4250.0967158163885,0.0186270623125206,-0.1041811992817898,-0.3813338413299981,2.8212466768841296,2.1779097378358756,-0.7178818129654019,-1121100.1812449046,2484793.5779804187,1854474.1514791893,-0.0001234363763526
5634,1724811861087187833,-0.5880956649780273,0.1134440526366233,0.1799515187740326,0.0007971742888912,0.0539001822471618,0.18852399289608,-0.9805880188941956,0.0,0.0,0.0,1241.6411594866358,201.66804234241863,1923.771396451396,20.708421564,0.8455609446423029,-5.933034717647279,1.438758180511564,-12454.053373355497,-4333.303436516887,-9351.496141169197,0.0188669798798079,-0.1062078790521528,-0.3808798930545229,3.3769804648950412,1.9561503956280717,-0.2768113979314535,-3819702.718803211,1390200.7608343405,29328.872700872365,-0.0003295025695754
5636,1724811861087515050,-0.586820662021637,0.1140104979276657,0.1800010651350021,0.002094737952575,0.054169163107872,0.1895403861999511,-0.9803752899169922,0.0,0.0,0.0,-855.7636643487076,307.55959084617007,1355.544101010385,20.708748781,-7.802891676547252,-3.1724340744295425,-5.91071441347394,4635.288706681702,32316.45769019604,-20736.06169766587,0.0165228455216352,-0.1072115621639521,-0.3828431855643935,3.659746876191093,2.2908964296437375,0.5500414432472098,-2829153.860389731,-1579087.012104032,-5375250.227013716,-7.119508409560044e-05
5638,1724811861087808876,-0.5858078002929688,0.1148313209414482,0.1802678555250167,0.0013984681572765,0.0524032674729824,0.1911930292844772,-0.98015159368515,0.0,0.0,0.0,-742.3088625100554,-658.4300633395221,-1183.888686842618,20.709042607,1.755503488519766,12.62349899219194,-11.548516311000771,24357.658691186814,22949.863640881264,-4206.3211767944385,0.0173906948330215,-0.1034454425444281,-0.3861916286579273,2.954513630232782,2.1924994664372974,0.639275578825675,3004596.725970883,-1444772.9279809536,-6590167.472008185,0.0001805162840745
5640,1724811861088263198,-0.5848115682601929,0.1154051795601844,0.1803695261478424,-0.0002740025229286,0.0523983910679817,0.1917624771595001,-0.9800415635108948,0.0,0.0,0.0,2462.180770665889,-20.245603382202717,-2736.113667301336,20.709496929,7.080210357194137,1.4068205631247228,-2.935443819370301,21244.807814168485,-34407.71297860166,30709.444619051326,0.0207441113921791,-0.1027809817037367,-0.3875198922934891,3.781891794219291,1.6660722274141335,-0.9435984919111888,3076832.536113312,2026573.0383688712,94984.2936880458,9.913526185284065e-06
5642,1724811861088514425,-0.5836406946182251,0.1158797219395637,0.1799702942371368,-0.0017165069002658,0.0537866465747356,0.1908825039863586,-0.9801366925239564,0.0,0.0,0.0,2682.7419270713663,575.276181492569,-2224.420708606288,20.709748156,13.740662214733852,-8.587485919774362,6.412112843595869,25413.278141150146,-38209.229587719594,35742.297761036956,0.0240332792297197,-0.1049739170374537,-0.3859492445568482,4.489514078125637,1.8191428830198595,-1.5270818136754922,825551.3248866614,2275268.760308308,1973250.7153519224,-0.0005129922960825
5644,1724811861094832674,-0.582463800907135,0.1162892207503318,0.1801810562610626,-0.0010491544380784,0.053927969187498,0.192777395248413,-0.9797589778900146,0.0,0.0,0.0,-425.1617469638334,-173.89171760225085,148.92968112918632,20.716066405,-0.230567715098386,-0.0916298122230072,-0.5992844970615664,-1354.6159079719582,811.8537132316821,-664.9910174592176,0.0229777018981351,-0.1054637137524874,-0.3897693973163222,0.1592181829867414,0.0486924853031149,0.0088393672342652,-288107.29261058866,-66784.3719784911,226465.20149985567,9.236644264421062e-05
5646,1724811861105048044,-0.5812841057777405,0.1165203973650932,0.1798664033412933,-0.0008732195128686,0.0569992177188396,0.1929948329925537,-0.9795424342155457,0.0,0.0,0.0,-2.5053301526698464,-0.780090659485559,-1.357014749313855,20.726281775,0.0799177477320326,-0.5980998211336682,-0.0473935413446273,40.72068159335271,-2.3025162738109373,21.714095272189535,0.0238624094247306,-0.111560516303967,-0.390400178654556,0.1135874662811602,0.028339844937455,-0.0250114003854697,20964.664645211866,8599.359044692565,-7341.887497341656,-0.0004400470323812
5648,1724811861115479832,-0.5801193714141846,0.1168768554925918,0.1796671748161316,-0.0039437161758542,0.0582223311066627,0.1936549693346023,-0.979332685470581,0.0,0.0,0.0,-1.2287180634625496,0.009527624456354,0.5643331583878859,20.736713563,0.6147157593958781,-0.1184904127400582,-0.1650838465527112,-10.64454418504566,14.715772752916283,-10.328177788758213,0.0304726792881483,-0.1127493576428139,-0.3921663705195142,0.1083482535052056,0.0331160998628936,-0.0183232315092869,946.3422438488586,386.1242896721459,-3.7632558656989303,-0.0003271900065337
5650,1724811861125628648,-0.5790523886680603,0.1172025352716445,0.179488867521286,-0.0032279221341013,0.0594947040081024,0.1949855387210846,-0.9789947867393494,0.0,0.0,0.0,16.510971351389934,6.993276813726833,-1.3295409657051953,20.746862379,-0.1045906124677356,-0.2777888737987202,-0.2604861066763201,-50.260399986503536,-8.23183186750277,-5.194081487745637,0.0297237983898642,-0.1154877608937176,-0.3949115128440797,0.0887052785238422,0.0287862165464236,-0.0133542079396304,7855.4122839314,-1219.7829368718126,-7121.3290831897675,-0.0002971794509249
5652,1724811861154735112,-0.5778418779373169,0.1177645772695541,0.1794520318508148,-0.0057660727761685,0.0584207735955715,0.1957095563411712,-0.9789032936096193,0.0,0.0,0.0,754.9824368296886,-187.7762893582542,-787.4913464162028,20.775968843,0.1534130332836975,0.1057149722009399,-0.0605447915410634,-1291.5337592651715,-9127.24758074066,-4200.95523063839,0.0343793635213556,-0.1123558688969981,-0.3965850687420156,2.1091251267544067,0.8517233823521906,-0.2039090582825906,-366713.37884225766,-116762.919199656,87538.98385259602,-0.0001712605092307
5654,1724811861155193018,-0.5768612027168274,0.1181605830788612,0.1793572008609771,-0.0055072656832635,0.0593258030712604,0.1961723864078521,-0.9787576794624328,0.0,0.0,0.0,584.2376698861094,-242.03566509230143,-746.5815304549437,20.776426749,-0.4473558645699245,-4.139552479651018,-2.0144998335895106,11719.565105360109,-3720.084138740526,-536.4817941839713,0.034286807480457,-0.1142186090916106,-0.3975783943411866,2.4597748243855904,0.7641831087877335,-0.5701318592919904,-423737.8662719022,-102445.67466777348,147233.45126189373,-0.000205215329882
5656,1724811861155593548,-0.575764536857605,0.1184314042329788,0.1790016591548919,-0.0071007376536726,0.060393139719963,0.1962521821260452,-0.978666126728058,0.0,0.0,0.0,396.7008266220712,-277.44560796335105,-667.3279136608177,20.776827279,8.812199663895818,-3.6848158095038666,-0.922361312122544,22123.7686615749,1104.41423271263,2616.165218516629,0.0378651323842953,-0.115680200819559,-0.3980036169607125,2.630181659729778,0.6494219445550019,-0.8505233981985458,-451311.1808946896,-83683.34917211952,192890.40943032168,-0.0004829493476919
5658,1724811861164891746,-0.5745896697044373,0.1186989620327949,0.179113358259201,-0.0065014231950044,0.0606605373322963,0.1984032243490219,-0.9782198667526244,0.0,0.0,0.0,-149.45318576036476,-35.77057281774235,50.932880098344654,20.786125477,-0.1421330914971106,-0.0906702101648118,-0.4634529083227985,-521.78110591235,211.16786665068835,38.553820305876826,0.0370490915348536,-0.1163612887922075,-0.4023707505274176,0.1123998762419269,0.0291377721341028,0.0080383968982626,-26551.925831054272,15769.692763230414,40568.991437476645,-2.8557988061448948e-05
5660,1724811861176331869,-0.5735002160072327,0.1190374046564102,0.1791493743658065,-0.0069545400328934,0.0615687780082225,0.199349895119667,-0.9779676198959352,0.0,0.0,0.0,-0.1820442527194918,0.7586174705852744,-1.2170903494971397,20.7975656,0.0992402227340882,-0.1433577888128107,-0.1744177398584984,34.11604368742272,54.831793564928226,10.638949063779048,0.0384263533705072,-0.1179248950661048,-0.4044408364909873,0.1103915825883419,0.055406784659989,0.0079437273695113,5535.1705889967225,1230.5358040422625,-1960.27275879111,-9.477400576245308e-05
5662,1724811861184888381,-0.5724586248397827,0.1196767538785934,0.179248034954071,-0.0095885479822754,0.0590130202472209,0.1999430358409881,-0.9779817461967468,0.0,0.0,0.0,-0.9007343479236676,-1.2720542344938277,-1.3620946990937477,20.806122112,0.4744613814866417,0.706194828265877,-0.1769887340259681,15.11896425762971,22.04232608516881,15.477402699191018,0.0426324495124026,-0.1118259051533433,-0.4057175256379398,0.1087923460241953,0.0520576512776918,-0.0102064323155799,41.31022534718021,-112.42960443237168,29.971753886880265,-2.3169828210889214e-05
5664,1724811861196211763,-0.5714206099510193,0.1199266165494918,0.1788067370653152,-0.0104727381840348,0.0603860653936862,0.1985821276903152,-0.9781661033630372,0.0,0.0,0.0,1.4447060091067696,-0.6735896224093669,-0.3196424934031308,20.817445494,0.2150940902873506,-0.2017236211685168,0.234698614973066,-14.449241546364323,-23.517428901717487,2.53271319360549,0.0447780012559465,-0.1142240279168422,-0.4031458525654827,0.0878962514744401,0.0244573284946434,-0.0142546378780066,99.6098381685415,42.23453126379603,1.0105263263353947,-0.0005640530618953
5666,1724811861209936501,-0.5702770352363586,0.120302066206932,0.1790222823619842,-0.0122208883985877,0.0577725023031234,0.2004537880420684,-0.9779219627380372,0.0,0.0,0.0,1.0231478244148349,-0.2705588666139578,-1.8204450491800133,20.831170232,0.1574542232479137,0.418121804982726,-0.2932240678125162,-94.63922193499764,-92.96964103640524,-35.08497102934777,0.0473586740551769,-0.1083061694357422,-0.4069251649290495,0.1624564213754382,0.0445551372645596,-0.0180117326806232,-409.26738345006487,-77.64800276453755,12.115662692549904,7.894401465758313e-05
5668,1724811861214954584,-0.5693166255950928,0.1205572038888931,0.1788700371980667,-0.0109501257538795,0.0582557022571563,0.2016690075397491,-0.9776584506034852,0.0,0.0,0.0,-1.7251300371239138,-0.8565432210394591,-1.5367909039012253,20.836188315,-0.4833851322747022,-0.3018426959212231,-0.4630818467390772,-73.76724046658228,-102.20175247248795,-14.196687814729158,0.0451947207486562,-0.1097117186046265,-0.4093307960848008,0.1595006305541755,0.04001436657287,-0.0299846482672148,-389.6548098895898,-69.3729358126531,93.71967781665428,-0.0002642835709642
5670,1724811861227539701,-0.5683158040046692,0.1207189857959747,0.1785038709640503,-0.012384220957756,0.0603786669671535,0.2017134577035904,-0.9775032997131348,0.0,0.0,0.0,-1.6414132224679694,-0.2334782883854167,0.8166094430636119,20.848773432,0.2907086088110129,-0.2853921805471374,-0.0214608568273101,-6.151982363848447,53.53303621001352,-1.122933324810374,0.048902445766757,-0.1132867269686393,-0.409772209792544,0.1019310071798287,0.0307603667762581,-0.0225233031977385,69.10918382452031,-18.933594618406502,62.869454557370034,-0.0004864982387781
5672,1724811861234944540,-0.5674633979797363,0.1210247725248336,0.1783657222986221,-0.0124993445351719,0.0591076761484146,0.2023876160383224,-0.9774402379989624,0.0,0.0,0.0,-0.8575536132524495,-0.6718695463256152,0.7413334760131469,20.856178271,-0.0496340534432044,0.3385524482220372,-0.187554012293721,-33.41691858184864,27.209157520106185,-12.647761268599046,0.0486771847004079,-0.1107150660777283,-0.4110451338020685,0.1025553218911916,0.0312179230092786,-0.0155016418049971,106.51319181068172,-43.580926312015706,-71.56454004627669,-0.0002401028342814
5674,1724811861245426780,-0.56657475233078,0.1212024688720703,0.1782500445842743,-0.0112220915034413,0.0600108131766319,0.2033644318580627,-0.9771978855133056,0.0,0.0,0.0,0.268669030305718,-0.8968806002781108,-0.919894108992348,20.866660511,-0.2137640090544936,-0.2228144209044207,-0.1749710271285572,5.741275284008587,-24.384347474491783,3.3407940220693666,0.0466546964595744,-0.1129606091705165,-0.4130006080987323,0.0795902874377851,0.0132887309007845,-0.0108012011583804,67.77089070811557,12.207160503593904,-93.88676332378294,-0.0002226562583012
5676,1724811861258200118,-0.5656388401985168,0.1213151887059211,0.1781157255172729,-0.0123581448569893,0.0607547275722026,0.2039138823747635,-0.977023720741272,0.0,0.0,0.0,0.5168558935065715,-0.2168259842091631,-1.113731561524741,20.879433849,0.1926538206417692,-0.0802509857832387,-0.0989824293648272,79.36219169057684,5.493643072533835,19.231400967345323,0.0492650136700359,-0.1139238953118089,-0.4143211421205969,0.1213050218995093,0.0144957117875943,-0.0438493944771849,-218.8272830359465,6.250168682066622,173.3038445707776,-0.0002490418042935
5678,1724811861265101713,-0.5646225214004517,0.1214363798499107,0.177688792347908,-0.0153899099677801,0.0616176985204219,0.2034424096345901,-0.9770249724388124,0.0,0.0,0.0,-1.8818674665401431,-0.3489164143203203,0.785183079477428,20.886335444,0.9176739332326748,-0.0634698261978366,0.0832752272348219,27.9293743072429,-4.405608409839679,10.146078808500109,0.0555352691713423,-0.1143914528926782,-0.413766579949156,0.1146214149011299,0.0118383553720935,-0.0460410318018711,-170.1822989131339,8.487302112223079,186.15183266715553,-0.0005528281582751
5680,1724811861275819713,-0.563937246799469,0.1214680299162864,0.1774586290121078,-0.0148221300914883,0.0627138912677764,0.2038945704698562,-0.9768696427345276,0.0,0.0,0.0,-0.7534566367977025,0.201886122473438,1.2991464196287694,20.897053444,-0.066653036742942,-0.2244911305060655,-0.0786559955232039,-31.640016713647267,-6.945753292163582,-3.7918288680032575,0.0549340074231877,-0.116747318490448,-0.4147476340454896,0.0792473421892978,0.0086998570147649,-0.0192706046577022,156.10825352482607,43.007124185461755,6.386863997039818,-0.0003164652151581
5682,1724811861285118227,-0.5630768537521362,0.1215952858328819,0.1772972196340561,-0.015183106996119,0.0638475120067596,0.2039762288331985,-0.9767736196517944,0.0,0.0,0.0,1.1081359872489198,0.5341602092987319,1.0232174267909022,20.906351958,0.1247658811756732,-0.2239133666782186,-0.022623777027841,6.402131928444864,2.8581640426092667,-1.25875942259891,0.0561326749644785,-0.1188144961717077,-0.4150755193744917,0.0927878583528283,0.01456794442577,-0.0168592930322706,71.1145393989463,-8.701004003834122,-18.04209283406321,-0.0002731242508626
5684,1724811861295920251,-0.5620713233947754,0.1217637211084365,0.1771213710308075,-0.0151371592655777,0.064687855541706,0.2046569138765335,-0.9765766859054564,0.0,0.0,0.0,0.2564290779142659,-0.1174285310917995,0.974297541816901,20.917153982,0.0159339756645153,-0.1579530437550021,-0.1276339179485622,40.47150153515405,31.18597514363403,-15.4742208214557,0.0564818009691519,-0.1204404261669619,-0.4165586971044369,0.1003902121298097,0.0191217694555483,0.0037793731288164,-121.58432362988862,-48.89765377409083,-63.335225753646945,-0.0003080905394384
5686,1724811861305468545,-0.5610511302947998,0.1219760850071907,0.1773267537355423,-0.0194454696029424,0.0638349577784538,0.2058836668729782,-0.9762985706329346,0.0,0.0,0.0,-1.2652003243364502,-0.4879038959333208,-0.1267768484964519,20.926702276,0.8289853373996838,0.3514942737751017,-0.3239410925303273,21.070566695761308,15.301048041277918,-2.0556576727890725,0.0647411094976232,-0.1169030373995326,-0.419463185741762,0.0990629136661738,0.0134513256886643,0.0051795379814354,-117.30925387491509,0.7298122397003493,-50.22232167361446,6.574269174792341e-05
5688,1724811861314702619,-0.56020587682724,0.1220218017697334,0.1772287487983703,-0.0216774530708789,0.0635583475232124,0.2065372765064239,-0.976131558418274,0.0,0.0,0.0,-1.9729089020445312,-0.1281543867403885,-0.0092311700706766,20.93593635,0.4512974930389907,0.1529578761579439,-0.177681189212925,-38.39658962727659,0.0953634406906509,3.523177095548247,0.06908840545402,-0.1153840703452656,-0.4210162692602339,0.0773228523519407,0.0098922814413633,0.0015672027172239,35.02526912683466,-3.4584540191778927,-53.48095546629784,-0.000210305494174
5690,1724811861325756002,-0.559539258480072,0.1221965253353118,0.1774072349071502,-0.0226091332733631,0.0612181015312671,0.2080901712179184,-0.9759302139282228,0.0,0.0,0.0,-0.1082898794008313,-0.7276119286394902,-1.476416864763274,20.946989733,0.0600286135857111,0.4397485789631476,-0.3016924871164007,-15.179311051471686,-4.636348326036183,1.8251506433012583,0.0700906265584643,-0.1103032500481619,-0.4240241069526575,0.0605621740599389,0.0118797258552483,0.0065189986385352,146.8464546722236,-89.72866338349657,-124.16471776839724,8.778064718576679e-05
5692,1724811861336700159,-0.55887371301651,0.1222839802503585,0.1773742437362671,-0.0233251843601465,0.0610216669738292,0.2087946832180023,-0.9757751226425172,0.0,0.0,0.0,1.2621005170120845,-2.094248450397621,-2.7424127539080976,20.95793389,0.1129949765915399,0.0576173775897508,-0.1403678734460023,-2.26572519959167,-59.53453958133926,15.92406041587743,0.0714914718135373,-0.109565584132339,-0.4255208546792695,0.0746346699599769,-0.0059161436079078,-0.0304920230556469,27.377056891341446,30.822619644314855,161.22802954666963,-0.0001202023799791
5694,1724811861346459272,-0.558025062084198,0.1221052184700965,0.1768375486135482,-0.0227042939513921,0.0645658299326896,0.208747997879982,-0.975571632385254,0.0,0.0,0.0,0.6778385557937536,-0.4385181186164142,1.2407713273378422,20.967693003,0.02904940898496,-0.7376229853369873,0.0253348290561237,-9.299971943255086,-30.035418727413468,13.917508104011327,0.0718055059260007,-0.1167633707555711,-0.4257912764423761,0.0867450128061939,-0.0304284970790398,-0.0516912870387074,-68.80642546097695,233.00997956836144,366.4385669524236,-0.0006435217618108
5696,1724811861355704237,-0.5572249889373779,0.1217178404331207,0.1763885915279388,-0.0218370649963617,0.0670646280050277,0.2082517743110656,-0.9755289554595948,0.0,0.0,0.0,-0.0365532773317047,2.270464746345288,4.263176420204287,20.976937968,-0.0630433617822135,-0.564691783656912,0.1271870077499481,-2.1851192997543305,54.20764210061726,-17.12673422809842,0.0711266855478689,-0.1220545799991308,-0.4249855165997922,0.0880801353791227,-0.0163255037883374,-0.0103294577231327,-74.33531082683896,97.53888889148668,9.379850607722204,-0.0005507704878905
5698,1724811861365017000,-0.5563902854919434,0.1218057349324226,0.1766510605812072,-0.0221470277756452,0.0657833516597747,0.2095729410648346,-0.9753262400627136,0.0,0.0,0.0,-0.7012560406027433,1.344978059666095,1.371624383953569,20.986250731,-0.0104431420734397,0.2731792995356009,-0.2963286229212551,12.015090834211698,43.8974974462496,-21.863599400967892,0.071341301136927,-0.1193205567399686,-0.427575915354337,0.0860420383153197,0.0118075577073737,0.0273948918496564,-51.13800611201179,-145.74044815757804,-298.0566631610637,0.0001437083450176
5700,1724811861375083167,-0.55556321144104,0.1219503730535507,0.1769182384014129,-0.0233408920466899,0.0648945942521095,0.21076300740242,-0.9751015305519104,0.0,0.0,0.0,-0.995825674294712,-0.6265138265242293,-1.4933448921475732,20.996316898,0.1797780112725973,0.2137638865433194,-0.2594861952312142,-8.1785273897907,-33.09355671025247,9.867351853336803,0.0734417648384578,-0.1169854968674296,-0.4300427168264609,0.0737342472959134,0.0071112681567884,0.0120508196273494,9.665559304366738,-111.52474019202675,-133.87584339480398,0.0001491991097248
5702,1724811861384762925,-0.5549279451370239,0.1219516545534133,0.1768999993801117,-0.0222927350550889,0.0664254501461982,0.2113519459962844,-0.9748954176902772,0.0,0.0,0.0,-0.5399081489157389,-0.9211008648864344,-1.3861350245589263,21.005996656,-0.1514128282269726,-0.3596731670000873,-0.1061936932751681,13.194567469831808,-5.265019146326315,8.832595857862644,0.072128555413938,-0.1203830643187099,-0.431330112828398,0.0662065802985232,-0.000442281074938,-0.0021160639998658,40.665510009497325,-7.909525321041418,32.07546067062132,-0.0001063428984186
5704,1724811861394987635,-0.5542447566986084,0.1219409257173538,0.1768758594989776,-0.0249765813350677,0.0661056637763977,0.2116197645664215,-0.9747940897941588,0.0,0.0,0.0,-0.193610823532901,-0.758708937127465,-0.8313678944022972,21.016221366,0.4955350079247588,0.1694509166612742,-0.0915264207814958,-10.393241409673015,-7.633002965147938,3.5066884682625776,0.0772917934220502,-0.1185854838844049,-0.4321398705972776,0.0632540960032912,-0.0113804834463859,-0.015452702103925,45.53324205404676,42.50619274349741,102.17179861493878,-0.0001189470860727
5706,1724811861405515050,-0.5536174774169922,0.1217091381549835,0.1765712797641754,-0.0222540814429521,0.0684871226549148,0.211999699473381,-0.9746130108833312,0.0,0.0,0.0,0.4121697644827793,-0.022650075737859,0.7635841030471379,21.026748781,-0.4123531093198947,-0.5545571524956866,-0.032149357541814,-17.06221339989048,-7.469145815876781,0.554252943261452,0.0730454793367227,-0.1243816301640361,-0.432921505690902,0.0622472010660537,-0.0159959898057886,-0.0190781254065814,31.62429186839306,57.633301857351555,132.2667568576055,-0.0003877556831847
5708,1724811861415052348,-0.553000807762146,0.1216086074709892,0.176474466919899,-0.0222852658480405,0.0689491331577301,0.212331548333168,-0.974507451057434,0.0,0.0,0.0,0.4898333046044181,0.4208698762303672,1.8588306258187264,21.036286079,0.0226396570780692,-0.0961037063112774,-0.0708076812910545,43.34349402079731,31.633547923637064,-1.0941107592839368,0.0733543094570929,-0.1252463505163745,-0.433667829301999,0.0705658605307064,-0.0126195690345447,-0.0022224574061695,-60.12420694063523,30.403108110496575,28.521975130848155,-0.0001830791065997
5710,1724811861425346932,-0.5522087216377258,0.1214555948972702,0.1765396893024444,-0.0245793741196393,0.0691928714513778,0.2124148607254028,-0.9744167923927308,0.0,0.0,0.0,-0.8877071697578378,0.5549470844547479,1.193306112887777,21.046580663,0.4436614376456955,0.0469138535235371,-0.0491876593886419,-2.8544270507405445,15.298034170734253,-10.19839008670017,0.0779804661540131,-0.1247264802343132,-0.4341398704813783,0.0713593659183153,-0.0075440837996012,0.0179300514744689,968.0097018855312,-275.829718379231,-215.22894811864688,-4.7729476340789326e-05
5712,1724811861435134284,-0.5515622496604919,0.1214498654007911,0.1768230646848678,-0.0249275956302881,0.0681699961423873,0.2136426568031311,-0.9742116332054138,0.0,0.0,0.0,18.83912052875956,-4.832512213986858,-2.31438775755286,21.056368015,0.0086084406475362,0.2097197053662876,-0.2634420540087259,-30.281452660369354,11.12648915807688,-13.53724097139118,0.0783641633791429,-0.1224788000060325,-0.4365686615737062,0.0536936115481498,-0.0015364275537408,0.0224976706092125,-2079.388710928422,499.58964655836905,281.7696385503044,0.0001877481293038
5714,1724811861460723731,-0.5510150790214539,0.1213469207286834,0.1769668608903885,-0.0275810491293668,0.0670803114771843,0.214078202843666,-0.9741201996803284,0.0,0.0,0.0,-308.34143512537776,78.20437043515949,47.725659393628575,21.081957462,0.1817006976397691,0.1259413065068571,-0.0509504761240641,18106.149494741436,-29943.26315161248,5368.386884186057,0.0831400204352207,-0.1191613738047964,-0.4376159209550802,1.9169620261350249,-0.489582826441449,-0.2227931160406342,-32160.50592631544,8368.61422088882,4011.0259870153095,6.688786295989897e-05
5716,1724811861461012536,-0.5504552721977234,0.1212039440870285,0.1769017726182937,-0.0280692875385284,0.0684678256511688,0.2138459384441375,-0.9740607738494872,0.0,0.0,0.0,-317.6927016610044,80.63796850196037,48.89076371748529,21.082246267,5.469841813233621,-8.619411647689754,1.5169375891471903,17095.326071796102,-28262.38892329389,5062.443343861537,0.0846921683140931,-0.1216786743283783,-0.4373863855183228,1.8266691090911849,-0.4666799421433112,-0.2088229019177752,-29922.2056403052,7795.756480736175,3653.8621125150394,-0.0001421335207095
5718,1724811861465349322,-0.5498067140579224,0.1210284233093261,0.1770738065242767,-0.0292683616280555,0.0680729076266288,0.2145848721265792,-0.9738905429840088,0.0,0.0,0.0,-287.4550868963402,73.37477438372048,39.96659366867627,21.086583053,0.4785592355976586,0.2807123069052368,-0.3916967805248466,-843.3691626788997,1491.6569702572829,-315.4402345764485,0.0869606645544415,-0.1203201276727077,-0.4389860979961095,0.1200669896029271,-0.0299845046535005,0.0369578173806122,11845.185511215614,-2949.659565358716,-2493.574932717519,8.088347159104488e-05
5720,1724811861476867903,-0.5493256449699402,0.1210039108991622,0.1774165779352188,-0.0307081285864114,0.0664995983242988,0.2156485170125961,-0.9737199544906616,0.0,0.0,0.0,-1.9381644110207723,0.3960048798515359,-2.088237257682696,21.098101634,0.1731384265174793,0.3122675721013135,-0.2112303094260758,-28.257809272850633,-79.34317354228162,32.41168476755857,0.0892056936959456,-0.1165231529793778,-0.4411081881185387,0.0538253271058053,-0.0206536425458985,-0.0138065606158583,10523.050199091367,-2613.6393185514607,-1269.5490438259224,0.0002711844080463
5722,1724811861485154168,-0.5488077402114868,0.1207223385572433,0.1770424842834472,-0.0296310167759656,0.0698219090700149,0.2151390165090561,-0.9736334681510924,0.0,0.0,0.0,0.2282744872908106,0.9261333961180866,1.5880113067777202,21.106387899,-0.0713992287748379,-0.8344853399125509,0.1571539419939605,6.69635206039851,-23.21009806322314,14.173578424413035,0.0885316380233567,-0.1235262219233827,-0.4404198551056523,0.0604925936052183,-0.0198404833918255,-0.0172870874047319,126.5082998607738,7.249284664942337,190.3705630615658,-0.0004390202843234
5724,1724811861495371599,-0.5482149720191956,0.1206977665424346,0.1772168427705764,-0.0323305279016494,0.0684199631214141,0.2153146564960479,-0.9736082553863524,0.0,0.0,0.0,-0.1792135457213315,0.2855116748699706,0.3420544209200493,21.11660533,0.4531872381004416,0.3795057426791084,-0.0795619414241307,15.834115754157144,58.50930483189022,-17.73284681657324,0.0932179677522369,-0.1195908693489586,-0.4408809189935064,0.0555638296799294,5.391749945360402e-05,0.024237024291315,-21.426048697696956,-98.34840466446867,-219.3587501308274,8.595807369677593e-05
5726,1724811861505996302,-0.5476517081260681,0.120725505053997,0.1775535941123962,-0.0339740775525569,0.0669141188263893,0.2162486463785171,-0.973450005054474,0.0,0.0,0.0,-0.2029575798292264,-1.1532740562526382,-3.0648229939000817,21.127230033,0.2291181079785252,0.334872211986655,-0.2079211481708514,-37.11271328002282,-69.80986457259039,8.184584219168478,0.095872663183616,-0.1158403046642543,-0.4427573138644494,0.0570092713811902,-0.0152702252791936,-0.0132500924779144,-22.28215231571092,5.788684189960985,3.5794785227429315,0.0002502706809748
5728,1724811861514948572,-0.5471112132072449,0.1204539239406585,0.1770959496498108,-0.032232578843832,0.0701200142502784,0.2163542956113815,-0.9732601046562196,0.0,0.0,0.0,-0.5536525324096233,-0.0363099508930604,-0.5870378184467097,21.136182303,-0.2239899188536445,-0.7849790071269142,0.0182162157649684,-22.220599721922877,-58.06082168110629,13.931097345309729,0.0939278205475312,-0.1228515004510628,-0.4432644926652457,0.0526352090253112,-0.0234144011446861,-0.0371911807978309,39.119239796676865,103.1301327566276,218.7948247026673,-0.0005247046587008
5730,1724811861527012039,-0.5466020703315735,0.1202839910984039,0.1768737286329269,-0.0315361432731151,0.0724036693572998,0.216431125998497,-0.9730985164642334,0.0,0.0,0.0,1.1909861561082558,0.8560407003285037,1.1098287118950465,21.14824577,-0.0304909538931467,-0.395752604725395,0.0021065113986121,7.669067844809668,26.535705269387066,-6.840330777335189,0.0936130640356711,-0.1276070346604393,-0.4436894555952667,0.0448987218456942,-0.0096541435863093,-0.0103425005142741,66.34206204215866,17.758680197175238,3.8384370811301096,-0.0002930396775825
5732,1724811861538632235,-0.5460501909255981,0.1202214211225509,0.1768439710140228,-0.0312057491391897,0.0731907710433006,0.2172593623399734,-0.9728657603263856,0.0,0.0,0.0,1.085693649402665,0.4331999288204344,-0.3770586597154575,21.159865966,-0.0350733940635549,-0.1515304622670481,-0.1389971957442272,80.79490507458085,28.491521531803983,-4.003911003956256,0.0934343862767806,-0.1292093340167683,-0.4454767812894564,0.0792475559380179,-0.0028925346773576,-0.009935350661113,-88.25737725686358,-43.24242657947493,-87.19045962994615,-0.0001136477390328
5734,1724811861545326535,-0.5453972220420837,0.1202116683125495,0.1767490208148956,-0.0339546352624893,0.0735504403710365,0.2174884974956512,-0.9726954102516174,0.0,0.0,0.0,0.189449595446479,0.1172895259895948,-0.8035196566529749,21.166560266,0.8189008679544538,0.068025898090254,-0.1344120341558866,63.50096783937542,21.27200608907155,2.5823720593360573,0.0990268236495666,-0.1286696120876354,-0.4463358266778799,0.0793027739053489,-0.0005659701278535,-0.0140487586898139,-90.2872142437047,-37.39419019395021,-33.15277321793297,-0.0001964454017531
5736,1724811861559465880,-0.5448206067085266,0.1202302724123001,0.1765544116497039,-0.0326623208820819,0.0730691254138946,0.2178680896759033,-0.9726908802986144,0.0,0.0,0.0,0.2147686007299167,-0.1188656169266428,-0.3598522905612,21.180699611,-0.1965400932493501,0.024596223197518,-0.0412332206633804,-9.67319694458386,-56.42836144387592,1.1741643243935158,0.0963184263970891,-0.12826661370602,-0.4468865905156559,0.0873929241786157,-0.0057839820659921,-0.0310560216489079,-179.0103868955445,42.44399743500638,151.49249792155976,-0.0002828764628045
5738,1724811861564890909,-0.5442494750022888,0.1201841160655021,0.176349937915802,-0.0321237035095691,0.0740301012992858,0.2180481851100921,-0.9725958108901978,0.0,0.0,0.0,-1.132703986979779,0.2345062172037495,0.7120158812370303,21.18612464,-0.1196662558605242,-0.392591077876443,-0.0461364441541032,18.170168584645307,-42.90541822469669,0.8023379378797633,0.095728188365,-0.1303626281145198,-0.4473437585571276,0.0878141156853544,-0.0059080912684752,-0.0312535739405603,-109.31482560159084,67.04580449316967,155.63334871399823,-0.0002906620000842
5740,1724811861575510246,-0.54367995262146,0.1201754212379455,0.1761518567800521,-0.0327684953808784,0.0749418511986732,0.218021810054779,-0.9725103974342346,0.0,0.0,0.0,0.5972138709099606,0.9861600220563604,1.4928266674077435,21.196743977,0.1564360615580401,-0.1415614435724685,-0.002150266980772,13.674214400131978,17.377244314762542,0.3691087616784636,0.0974115495986603,-0.1318567146794697,-0.4475128969743125,0.0506261058891084,0.0019324487458516,-0.0081347719755022,63.417598181828474,36.39342669505885,32.01920608623895,-0.0002863139175221
5742,1724811861591582480,-0.5429393649101257,0.1202734038233757,0.1762769669294357,-0.0333928912878036,0.0751664713025093,0.2186672538518905,-0.9723268747329712,0.0,0.0,0.0,-0.8035093840411989,0.7345867358841511,0.9977581406195368,21.212816211,0.0763859713592525,-0.0145863000362807,-0.0879959410094266,112.21617176925324,33.85933615240561,-62.704335289921374,0.0988290245148707,-0.1319514687276376,-0.448955871125453,0.1599364782537407,0.0238108201221258,-0.0007854721661146,-828.6711722113963,-146.7428857319202,-77.33744236081483,1.2064120761829788e-06
5744,1724811861594931953,-0.5423241853713989,0.120365522801876,0.1762683540582656,-0.0343479104340076,0.0751526653766632,0.2191438525915146,-0.972187340259552,0.0,0.0,0.0,-4.096727038029694,0.1515699413990814,0.7062356368960127,21.216165684,0.5340583977622951,0.1169449420341595,-0.338063822068712,94.6455803135521,31.70248670092129,-54.217645531745305,0.1007619156188092,-0.1314488927537957,-0.4500530279591322,0.1519368024406162,0.0258338642945066,0.0029337732048819,-753.1984504859681,-150.1059923699958,-102.59680617872536,-0.0001107673340542
5746,1724811861605392560,-0.5417713522911072,0.1205812469124794,0.1764788925647735,-0.0354458205401897,0.074260376393795,0.2202547341585159,-0.971965491771698,0.0,0.0,0.0,-4.461540201977378,-0.6360003784695756,-0.875368640254749,21.226626291,0.1521840906470185,0.2013732736020754,-0.237416597559741,-31.780853892852747,-26.63213163534865,18.007452893737394,0.1026495498345094,-0.1291011520142309,-0.4523291838138073,0.0532710242077776,0.0126392568953956,-0.0028821708608433,220.0598188120221,26.57094191970367,-1.4531164822349432,0.0001114425317627
5748,1724811861615124590,-0.5412490963935852,0.1206319704651832,0.1762425154447555,-0.0345013476908206,0.0758995935320854,0.2202947288751602,-0.9718637466430664,0.0,0.0,0.0,-0.0116815311666371,0.5448503706583782,0.4662933429148874,21.236358321,-0.1143262537458591,-0.3720211272249484,0.0137601250937341,-7.066934001608642,-17.79897650418374,10.430102832586446,0.1015679634488514,-0.1327164573495887,-0.4525670148103675,0.0548558625145396,0.0121118260047916,-0.0142930444599045,224.26639064652787,65.27600712692305,101.95926973437548,-0.000319782530901
5750,1724811861624743786,-0.5407100915908813,0.1208140775561332,0.1762000620365142,-0.0344025343656539,0.0766175761818885,0.2204661518335342,-0.9717720150947572,0.0,0.0,0.0,-0.0694410211427576,0.6397481150971227,1.1057230113369003,21.245977517,0.0108717264811849,-0.1522842601521042,-0.0321308506235993,7.469088246487844,30.67523326613184,-10.9696853251737,0.1017337608745205,-0.1341423792438131,-0.453027212429059,0.0530841295911841,0.0230483777776795,0.0057734960878725,22.83878124459682,-35.23987450629886,-60.16695518197819,-0.0001363178100648
5752,1724811861635356257,-0.5401812791824341,0.1211068779230117,0.1763806045055389,-0.0349322669208049,0.075240358710289,0.2215474098920822,-0.9716148972511292,0.0,0.0,0.0,0.5106422474923278,-0.2623412669422703,-1.015552711515742,21.256589988,0.0251989035768771,0.26495120498586,-0.2211251431560978,11.75256834618445,10.36241436536975,3.9437637064276343,0.1022744436624742,-0.1311062720497081,-0.455093606757868,0.0536906729222472,0.0240162832997459,0.0060294687327751,46.30996243137785,-50.87052068442041,-99.68785974909316,8.24411447885894e-05
5754,1724811861645184762,-0.5396184325218201,0.1213103905320167,0.1763398945331573,-0.0361628383398056,0.075006254017353,0.2213677912950515,-0.9716288447380066,0.0,0.0,0.0,0.8897893201128699,-0.4516353067133555,-1.0832939761916327,21.266418493,0.2353976692907787,0.1032534279488343,0.0156369034121265,-0.6263761620393044,-32.79533305849566,15.581425646717893,0.1045541960764765,-0.1301127138731733,-0.45483370536752,0.062837379498962,0.018219727031715,-0.0134154672491337,-1.5781985817130924,15.743772160208646,103.16891598037525,-0.0001387388314096
5756,1724811861654992208,-0.5389476418495178,0.1214647442102432,0.1761175692081451,-0.0357866287231445,0.0768388211727142,0.2210235148668289,-0.9715780019760132,0.0,0.0,0.0,0.4813422315754905,0.0453299750128921,1.0056364741706174,21.276225939,0.0138255631846602,-0.3783287335511534,0.0851889191448717,-0.3617506221524476,-16.666265286520375,2.309685146089002,0.1046309089881104,-0.1338901169727789,-0.4543863121991175,0.0711642507185175,0.0151421828279705,-0.0152796993378672,-40.9928505004126,58.48123630129797,167.49122420110237,-0.0003353884461554
5758,1724811861664898338,-0.5382149815559387,0.1216087788343429,0.1760401427745819,-0.0366437658667564,0.0781573504209518,0.2206836640834808,-0.971518099308014,0.0,0.0,0.0,0.0818033309318684,0.7027879893029924,2.209530959850925,21.286132069,0.2326759310479987,-0.2188639327234136,0.0602204808119848,-11.17702739180848,19.82782862112768,-16.229691273814893,0.1068863341194885,-0.1361090630106226,-0.4540185881284186,0.0722534201401998,0.0191845796562715,0.0066464079588399,-32.59169116746534,13.389854447321076,-19.078410865263763,-0.0002046724764314
5760,1724811861674967622,-0.5375049114227295,0.1218494921922683,0.1762550920248031,-0.0356826521456241,0.0777746811509132,0.2219576835632324,-0.9712943434715272,0.0,0.0,0.0,-0.1671436068235916,0.2953680432385451,0.5782777506167973,21.296201353,-0.220385672438296,0.0189675828915681,-0.2435161392894251,6.249541369650963,35.437157116632875,-14.97958473452758,0.1049978281091447,-0.1356598602988691,-0.456459190783652,0.0727890463208247,0.0292776245783938,0.0288553274489675,-11.25325133432255,-75.76250073476092,-237.3066691424693,8.489877211515493e-05
5762,1724811861684932688,-0.5367571711540222,0.1221942231059074,0.176616683602333,-0.0379975885152816,0.0757502913475036,0.2229112386703491,-0.9711480736732484,0.0,0.0,0.0,-0.1464413790927441,-0.8077445790684592,-2.529139118259441,21.306166419,0.3472556187518844,0.4886459993595002,-0.2430345012324263,24.32784574048335,12.475073013049286,6.068604553442965,0.1087111554462079,-0.1305599224149409,-0.4583646993606353,0.0689504952537838,0.0252486863275391,0.0185692662128236,12.10176487216684,-56.26454953423567,-169.8289993683383,0.0002199161698873
5764,1724811861696284035,-0.5360531806945801,0.1223599910736084,0.176598384976387,-0.0393795631825923,0.0749804377555847,0.2233158946037292,-0.9710598587989808,0.0,0.0,0.0,0.1205487572568744,-0.7425727344651728,-2.6207726201230477,21.317517766,0.2014196492977817,0.1821178166132717,-0.0963026644821973,-35.524994061101324,-63.26554100281568,32.41446661478686,0.1111095043170268,-0.1283852218627412,-0.4592318246930393,0.0703754616463001,0.0108630461191605,-0.0294958538197107,-11.023515397020631,28.32847051135262,195.88111044825732,-0.0001400603663152
5766,1724811861705143562,-0.5353718996047974,0.1224303692579269,0.1761442571878433,-0.0374868772923946,0.0774758234620094,0.2221133857965469,-0.9712146520614624,0.0,0.0,0.0,-0.2159765342369479,-0.335412475549303,0.524920316699779,21.326377293,-0.2701234628366665,-0.6291250077732291,0.325628545196339,-11.66751272534721,-25.787444135847295,17.869686838408903,0.1084182337254311,-0.1342414613257074,-0.4569552270485323,0.0714090034174432,0.007912584913555,-0.0415575254902496,4.81794805271919,41.028164647635386,293.2376263815953,-0.0005639741124401
5768,1724811861714895789,-0.5347344279289246,0.1225071996450424,0.1758431196212768,-0.0375242717564106,0.0784023776650428,0.221266895532608,-0.9713321328163148,0.0,0.0,0.0,0.2904889110326922,0.0117894522272372,2.7209491674707817,21.33612952,0.0622004976151514,-0.1744715359939645,0.1804827250662568,14.964427723627342,28.669187844996976,-21.964122007062148,0.1088119428085428,-0.1361237379187616,-0.4553755797508772,0.0657319518945875,0.0046159579301718,-0.0161885894965614,35.55872048779358,44.380190293725875,86.55439078744514,-0.0004072010911164
5770,1724811861725947904,-0.5340033769607544,0.122517354786396,0.1758482009172439,-0.0374255031347274,0.078799232840538,0.2220992743968963,-0.9711138010025024,0.0,0.0,0.0,0.4783918530136146,0.6122295597559173,1.9412067574545917,21.347181635,-0.0117975542347809,-0.0824610591474233,-0.1509558204862879,-12.544079140657477,11.145123544521834,-24.332791336312916,0.1089229263215466,-0.1368484290655271,-0.4571495753070717,0.0798722376007603,0.0091279432346169,0.0153816904222647,-84.10072185844768,-8.839770310056675,-152.79518981360778,-0.0001194164607992
5772,1724811861734928606,-0.5331858992576599,0.1226592361927032,0.1760952323675155,-0.03685088083148,0.0784106701612472,0.2235828787088394,-0.9708267450332642,0.0,0.0,0.0,-1.014687224162623,0.0718737437553682,-0.0311767000253112,21.356162337,-0.167133216472134,0.038208807245723,-0.3282072831581225,-24.7513128321448,13.343253953075276,-7.738177634253557,0.1078193890094098,-0.136188497408866,-0.460069875326645,0.0783230223712401,0.0161147658168916,0.0261357780632591,-13.488684039202624,-66.77996989737153,-168.56954254354315,0.0001002170190235
5774,1724811861745402759,-0.5325207114219666,0.1228318884968757,0.1763522326946258,-0.0345347560942173,0.0768546462059021,0.2250956743955612,-0.9706867933273317,0.0,0.0,0.0,0.7102069318214044,-0.7083547098019943,-1.1731129198830863,21.36663649,-0.5174486442997395,0.1768280976856701,-0.2626819138992062,-4.740828372507716,1.7506056177519826,12.497608131087762,0.1027450709203599,-0.134057504911412,-0.4626348035019287,0.0574069691673297,0.0082417960107048,0.0108001773747528,103.42534106008148,-31.204434065150775,-42.22891638582603,0.0001381592401555
5776,1724811861760481520,-0.5317875146865845,0.1227772533893585,0.1762169003486633,-0.0346712246537208,0.0772656723856926,0.2246394753456115,-0.970754861831665,0.0,0.0,0.0,0.9400174345920612,-0.2392336516515193,-0.3599052425327266,21.381715251,0.0341803588421038,-0.0460612245608918,0.0612589807360508,-62.81443255966568,6.262219325994119,-29.214756627148844,0.1031458141743196,-0.1348432673976949,-0.4617795390848039,0.1268813341058035,-0.001499326562115,-0.0005714571544714,-407.8261734641816,21.22703207676112,17.416956164242897,-0.0002530193678507
5778,1724811861764958698,-0.5311154127120972,0.1227733641862869,0.1762255132198333,-0.0338758826255798,0.077042706310749,0.2250017821788787,-0.9707167744636536,0.0,0.0,0.0,-1.4483016759428806,-0.1573363207694873,-0.3304663507943168,21.386192429,-0.3791863839772712,0.0099507849116159,-0.1369366670388587,-56.63275940466264,7.928335237318843,-24.557518707097213,0.1015302231061216,-0.1347363213482611,-0.462390428138674,0.1262146402093087,-0.0020296573013109,-0.0016587243784744,-376.745261490301,13.75883858248128,31.394495250272332,-0.0001021624031556
5780,1724811861776117864,-0.5303717851638794,0.1227184236049652,0.1761073619127273,-0.0336810164153575,0.0772027820348739,0.224271759390831,-0.9708797931671144,0.0,0.0,0.0,-1.2941181489017302,-0.1298881634788144,0.7101835975671678,21.397351595,-0.0183565773699898,-0.0290243673771212,0.1372433372801498,20.603611049581147,1.638408165665898,7.671019907243927,0.1011229197675617,-0.1352134748870961,-0.46088586818787,0.0739118654414845,-0.0048669168091493,-0.007783486099985,112.37387954223549,-3.989111449835786,47.90760254486028,-0.0002374951263269
5782,1724811861785426775,-0.52962726354599,0.1226735562086105,0.176056683063507,-0.0340525023639202,0.0771830379962921,0.2238881587982177,-0.9709568619728088,0.0,0.0,0.0,0.5172995983918058,-0.2171002693854426,0.8040074142939972,21.406660506,0.0823424883673345,0.0260724115704106,0.0774246681827544,23.442053213702227,8.573679171206994,-3.574597449487434,0.1017885955588436,-0.1350449951522534,-0.4601373652734447,0.0882120877475856,-0.0051102809793297,0.0086045357365591,10.577897094394691,-4.531567547393699,-60.34048498988302,-0.0001714845900186
5784,1724811861795005255,-0.5287011861801147,0.1226217448711395,0.1762775629758834,-0.0361757837235927,0.0770321488380432,0.2233747839927673,-0.9710103273391724,0.0,0.0,0.0,-1.1949734367644085,-0.2128320268884689,-0.4680062251815969,21.416238986,0.4313075786244413,0.134362181474834,0.0712880526497486,7.119592266806848,-1.7636328521699058,4.8660820386959704,0.105809980526205,-0.1338356946971065,-0.4593174890852211,0.0831250309793105,-0.0090718173818205,0.0068789867708218,-60.64935178770125,-10.491679625143966,-123.76465726195548,6.603116768320511e-05
5786,1724811861806517824,-0.527931809425354,0.1224666237831115,0.17613285779953,-0.0366014465689659,0.0775861740112304,0.2222032696008682,-0.9712191224098206,0.0,0.0,0.0,-0.258849237897246,-0.4849595294180094,-1.7678439157685966,21.427751555,0.107668274195538,-0.0667822159245945,0.2035070883220371,-21.8995227987797,3.099374073822055,-0.9467364866061978,0.1067456909841607,-0.1348487437705076,-0.4570490090226964,0.0601815672983434,-0.0087441738230351,-0.0024921089111895,79.95645392099894,-28.90309246051036,-46.85915931290231,-0.0002653599580355
5788,1724811861819626699,-0.527242124080658,0.1224225983023643,0.1762506067752838,-0.0364558733999729,0.075672946870327,0.2221442908048629,-0.9713889956474304,0.0,0.0,0.0,0.769037939117311,-0.9424446308521648,-1.396265769519908,21.44086043,-0.0866817997324214,0.2809019804470076,0.0055375167679057,8.399998475962192,-58.50135849262057,37.059971186535925,0.1055475180814252,-0.1311948398150127,-0.456582546557242,0.0826717744070677,-0.0227650097115432,-0.0399043007907415,-76.25398667131586,49.90084862416501,242.26923692726967,5.1600249148866395e-06
5790,1724811861826078996,-0.5266132354736328,0.1222140789031982,0.1758378744125366,-0.0362222827970981,0.0768995136022567,0.2208911031484604,-0.9715871810913086,0.0,0.0,0.0,-0.214173694815857,-0.3511562621450064,0.8463220279251281,21.447312727,0.0412798217936659,-0.3665922128274401,0.4103191513241002,5.3612488747816975,-56.220185918513856,24.905667063758592,0.1054961516350973,-0.1338259020487345,-0.4541778358075058,0.0846275231750013,-0.0284422139129683,-0.0442839720293832,-79.27040842553194,100.9778429954531,279.87872737483775,-0.0005032129983535
5792,1724811861835805064,-0.5259783864021301,0.1219942569732666,0.1756957322359085,-0.0353384688496589,0.0780478343367576,0.2205193936824798,-0.9716126322746276,0.0,0.0,0.0,0.0867125245890072,0.7678624602090764,2.5761116794445047,21.457038795,-0.1187296018933816,-0.2663972726157059,0.0979490896540443,-10.905263774089056,1.779232749974362,-13.711809486701233,0.1042494264511161,-0.1365023993635294,-0.4534954413868069,0.0749606331861016,-0.0241061219351292,-0.0136932805663416,22.3493463634247,75.63990899112436,38.67767947053068,-0.0002387054920069
5794,1724811861845009777,-0.5252040028572083,0.121759258210659,0.1755777150392532,-0.0341981351375579,0.0793458446860313,0.2200425416231155,-0.971656322479248,0.0,0.0,0.0,0.217630368565711,1.120761815590498,1.7197485599538014,21.466243508,-0.1707935617053815,-0.3242616697483577,0.1320671914446736,-0.9810103661514368,22.77213681782944,-4.730117335921222,0.1025521108562707,-0.1395966444183278,-0.4525856346418415,0.0851724772495501,-0.0142327730207609,0.0050613513515394,-20.832826994387343,-21.473744926308832,-146.04777379468942,-0.0002399032385339
5796,1724811861855018122,-0.5243402123451233,0.1217397525906562,0.1758229732513427,-0.0338122062385082,0.0781326368451118,0.2200906872749328,-0.9717572331428528,0.0,0.0,0.0,-0.3723532132580125,0.2549547032757082,-0.3188372113371358,21.476251853,-0.1297354768534341,0.219868648335485,-0.0070828851926178,-3.8078129514623313,21.717552498570253,-1.3103676073375023,0.1012323028676338,-0.1374003253458405,-0.452430844691722,0.0776460755068377,-0.00249214037962,0.0188153383021623,-13.007740004087992,-84.59059444299983,-158.6992158710718,9.828944819145576e-05
5798,1724811861866382349,-0.5235695838928223,0.1217044219374656,0.1759633719921112,-0.0322876051068306,0.077565036714077,0.2194278389215469,-0.9720044732093812,0.0,0.0,0.0,0.0726427142885759,-0.6816034930486391,-1.5417972442220165,21.48761608,-0.2750799192490576,0.045361449667638,0.1405238054303794,-5.9769711789716204,-15.325439407479678,8.585254033795023,0.0978797319098305,-0.1370461155484872,-0.4507750463417246,0.0783136170959934,-0.0114421358048106,-0.0066552786332003,3.046835145021376,0.6974137176592112,58.24408760724689,1.2311258263725031e-05
5800,1724811861875460892,-0.5227824449539185,0.1215401068329811,0.1757650822401046,-0.0308935921639204,0.0777262151241302,0.2187168300151825,-0.9721971154212952,0.0,0.0,0.0,-0.1615926476468336,-0.0725084089715086,0.1898793821275696,21.496694623,-0.2799326521360398,-0.0935507620577368,0.1865289687288908,-5.3186863621957805,-3.659880718823226,-2.9378675849580644,0.0951163540881907,-0.1380546217838526,-0.4491560351708402,0.0790739332209682,-0.0168616542863153,-0.0155793688778889,10.867840157665425,60.48707115623,132.89509359237283,-0.0003208297368967
5802,1724811861885273262,-0.5220874547958374,0.121387779712677,0.1756786257028579,-0.0290331747382879,0.0773548930883407,0.2185160815715789,-0.9723291397094728,0.0,0.0,0.0,0.333938331672869,0.4509674025040356,0.8803790321509574,21.506506993,-0.3828600268974043,-0.0060011599610918,0.0728009084659939,-1.3580607241805662,5.971094790644214,-9.715628482871566,0.0912614722182936,-0.138179707940393,-0.448443425221669,0.0748863555998795,-0.012011065487882,-0.0012773519840187,54.16246552395359,29.825126830567324,13.365993567417528,-0.0001951903338926
5804,1724811861895436729,-0.5212836265563965,0.1213026866316795,0.1757449507713318,-0.0275768339633941,0.0769034698605537,0.2186611741781234,-0.9723747968673706,0.0,0.0,0.0,0.9229652481735906,0.5064599333202076,0.4161320687093607,21.51667046,-0.3005342572476365,0.0236174102252992,-0.0062089266529343,25.042367424896355,-0.0296585823697196,9.468593948364074,0.0882127575260315,-0.1379350034681534,-0.4484852234861362,0.086288348758881,-0.0078841995743834,0.0015944026132963,-4.580112593955594,4.53968913275909,-49.65382222479454,-6.277167164818943e-05
5806,1724811861904953846,-0.5203982591629028,0.1212320029735565,0.1757161766290664,-0.0278976690024137,0.0770403891801834,0.2175296545028686,-0.9726085662841796,0.0,0.0,0.0,0.3220680737756565,0.5414629925072739,-0.0918610819697547,21.526187577,0.0887836125040748,-0.0029003152429329,0.2375677388717381,32.472538722530786,17.25422145903146,0.1460731084828004,0.0887451686867817,-0.1381622840783472,-0.4462139361575434,0.0932997871394469,-0.0021693120222501,0.00674518773741,-33.20922008013255,-31.52061993090084,-103.1991464065278,-0.0001703483522016
5808,1724811861915015532,-0.5194566249847412,0.1212661042809486,0.1758879572153091,-0.0299241486936807,0.075513832271099,0.2175048142671585,-0.9726736545562744,0.0,0.0,0.0,0.3062982696230847,-0.1501089201578793,-1.6601995859855416,21.536249263,0.3257899323177533,0.3838857949416923,-0.0318812787564363,-0.1606710558243449,8.59732225325482,1.3299475387385389,0.0920191845035328,-0.1342865695190339,-0.4461845479693658,0.0921295237349575,0.0026508752556644,-0.0009133589039134,-5.460942273171407,-32.68872641398617,-21.062827948864573,1.8064725780518213e-05
5810,1724811861925167937,-0.5185362100601196,0.1212854534387588,0.1756944358348846,-0.0304044298827648,0.0748274400830268,0.2161172032356262,-0.9730209112167358,0.0,0.0,0.0,0.2109704524963183,-0.1127405775304608,-0.4930571680846525,21.546401668,0.0812134111612001,0.1654474637109575,0.2695745714490119,-19.33599044735224,-33.94428494233346,7.9816891409726765,0.0924566803649691,-0.1328660650233787,-0.4432786406606834,0.0995683509010305,-0.0053182978240871,-0.0269780931976537,-63.61350417301582,49.22487547420365,167.72918391031158,-0.0003376398333647
5812,1724811861934867518,-0.5174878835678101,0.1211669221520423,0.1753593981266021,-0.0297652054578065,0.0761000290513038,0.215492695569992,-0.973080575466156,0.0,0.0,0.0,-0.908543591555989,0.7867755230254327,1.6228352191115551,21.556101249,-0.0622777646392698,-0.2789709679004875,0.1457954437431516,-6.121049605028763,2.964619768407525,-11.65857596555339,0.0916960072944553,-0.1356905556832033,-0.4421088186792735,0.0967796860358305,-0.0001824612510148,-0.0125382035451195,9.950781884904217,9.98186236885431,18.19283284450949,-0.000496293348101
5814,1724811861945604216,-0.5165830850601196,0.1213080286979675,0.1754862815141677,-0.0300059616565704,0.0743388533592224,0.2152732014656067,-0.9732578992843628,0.0,0.0,0.0,0.6882758245136031,-0.0895802696309019,-0.5581790415831965,21.566837947,-0.0249275687888287,0.3326301425308632,0.0337262214022504,-7.618503517263193,22.16182733903347,-2.6849407281791375,0.0913358095187573,-0.1321672445986823,-0.4414156487323067,0.0796440496727051,0.0113226664896171,0.0064796947416114,106.31489653280786,-81.28626384683162,-155.63428786026878,-2.108777918379711e-05
5816,1724811861958302029,-0.5156412720680237,0.1214244738221168,0.1754883974790573,-0.028294526040554,0.073401890695095,0.2146742343902588,-0.9735124707221984,0.0,0.0,0.0,1.40135860148858,-1.116689218694524,-1.821048329418914,21.57953576,-0.2883147389217975,0.0914137295796654,0.1160614889253078,-14.485164129498369,-91.74449317679284,53.50988308123059,0.0874667304115745,-0.1311426848588119,-0.4398303949177669,0.122686741374494,-0.007251964603304,-0.0355900413132559,-164.3845401526968,77.9744476519087,177.64023889857486,-0.00014669627727
5818,1724811861964856420,-0.5146729946136475,0.1213213801383972,0.1751341521739959,-0.0264567136764526,0.0756168290972709,0.2128333747386932,-0.9737988710403442,0.0,0.0,0.0,-0.4222351054342175,-0.0681385551099217,0.2807635437117488,21.586090151,-0.3620852133849634,-0.7560405054931008,0.6258864114885557,5.2391750869789675,-61.983235428033865,35.15012624609811,0.0846006987059845,-0.1364322816865579,-0.4361361268915177,0.1251444678299229,-0.0134001265517702,-0.0424777378149503,-180.88949058104384,147.79528627213762,259.0741312417857,-0.0005012083734553
5820,1724811861976251231,-0.5136944055557251,0.1212148219347,0.1748793125152588,-0.0263572484254837,0.0763887465000152,0.2118332087993621,-0.9739593863487244,0.0,0.0,0.0,-0.5552368516577646,1.3746459389525354,2.0126110851512817,21.597484962,0.0243643016269715,-0.128876741849376,0.1818489349131677,-17.978204675969067,26.407626027405534,-10.422501167818236,0.0846102856769375,-0.1380706595224106,-0.4341770740834796,0.1045405588977885,0.0030557335681935,-0.0128993375366857,-8.540813395601127,17.783741367799813,18.570857647658087,-0.0004060299091947
5822,1724811861985093243,-0.5126420259475708,0.1213269680738449,0.1748301982879638,-0.0240620877593755,0.0763576701283454,0.2107793688774109,-0.97424978017807,0.0,0.0,0.0,-0.6092704656993941,0.7851672030041386,1.2614399370494565,21.606326974,-0.490641440684386,-0.0918263814823163,0.2855498723663204,-31.277611896649628,12.991569527324328,-2.5815844244230837,0.0799303643868927,-0.1390873169865712,-0.4317037534099778,0.1082277662787447,0.0147334673066481,0.0008950147629178,74.37829360613517,-66.19805743528104,-133.72464125616114,-0.0002173836790339
5824,1724811861994909005,-0.5116972923278809,0.1214939281344413,0.1749092638492584,-0.0217501688748598,0.0752193033695221,0.2104532867670059,-0.9744631052017212,0.0,0.0,0.0,0.9978808727294356,0.1405030315119364,-0.5826022866288032,21.616142736,-0.5037947878574004,0.131601393618781,0.1042794633625589,19.345072948958457,15.886074708951693,-10.135639411304256,0.0748290666852296,-0.1378785240797458,-0.4305725002857226,0.0910641920150929,0.0166048062854509,0.0100226723129495,205.01218099291864,-41.00343782910165,-173.16797655975728,-7.083911688841483e-05
5826,1724811862008346166,-0.5105689764022827,0.1217096075415611,0.1750801354646682,-0.0228924732655286,0.0739990472793579,0.2095574885606765,-0.9747234582901,0.0,0.0,0.0,4.512001782756137,0.0433836971235301,-2.6391343059976156,21.629579897,0.1366427286455355,0.2185824211633522,0.1213426479610539,-61.537319042353985,-57.45776478757847,38.29984975688908,0.0764114219201925,-0.1350729895991008,-0.4287074822191696,0.1549928727097196,0.0175704008342982,-0.0256277295203979,92.25073877549472,3.5874554695753,-44.29645903996666,-7.708409196701847e-06
5828,1724811862014742833,-0.5093612670898438,0.1218266263604164,0.1747994422912597,-0.0207108929753303,0.0747100189328193,0.2082278579473495,-0.975002944469452,0.0,0.0,0.0,4.586651271508848,0.0992644657362034,-2.591325584558241,21.635976564,-0.5895116260175647,-0.3436311414200666,0.4790936699097414,-109.8999484931172,-85.10301193200323,54.11350255253856,0.0722437913260494,-0.1374925960843072,-0.4257875046303526,0.1831067673697259,0.0177611989904348,-0.042466804882483,109.48018951219925,70.3171208245827,74.64041941368713,-0.0004647658550505
5830,1724811862214071007,-0.5082434415817261,0.1220592930912971,0.1751196235418319,-0.0204617734998464,0.0732222944498062,0.2085586190223693,-0.9750503301620485,0.0,0.0,0.0,633.9387721533831,396.6157565740904,429.4784462421128,21.835304738,-0.0058031984040552,0.0140005493203379,-0.003259211942693,7898.288771319517,11785.809331699022,13928.343953114709,0.071148395319479,-0.1346625122712782,-0.4262397253915499,2.2872347698992144,0.4688408236955013,-0.3033898449484127,2160387.0476906793,185454.3512636494,938692.966828109,0.0001451461759492
5832,1724811862214555429,-0.5071327686309814,0.1222869604825973,0.1749722957611084,-0.0215360634028911,0.0720941126346588,0.2068651169538498,-0.9754719138145448,0.0,0.0,0.0,1683.017445613864,486.6699137321213,885.3045212939795,21.83578916,3.829596678866579,5.737178939181824,6.760337404309751,-8965.43718294317,-2270.647426698875,7971.805469472199,0.0725384440281093,-0.1321255307613193,-0.4227427364874845,2.5950625524894804,0.6614344845513074,-0.0948338804653303,2274917.040111783,-447971.9986137257,-1263421.4879577777,-0.0003145485872765
5834,1724811862214949639,-0.5060127973556519,0.1226091235876083,0.1750020533800125,-0.0204512532800436,0.0718568563461303,0.205401599407196,-0.9758219718933104,0.0,0.0,0.0,2614.871631090853,106.73004242552976,-319.9125314631542,21.83618337,-5.1206703567268175,0.3235991280540614,7.981197454417054,-25833.75310186943,5790.820758386395,-17866.538064016055,0.0701013828578102,-0.132222491213528,-0.419567683823628,3.594581011035757,0.881866361159382,0.400054175126229,-659365.5102828881,224883.1476331317,-2392595.6218783213,-0.0001403963334819
5836,1724811862215282732,-0.504603385925293,0.1229210570454597,0.1752266585826873,-0.0183886755257844,0.0700846090912818,0.2061781883239746,-0.9758281707763672,0.0,0.0,0.0,1544.352805917485,516.1937465207757,-929.7882662113112,21.836516463,-14.60649803633406,7.747411425077496,-3.87023198760456,18474.21592262667,2418.7056333639966,15632.625766331535,0.0653823786965094,-0.1295605458903394,-0.4206888075614552,4.487916413405173,0.7900764927170485,-0.1498780589215016,-1829100.4422359264,-357721.3034441625,1685396.6481402032,1.659895793521972e-05
5838,1724811862215558732,-0.5033060312271118,0.1231056377291679,0.1749968081712722,-0.0185468588024377,0.0696290433406829,0.204519122838974,-0.9762068390846252,0.0,0.0,0.0,1356.2088738859147,54.52734583215488,339.54406382149944,21.836792463,1.2300269833625246,3.871120809557971,12.15632260379938,1580.2369821088178,-583.2998859714335,18930.90552301428,0.0652780392365635,-0.1287134301331098,-0.417242367561739,4.653999713679013,1.1136163131735657,-0.2415665848554908,250742.24355758168,-1668292.140134156,1661145.8493530564,-0.0004151011123208
5840,1724811862215809666,-0.5021488070487976,0.1234865710139274,0.1750710755586624,-0.0172915309667587,0.0685301944613456,0.2036227881908416,-0.9764950275421144,0.0,0.0,0.0,1631.8558103285814,-363.0972527272738,86.11998706950413,21.837043397,-11.103551483521787,6.79585645672172,7.977995372640447,-54485.96457731475,-26964.370111369208,-16588.203813962486,0.06222082482518,-0.1271391324663896,-0.4151185339416288,5.166443999221087,0.8722978161756316,-0.0031076486163783,-1346878.318449543,1832021.8340639416,-3434724.3232617793,-9.173800582208483e-05
5842,1724811862216061054,-0.5007103085517883,0.1235432252287864,0.1749949753284454,-0.0138010559603571,0.0690605863928794,0.2033984959125518,-0.9765599966049194,0.0,0.0,0.0,677.4198657703928,977.9697320763252,-1387.9972388164165,21.837294785,-26.144320529712036,-9.70877398531422,3.823760049293507,-30621.386213659174,-1316.2558122614755,3987.4381669940863,0.0555431054697503,-0.1296321461308961,-0.4142958281854394,5.473343906009518,0.9317685808407532,-0.199091992801641,-699365.5405632281,1521860.1672961256,-1036943.7847199584,-0.0002773867704615
5844,1724811862216311500,-0.4994016289710998,0.1239528357982635,0.1749709695577621,-0.0106244627386331,0.0676662251353263,0.2024005502462387,-0.976904571056366,0.0,0.0,0.0,1275.066025042468,407.7937598618944,-443.33063069710073,21.837545231,-26.525331822134856,6.014329309946721,9.940454026377582,48289.504657061814,41007.48164504675,23387.32427352653,0.0485673878878221,-0.1282574445274618,-0.4117097748866341,5.507418170928759,1.361682097932686,-0.6985077990174773,331884.45181971556,-1302823.3868086883,7025841.506079754,-0.0001997083129111
5846,1724811862216561681,-0.4979532957077026,0.1242250651121139,0.1746456027030944,-0.0105233369395136,0.0663124322891235,0.2005043476819992,-0.9773893356323242,0.0,0.0,0.0,844.6584619457444,325.2253174140292,2127.6050599885243,21.837795412,-1.9956764579587816,10.83221207657475,15.532634764594352,11676.349792256917,544.6121442902277,-18026.931095300624,0.0475558687152471,-0.1257372313477918,-0.4076654679986742,6.111073028108649,1.136614443364806,-0.421856752427459,-4670456.948018638,489510.0885980596,1008422.1864982684,-0.0005146479113249
5848,1724811862216805616,-0.4963860213756561,0.1245138570666313,0.1747516840696334,-0.0083229411393404,0.0650560930371284,0.2004720717668533,-0.977501630783081,0.0,0.0,0.0,-996.2892035962286,639.558569257347,169.27606297056968,21.838039347,-19.69037896747411,6.514275337203945,1.5311826302964673,-29688.927464920584,9659.960025035823,-27359.170121243005,0.0426968217652151,-0.1241666472812333,-0.4072171879452586,5.944123018527534,1.5072713707883736,0.3401708955997264,-1596042.9013980888,110683.06656658404,-6558646.469059749,-9.656113664437588e-05
5850,1724811862217106219,-0.4947773218154907,0.1250867396593094,0.1748188585042953,-0.0069966600276529,0.0618044808506965,0.1999194175004959,-0.9778361916542052,0.0,0.0,0.0,728.3355679333363,236.4901894428376,-1257.9435774508784,21.83833995,-12.741924626147414,19.553622716768775,4.434488332737726,5655.43706000326,-14165.803073969755,19941.960567547343,0.0386751096496149,-0.1183478541347427,-0.4056346013091327,5.529102047666697,1.3735666244069478,-0.7034401998238877,7018318.222750284,850803.3050444145,2837642.2290597977,-0.0001259700131242
5852,1724811862217401956,-0.4930905103683471,0.1253381073474884,0.1743411421775818,-0.0044990829192101,0.0615397915244102,0.1981409043073654,-0.9782294034957886,0.0,0.0,0.0,3176.64792245207,1125.769919121015,1788.2510607765005,21.838635687,-16.149273908998847,-1.3778827268544829,13.32410057081415,-23483.631634163,-2909.6177029254286,-2776.5535650329166,0.0334315784003293,-0.1188970963078017,-0.4016835872976519,6.358100335227277,1.641723389598326,-0.43136132729893,1327669.3552984116,-3900252.565763188,-1234313.6579800192,-0.0006762607373001
5854,1724811862217662429,-0.4912842810153961,0.1259473711252212,0.1745004057884216,-0.0016187481814995,0.0591854155063629,0.1976864337921142,-0.9784756302833556,0.0,0.0,0.0,1927.8110746277507,-1474.7593291822664,-1179.4667213783168,21.83889616,-25.010393396590448,13.4340616017975,5.06790865650276,24508.213992240057,40868.67352605147,-10252.092538372595,0.0267493230203788,-0.1154391879902088,-0.4002490371859112,7.271214553909431,1.985204416094632,0.2336180226913029,-4467153.821853705,-3871253.200341381,-9516113.260728125,-3.988492773392621e-05
5856,1724811862217906114,-0.489435613155365,0.126350462436676,0.1744711995124817,-0.0013616109499707,0.0566953606903553,0.1968336850404739,-0.978795289993286,0.0,0.0,0.0,913.8599243063854,-1024.5766856868072,-3070.379663464946,21.839139845,-5.695054932442408,19.746188657543374,7.458598292980212,-255.38924417363887,-41548.40235422123,4552.482760121164,0.0251410442186379,-0.1106760927569558,-0.3982947614544033,7.381290361810784,0.9889816992169358,-0.9047172361775324,-3699814.4750067615,6600002.770806778,985746.4205485156,-0.0002272639377319
5858,1724811862218157157,-0.4876356124877929,0.1264267116785049,0.1740410923957824,0.0021250047720968,0.0570445321500301,0.1961314678192138,-0.9789146780967712,0.0,0.0,0.0,104.29717119913404,1861.4421056746617,-561.1499624057622,21.839390888,-26.324609275182567,-8.128694309487752,7.241603077613528,2969.2541926723734,11568.304740224316,9426.289593316484,0.0183335008445965,-0.1127557955021039,-0.396510529895163,7.730230269439062,1.5240819444380236,-1.2614693594212554,-4447190.664132016,1949808.54442129,4256328.769703077,-0.0006248105045295
5860,1724811862218408305,-0.4855534434318542,0.1271160989999771,0.1738377958536148,0.0020968725439161,0.0537931770086288,0.1946679651737213,-0.9793907403945924,0.0,0.0,0.0,-1319.7359588306954,-47.405526171357906,-934.095081175538,21.839642036,-4.186038087687393,25.581439531860067,12.194557581552626,10158.605997183193,14951.565965885908,10375.24109362363,0.0169328385851661,-0.1063860325113443,-0.3933158669031115,7.4333974167115,1.923724445946334,-1.1863410739324536,2292331.6590846945,-1835906.742718736,-633315.0183229716,-0.0004025447771515
5862,1724811862218682456,-0.4837720990180969,0.1273977309465408,0.1733997762203216,0.0056690308265388,0.0539363473653793,0.193203717470169,-0.9796586632728576,0.0,0.0,0.0,1691.5519771305917,1174.392772116285,-852.8545440528715,21.839916187,-24.740670121083937,-6.013200198803652,12.242043084670316,-58201.2755780979,-15605.35007624454,-7792.437460614307,0.009791261687967,-0.1080792673505914,-0.3899628015453124,7.030342803045073,1.4203388148148974,-1.8114830351786395,4439488.370313795,4696326.446791934,4327193.73022053,-0.0006107926833795
5864,1724811862218932186,-0.481895238161087,0.1278418451547622,0.1728987693786621,0.0097559373825788,0.0515138693153858,0.1924114972352981,-0.9799126982688904,0.0,0.0,0.0,1311.440095206508,2401.7263339647507,1144.7329836607723,21.840165917,-35.459380774079435,12.756230068789115,8.483977386058113,5920.618349476521,41465.72547744897,-7723.050563140972,0.0007076780916329,-0.104904805765231,-0.3878151989354326,8.172021482623336,2.398474122185604,-1.699748629343901,-8140197.512362177,-1349419.2046958115,5034149.211080692,-0.0006633951770001
5866,1724811862219183076,-0.4796794950962066,0.1285998970270156,0.1725495606660843,0.0121190380305051,0.0491774640977382,0.1915366202592849,-0.9801777601242064,0.0,0.0,0.0,-2398.9833675313744,484.2801555885846,1660.446830438651,21.840416807,-21.66311397976451,14.667021595659564,8.392764060894434,48393.533491500544,5086.820639675886,-1238.5745462428586,-0.0049443800631352,-0.1012205480600041,-0.3857061750262361,7.679294684913216,2.61916798431052,-1.2367852874488108,-12645339.558080403,-6658749.774686912,1605545.001002506,-0.0005184498052879
5868,1724811862220540487,-0.4777176976203918,0.1292007714509964,0.1720097661018371,0.0146748386323452,0.0466073453426361,0.1915175169706344,-0.980272114276886,0.0,0.0,0.0,-3820.29151057348,-1329.0402591041936,535.0340420078454,21.841774218,-4.41329536359276,2.996958798431972,0.2852961313352503,10257.60029975306,-6948.208456030755,-4745.040426192859,-0.0109703716903123,-0.0971494836319893,-0.3853495265528756,1.227701606207198,0.3729388838182146,-0.340342783085636,-691932.9420262347,-1014422.676561007,-679726.5724425575,-0.0006774359441675
5870,1724811862225852906,-0.4757186472415924,0.1297323703765869,0.1713934987783432,0.016810743138194,0.0451776124536991,0.1900688111782074,-0.9805867671966552,0.0,0.0,0.0,-112.45203606220278,-34.964179178050614,29.394245583013713,21.847086637,-0.8641821011002495,0.3711566305324281,0.6027074951599698,421.02916346411786,-320.83061117455134,29.11881830786935,-0.0158674886755166,-0.0951349746630128,-0.3821597830871117,0.3217823381007214,0.0851342179611212,-0.1046156221696659,447727.66467961785,156140.88015292422,-61576.314883493855,-0.0007510911020318
5872,1724811862235117256,-0.4736182987689972,0.1302798241376876,0.1706083118915558,0.0210503097623586,0.0433935187757015,0.1885668784379959,-0.9808753728866576,0.0,0.0,0.0,-7.284539216427426,-1.333363796891975,1.846950378345923,21.856350987,-0.9549850951919844,0.2010803077229029,0.3776100318192908,-4.582694575871535,-8.349196130154587,-19.35151750551846,-0.0250415879174002,-0.093200921898457,-0.378684870155947,0.2182800456859439,0.0715997996971706,-0.0742934293246033,6246.132592016883,1941.2674143018587,-1633.5337816761355,-0.0009120902128512
5874,1724811862244987843,-0.4715524315834045,0.1311180889606475,0.1699849963188171,0.025469047948718,0.0414044223725795,0.1876351982355117,-0.9810351729393004,0.0,0.0,0.0,0.6742225466967859,0.0671473769773443,-0.1855225354460707,21.866221574,-0.9453371806386592,0.2239279466167519,0.2386100962407408,19.527670204526203,-0.7881517759793732,-9.540146790213386,-0.03458392383051,-0.0909213872302699,-0.3763868112168371,0.1872609342304851,0.0597800969734469,-0.07105996018233,517.8302129879635,122.03171353182184,-109.26430781461198,-0.000713537744818
5876,1724811862257947323,-0.4695005416870117,0.1314649581909179,0.1689294874668121,0.0277190934866666,0.0398916564881801,0.1865398436784744,-0.981245756149292,0.0,0.0,0.0,2.476531703280763,1.310771549860975,0.0429311986041609,21.879181054,-0.3766364180424333,0.1609185305125847,0.1922584412801391,-68.2098869444156,82.46181135874421,-10.648684753505773,-0.0396822510489465,-0.0887449095798633,-0.3739646352224095,0.2609414394039007,0.0821677173545172,-0.0821947870925452,-272.66192273414646,-85.37792380293523,-32.44049580481752,-0.0011659128682097
5878,1724811862264963162,-0.4672800898551941,0.1322518587112426,0.1683499813079834,0.0314395315945148,0.0353569984436035,0.1865078806877136,-0.9813135862350464,0.0,0.0,0.0,-1.0002484401880185,0.0230163589928156,-0.3748347314980544,21.886196893,-1.2809311222723745,1.0711260301516352,0.090688401453522,-65.82800431206388,52.36588143162196,-8.742009549981194,-0.048695022216606,-0.0812092790835575,-0.373659888295697,0.2661284383041433,0.0897810492433057,-0.078467150509339,-283.13241025111586,-126.98582753251551,-106.68708633997451,-0.0006460211789082
5880,1724811862276594280,-0.4651558399200439,0.1328645795583725,0.1675170063972473,0.0359950996935367,0.0333628617227077,0.1861423701047897,-0.9812963008880616,0.0,0.0,0.0,-0.1972300579675057,-0.3632778621671546,-2.5247206081824443,21.897828011,-0.8305277563697505,0.1883088910355287,0.0995987808102471,-7.467208909320064,-36.32245707044889,19.689060135133452,-0.058438463156797,-0.0789601552493738,-0.3726170428608162,0.2209510704436468,0.0695679058535834,-0.1002997726693699,71.31690710473887,-9.670380450491278,-37.29596054290906,-0.0008886920802582
5882,1724811862285120274,-0.4630325436592102,0.1335632652044296,0.1664825826883316,0.0408977754414081,0.031837522983551,0.1847136616706848,-0.9814248085021972,0.0,0.0,0.0,0.425044537255852,-0.2985953970720434,-1.920585134275847,21.906354005,-1.1828805644592766,0.1259851831971356,0.3857330948946011,-7.474301858901576,3.180622366174708,20.02637879156832,-0.0687759699537315,-0.0776791218396791,-0.3693932960889963,0.2423123250506442,0.0750614533388871,-0.1258731279650167,-93.71607820099256,-38.12400065411117,133.51529774955992,-0.001065169979985
5884,1724811862295047329,-0.4607048332691192,0.1342288106679916,0.1651804745197296,0.0449268817901611,0.0295982453972101,0.1828193217515945,-0.9816733598709106,0.0,0.0,0.0,-2.432076172007454,-1.2053924198391388,0.1290427329412962,21.91628106,-0.8657983259797869,0.2788119055878439,0.4281070798174597,11.143177136188726,6.922840067777597,-13.857284881046262,-0.0776787540700646,-0.0746078181102589,-0.3653455804212299,0.2224859786494839,0.0611986272866946,-0.132468899875306,-95.14456705889808,-9.976724281264898,107.49141201426208,-0.0013256915165228
5886,1724811862305179781,-0.4585745632648468,0.1347884535789489,0.1638247817754745,0.0495134368538856,0.0273787602782249,0.1825230419635772,-0.9815722703933716,0.0,0.0,0.0,-1.4035433520829443,-0.4649517440769906,0.194559616264063,21.926413512,-0.9679860229025284,0.2613376367013269,0.1002397826556557,-8.430059204207703,-1.7572435736364609,-29.530045407704332,-0.0875451144906261,-0.0718850445158195,-0.3645497386220817,0.1933455847422536,0.0509611808659583,-0.1229552709882011,2747.219656646904,927.377922745594,-2108.334864333083,-0.001363016113069
5888,1724811862407735669,-0.4562849998474121,0.1355808675289154,0.1624690592288971,0.054842785000801,0.0239112507551908,0.1824282854795456,-0.9813972115516664,0.0,0.0,0.0,3026.6466472402394,981.4273146265868,-2411.237896136661,22.0289694,-0.1144763954715036,0.0472210380827088,0.0073844092504438,-3910.9697380750777,2306.1094196352988,338.33480048908984,-0.0993064737755923,-0.0669927196930163,-0.3642468111484759,1.5777915256689994,0.5694257982496396,-0.8756715128444341,955280.6822698036,165766.3285782243,-361151.7629908102,-0.0013154465257854
5890,1724811862409303098,-0.4537746608257293,0.1364868581295013,0.1610758453607559,0.059195838868618,0.0201221480965614,0.1822839826345443,-0.9812561273574828,0.0,0.0,0.0,4546.158717913473,1244.9960108386722,-2985.406124537265,22.030536829,-6.338534527246192,3.717179100695236,0.5458270417199651,-90736.35385995124,1559.1100524415906,1898.9743924409825,-0.1092574408488598,-0.0611088947860042,-0.3640019152859712,6.394028349586051,2.1311334431963473,-4.712703618327453,-8315621.866117599,-2827071.2294110977,4907461.125089006,-0.0013153818937381
5892,1724811862409615138,-0.4514817595481872,0.1372483372688293,0.1593677550554275,0.0652105957269668,0.0183354318141937,0.1822553873062133,-0.980915069580078,0.0,0.0,0.0,1374.563061669218,176.77282327496278,-1126.474245956002,22.030848869,-40.04179325341666,4.155088614589164,1.2350081309305314,-74484.2064090799,33495.947548413445,2051.005132182684,-0.1217662800296325,-0.0597765604539936,-0.3637680918964058,7.904143317031867,2.5350679412599675,-5.677654858098208,-8596919.173003467,-2760028.471427814,6126043.173583949,-0.0016178836089096
5894,1724811862409902422,-0.4490639567375183,0.1380016803741455,0.1576827764511108,0.0720377117395401,0.0138044711202383,0.1823451220989227,-0.9804949164390564,0.0,0.0,0.0,-680.695977122472,-440.6950377683961,678.0576170225704,22.031136153,-52.57276240569236,22.26616812182208,1.7825384102589013,-1654.163811380451,22558.136533390538,10104.956782238833,-0.1368518618665876,-0.0533672067504126,-0.3640856340633878,7.3825872613304,2.2902230887168855,-5.481302233896997,-3242250.8128864234,-857972.4294242138,4349090.425774636,-0.0015585662412626
5896,1724811862410340054,-0.4465220868587494,0.1387825757265091,0.1555399149656295,0.0772985816001892,0.0115052601322531,0.1799953132867813,-0.9805581569671632,0.0,0.0,0.0,508.279861478819,44.72917663597673,1293.190574479766,22.031573785,-25.320417574229623,5.148932804932137,11.670813017163937,-23757.37067310106,-10734.809376174488,-8083.843221518651,-0.1481789446255752,-0.0504112671093693,-0.3593435678854286,7.841206710598272,2.37174591601206,-5.188176861362308,-3332607.120238923,-289599.5149816886,2673280.201447396,-0.0019816958589442
5898,1724811862410629103,-0.4438674747943878,0.1395802646875381,0.1539845913648605,0.0839972123503685,0.009143816307187,0.1796621829271316,-0.9800930619239808,0.0,0.0,0.0,-1609.9205329168208,-306.02850443819875,2307.916391538381,22.031862834,-48.611579901147785,7.463850908832468,3.477227120664766,-35619.317947969816,8278.607314479857,-19799.308708569675,-0.1622627154014222,-0.0481244004358126,-0.3586832936866813,7.885093531382211,2.3576507267958675,-4.695368264954624,-3756225.5928968578,-530602.0374490703,516762.72100831097,-0.0013666137485767
5900,1724811862411074609,-0.4412464797496795,0.1403545439243316,0.1523634493350982,0.090879388153553,0.0053135096095502,0.1798224151134491,-0.9794777631759644,0.0,0.0,0.0,-830.6642694196062,-73.51056586079176,482.4406898355428,22.03230834,-33.60889654218764,11.337325062059842,0.5255869328733623,31866.051333214287,20477.847226575068,-8329.773141414864,-0.1772074628528309,-0.0431065798414441,-0.3593063620828508,5.9581564461905145,2.0446624397333153,-3.253137526917982,5908713.0688051805,2503679.9216866093,-6661277.117859215,-0.0013965650761944
5902,1724811862411564722,-0.4382858872413635,0.1415220201015472,0.1509770303964615,0.0942010879516601,-0.0020780686754733,0.1815327554941177,-0.9788604378700256,0.0,0.0,0.0,4308.053109058335,2222.1140739008106,-4164.673448459928,22.032798453,-18.96661628251007,27.72717723603057,-4.475936373525239,-23781.038926297093,-11570.28860430984,14205.216859337112,-0.1863344378247434,-0.0301374496345988,-0.363923613582494,7.435284840375175,2.347801066505639,-4.5020625385281505,51914.249758566264,2579390.2699344335,-442373.4136685184,-0.0010340765321066
5904,1724811862411900741,-0.4354662001132965,0.1423030346632003,0.1490787714719772,0.1002520844340324,-0.005586146377027,0.1807539910078048,-0.9783896803855896,0.0,0.0,0.0,1922.051934301966,2604.0234899313527,-2230.8985977610755,22.033134472,-39.31846872491668,13.46996577345992,5.9207020591942765,-97797.73737203937,-23787.461186323395,33652.55250706752,-0.1995764052722904,-0.0253137761707391,-0.3628385862677677,9.181021276896445,3.463901133793513,-6.273854710977048,-9047893.082609162,-1357915.305747441,7979814.992221871,-0.0015753357680745
5906,1724811862412159424,-0.4329339861869812,0.1434260308742523,0.1473314464092254,0.1090939342975616,-0.008862255141139,0.1789173632860183,-0.977756917476654,0.0,0.0,0.0,-806.2418136723664,1755.9865295067011,276.4158428076358,22.033393155,-72.03132689823892,11.029099745284874,15.166114923822342,-113340.6408975334,-8947.453990272508,32193.14980390923,-0.2182863409905792,-0.0217090407541255,-0.3595915447154066,9.026358613817104,3.994627368131896,-6.2451487762409705,-9685546.95161599,-3085618.4314382486,8896448.013803972,-0.0013267107937649
5908,1724811862414883451,-0.4302185475826263,0.1443658918142318,0.1449358612298965,0.1148655787110328,-0.0109979398548603,0.1774793416261673,-0.9773362278938292,0.0,0.0,0.0,-2483.1240826715393,-1122.639828646776,1672.5582699403185,22.036117182,-4.466927181578081,0.6625352245380962,1.1105671250255458,20498.193147128568,-3144.389432874414,-4269.596713649272,-0.2305066914345939,-0.0192763582217971,-0.3570432458224329,0.8534154633460744,0.296956362568197,-0.7463567022858701,-473972.31443388615,-856224.7026425177,400054.7356366259,-0.0019553475285221
5910,1724811862427695917,-0.4279278814792633,0.1452737748622894,0.1433925181627273,0.1225253343582153,-0.0138677358627319,0.1771986931562423,-0.976419985294342,0.0,0.0,0.0,-21.54033711247484,-8.402509206665314,20.166939644154027,22.048929648,-1.264989501366375,0.2221503882184864,0.0557383771320857,224.11481275629436,-54.68387702892771,25.108125379262795,-0.2467149129744512,-0.0163419167235189,-0.3570220817106239,0.2062756859997065,0.0623293695835105,-0.1720063124380928,70752.68776883211,31951.215613891825,-47656.22971719976,-0.001122139924703
5912,1724811862434939895,-0.4263210296630859,0.1456903517246246,0.1419353783130645,0.1217616349458694,-0.0130966212600469,0.1747000366449356,-0.976976215839386,0.0,0.0,0.0,-6.102819563419018,-2.2655170601320567,7.967633389498813,22.056173626,0.2528537479940031,-0.2571701774781538,0.6776418114213252,123.68025537864168,-28.365205676248053,36.7177414543671,-0.244970039001216,-0.0169541614319675,-0.3518067057913417,0.1688814822694802,0.0420490959070409,-0.1269180257293545,1390.4416635798916,612.134765151769,-1045.4118867184302,-0.0012067481752518
5914,1724811862445534388,-0.4253520667552948,0.1458963304758072,0.1417409777641296,0.1205086931586265,-0.0132231879979372,0.1731536984443664,-0.9774050116539,0.0,0.0,0.0,-2.8478102920235937,0.5777013741707031,6.787713893890553,22.066768119,0.2329402994368127,0.0280600921477556,0.3053410040655268,-12.135983633222654,10.873630415798589,-15.360873477552534,-0.2425525017002694,-0.0158848994228714,-0.3487387121726725,0.0896491724380972,0.0263226176840811,-0.0154916903580684,230.93110971644745,164.33090503726336,-247.31386605591644,-7.562242664907822e-05
5916,1724811862458981476,-0.4241774380207062,0.1463677287101745,0.1415814310312271,0.1212773695588111,-0.0130445100367069,0.1701950430870056,-0.977832019329071,0.0,0.0,0.0,-1.0448116448119489,1.0118014032856504,1.1418238406619463,22.080215207,-0.105306685755449,-0.0996394148331836,0.4363838374684413,11.58593592057247,52.41611652797431,-55.291667711347664,-0.2440638911722904,-0.015771588931683,-0.3427199743867439,0.1303921244939374,0.0692864737327596,0.0121262379252655,-356.0935689813846,-218.01801373758863,-328.94984281173157,3.336908024383772e-05
5918,1724811862464872010,-0.4232982993125915,0.1468641906976699,0.1417147666215896,0.1209282726049423,-0.0140575040131807,0.1704934388399124,-0.9778091311454772,0.0,0.0,0.0,-4.407221991707325,-0.9183066495489268,-0.5612858627587359,22.086105741,0.0577428917526735,0.3688764834661975,-0.0571321151708076,10.807354870636477,46.400111885313855,-55.932606730943775,-0.2437111421165133,-0.013744275251569,-0.3435712792945981,0.1137234568975014,0.0696129971173462,0.0164989016528247,-382.5604661165641,-243.45520091809925,-241.12307703799416,0.0003048312453893
5920,1724811862476252328,-0.4227851033210754,0.1473339051008224,0.141767606139183,0.1218297481536865,-0.0151227936148643,0.1710466295480728,-0.977584719657898,0.0,0.0,0.0,-4.621822892599223,-1.8374853108131148,-2.249919850151459,22.097486059,-0.1902331944614365,0.1683617796358958,-0.0813728538561499,20.81984939139648,-24.13780466127329,3.209584302552559,-0.245858452341774,-0.0121098076644431,-0.3449341935290628,0.0288846736871377,0.037753370405225,-0.0185503195644418,164.74151609709952,-17.66766206269223,27.040364061734067,0.0001972642484792
5922,1724811862485023415,-0.4226413369178772,0.1476412415504455,0.1414481103420257,0.1206941157579422,-0.0145284952595829,0.1710918098688125,-0.9777267575263976,0.0,0.0,0.0,-1.9357170053782384,-1.5658781821651104,-0.8268758120943018,22.106257146,0.2804252878254719,-0.0874178079904727,-0.0171248505728489,31.85855202550041,-20.782724781453208,7.186427501415607,-0.24339935211337,-0.0128901092435102,-0.3448942677434089,0.0074979099633196,0.0281401855233465,-0.0326744283036255,218.249013062375,11.089721027254754,127.96851085061591,-0.000229023710845
5924,1724811862496111307,-0.4226828515529632,0.1478565484285354,0.1411384046077728,0.1191006749868393,-0.013171512633562,0.1706551611423492,-0.9780175685882568,0.0,0.0,0.0,-0.7492123465820852,-1.721518242728108,0.1116168176490577,22.117345038,0.3280828541437124,-0.2004095163595374,0.0606154917362727,-1.238553209621097,-10.736006236239565,5.160298928821686,-0.2397780104780235,-0.0148868981087148,-0.3437098883580133,-0.006920220674587,0.0041918918866752,-0.0308617034129108,52.249559028495106,-17.879868886161717,0.1803626218209117,-0.0002543780406142
5926,1724811862507171547,-0.4227944314479828,0.1477349251508712,0.1407647430896759,0.1180301532149314,-0.0112377908080816,0.1699328869581222,-0.9782971739768982,0.0,0.0,0.0,-0.7754622331095883,-1.9616716140013424,-0.8182159185750012,22.128405278,0.2532994685809359,-0.325170162919993,0.0972683704075741,-6.260985571711336,-9.615326993412795,2.8192692440735994,-0.2370077169129867,-0.0181276041917244,-0.3418149521782703,-0.0091261860460984,-0.0100124395771418,-0.0301994592478933,204.82032183852112,272.13767528529803,275.5211077881967,-0.0003977082638798
5928,1724811862595278703,-0.4229231774806976,0.1475434005260467,0.1406199932098388,0.1157784909009933,-0.0106659410521388,0.1700040698051452,-0.9785603284835817,0.0,0.0,0.0,162.69408054110215,228.26126855888924,275.84393167743883,22.216512434,0.0529317065482538,-0.0038898787215836,-0.0015233990141925,13950.832886059952,-10103.287103970704,806.0993220389943,-0.232343158811311,-0.0184921496489908,-0.341865867738466,-0.481736688764613,-0.658299047881485,-0.7185982009032159,-185199.7497332114,-477746.772333041,-441969.86780259846,-0.0001912954551206
5930,1724811862595711980,-0.4231329262256622,0.1472567766904831,0.1403071135282516,0.1146407499909401,-0.0095156319439411,0.1698334813117981,-0.9787357449531556,0.0,0.0,0.0,82.052732311188,20.24108296623473,83.40016237429649,22.216945711,6.127236460290454,-4.4029465387077025,0.3494608330729251,9038.39082826015,-7221.542753910024,426.50925458808064,-0.2296997023766862,-0.0203144943012217,-0.3412815573671282,-0.4108870060158409,-0.5588966589527509,-0.598476984554825,-160904.49910256357,-360641.6895200556,-321562.14748424635,-0.0003800671239667
5932,1724811862596981752,-0.4233822226524353,0.1469290107488632,0.1400073021650314,0.1155100017786026,-0.0079216174781322,0.1699669063091278,-0.9786245822906494,0.0,0.0,0.0,-28.428193226152644,6.873017171265474,131.29900416268356,22.218215483,-0.9317025699003696,-2.66408972343119,-0.5362812379809799,23380.39498248115,-35861.72910775665,1420.5100592000924,-0.2308851644536118,-0.023763412578086,-0.3411723513959203,-0.609858681686319,-1.3115966072973038,-1.2138950346745787,711889.9398354766,2300104.250853215,1912344.8004865823,-0.0003786465958713
5934,1724811862597284985,-0.4235970973968506,0.1464550048112869,0.1395684033632278,0.1147032156586647,-0.0053009055554866,0.1696847379207611,-0.978786051273346,0.0,0.0,0.0,245.29237699114964,871.6644361283435,846.9354126391671,22.218518716,8.253660253971502,-16.234634992417142,0.0478438483786074,12112.764611144949,-21088.134875401585,-20.205346071089707,-0.2284120271726682,-0.0285537452395653,-0.340037160704235,-0.6091903651783355,-1.2660884872649376,-1.1294757213203184,766086.873874081,2038123.4089365024,1678504.4453001642,-0.0005434997044096
5936,1724811862597691194,-0.4237904548645019,0.1461023688316345,0.1392825990915298,0.1144624426960945,-0.0027936762198805,0.1696126461029052,-0.9788371324539183,0.0,0.0,0.0,482.1591477866882,1256.7457103340107,1157.9080990738037,22.218924925,3.2819597485952716,-11.92354449960422,-1.0195775572960997,-22821.92320321134,17639.975604819403,580.6023365292624,-0.2271002499336485,-0.0333656379893731,-0.3393467042546884,-0.3772726231849219,-0.5193548193754509,-0.4760701967224179,95245.50209986216,-691451.5831110436,-555763.6115626594,-0.0003655606238545
