seq,stamp,px,py,pz,ox,oy,oz,ow,lx,ly,lz,ax,ay,az,timestamp,wx,wy,wz,aa_x,aa_y,aa_z,roll,pitch,yaw,vx,vy,vz,jx,jy,jz,fw
8,1724915320703448693,-0.4698769450187683,0.129091665148735,0.1733031719923019,-0.0463938973844051,-0.022528002038598,-0.3916807770729065,0.9186546802520752,0.0,0.0,0.0,-1.0794117894117532,-2.6498916873371137,2.23445406199986,0.0,0.0,0.0,0.0,67.51091286336488,-41.43283652277257,29.213747016347167,-0.0678495642125139,-0.0778126041183788,-0.8034078602165295,0.0211255982166064,0.132731478970298,-0.0714555725409278,-15.283204386253054,-13.751312079482524,-38.33650754199427,0.0
10,1724915320709321524,-0.4697528779506683,0.1298711746931076,0.1728835254907608,-0.0456155315041542,-0.0236170012503862,-0.3911581635475158,0.9188889265060424,0.0,0.0,0.0,-1.169167465910676,-2.730650819208173,2.009310232075502,0.005872831,0.396480181902268,-0.2433280467488709,0.1715673991037611,15.181809215237692,-25.22662918283157,20.15538052865136,-0.0656076668252973,-0.0791712597419787,-0.8023037951981803,0.0147863951979836,0.1171691129222622,-0.0583330014575391,7.552486353444046,32.1624743553498,-79.08185026112159,-0.0003386399998623
12,1724915320719477943,-0.4697140455245971,0.1307878494262695,0.172521561384201,-0.0477876253426075,-0.0238374602049589,-0.390138030052185,0.919206440448761,0.0,0.0,0.0,-0.6913656777400738,-1.597546407549194,0.4904536751014774,0.01602925,-0.3684571489984024,-0.2148876948500697,0.2171689713988709,-34.37891371517293,9.848457863110657,0.1197492029323825,-0.069538554105296,-0.0811998351785974,-0.7999481896446758,0.0013353344907756,0.0880169920700328,-0.0418801247328897,59.646299509118506,95.66246034438468,-97.90413230987822,-0.0002625703949018
14,1724915320729741192,-0.4697261452674866,0.1316679716110229,0.1720270067453384,-0.0492899268865585,-0.0233929473906755,-0.3893473446369171,0.9194737672805786,0.0,0.0,0.0,0.0514968679217807,-0.7806708195975331,0.0212322851333319,0.026292499,-0.2967332784753316,-0.0407119633994285,0.1730739953258966,20.811560276793656,12.203141031156571,-9.805640035856046,-0.0727308752578887,-0.0814903692039466,-0.7981407388950155,0.0008049009106798,0.0848211155780314,-0.0485606973281136,-12.840855278247226,188.9988043343116,-106.82982328662465,-0.0003957462810755
16,1724915320739851253,-0.4696982502937317,0.1325162202119827,0.1715323328971862,-0.0489843152463436,-0.0233257226645946,-0.389261394739151,0.9195282459259032,0.0,0.0,0.0,-0.9270613784592372,2.219715449632815,-1.6674401489336002,0.03640256,0.0513397470977191,0.0351804810394333,0.0190709308291813,28.199117635776297,6.149514602735282,-12.684267568887083,-0.0722254049449648,-0.0811216714118131,-0.7979737061189432,0.0023531202837823,0.0722548467401435,-0.0416519478312512,32.19212926013019,-329.6537291128644,233.40702310619668,-0.0004000762135646
18,1724915320787108328,-0.4696767330169678,0.1333581358194351,0.1711713969707489,-0.048562616109848,-0.0228538438677787,-0.3896657228469848,0.9193910956382751,0.0,0.0,0.0,29.08547806138472,-151.73123032316244,97.81576832794042,0.083659635,0.007953543906801,0.0260136152008067,-0.0174323190925545,-4107.180881396251,-5078.1210268430505,2614.579268008243,-0.0717760727971831,-0.0799547764000322,-0.7988866292313543,-0.2800641101305245,0.942026358407503,-0.6397217822857897,22918.28871500828,17595.862985462096,-9568.573464003304,-0.0002687714779749
20,1724915320787844702,-0.4698861837387085,0.1340624243021011,0.1706930696964264,-0.0501569993793964,-0.023656353354454,-0.388967365026474,0.9195809364318848,0.0,0.0,0.0,46.21759636112586,-138.53481176998974,90.63577062365108,0.084396009,-3.063584579750759,-3.7716488532352304,1.93788547123183,-2967.68015811252,-2881.3500199801733,1720.0841301560863,-0.0741644661620709,-0.0826207001324543,-0.7972555981523033,-0.2582440086473241,0.8283432127116086,-0.5664252000520946,21382.996286892103,23981.330964623572,-27613.567610888393,-0.0003965155281991
22,1724915320789214264,-0.4701731503009796,0.134870633482933,0.1701291054487228,-0.0532574467360973,-0.0237179547548294,-0.3877614140510559,0.9199142456054688,0.0,0.0,0.0,70.7077699105617,-90.2534655611741,7.316213796774832,0.085765571,-4.062474219979195,-1.9206466226735452,1.911372329373368,978.7702787334928,1767.9234476033805,-515.0055427741959,-0.0799646197235728,-0.0850418028150061,-0.7944331795119965,-0.1526986691030742,0.6789782150543147,-0.4649676304251784,-3292.8430754146684,3087.1785745694506,-37867.30211720635,-0.0004654025039902
24,1724915320790322921,-0.4702914357185364,0.1357031315565109,0.1695658862590789,-0.0539169572293758,-0.0231703985482454,-0.3873357474803924,0.92006915807724,0.0,0.0,0.0,48.05388532614082,-115.6983385461706,-14.051683069962053,0.086874228,-1.4443927809103614,0.4130697330790557,0.8955871958354191,2554.6790565816173,1024.1889189502813,-177.0116864552125,-0.0816469226405401,-0.0845052092438343,-0.7934771319097327,-0.080013362175606,0.5957964689853199,-0.5167742294171163,-19230.977763729512,-24295.91427275876,2521.351292460722,-0.0004616981816635
26,1724915320791715734,-0.4703561961650848,0.1362615525722503,0.1688307970762252,-0.0523910969495773,-0.0237918458878994,-0.3860486447811126,0.92068213224411,0.0,0.0,0.0,23.373126704625204,-151.89119881306937,27.597028882661498,0.088267041,2.451841183640542,-0.0516194262964605,1.9425277672619736,2484.048852552227,-299.2964288219814,658.2554151551459,-0.0784606895556822,-0.0843605044829773,-0.7907647215673538,-0.0437182543524343,0.3634876142141241,-0.4791665640313858,-16070.998298897468,-22008.47849340937,26634.173047769185,-0.0006658746387951
28,1724915320803652189,-0.4705938696861267,0.1367700695991516,0.1680834889411926,-0.0524101369082927,-0.0244432892650365,-0.3846682906150818,0.9212416410446168,0.0,0.0,0.0,0.2366168713544487,-7.7677256285343805,11.169524727015402,0.100203496,0.0496149881196534,-0.1116125599334727,0.2434873995079469,-125.30148515880656,-52.98925915130866,-8.448729636362742,-0.0781239612189495,-0.0854613793606189,-0.7877522859261066,-0.0394644693989647,0.0746459863652653,-0.0888082211194252,-559.2900149475746,4693.341116075719,-1534.144193947733,-0.0006825214205225
30,1724915320809288102,-0.470868319272995,0.1372760385274887,0.1675132513046264,-0.0542108677327632,-0.025265397503972,-0.3831855058670044,0.9217330813407898,0.0,0.0,0.0,0.7541405210121451,-0.9573783998642368,2.103047648273707,0.105839409,-0.4544671499092403,-0.5378879786102486,0.5521637869065634,-48.846345009246555,-34.74126249685402,25.183629864131085,-0.0809763748059923,-0.0882359932595972,-0.7843966386062969,-0.0384495843575045,0.0745902917282332,-0.0831595285532342,70.16489770535364,750.4856677282387,-1031.4272182218258,-0.0005044160513518
32,1724915320819384549,-0.471071183681488,0.1377544701099395,0.1669995635747909,-0.0555265136063098,-0.0254715587943792,-0.3819088339805603,0.9221787452697754,0.0,0.0,0.0,1.0707656618291963,-1.6622677342376355,2.130530293876107,0.115935856,-0.2133940495348253,-0.1489854253703638,0.2713007463619684,3.928883202520886,26.196387549270636,-20.041109666532563,-0.0833851466215044,-0.0895102718909473,-0.7815318004180135,-0.020452163968553,0.0477865564009016,-0.0420161195520565,-8.032814742904606,1.8505601601438428,-105.58349911598144,-0.0004506224655138
34,1724915320830100308,-0.4712944328784942,0.1382710933685302,0.166650116443634,-0.0575306750833988,-0.0246551986783742,-0.3812432885169983,0.922353446483612,0.0,0.0,0.0,0.5366705008825446,-0.8273742771188668,-0.2326420379532692,0.126651615,-0.3981644653522106,-0.0084142490245339,0.1449921681450606,9.846653811860437,3.9559506553993993,0.0956955536781354,-0.087791377496898,-0.0894672899783453,-0.7799698235708857,-0.0170732613486883,0.0412618726923827,-0.041300876220303,-14.397972183555725,51.27206719529906,-103.91447639217368,-0.000281808569398
36,1724915320840182603,-0.4714308977127075,0.1386211812496185,0.1661512702703476,-0.0578642003238201,-0.0247574113309383,-0.3800292909145355,0.9228307604789734,0.0,0.0,0.0,0.7277380775282501,-0.563154398867123,-0.1740681118616347,0.13673391,-0.0419088548265234,-0.0554445752797499,0.2586812621657901,19.326634890033223,-5.057415072632415,5.250925831479599,-0.0884518296848731,-0.0897946048964253,-0.7773120371681395,-0.0095626069824845,0.0308474076925842,-0.0464865283517799,12.591885510406144,43.568708735340934,18.481395364930034,-0.0004506840472293
38,1724915320851330662,-0.4714885354042053,0.1389172971248626,0.1656699031591415,-0.0582671090960502,-0.0252287723124027,-0.3787448108196258,0.9233205914497375,0.0,0.0,0.0,0.7897300952661134,0.1365692588448197,0.1881624349041164,0.147881969,-0.0237784083591355,-0.1166664106633685,0.2429495414833639,5.743544299436614,-3.3571429910520507,5.796931200527943,-0.0889716848702959,-0.0908501445147326,-0.7744875463942452,-0.0016617174257902,0.0303602049743823,-0.0442327871904435,-8.854227643869145,18.327380791550823,46.17240030025712,-0.0004398239494283
40,1724915320860371107,-0.4714778363704681,0.1392196118831634,0.165262296795845,-0.0582881867885589,-0.0257851649075746,-0.3772497475147247,0.9239157438278198,0.0,0.0,0.0,0.6040032706509924,-0.0235384533933469,0.7058713143016759,0.156922414,0.058330261605655,-0.1313673960891182,0.3482009980800207,17.575304773618235,-1.0861775371972673,8.055585672963186,-0.0887410720630037,-0.0917537348738999,-0.7712331055500182,0.0060716780587988,0.0329164793375298,-0.0426343678341005,-48.73823458866077,-25.86604114953845,52.59187746712966,-0.0003658910589997
42,1724915320869617615,-0.4713754653930664,0.1395190209150314,0.1648912727832794,-0.0572856925427913,-0.0267878100275993,-0.3755154311656952,0.924656093120575,0.0,0.0,0.0,-0.1132957158248035,-0.3398413785899321,1.1479594024282138,0.166168922,0.3011604134369838,-0.1363042215422192,0.3887666388059708,1.0660353439883274,3.982020934151987,-6.308251299118238,-0.0862977576865423,-0.0926950345753545,-0.7675261458946657,0.0092788649182047,0.029802086263464,-0.0311040257750461,-68.18365844991308,-23.109156056993317,-8.956545011301845,-0.0003309806207207
44,1724915320880043342,-0.471299797296524,0.139799416065216,0.1646730452775955,-0.0573172867298126,-0.0269613917917013,-0.3745496571063995,0.9250407218933104,0.0,0.0,0.0,-0.713760140016428,-0.450302581096522,0.3872553086447352,0.176594649,0.016089730932118,-0.0417024566103822,0.1972707506054124,-17.95839133901738,6.76511831880785,-9.972898665225104,-0.0863242455453766,-0.09295090030552,-0.765430612417305,0.0026884632469261,0.0262234554905811,-0.0202999017633693,-23.92874547163044,-0.7283887123877619,-53.90838779748043,-0.0001816052004369
46,1724915320890094564,-0.4713170528411865,0.1400564908981323,0.1644751280546188,-0.0576756261289119,-0.0267534535378217,-0.3737313151359558,0.9253554344177246,0.0,0.0,0.0,-0.6280465008481506,-0.3620140593282981,0.0300635046600363,0.186645871,-0.0734755697628622,0.003922985628451,0.1783772959456047,-0.0475854736091597,-7.41767520403977,7.0418362239613455,-0.0872287795483857,-0.0927562333355122,-0.7636401740516305,-0.005276720493466,0.020660006586568,-0.0226968130107234,27.094878008336813,36.55709917727992,-17.750473559092136,-0.0001636255121443
48,1724915320899632725,-0.4713996052742004,0.1402090489864349,0.1642314344644546,-0.0580013990402221,-0.0274474117904901,-0.3722418248653412,0.925915002822876,0.0,0.0,0.0,-0.2015541477096726,0.2380570575556132,0.0217489971743672,0.196184032,0.006294853574232,-0.1750539701704615,0.3262950218827258,-0.7364480523559243,-3.048374410377736,1.9722153044186024,-0.0874729832258737,-0.0941480581675523,-0.7603799569050185,-0.0097789819205829,0.0189403406201558,-0.0199794914011155,39.77760021854244,47.730036093465486,-43.83044096425323,-0.0002215520309123
50,1724915320911611580,-0.4715336561203003,0.1404802501201629,0.1640758961439132,-0.0587431788444519,-0.0269478466361761,-0.3714618384838104,0.9261960983276368,0.0,0.0,0.0,0.2006675406666851,0.5813993972034353,-1.1495645848363467,0.208162887,-0.1394242695588965,0.0248618830435174,0.1462864372124082,-12.089622241853933,2.96383937494743,15.093250692210615,-0.0893050733895296,-0.0936967141518992,-0.7586531086097229,-0.0081243642526587,0.0280856917876963,-0.0236776726405611,20.01832182976008,-12.71541904492425,-32.73929855717834,-0.0001184572680963
52,1724915320919471025,-0.4715816974639892,0.1407290697097778,0.163834661245346,-0.0596724823117256,-0.0265914611518383,-0.3699512183666229,0.926751434803009,0.0,0.0,0.0,0.2880796507861147,0.2680921089792478,-1.071475453751505,0.216022332,-0.2340548635780727,-0.0226202829611418,0.4202318892165424,-0.9275933350067916,-5.38280582415527,18.250109641121576,-0.0914550246309663,-0.0935756692655112,-0.755333194247339,-0.006224734667267,0.0317163548117669,-0.0370485316779856,8.837386044172018,-44.409648050522385,67.7243172463426,-0.0002065132731133
54,1724915320929788666,-0.4716474413871765,0.141057088971138,0.1633663326501846,-0.0603022575378418,-0.0266266390681266,-0.3681078553199768,0.9274434447288512,0.0,0.0,0.0,0.3483173464493241,-0.2516828770702264,0.4100083471745122,0.226339973,-0.0931064212280962,-0.069237491462966,0.3836141911511381,6.352827380845694,-4.253693927881256,-8.853808879268813,-0.0927924206053586,-0.0939229025380975,-0.7513086186085884,-0.0026242374171125,0.0318567017430675,-0.0395735696941947,22.4384751629471,85.63671402466808,14.064316199777508,-0.0004208098119446
56,1724915320940434959,-0.4716342091560364,0.1413969546556472,0.1630089282989502,-0.0610757619142532,-0.0268962569534778,-0.3669458031654358,0.9278454780578612,0.0,0.0,0.0,0.7695634929737641,2.154200978990121,-0.8631240706267418,0.236986266,-0.1057547526067963,-0.1116178090125212,0.2310788430038881,-0.1802267985110031,-2.3957752201368674,-12.18977895412682,-0.0941607341777367,-0.0948764045857288,-0.7487368804794823,0.0010769346020547,0.0262629411803742,-0.0280159272518356,447.8866975467329,300.8167889245915,854.6163860089916,-0.0003090599698476
58,1724915320974519616,-0.4716156125068664,0.1416744291782379,0.1626601815223693,-0.0612555593252182,-0.0271546375006437,-0.3661524951457977,0.9281393885612488,0.0,0.0,0.0,60.59297714608918,20.573557818754807,134.57468344878794,0.271070923,-0.0019202031611957,-0.0203176418639778,0.048876629331228,1696.3054013848955,-1717.423425027553,4201.5156476688735,-0.0943906700982409,-0.0954090126630092,-0.7470052314983981,0.0733481621102782,0.3920983892215304,-0.270087645921933,-25544.25981601249,-77182.27260095245,32278.125143201527,-0.0003086498684447
60,1724915320975169212,-0.4715670645236969,0.1419338881969452,0.1624815165996551,-0.0610801912844181,-0.0275804828852415,-0.3652661740779876,0.9284875392913818,0.0,0.0,0.0,43.66155601788227,-30.52596017925339,155.8928405463708,0.271720519,1.1209558903920631,-1.1572442411977333,2.8302461827799967,242.1311391673104,-356.631058984302,4901.357309714542,-0.0938449781277889,-0.0959846423025436,-0.7450954446275257,0.1134330207335096,0.4055847164346744,-0.1809144828884257,-34765.509996351044,-80454.63337740308,11732.90531545956,-0.0001427234949479
62,1724915320975688751,-0.471492052078247,0.1421471685171127,0.1624266356229782,-0.0610412023961544,-0.0277348943054676,-0.3638902604579925,0.9290257096290588,0.0,0.0,0.0,21.98408218917411,-73.06951871687825,153.2274249786334,0.272240058,0.6291033968204873,-0.7634684859811,5.634176683955931,-861.432802615614,690.5096831298102,4598.684496864423,-0.0938024993659273,-0.0961053313979988,-0.7421304409719618,0.1286184887509733,0.3684144398220992,-0.0921858870914551,-38128.12795884499,-71705.74068372832,-8794.166653130891,-2.642596987800681e-05
64,1724915320979484336,-0.4714410006999969,0.1423780024051666,0.1624496430158615,-0.061586070805788,-0.0274553783237934,-0.3622219860553741,0.9296497106552124,0.0,0.0,0.0,-23.01116521668465,-62.9116565513588,18.253185696671327,0.276035643,-0.2758735304971022,-0.012183443250541,0.9532715331331136,-170.49320880942082,146.77964946820555,-922.929987938899,-0.0951967207369709,-0.0958099414704722,-0.7385072267425953,0.0111715989662748,0.0487914633157084,0.0025886927105793,-8191.180582660838,3477.4570004227053,-26688.66615323869,5.349315459957675e-05
66,1724915320990161246,-0.4713901579380035,0.1425377875566482,0.1623729765415191,-0.0618886835873127,-0.0271175168454647,-0.3601540923118591,0.9304426908493042,0.0,0.0,0.0,-0.4398758124747534,-1.7191795285558742,-0.2324991538008702,0.286712553,-0.0558388899099647,0.018525574078138,0.41936620060677,14.012025853697912,1.3679491744426622,-31.223324634005746,-0.0962180490509526,-0.0951851840167821,-0.7340488649665247,0.0037085981030671,0.0167371252128507,-0.0042468275268152,1219.8318960099698,3322.67292412477,-952.9482630637945,-5.474238963540768e-05
68,1724915321003758252,-0.4713579714298248,0.1427960395812988,0.1623660326004028,-0.0617911517620086,-0.0269632469862699,-0.3581295311450958,0.9312346577644348,0.0,0.0,0.0,0.6625162818254308,1.7522274197915215,0.289209314394294,0.300309559,0.0204606387959998,0.011008967654968,0.3200514882231016,4.113126162918168,-0.4502676489897358,-7.001182936022465,-0.0963507666324659,-0.0946178075150637,-0.7297119990355041,0.0022142722511664,0.0155780695265941,-0.0003482155663407,264.55127163463084,3621.300606036974,-2659.4952302274214,2.7635602317393764e-05
70,1724915321044759468,-0.4712860882282257,0.1430125087499618,0.1623718440532684,-0.0617181845009326,-0.0268024671822786,-0.3567886650562286,0.9317588210105896,0.0,0.0,0.0,34.193851209187414,566.3929966786508,-442.3105398147814,0.341310775,0.0038492712409294,0.0052259396316844,0.0704538443908347,2731.6448473583314,737.9391615311531,5256.321316911251,-0.0964631682824457,-0.0941264964816581,-0.7268447492882791,0.1248779923064375,0.314601813320138,0.0118167776974473,-385231.3154231368,-688113.026017516,195426.53097241884,3.4371137671662265e-05
72,1724915321045312003,-0.4712161719799042,0.1431886404752731,0.1623784601688385,-0.0613044686615467,-0.0267945025116205,-0.3560084104537964,0.932084619998932,0.0,0.0,0.0,-181.53445426348043,180.96023721827964,-332.79501817008156,0.34186331,1.5335214926698666,0.4184588971620152,3.013939223336039,-2885.710737837379,10640.223897685612,23304.353919823705,-0.0957698916987925,-0.0937365098003404,-0.7252019109350906,0.1440036229353154,0.6317168242276807,-0.2358709285315399,-429436.0506578159,-1433675.923978711,776152.7099892232,2.960537024875014e-05
74,1724915321045561204,-0.4711783230304718,0.1433812379837036,0.1622918248176574,-0.0611343272030353,-0.0262339245527982,-0.3547802567481994,0.9325799942016602,0.0,0.0,0.0,-292.93393953313193,-259.04629890139176,-74.41969974800122,0.342112511,0.1789093019936219,4.181844205186885,10.84191187552294,-1742.857529931218,4670.6387943898,11044.551621253482,-0.0959670918296293,-0.0924405695439192,-0.7226011205626381,0.0744714164989091,0.6326454795563734,-0.3058246070873736,-265834.3720007187,-1435766.0134280152,939945.0445644808,-6.053254977018673e-05
76,1724915321045865045,-0.4711843729019165,0.1435215175151825,0.1622143983840942,-0.0609230510890483,-0.0259809233248233,-0.3538496494293213,0.9329543709754944,0.0,0.0,0.0,-306.58057893529764,-573.0744726199814,175.2875868446655,0.342416352,1.017458413571205,1.7366306547976358,6.652240574541413,2728.6479696395486,-7958.598751401545,-13637.899085215966,-0.0958390631919662,-0.0917217858968245,-0.7206313389089118,-0.019688289047666,0.4565894004450383,-0.2520130755102285,-44221.98416876788,-1021672.4183626926,812745.1175122068,-5.818889660500746e-05
78,1724915321072794027,-0.4711822867393493,0.1436499655246734,0.162140280008316,-0.0598899871110916,-0.0260930191725492,-0.3527369201183319,0.933439314365387,0.0,0.0,0.0,153.59283158020628,209.703864296016,366.15068171607135,0.369345334,0.078868231705168,0.0152829711648179,0.0873448202273535,-12921.25592667208,-17614.74255253874,16690.654321093778,-0.0939262619588216,-0.0910892317967876,-0.7183190736324843,-0.3580809424749986,0.2045549796608838,0.132523203303208,74399.01776401087,-69547.5670322302,-69024.91530459106,-5.677333897776764e-05
80,1724915321073200210,-0.471329927444458,0.1437342762947082,0.162194937467575,-0.0614409074187278,-0.0270060282200574,-0.3513542413711548,0.9338340163230896,0.0,0.0,0.0,184.16357025187472,180.8506396245823,337.64761900426095,0.369751517,-5.248476824082289,-7.247053857880038,6.970556364555748,-3096.7946244299155,16014.649425025846,17760.538409752153,-0.0963452706539008,-0.0937506138861379,-0.7152077450324161,-0.294676146539814,0.2910752487325112,0.2834031787243702,57684.674718444,-92805.91650942469,-108126.35293522105,6.65121819002784e-05
82,1724915321073462587,-0.4713955819606781,0.1438248008489608,0.1622945219278335,-0.0618925914168357,-0.0263793338090181,-0.3499492108821869,0.934349536895752,0.0,0.0,0.0,196.319371632999,152.81067688334485,302.8452418232095,0.370013894,-4.362968374603315,2.699347010702105,11.768550355983976,3277.4434825176095,36555.69191992626,17585.72681676415,-0.0977710060429845,-0.0927464726383467,-0.7121899928445286,-0.2415993690044384,0.3330761084924983,0.3662637941297222,43815.20578171395,-103972.63453050796,-129592.1545708694,0.0001112165819493
84,1724915321080619379,-0.4714398980140686,0.1438775062561035,0.1623226851224899,-0.06155451759696,-0.0256998836994171,-0.3473133444786072,0.9353737235069276,0.0,0.0,0.0,19.06559425967728,-25.892289179711295,-29.12187312605943,0.377170686,0.058972805286181,0.1724318157877721,0.7976670596982279,359.17391442756576,-198.3577251845215,-884.7541344585671,-0.0978611769428316,-0.0909607835483855,-0.7066054713597689,-0.0025303500303586,0.0079715794389203,0.0032562451448043,-14972.093943070717,-13031.377804224172,-25088.581870027232,3.51584319453222e-05
86,1724915321090074269,-0.4714180827140808,0.1439604610204696,0.1623449921607971,-0.0602527111768722,-0.0248977970331907,-0.3450133204460144,0.9363308548927308,0.0,0.0,0.0,-0.1438446756539265,0.0181717222650565,-0.3209050196901288,0.386625576,0.2236147066137179,0.2295969236448868,0.5287681465243032,-0.3055578164732369,-9.134844574738276,-16.75248826697869,-0.0961752459310375,-0.0883158884783995,-0.7018205651444842,-0.0013733665302559,0.0071570975319623,-0.0022810182676433,-1026.1780278094711,1402.044385965933,1557.736573197406,3.2792471417854406e-05
88,1724915321099780831,-0.4714680910110473,0.1440138220787048,0.1622766107320785,-0.0601278841495513,-0.0248774345964193,-0.3428108692169189,0.9371481537818908,0.0,0.0,0.0,-0.0846105633726576,0.2902829191587541,-0.0325310451370347,0.396332138,0.0440804360747864,-0.0103479998217344,0.4826262933828913,-15.825148925276448,-12.93501789321854,-9.594765053179032,-0.0961603217483628,-0.0879660717268665,-0.6971298739614515,-0.0054224032095078,0.0083729815247677,-0.0027577292667624,16.23924102271475,5.251030941669941,9.841660277832212,-6.06083510535484e-05
90,1724915321111653799,-0.4715363979339599,0.1441549956798553,0.1623061299324035,-0.0607414059340953,-0.0245169550180435,-0.3411682248115539,0.9377173185348512,0.0,0.0,0.0,0.2554125118185475,0.0217574348878013,-0.2042151721263774,0.408205106,-0.1050200209754932,0.0072250614201221,0.2984013361938332,9.948725374989252,6.92550098998629,8.030709300370916,-0.0977167198859433,-0.0875377774044659,-0.6935982609547359,-0.0015976300737747,0.0142160517624496,-0.0029031623976276,-19.183593729430513,-54.41574885911123,-2.3822326777125795,4.801925928419396e-05
92,1724915321119404464,-0.4715277552604675,0.1442769467830658,0.1622563600540161,-0.0603575333952903,-0.0241961888968944,-0.3394367098808288,0.9383785128593444,0.0,0.0,0.0,-0.1352347361589433,-0.5608929782789503,-0.1615696128372648,0.415955771,0.0859647697714407,0.0884540564822327,0.4797839749733652,13.310002931438405,2.046245630073817,6.392881058772019,-0.0973674553815582,-0.0864932963066973,-0.689950174605966,4.436394968720947e-05,0.0120047645978065,-0.0054572428227599,-38.97921161519352,-43.74581798873743,9.793720140108444,-3.356993610033335e-05
94,1724915321129993549,-0.4715427756309509,0.1443501114845276,0.1622125208377838,-0.0601045414805412,-0.0242721084505319,-0.3379269242286682,0.9389375448226928,0.0,0.0,0.0,-0.3827389644110712,-0.5694466717176844,0.0042225407006765,0.426544856,0.0629789843901278,-0.0118928178602494,0.3014051975624509,-8.320277863096138,-14.572248258964208,-6.09299817370794,-0.0969767667223128,-0.0863089896848243,-0.6867494729710297,-0.0064089455521347,0.002078464756626,-0.0047382304334906,11.220793523221133,28.750998730327144,10.561507098288178,-3.3938109519317795e-05
96,1724915321141039695,-0.4716710746288299,0.1443174034357071,0.1621532887220382,-0.0611020624637603,-0.0251678731292486,-0.3360058963298797,0.9395387768745422,0.0,0.0,0.0,0.1398356375183618,0.0887449991657982,0.0621727067589384,0.437591002,-0.0997891438128256,-0.2315786188861737,0.3580018096902284,4.937351824260008,1.9273560784900865,1.8913717092092917,-0.0984457283870708,-0.0884690513816377,-0.6825481754532222,-0.0080245861615395,2.8275717770753772e-05,-0.0054253535865687,9.666813763394966,26.512392402147785,6.180877366024213,-6.222394122788508e-05
98,1724915321149932239,-0.4717167317867279,0.1443390548229217,0.1621045917272567,-0.06087351962924,-0.0254426188766956,-0.3345110118389129,0.9400795698165894,0.0,0.0,0.0,-0.0436704489294398,0.0877422901600445,0.1238276960655464,0.446483546,0.0849492954274626,-0.0582673441781338,0.3516816097951515,12.08490125242518,11.834115186039968,-3.2312396267413614,-0.0979712290619326,-0.0886780764796379,-0.6793727523322659,-0.0047329649801213,0.0027814459720731,-0.0039820843317652,-23.770879579618736,-13.350407688564816,0.7149052435212706,-4.510181911775896e-05
100,1724915321160372768,-0.4717612266540527,0.1443723440170288,0.1620813310146331,-0.0604480803012847,-0.0256741531193256,-0.333078920841217,0.9406090378761292,0.0,0.0,0.0,-0.3302789269515498,-0.2139098974670755,0.0550662801171212,0.456924075,0.1046047195408143,-0.0285525449049309,0.2870493995937033,-9.763754648604124,-0.5998191197068108,4.128672460883642,-0.0971468773516919,-0.0886828411295877,-0.6763490957569401,-0.0102615746895615,0.0009779407930885,-0.0031608634029822,6.275407307073276,-16.98726817475972,5.26214058936997,-1.834787272601435e-05
102,1724915321169578720,-0.4719043970108032,0.1443634033203125,0.1620446592569351,-0.0609369874000549,-0.0257066171616315,-0.3313004374504089,0.94120454788208,0.0,0.0,0.0,0.0012659138476055,-0.2736554170450502,0.1996850101925253,0.466130027,-0.0798176779657182,-0.0620462310023143,0.4088223071155805,6.892742786179241,8.291128630630848,7.753826866624065,-0.0982200715733684,-0.0888842619567742,-0.6725327387332113,-0.0116846852793841,-0.0013254880370601,-0.0028454204679615,15.294211233848806,-9.40965908495826,30.978748722196467,-3.638151257178062e-05
104,1724915321179622807,-0.4719793796539306,0.1443462073802948,0.1620285511016845,-0.0593943521380424,-0.0253309775143861,-0.3292919993400574,0.9420177340507508,0.0,0.0,0.0,-0.0721780916493167,-0.4001633376630764,0.6781693351982717,0.476174114,0.2844796166706131,0.1519591734277566,0.4267176163174221,4.664652520657019,4.576169888831992,-3.606169140635199,-0.0957256971409888,-0.0869501505529506,-0.6683986015038647,-0.009964063593955,-0.0043310250920374,0.0009729917985614,-12.69768839755375,-16.311639958505527,17.10807735150194,-1.7539478515781272e-05
106,1724915321191278508,-0.4721293151378631,0.1442603021860122,0.1620747447013855,-0.0599671974778175,-0.0251681692898273,-0.3275854289531708,0.9425806999206544,0.0,0.0,0.0,-0.2930226498794985,-0.640554292850643,0.4646256057133265,0.487829815,-0.0886391690203363,-0.0209966469075826,0.3118097053373753,-10.85446777526102,5.691638180381302,-9.590935714923408,-0.0970760564004337,-0.086843941265638,-0.6647438359088597,-0.014098705070765,-0.0103603635684113,0.0129083064996056,8.58631960475551,-1.214130407041246,-53.55066194456724,3.5897990084868277e-05
108,1724915321199412110,-0.4722509980201721,0.1441590636968612,0.1622305065393448,-0.0600201860070228,-0.0244913883507251,-0.3267235457897186,0.942894160747528,0.0,0.0,0.0,-0.0669092575424139,-0.5402610793976561,-0.1708910225926571,0.495963417,-0.0568407823536778,0.1418232410421683,0.2353195829807704,3.0920707968655883,4.374343104874553,-4.694192909119849,-0.0976932395755394,-0.0855097587564614,-0.6629442873034054,-0.016131788680159,-0.0162700203247201,0.013512546443807,20.27331083879528,26.423940117769423,-23.535894320321475,0.000142221407971
110,1724915321209499635,-0.4724283814430237,0.1439471095800399,0.1622962802648544,-0.0602373592555522,-0.0244039632380008,-0.3255506455898285,0.9432883262634276,0.0,0.0,0.0,0.0434342419994395,-0.097391026005782,0.2747668752131335,0.506050942,-0.035876270711655,-0.0097679089688452,0.2468930784300999,3.2227614416183936,-7.055146417476651,-1.0975810202668113,-0.0982682740436859,-0.0853642074060831,-0.6604471026573854,-0.0145166066688595,-0.019388997818682,0.0087212676464387,-10.654603724245291,26.590315884651,32.22790714248305,3.8972883640314056e-05
112,1724915321221617091,-0.4725596308708191,0.1437357813119888,0.1624339967966079,-0.0601126588881015,-0.0242509357631206,-0.3244067728519439,0.9436941742897034,0.0,0.0,0.0,-0.3999805383992869,-0.0271815975662343,0.4913268919534654,0.518168398,0.0198346004743882,0.0207874892287277,0.2009168715182875,9.398827401724148,15.159649430718993,12.386334811912205,-0.0982325436382035,-0.0848747064695503,-0.658040179176605,-0.015688710425195,-0.0174861876077354,0.0229638286059952,-16.888692322189414,-22.22422701631933,-39.978835791464945,0.0001101461365118
114,1724915321229416499,-0.4727063775062561,0.1435991674661636,0.1626713275909423,-0.0594607777893543,-0.0235653258860111,-0.3230488002300262,0.9442185163497924,0.0,0.0,0.0,-0.4327845731720616,-0.3411719059673392,-0.1108996711723396,0.525967806,0.1172426445109211,0.2024679644936837,0.3787508164093419,0.0663353832981501,4.534370440882829,17.079879246182294,-0.0975524975739064,-0.0830144145865053,-0.6552447558072562,-0.0203306753279832,-0.0186229499923387,0.0233618993319764,11.316513677904156,-35.029692835650565,-49.05702320742588,0.0002188617274758
116,1724915321240165307,-0.472947359085083,0.1433825939893722,0.1628177464008331,-0.059902686625719,-0.0234333630651235,-0.3206239640712738,0.9450200200080872,0.0,0.0,0.0,-0.0812026242160273,-0.6402462834697431,-0.2210937424931314,0.536716614,-0.0660703682812929,-0.0266915791130449,0.4775897630901412,-3.1535618234060236,-4.755685862589968,-5.7279106828673285,-0.0986895364193732,-0.0827970361661546,-0.6500900965566737,-0.022577106579952,-0.0251850348318942,0.0197709806216543,34.38627357853094,7.720485542074091,-3.822776651992772,0.0001188491007504
118,1724915321249563234,-0.473160833120346,0.1431045234203338,0.1630540788173675,-0.0597560778260231,-0.0230890829116106,-0.3193025887012481,0.9454851150512696,0.0,0.0,0.0,0.2557395421943719,-0.275627395533226,-0.2041942109583678,0.546114541,0.0185122729013901,0.0647169824554869,0.3011375942695625,4.169640155729248,0.5558538169295764,-11.044910175352184,-0.0987430850583903,-0.0819128804627373,-0.647324447088285,-0.022290207966698,-0.0314464902893494,0.0186215127076012,19.51360988989253,28.328224127096647,45.123481913328646,0.0002000455782005
120,1724915321259535811,-0.4733786284923553,0.1427712589502334,0.163170725107193,-0.0597877539694309,-0.0231483504176139,-0.3180071413516998,0.945918083190918,0.0,0.0,0.0,0.2774330582411303,-0.1039148657438724,0.7042869240713826,0.556087118,0.0089762385607608,-0.0267864233461851,0.2728008645198919,3.600976082226766,1.8203365785451249,-3.7768545048835738,-0.0988779698944484,-0.0819103147203593,-0.6445815454945992,-0.0173565535237969,-0.0300613973018029,0.0157186500261143,-4.175045597235092,7.2506015269496835,83.74991485613262,7.434175342147282e-05
122,1724915321272173160,-0.4735261797904968,0.1424451172351837,0.1634337753057479,-0.0587103068828582,-0.0222951918840408,-0.3167973160743713,0.946411907672882,0.0,0.0,0.0,0.1229757346185786,-0.1719136894594686,1.6449914072323355,0.568724467,0.1274628551580758,0.1723070936508169,0.2100919471245261,1.9000276775287137,7.019779962217241,17.58342267338822,-0.0974636005242972,-0.0794830688461425,-0.6421448360458295,-0.01733024013852,-0.0352629280905141,0.0405590216516724,7.452725552233364,31.275327200118294,-38.94220476463613,0.0002208626937158
124,1724915321279526725,-0.4736778140068054,0.142145350575447,0.1638165116310119,-0.0581478029489517,-0.0216793939471244,-0.3153114020824432,0.946956992149353,0.0,0.0,0.0,0.2619687567312963,0.2149220896660393,0.8734742904115411,0.576078032,0.1094457183601759,0.1865523819505868,0.4358649301748424,-5.440256286367465,1.2721524078641415,11.75076518917622,-0.0968996898523515,-0.0778067196564606,-0.6390784100372804,-0.0159086294634605,-0.0355014952100329,0.0512835613772404,1.678049036376854,25.385735490847328,-78.83149272920504,0.0003433433252571
126,1724915321290184663,-0.4737745821475982,0.1418482810258865,0.1643512845039367,-0.0578331165015697,-0.0206470899283885,-0.3140149414539337,0.9474300146102904,0.0,0.0,0.0,0.0138008323883629,0.0650184109981857,0.4362465371513542,0.58673597,0.005274754218213,0.189837891086448,0.2683531902306495,-5.457406427957386,-5.061694640322457,-12.084945106580928,-0.0970470817310824,-0.0755160241737861,-0.6364198432517061,-0.0120561957991682,-0.0293897921997192,0.0515573482020306,-4.172720029480946,-30.60636003278058,-38.62725533404506,0.0004946041706019
128,1724915321300958066,-0.4739368855953216,0.1415151357650756,0.1649217754602432,-0.057756133377552,-0.0201886165887117,-0.313132494688034,0.94773668050766,0.0,0.0,0.0,0.1769792304199569,-0.4448538418375922,0.0461968116779334,0.597509373,-0.0065115830720861,0.0768266750685975,0.1777116646800419,11.2846600682825,-0.1243886054775043,-12.86971361635949,-0.0972544187350723,-0.0745065438306464,-0.6345895305316417,-0.0156935792772081,-0.0342261095897189,0.0607282334070315,16.47999452357287,-33.88791745786842,-52.39053289595488,0.0005258768582971
130,1724915321309576956,-0.4740764796733856,0.1411973685026168,0.1654987931251526,-0.056841317564249,-0.0198159608989954,-0.3130063414573669,0.9478414058685304,0.0,0.0,0.0,0.3282138716577976,-0.6442646717032208,-0.5169555120131504,0.606128263,0.1761037181147337,0.1472268845489278,0.0360620088176809,15.539023365324349,1.8271876107866285,-4.052638496969611,-0.0957504232892719,-0.0732135514963606,-0.6344017862545144,-0.0106198834480011,-0.0380322691176591,0.0555753422247207,-10.77941600965762,-4.618190618777879,17.814210180754603,0.0005349301575082
132,1724915321322067102,-0.4741081893444061,0.1407012790441513,0.1659870892763137,-0.0551730208098888,-0.0199380908161401,-0.3117516338825226,0.9483509063720704,0.0,0.0,0.0,-0.3191346334768512,-0.3667614468018416,1.2106430190286548,0.618618409,0.2679443612220842,0.0552763244763707,0.2095635634076999,-14.562537495483566,-11.426476398406336,27.259940218076324,-0.0925889476345276,-0.0722800921494866,-0.6318542057584448,-0.0112347848327303,-0.0497473815269184,0.0505828842653848,6.034039604009982,63.45750710870657,91.29071815928118,0.0004269621653999
134,1724915321330655768,-0.4742560386657715,0.1402147859334945,0.166489377617836,-0.0552524104714393,-0.0201045218855142,-0.3096053600311279,0.9490456581115724,0.0,0.0,0.0,0.0744197835647008,0.4218104140077554,1.71697784949886,0.627207075,0.0134409826776047,-0.0668670316859481,0.5226448707292062,-20.668010296209324,0.5051667939688649,3.18238953435531,-0.0928013402541155,-0.0724364327686562,-0.6273196551215973,-0.0155697419603306,-0.0495240169928692,0.0704912393048857,39.21970796952853,42.464740362272934,-44.52675694500623,0.0004423222508037
136,1724915321340202749,-0.4743872284889221,0.1398175358772277,0.1672897934913635,-0.0555343143641948,-0.019493693485856,-0.308732658624649,0.9493260979652404,0.0,0.0,0.0,0.3787789505794095,0.3035001660337042,0.1937225006750322,0.636754056,-0.0887432769760989,0.0942380292119519,0.199953565835234,21.81018714547432,8.850445576063589,-15.70457566815756,-0.0937794081203704,-0.0713628125426281,-0.6254979885476162,-0.0087131908758557,-0.0412966454371348,0.0805052260574994,-5.838935201420837,-77.70910493251071,-117.16796252397847,0.0007485597318603
138,1724915321350509196,-0.4744210839271545,0.1393954008817672,0.1680824160575866,-0.0529698580503463,-0.0197465941309928,-0.3075375556945801,0.9498552083969116,0.0,0.0,0.0,-0.1010746475258013,-1.224139460901252,-0.5422661679303129,0.647060503,0.4977980771875565,0.0961711301362655,0.2394347309553152,8.935153813067327,-4.264473551962624,-5.314108848771415,-0.0888166390794273,-0.0701507746124611,-0.6231249971017747,-0.0085857302292851,-0.0443802120759864,0.0729866461110217,6.131500471742356,-94.68600635238344,-36.75895740616791,0.0007401180898527
140,1724915321361101797,-0.4745697379112243,0.1388880461454391,0.168812870979309,-0.0526215359568595,-0.0198246762156486,-0.3071103692054748,0.950011134147644,0.0,0.0,0.0,0.5374950508282852,-1.6442829520428996,-0.5543980474848063,0.657653104,0.0701553039254532,0.0025312848577789,0.0835874331405669,-17.37889297814872,5.108474966149958,5.906434420292365,-0.0881352679401434,-0.0700458299166076,-0.6222432433189873,-0.0108913796816416,-0.0674167005171835,0.0692810238790482,63.03184479178475,76.84238719586054,-19.046668681049752,0.0006697258708603
142,1724915321369454252,-0.4746400117874145,0.1381963938474655,0.1693936586380005,-0.0521647036075592,-0.0193198304623365,-0.3060677647590637,0.9503831267356871,0.0,0.0,0.0,1.0820598483774089,-0.2351432199836085,-0.8313838687495476,0.666005559,0.0764317962805204,0.1370658622834215,0.2687204706182393,7.698129843892168,12.86722256213436,6.804560334986858,-0.087645254886272,-0.0687083977417876,-0.6201027711545294,-0.0014284403273236,-0.0776566694943055,0.0633031495731835,11.408787956983732,143.8512097587069,-20.837289150730253,0.0005007708587484
144,1724915321379772435,-0.474565714597702,0.13746078312397,0.1699673980474472,-0.0506196580827236,-0.0185466781258583,-0.3054025769233703,0.9506961107254028,0.0,0.0,0.0,0.514149283887314,0.93228083034363,-0.8892868061743853,0.676323742,0.2444085790427925,0.2285338487501171,0.1431373818762448,15.95207948755556,7.611318999746315,-7.02403186371334,-0.0852090876376107,-0.066231669294627,-0.6188321267204142,0.0090877390028225,-0.0674531398000208,0.053250243604503,41.96491385780684,-493.78388771403894,273.516029387177,0.000490947351192
146,1724915321391309753,-0.4744365215301513,0.1367320865392685,0.1705513894557953,-0.0477777607738971,-0.01761020347476,-0.3047386705875397,0.951073944568634,0.0,0.0,0.0,2.2497208220380487,-12.594312783756848,5.867242007420763,0.68786106,0.4242265011654033,0.3001783293164053,0.128497952941918,0.1990484462036577,-4.047070601509306,-0.6801816725429264,-0.0803914973752501,-0.0626576647438756,-0.6176386262921343,0.008504377680957,-0.0574273830453604,0.0440868468399511,5.153968024176983,-219.88651001207415,61.91187564225052,0.000506352120076
148,1724915321407975669,-0.4743596315383911,0.1359130144119262,0.1711289137601852,-0.0473803617060184,-0.017815463244915,-0.3036835491657257,0.951427400112152,0.0,0.0,0.0,-1.1618278058779268,6.672669431021745,-5.708935057144174,0.704526976,0.0571195373681914,-0.0141967918790294,0.13133450743973,1640.3358345942502,62.61082951024065,505.19734157439274,-0.0795776829334257,-0.0627186230723067,-0.6154335468570595,0.1013757388971043,-0.5914424977289627,0.30224026304343,-825.690678783454,4532.498183087619,-2365.4280762810477,0.0004914621762027
150,1724915321409511295,-0.4741902649402618,0.1349280476570129,0.1716309040784835,-0.0453181378543376,-0.0183670409023761,-0.3029328286647796,0.9517566561698914,0.0,0.0,0.0,-2.5176467815405355,14.110639744250578,-9.577761804403506,0.706062602,2.8112783228645655,0.0934782325570782,0.9785875994191008,1544.6400596090398,60.81001813665287,473.884029330589,-0.0753538079730578,-0.0624592128190596,-0.6139435163325905,0.0986387261918126,-0.5757177834152005,0.2904739400380935,-787.1136354488697,4299.07263134568,-2216.9843469698085,0.000402391061818
152,1724915321420389730,-0.4740152359008789,0.1337276399135589,0.1719839870929718,-0.0430127270519733,-0.0188569445163011,-0.3022011816501617,0.9520865678787231,0.0,0.0,0.0,-3.6978599130538568,18.914153679016724,-10.391420613650508,0.716941037,0.4359059255931192,0.0376925930505389,0.1345314669399582,-102.36147841867177,-3.4507949767810797,-42.741248570692264,-0.0707008669699778,-0.061943486266514,-0.6125110450053239,0.0145857844674743,-0.1239271693267536,0.0386659229849151,139.79686772240655,-843.5259452457645,571.0182445311691,0.0002377918434747
154,1724915321429865168,-0.4738894402980804,0.1324412971735,0.1724016070365905,-0.0410776585340499,-0.0193745419383049,-0.3020891845226288,0.9521971344947816,0.0,0.0,0.0,-0.3240070623579451,0.3150408670732227,0.3493782305991058,0.726416475,0.4233343074348545,0.018838197516399,0.0171583765258872,1.4579389219246153,0.156665986412865,-2.1648506726290773,-0.0666988679447729,-0.0617542427429655,-0.6123607764620838,0.0127974060979347,-0.1313715791633507,0.0454830881098295,174.00707099465058,-1088.842445687625,607.5015166026318,0.0002986920194472
156,1724915321440129353,-0.4737634062767029,0.1311416178941726,0.1728841215372085,-0.0387264639139175,-0.0198625642806291,-0.3015202581882477,0.9524658918380736,0.0,0.0,0.0,-0.5621711743544802,-1.1430167269778968,0.7360681425838747,0.73668066,0.4692607666079064,0.0443121160118132,0.1085948037955249,-5.706487236953107,-0.3437623063457484,5.386002998199243,-0.0619489681104945,-0.0612287069021774,-0.6112756275450352,0.0079677403587226,-0.1158997753513748,0.0449544233944196,12.991691980153911,-173.9191152670183,4.81040182704902,0.0003674146456292
158,1724915321452302749,-0.4737286567687988,0.1298855394124984,0.1734016984701156,-0.0372769422829151,-0.0203013028949499,-0.3007742464542389,0.952750325202942,0.0,0.0,0.0,0.1185571091127282,-3.7202784302465903,0.3201553994970405,0.748854056,0.2528039501450189,-0.0006677265155538,0.1233067816868565,-22.16825607801161,0.8022662277965089,-10.054059118615823,-0.0589633089502565,-0.0611461298917062,-0.6097740298752312,-0.0001988001739192,-0.1680795786750781,0.0652856547827802,33.79668742442787,225.54617439458605,-237.93548593382184,0.0004105865326577
160,1724915321459389898,-0.473742663860321,0.1284265667200088,0.1739583313465118,-0.036990251392126,-0.02030367590487,-0.3007529079914093,0.9527681469917296,0.0,0.0,0.0,0.2668007468622506,-0.3176603064361556,-2.2068870973878747,0.755941205,0.0775928712919154,0.0235735762164184,0.0055824719723852,10.373317465054756,14.467407689519312,-15.106224498460382,-0.0584152080618541,-0.0609770230948372,-0.6097442373876845,0.0038985476477506,-0.1921099988352583,0.0619845947049642,-19.26248664251586,425.59864695127055,-271.52702129148355,0.0004342253075594
162,1724915321469402030,-0.4736205339431762,0.1266976445913314,0.1743447482585907,-0.0332554019987583,-0.0197985600680112,-0.3013352155685425,0.9527325630187988,0.0,0.0,0.0,-0.4943721468772306,3.172450393005726,-3.7226221154131034,0.765953337,0.6778558721712827,0.3246745676300128,-0.1243796834540503,17.80972565460675,16.209845559817484,1.702094870659179,-0.0515438592279256,-0.0577996907489292,-0.6111689087065673,0.0021661479534813,-0.1518244013330649,0.0152622179739214,-22.928728541828164,120.36280129658373,19.980301581597843,0.000252913471947
164,1724915321480063968,-0.4737113416194916,0.1253157258033752,0.1742425560951233,-0.0307383555918931,-0.0186857096850872,-0.3010461032390594,0.9529308676719666,0.0,0.0,0.0,-0.1359855037319727,1.8644991650909375,-1.5638709582465409,0.776615275,0.3892443893778014,0.3400948531188476,0.0604725516969961,-14.026201931254391,-7.099950649475212,14.399166551407925,-0.0474197749612979,-0.0541461572247432,-0.6107034759491599,-0.0067533089279656,-0.1276647026003496,-0.0137105715001677,12.549826851556734,-239.29586963903537,158.52094146163284,-0.0001968787499869
166,1724915321491121346,-0.4737657904624939,0.1239264234900474,0.1740436404943466,-0.0284635759890079,-0.0184308718889951,-0.3000534176826477,0.9533195495605468,0.0,0.0,0.0,-0.2387663790411852,-2.118835897188889,-0.3150608619163867,0.787672653,0.3837232030029775,0.1635840997075226,0.1859933340600216,3.887673247823366,-6.2145651913671305,1.4996670130338416,-0.0432818268979535,-0.0522459730383547,-0.6087282531563096,-0.0002230108634115,-0.1116521632593912,-0.0177747653673563,-26.15550928573982,-141.27905857898153,125.3671372100038,-0.0002882382886639
168,1724915321505082000,-0.4736860394477844,0.1226143240928649,0.1737992763519287,-0.0245176143944263,-0.0178487692028284,-0.2998127043247223,0.9535160064697266,0.0,0.0,0.0,-0.901097506922405,-0.2316883968405889,1.6542061308368912,0.801633307,0.5153238312084913,0.2486557495433984,0.0332743048269653,-108.1200008069126,32.075167219472306,26.071699260569,-0.0361040426576109,-0.0487588766354218,-0.6084014450665738,-0.0181746442518999,-0.2041046800181867,-0.0212479485511742,65.61318939625994,677.2419036290114,185.386340217144,-0.0003208479904589
170,1724915321509450733,-0.4737980961799621,0.1215720996260643,0.1737013310194015,-0.0244926325976848,-0.016877319663763,-0.2994279265403747,0.953655242919922,0.0,0.0,0.0,-0.4598905290272247,3.4680672065539473,2.5247110234323977,0.80600204,-0.1177232918084386,0.4243032984329545,0.1977728388808411,-92.97941548767592,27.08649675637393,22.392809670799068,-0.0366564375200969,-0.0468750094182571,-0.6076045192889585,-0.0215852655595689,-0.1963800739184495,-0.0114195565303134,78.72771174448052,595.2671583593285,116.4367889836136,-0.0001550299024966
172,1724915321521095831,-0.4739232957363128,0.1205946654081344,0.1739097982645034,-0.0216275211423635,-0.0157501827925443,-0.2995177209377289,0.9537156224250792,0.0,0.0,0.0,-0.2341958186564781,2.590048601243712,1.3098054687316014,0.817647138,0.4112967823764038,0.3325026057304809,-0.0151655985061923,37.25689871902989,-17.042504190002195,-10.072236900717009,-0.0318529319614288,-0.0430113028470553,-0.6079139609249162,-0.0169829465937567,-0.1032277773319014,0.0265170920451165,2.797211278131787,-176.2286779919683,-167.5382923608574,0.0001607639334686
174,1724915321530246404,-0.4741235077381134,0.1195113509893417,0.1742143929004669,-0.0184463020414114,-0.0162221621721982,-0.299687772989273,0.953721046447754,0.0,0.0,0.0,-0.3278445700898431,0.2524426046298389,-0.6777762028616882,0.826797711,0.6934611636512013,0.1106948429942024,-0.048274405029831,-5.1327166848123085,-20.345380825864183,1.5479742517534774,-0.0254873313653123,-0.0420114543373315,-0.6083848935279247,-0.0236516930185857,-0.118421856592346,0.0244961545576796,24.658364034239057,-16.52609924402175,-122.20337918463368,0.0002595586274567
176,1724915321540018706,-0.4743731319904327,0.1183537393808364,0.1743620336055755,-0.0172689203172922,-0.0168338809162378,-0.2995652258396148,0.9537710547447203,0.0,0.0,0.0,0.2772727174395449,2.5845249145548452,-0.8804857078748238,0.836570013,0.2679263915458932,-0.0474834758220048,0.0207687083300978,-32.88536117186202,-6.574233289795456,3.526823524066968,-0.0228781258999187,-0.0424704391844325,-0.6081706544299975,-0.0226712265081285,-0.0959914282423199,0.0131041519382284,-59.179471280764325,-668.0589285082075,-218.5138746766032,0.000103093623212
178,1724915321554160092,-0.4746349453926086,0.1174560487270355,0.1745063364505767,-0.0170078184455633,-0.0164992790669202,-0.2995814681053161,0.953776478767395,0.0,0.0,0.0,-3.0378011376006224,-25.41733581891222,-8.017720216560795,0.850711399,0.0210186718170701,0.0562494218966586,-0.0017655552933311,-11.210695729284822,5.2082544895307565,-0.6623220794301343,-0.0225790803132152,-0.0416757661998063,-0.6082137170031704,-0.0151293029843007,-0.0535241453280812,0.006490343361184,313.975075621403,3153.320833854154,2176.259512435338,0.0001117145046117
180,1724915321585975994,-0.4748740196228027,0.1164657548069953,0.1744469851255417,-0.0149928834289312,-0.0159621573984622,-0.2989054918289184,0.9540315270423888,0.0,0.0,0.0,46.20640718039715,442.3652860852999,253.12753604473937,0.882527301,0.1116659752788725,0.0696910893749407,0.0438163470564145,41236.34534968265,24907.76703251288,10376.97491894193,-0.0190810017335981,-0.0394299294707777,-0.6068650967504293,-0.367403568365944,-2.8965533252827527,-0.7890376850302232,72879.02461964445,691746.1984184206,132572.7937626288,-9.19351978993823e-05
182,1724915321586418694,-0.4750388860702514,0.1151657998561859,0.1740928292274475,-0.010332710109651,-0.0148027017712593,-0.2978805005550384,0.9544324278831482,0.0,0.0,0.0,78.90934583140279,752.771858763017,312.5835884862856,0.882970001,18.620990942804685,11.249786709744962,4.70161561436573,18694.72949629411,11230.831358821328,-2079.8576727954,-0.0109115537986521,-0.0344189783307522,-0.6048570754939093,-0.3465951600543917,-2.697442837641674,-0.6752648572474698,66280.44107822649,626302.0954096282,95167.27852008684,-0.0003873855535813
184,1724915321586932719,-0.4752016365528106,0.1139218807220459,0.1738201677799224,-0.0061145960353314,-0.0137953944504261,-0.298799455165863,0.954196572303772,0.0,0.0,0.0,108.44845658714176,1030.024395211558,338.14397474042835,0.883484026,14.434347005393818,8.652904802291614,-3.888402815072678,-7610.216431920536,-4744.021758676079,-14120.625039263188,-0.0034264874914008,-0.0299856054477315,-0.6068886873045127,-0.2869909974812259,-2.1296515921133885,-0.4814130442468318,46669.903288983376,436581.6316124584,30945.21997017829,-0.0002936176096566
186,1724915321590006636,-0.4755391776561737,0.1127120181918144,0.1732416450977325,-0.0049706511199474,-0.0145834423601627,-0.2982967793941498,0.9543488621711732,0.0,0.0,0.0,53.4453258320554,482.4499632093052,88.03368211828855,0.886557943,0.8685220874919571,-0.2674862446282605,0.3282820335056997,-3632.0244925539414,-2374.530243117823,1121.3494396094216,-0.0007874564007812,-0.0308057138519071,-0.6058774861546695,-0.0916311132799529,-0.3342862910000521,-0.1585525565447123,-15334.5571101976,-152371.4316207743,-67889.77687672994,-0.0005918582042672
188,1724915321604135469,-0.4756533801555633,0.1118401885032653,0.1729270666837692,-0.0021357939112931,-0.012248570099473,-0.298891007900238,0.9542062878608704,0.0,0.0,0.0,2.9667387886275685,2.78408208979325,3.949684775409268,0.900686776,0.2830500284792123,0.4352498099511922,-0.0905052664330882,24.18663998805893,31.89971442752181,-4.45747289116988,0.0032469914566719,-0.0246545620281835,-0.6071491225838541,0.0070158836216336,-0.1167929300542294,-0.0186485650440619,-1497.3681560482355,-11769.966823830156,-2313.060869298173,-0.0003218945113912
190,1724915321611314348,-0.4755479395389557,0.1108008101582527,0.1728063821792602,0.0008924410212785,-0.0109432442113757,-0.2989683449268341,0.9541999101638794,0.0,0.0,0.0,-0.2125791618833288,-0.8093049518947408,0.6150954437845751,0.907865655,0.6960556805624182,0.5991880959595228,-0.0306469447693524,24.273780150366633,-0.924866528903422,4.173454526924713,0.0082483031714042,-0.0203518669796368,-0.6073444713788202,0.013667816428736,-0.1428007318805715,-0.0120059834869064,-300.4304190964131,-88.86419098909448,-272.55511711176166,-0.0001279445369101
192,1724915321619374902,-0.4754469990730285,0.1096676960587501,0.172753095626831,0.0036195842549204,-0.0102062467485666,-0.299073189496994,0.9541687965393066,0.0,0.0,0.0,-1.3450537936547888,2.200366745819652,0.1553497224979307,0.915926209,0.5907239984282048,0.3766833793698356,-0.0346989026919142,-30.207988804825387,-27.903723982603783,7.865197903269017,0.0130145359703239,-0.0173127879939279,-0.6075919370250417,0.0016441766698918,-0.123860406919884,-0.0098554391625897,-42.942637159905686,184.1934218852162,-32.113761555630866,-5.454921773619702e-05
194,1724915321630421906,-0.4755935370922088,0.1085524708032608,0.1725950986146927,0.0037019308656454,-0.0098689552396535,-0.298129141330719,0.9544674158096312,0.0,0.0,0.0,-0.3424911060169507,1.370837519503139,0.1779174888456394,0.926973213,-0.0024889952041075,0.0638952498780078,0.1788772802921201,26.03086011079048,30.488444482791145,-3.3527817236853075,0.0129533449600119,-0.0166326523479393,-0.6056065945638368,-0.0109949654736354,-0.1018146718098291,-0.0098266190125304,63.44595440168806,-74.96059174764346,-15.766319934691143,-0.0001535592635781
196,1724915321639524811,-0.4756765961647033,0.1076191961765289,0.1725392192602157,0.0083812829107046,-0.0075987465679645,-0.2981692552566528,0.9544459581375122,0.0,0.0,0.0,0.0302135038525145,0.6894556407830015,-0.0991875505168853,0.936076118,0.8325160472306747,0.7825042989258958,-0.0218104141533375,39.909850333321856,34.36724696253575,-10.104725843201118,0.0205327590075003,-0.0095072473527222,-0.6056857673357655,-0.0080996319337316,-0.0940225987523453,-0.0068920741015681,-19.925340833236444,-91.9960072928273,-61.80902146455542,-4.354276527541961e-05
198,1724915321649565500,-0.4757465720176697,0.1067693084478378,0.1724616736173629,0.0124890236184,-0.0055485959164798,-0.2980712354183197,0.9544458389282228,0.0,0.0,0.0,-0.8439779388044886,-0.4241053074514598,-1.067191910104771,0.946116807,0.6593313366555965,0.6338968603924069,0.008987933147806,-14.340745354254974,-25.66770523156426,-2.0653406485050425,0.0271514171906231,-0.0031464363621962,-0.6054438679525915,-0.010984268950537,-0.0889444652429096,-0.0125568210439102,-45.08870286375558,-61.21362457027156,-48.91596510331954,-5.880426128406349e-05
200,1724915321659904604,-0.4759028851985931,0.1058039218187332,0.1722803860902786,0.0155547894537448,-0.0051320055499672,-0.2983685433864593,0.954310178756714,0.0,0.0,0.0,-0.863259992347621,-0.5279674376166739,-1.0673188152463076,0.956455911,0.5420157222079305,0.2528195368167946,-0.0670104973721494,-31.354073089530093,-49.68327620690293,-6.467114618416746,0.0327565077379127,-0.0005129305460373,-0.6060580499357847,-0.0256369101227029,-0.103228992938404,-0.0289458987054267,77.90671741551776,70.22159141208263,47.37896259253403,-0.0001525041155672
202,1724915321669503818,-0.47624272108078,0.1047251597046852,0.1719008237123489,0.0153604671359062,-0.00676278071478,-0.2989470362663269,0.9541221857070924,0.0,0.0,0.0,0.5955301980718902,0.8614673849200365,-0.1901544100295709,0.966055125,0.0627308878161421,-0.3384043990031576,-0.1212160138173115,-22.20864115743029,-11.11526989214099,1.727927706590247,0.0333613704683355,-0.0037211145697126,-0.60732845694736,-0.0289866090905377,-0.1006892409534732,-0.0345762274578831,116.32047928897109,91.73431761568764,55.80637674520177,-0.000344583656206
204,1724915321679731955,-0.4764692783355713,0.1038227081298828,0.1716012805700302,0.0161829348653554,-0.0064932568930089,-0.2990474998950958,0.9540789127349854,0.0,0.0,0.0,1.3967567213395466,1.2220179106299418,-0.0070365851079352,0.976283262,0.1376881517227861,0.0980036020602012,-0.023170022953901,16.195584120433743,30.2423659858206,5.060225626660496,0.0347703116972375,-0.0027112298498844,-0.6075310938280898,-0.0126021878643989,-0.0853729879479541,-0.0322012307068915,32.429888875727784,-49.3460192095487,-49.71775240929111,-0.0002699984863846
206,1724915321691113893,-0.476491779088974,0.102887213230133,0.1711978465318679,0.0190267581492662,-0.0056836903095245,-0.2991282343864441,0.9540063142776488,0.0,0.0,0.0,1.184435672268524,-0.4111305141396624,-1.4294026520882364,0.9876652,0.4343343972262695,0.2848461707498256,-0.0228966809200674,2.1919775888205644,-1.2621963022132852,-1.659958043955256,0.0397140437842276,0.0005383282812066,-0.6076708304726876,0.0006973261704779,-0.0749528099293046,-0.0353114951300863,-34.147236473059415,-88.92465897556038,-26.689213655272106,-0.0003718351587632
208,1724915321703342288,-0.476448118686676,0.1020657569169998,0.1707677990198135,0.019957510754466,-0.005729136057198,-0.2994996309280395,0.9538704752922058,0.0,0.0,0.0,0.56332545262828,-0.7817206732656725,-0.4646154999086818,0.999893595,0.1475273968908818,0.0371627371060198,-0.0653190129975556,36.57018915850168,-5.301050761119385,26.890243432256376,0.0415174568421202,0.0010248269220144,-0.6084504478285829,0.0153907569180731,-0.0974093007669818,-0.0679799266548073,-117.61188958688084,106.25893866159323,186.6651544562567,-0.0004022189388916
210,1724915321710036962,-0.47630175948143,0.1013028249144554,0.1701924353837967,0.0219649411737918,-0.0061777746304869,-0.2987618744373321,0.9540548920631408,0.0,0.0,0.0,-0.4689497301145782,0.430175490400777,1.1800301345935331,1.006588269,0.6123500271832523,0.0564812901819201,0.2259735892820269,33.69370812732882,11.218494286045814,13.210844931828827,0.0456187479481051,0.0013367021754801,-0.6069225825852286,0.0168227403993057,-0.0987770489643957,-0.0630017746963416,-128.38256871296196,84.69729061399781,126.33096351849484,-0.0005492513289457
212,1724915321720555572,-0.4762080907821655,0.1005147695541381,0.1699088960886001,0.0243471134454011,-0.0051865545101463,-0.2993940711021423,0.9538047313690186,0.0,0.0,0.0,-1.3927853551889309,-0.2708922663009661,0.536656913334093,1.017106879,0.3761283144343471,0.312198866405067,-0.1358311438019273,-7.505064581591139,12.54011294168316,-13.7833403945113,0.0495712746244601,0.0046848595025728,-0.6081934525630781,0.0006047771054298,-0.0837663224880751,-0.0433767104416134,-5.984446522729868,-44.74088186455774,-35.09066954171717,-0.0002513265721109
214,1724915321730524376,-0.4762804806232452,0.0995961427688598,0.1693213433027267,0.0269396249204874,-0.0042876144871115,-0.2997150719165802,0.9536387324333192,0.0,0.0,0.0,-0.6792004026202005,-0.5099116225353395,0.4331904961265835,1.027075683,0.4425784887715964,0.3260008735890161,-0.0784856417172906,-48.50002972330873,-29.581367062670004,-13.960167007307344,0.0539793889547379,0.0079708371548475,-0.6088067099012221,-0.0118714433634252,-0.1025086345347858,-0.0505837747573316,54.23764848863092,-535.224060146272,-357.2580061538499,-0.0005400781071856
216,1724915321739788585,-0.4764301478862762,0.0985573008656501,0.1689246594905853,0.0245212502777576,-0.0045199245214462,-0.3014177680015564,0.9531661868095398,0.0,0.0,0.0,-0.3260545014382919,-9.869879463158306,-5.862947405597947,1.036339892,-0.4816815364879699,-0.2146452576764339,-0.3775300359625299,-78.7149958494492,-46.16965039656852,-24.81778308112344,0.0494915665033837,0.0061658416814574,-0.6124025209915439,-0.0132363067401448,-0.0954360737193578,-0.0366168129549578,1918.052288800419,-748.4905322804574,-1787.206701800758,-0.0003469577931517
218,1724915321779474423,-0.4764591753482818,0.097608745098114,0.1685258895158767,0.0241768397390842,-0.0038371621631085,-0.3031833469867706,0.9526178240776062,0.0,0.0,0.0,395.39224081565374,4.940868092851815,-265.0855550426154,1.07602573,-0.0266397766340251,0.0252584700572724,-0.0939056363931205,22555.944473611693,3129.454954785489,2825.149128839016,0.0484095167149567,0.0073493984035452,-0.6160757789410729,-0.0565607837597781,-2.294850485860792,-1.522330207780726,-962835.7005256794,-2749401.067119559,-1947073.95041944,-0.0003561684072492
220,1724915321779852869,-0.4764807820320129,0.0967320725321769,0.1679443120956421,0.0257947072386741,-0.0041144513525068,-0.3029934763908386,0.9526346325874328,0.0,0.0,0.0,27.500178944291708,-1045.48256989914,-1008.9510842490408,1.076404176,8.590927473131515,1.2208601872333136,0.9854305795762404,12183.554094903948,20452.885176596486,-6529.455092734402,0.0516637143747132,0.0077921971871076,-0.6156801826807844,0.0945046906012976,-2.2927627967461888,-1.6234723322467062,-1316002.6493506988,-2527140.2656618566,-1537680.948496221,-0.0005393776686644
222,1724915321780199885,-0.4763997495174408,0.0959440022706985,0.1673533469438552,0.0280862171202898,-0.0023076552897691,-0.3036285638809204,0.9523736834526062,0.0,0.0,0.0,-538.5983792928802,-1843.374384416753,-1406.3953979072155,1.076751192,9.449952301452404,13.821111938376566,-4.265545708021825,-15622.040040751215,4092.010098229697,-15072.540764782403,0.0549305082579309,0.0126603934115836,-0.6169028652227375,-0.0142172526757349,-2.989985949382856,-2.209598973585173,-1009321.3987902092,-537114.4397875923,98136.57612744998,-0.0005507095848869
224,1724915321780440948,-0.476444661617279,0.0951028242707252,0.1667358577251434,0.0287374295294284,-0.0012976102298125,-0.3045012056827545,0.9520775079727172,0.0,0.0,0.0,-677.7462797526466,-1677.757851132052,-1174.50883403967,1.076992255,2.6534451338900755,9.412264385198464,-7.8890542420751695,-27513.476985730504,-17866.556565359653,-14646.39877546022,0.0555455978151319,0.0150308788266593,-0.6186766198214242,-0.1817810228852114,-3.4065867902637494,-2.501295824159254,-561451.0516192098,674988.9406894189,941817.162132834,-0.0005702053006053
226,1724915321790106685,-0.4764470160007477,0.0942912995815277,0.1659019440412521,0.0314400196075439,0.0004894818994216,-0.3056005835533142,0.9516405463218688,0.0,0.0,0.0,9.272047835016435,181.44493754850413,132.5706833994141,1.086657992,0.4221166185885489,0.5156837721079501,-0.2554614584489725,-136.26836638752548,-510.8246585843742,421.16383158612535,0.0595873673757499,0.020149161683386,-0.6208553522000954,-0.0056705885310783,-0.080783561739679,-0.0817441351324443,37080.59477335117,93516.93198916882,65575.25868253717,-0.0007834178604012
228,1724915321800894252,-0.4765735268592834,0.0934580713510513,0.1650746762752533,0.0318012312054634,3.94705384678673e-05,-0.3063805997371673,0.9513777494430542,0.0,0.0,0.0,-0.0300468691352779,0.3567031635974516,1.3755370011767316,1.097445559,0.0908289106748482,-0.0634540989785302,-0.1498541300948549,-28.548298900348396,-55.50480636717767,2.387085998748848,0.0605343211535139,0.0195629111505696,-0.6225103276989896,-0.0133783908221083,-0.0815156275991224,-0.0693140085188535,-331.38401084319895,-7681.223728070122,-5609.5522290645085,-0.0007726999754808
230,1724915321810043512,-0.4767087399959564,0.0926790833473205,0.1644977182149887,0.0303121227771043,-0.0022660489194095,-0.3072715997695923,0.9511362910270692,0.0,0.0,0.0,1.0577991783977412,0.7359437191112979,0.8953909822595123,1.106594819,-0.1535915140403711,-0.5853979915377744,-0.1854567907100915,-8.325175467198765,-5.522459722039572,1.473857251063846,0.0590949480803331,0.0143179553882538,-0.6245245638327271,-0.0083420420351068,-0.0749575327595559,-0.054996318467257,73.31636814864859,8.05301098743254,-37.21608752964961,-0.0005289571305685
232,1724915321820945445,-0.4767160713672638,0.0919942036271095,0.1640029102563858,0.0303247608244419,-0.0021174070425331,-0.3077845871448517,0.9509704113006592,0.0,0.0,0.0,1.2649430854258648,0.3898930400134359,0.6879371981869893,1.117496752,-0.0054645739767915,0.0237272360067075,-0.0996933897147366,21.023127270669953,34.11438337581236,-5.946963406095282,0.0590198908878497,0.0146403280827559,-0.6255944285032607,0.0097804632850362,-0.0666855054206649,-0.053932004920977,-66.93121957628972,-19.395654674611244,29.44015699777611,-0.0004551187250104
234,1724915321829856354,-0.4765527844429016,0.0913718342781066,0.1634600907564163,0.0315592437982559,-0.0016897937748581,-0.3088322579860687,0.9505913257598876,0.0,0.0,0.0,0.0426396904746419,0.30698582860383,1.3033017772027238,1.126407661,0.2360300932353844,0.1692373587015218,-0.2532989239255249,9.167941955377438,10.92365759099246,-18.98421795828908,0.061089694122975,0.0162811377144617,-0.6277571855229834,0.0181579559838098,-0.0658979001128976,-0.0435023246958961,-121.86420536304637,17.048728952698614,22.055288758545153,-0.0005087501439788
236,1724915321839805867,-0.4763739705085754,0.0907600149512291,0.1632207185029983,0.032503169029951,-0.0007837206940166,-0.3109787404537201,0.949860692024231,0.0,0.0,0.0,-0.9998225910118358,0.7693694848154218,1.0005862200583424,1.136357174,0.1280250957886513,0.2178687113597182,-0.4615825721774466,-17.93007710002298,-10.884779814015443,-4.533078750557808,0.0622855865173744,0.0187278328914898,-0.632208086351194,0.0086117276003463,-0.0604150849274791,-0.0290591174442376,-29.4470297026676,50.36547764255134,-21.884189434662694,-0.0002052674821794
238,1724915321849755542,-0.4763814210891723,0.0901696234941482,0.1628818362951278,0.0318605042994022,-0.0007651663618162,-0.3126094937324524,0.949346959590912,0.0,0.0,0.0,-0.5433078830922902,1.309219198097774,0.8678269447127971,1.146306849,-0.1207661740773106,-0.0473660315176403,-0.3434981962422519,-0.6644860893017395,-7.45608576314932,3.0425486419595877,0.0610200018853842,0.0184680253105641,-0.6356488279680559,-0.0017377147967323,-0.0505880013614339,-0.0235916175384929,64.1033930916968,24.297596128732692,-38.7156520928994,-0.0003026022663108
240,1724915321859557915,-0.4764080047607422,0.0897582396864891,0.1627516746520996,0.0324629992246627,-0.0005656629218719,-0.3144543766975403,0.94871723651886,0.0,0.0,0.0,0.2610224568595758,1.258057895391629,0.2432923322442236,1.156109222,0.1077824131696069,0.0649807700947577,-0.3989051903062877,10.007647793225898,10.66435665943044,1.5203173240974213,0.0620034775092741,0.0193441624432332,-0.6395132428346405,-0.0022650124283636,-0.0346493503535505,-0.0120108396610971,48.307965119516254,-62.75817372738963,-95.66483896028352,-0.0001041225299069
242,1724915321869645908,-0.476426213979721,0.0894846767187118,0.1626436710357666,0.0330621413886547,0.0001591907202964,-0.315905898809433,0.9482142925262452,0.0,0.0,0.0,0.3979969126287369,0.0275887750959105,-1.0535000336572071,1.166197215,0.0705767928393251,0.1642901144060095,-0.3091014877157701,10.918124336956971,24.774839218038508,5.272301107842194,0.0626544559731949,0.0211925311242362,-0.6425227238865274,0.0036365725066858,-0.0257780143210695,-0.0192961509323836,-6.961671142389073,-114.20496511224586,-75.32565406014959,-9.021270625519806e-05
244,1724915321880094549,-0.4763293266296386,0.089229829609394,0.1623490899801254,0.0357244908809661,0.0025408568326383,-0.3172557651996612,0.9476635456085204,0.0,0.0,0.0,0.1029731816948009,-1.0816240042693144,-1.2645677061238452,1.176645856,0.3427276762772259,0.5847344085054695,-0.2932947863150981,-4.365764901339318,-13.86911478823466,2.399926629767437,0.0661706474545782,0.0274868172041521,-0.6451884827448235,0.0057712009085761,-0.0347081571423384,-0.0338894384617631,-19.07708555104107,-20.44229031370886,33.01891338380724,-0.000277888498338
246,1724915321889887996,-0.4763049483299255,0.0887952074408531,0.1619649082422256,0.0357435457408428,0.0023326275404542,-0.3184782564640045,0.947253167629242,0.0,0.0,0.0,0.0002119253206184,-0.4950058209444428,-0.4526798486812886,1.186439303,0.0208070272215701,-0.0477699448441925,-0.2616479947784206,-13.478739514086104,-32.69342927430107,9.735728066784166,0.0663036501189764,0.0271896118841577,-0.6477771689031394,0.0058495756606582,-0.0473842694718982,-0.0450613176695,-25.95770498021674,71.17950160784902,123.12243955314544,-0.0003535663947105
248,1724915321899765417,-0.4762136936187744,0.0882972329854965,0.1614617109298706,0.036037303507328,0.001975298160687,-0.318959504365921,0.9470809102058412,0.0,0.0,0.0,-0.4102458317863131,0.3204412275771655,1.1641415988496675,1.196316724,0.0808600293280481,-0.0529947279889084,-0.1006874966423732,-2.2384454921091317,-4.1235469324732374,5.878569132015463,0.067074636967206,0.0267335995288389,-0.6488047466910188,0.0057740555962837,-0.0443105281092188,-0.0426779884922678,-26.35181791957542,43.46785124421155,100.92910332489672,-0.0004690233394636
250,1724915321909914622,-0.4761912226676941,0.0879111811518669,0.1611147671937942,0.0356841161847114,0.0014129737392067,-0.319702535867691,0.946844756603241,0.0,0.0,0.0,-0.5191483337803435,0.3539688256182347,1.5340061532913598,1.206465929,-0.0286052364492886,-0.1323314597083413,-0.1496604672917389,-10.88027892866656,-3.702023000050083,-27.249958904478845,0.0667423881704544,0.0254951003012998,-0.6504106571416898,-0.0025881154878888,-0.0409618142565149,-0.0212389556277283,22.003781440484385,30.504554346482227,-46.77058462690846,-0.0003200752735897
252,1724915321919507286,-0.4762595891952514,0.0874917358160018,0.1610284000635147,0.0348718278110027,0.0011305348016321,-0.3225125670433044,0.9459219574928284,0.0,0.0,0.0,-0.0112866235611529,0.893211241036773,0.3308865268417205,1.216058593,-0.133834516042023,-0.1305343475133253,-0.6143764982269244,-5.1719485633263815,1.966227127619959,-17.1065964955245,0.0653090503744786,0.0246344923265113,-0.6563758033285342,-0.0048048415653134,-0.0373485255717822,-0.011767707628592,39.11881372954048,29.126747597503517,-107.68226707275268,-5.678775643316e-05
254,1724915321929486025,-0.4762834310531616,0.0871852412819862,0.1608822792768478,0.0341291949152946,0.0009757729712873,-0.3246969282627105,0.9452016353607178,0.0,0.0,0.0,0.2355728062121624,0.9026837955716768,-0.5595144535545971,1.226037332,-0.1252606529712155,-0.0924484294362196,-0.4597757141240187,4.901127636477609,13.53077596407053,12.091107054609346,0.063946271278513,0.0240102007951364,-0.6610151332747274,-0.0026358774951198,-0.0230735452274717,-0.0152801250259875,13.291591619841313,-39.58939842925832,-58.765969590420085,-0.0001253270595636
256,1724915321941727787,-0.4763194024562835,0.08701753616333,0.160685658454895,0.0345359295606613,0.0023281020112335,-0.3267492949962616,0.9444769620895386,0.0,0.0,0.0,0.2263750032145071,-0.190770116235347,-0.8214074131362219,1.238279094,-0.0045607281051163,0.2190780383372157,-0.362849171349504,12.778659233247962,3.536836393298219,10.144059459966575,0.0637817846943263,0.0269701282068431,-0.6652782207401775,0.0005214907504438,-0.0199504439053805,-0.025246169173771,-2.1767454939910156,-26.718688871307677,62.69594123947892,-0.0001843003144502
258,1724915321949926865,-0.4762961268424988,0.0868196338415145,0.1604282259941101,0.0351545549929142,0.0027049104683101,-0.3277675807476043,0.9441002011299132,0.0,0.0,0.0,0.2007002056583382,-0.0660586456274701,0.1544129456827067,1.246478172,0.1162418589738183,0.1277538824857137,-0.2674512958958044,3.865724396837943,-21.61988179635152,12.682268373660062,0.0646763793213399,0.0281561800028038,-0.6674000983771659,0.0022043417731936,-0.0239631533808406,-0.032021069301658,-0.4161885173480772,25.11482012668567,119.93783785287113,-0.0002437224703796
260,1724915321959749013,-0.4762819409370422,0.0865863114595413,0.1601063758134842,0.0349401906132698,0.0017209795769304,-0.3284089863300323,0.9438876509666444,0.0,0.0,0.0,0.2285612165091595,0.2971630552781745,1.34330855142447,1.25630032,0.0263335973008575,-0.2079309831663242,-0.1305637781068884,1.0248757623012228,-7.001167389292679,1.4407085969153126,0.0648966607380662,0.0262011656552857,-0.6688126948783509,0.0041221276371992,-0.0196306220816224,-0.018964824032837,-6.7976156884696515,3.1791210724027303,29.16035619061082,-0.000305688398394
262,1724915321971233341,-0.4761986434459686,0.0864162445068359,0.160073921084404,0.0360290184617042,0.0018629167461767,-0.3299221098423004,0.9433185458183287,0.0,0.0,0.0,0.0211295708337911,-0.1201963268209767,0.444423440671615,1.267784648,0.1747784311479473,0.0765676817405961,-0.2818107082537901,13.096903383633066,25.91280076980194,-26.87278724796432,0.0668190230657949,0.0272915752096766,-0.6719852901629423,0.0071942801250344,-0.0181506350105049,-0.00334926463076,-17.573369721793462,-0.8858350674600715,-61.665568985204935,-2.2288631047318635e-05
264,1724915321979760708,-0.4761376678943634,0.0862403064966201,0.1600420475006103,0.0376092940568923,0.0027759701479226,-0.3322800695896148,0.94242662191391,0.0,0.0,0.0,-0.1256301688103673,0.0967474536213841,0.023717470913252,1.276312015,0.2875435283273575,0.3047540161918843,-0.5977284834339813,-6.86881614205146,-1.8860791370997072,-10.671923573099011,0.0691298095085451,0.0302305383620895,-0.6768961609437567,0.0058144495075005,-0.0207526219071128,-0.0053549883738348,-20.38372663487462,12.575306168624335,-11.624746033685192,-2.019141954850739e-05
266,1724915321990191181,-0.4760940670967102,0.0860223099589347,0.1599655598402023,0.0372657105326652,0.0025240401737391,-0.3341255784034729,0.9417882561683656,0.0,0.0,0.0,-0.3787278422492981,0.0637708134368316,0.3835973187557516,1.286742488,-0.0404505890220301,-0.080385169738808,-0.3725337711215051,-17.066179379810624,-15.168528284758091,14.653527364255869,0.0685900399143823,0.0296614261235825,-0.6808320993808884,0.004965686799375,-0.0146161772461823,-0.0018041251216018,-11.649099984314834,-4.0610395396011505,10.854924225893598,-6.148325603475307e-05
268,1724915322005199816,-0.47600257396698,0.0859386473894119,0.1600578874349594,0.0377641767263412,0.0037171419244259,-0.3362167179584503,0.9410198330879213,0.0,0.0,0.0,-0.2811041240960192,-0.0166050804934005,0.0358108268840511,1.301751123,0.013954333233728,0.1618016897437493,-0.3024077961624012,-175.4329420796067,-133.90047423514497,-135.4392312034208,0.0686640897388451,0.0323953696338832,-0.6851956170700668,-0.0071402433621443,-0.0249873376427807,0.0048853634421632,82.96964291512236,75.11856595641554,-68.18704311107747,9.65337256924736e-05
270,1724915322009360251,-0.476047545671463,0.0858123004436492,0.1600767523050308,0.0355528928339481,0.0033304935786873,-0.3382639586925506,0.9403735995292664,0.0,0.0,0.0,0.1522717081107217,0.388730068275988,-0.2997915732345088,1.305911558,-0.9224275821368808,-0.568317780989509,-1.0274823952895522,-149.41394854985597,-119.31832436268976,-114.66215989699546,0.0646876491130899,0.0303209867970607,-0.6896207044789378,-0.0077037154619006,-0.0242786382179818,0.0045616226597204,87.05010248021746,70.98313225725033,-62.98416360364479,2.834974609824523e-05
272,1724915322021357565,-0.4760325253009796,0.0857317149639129,0.160132423043251,0.0348807014524936,0.0032828270923346,-0.3401946425437927,0.9397021532058716,0.0,0.0,0.0,0.604493198299209,0.3255072753900555,-0.4437337518573567,1.317908872,-0.0976360517415556,-0.0564472300098437,-0.3406152846787506,46.06322369879224,1.9161926148316333,29.294714954103128,0.0633921172742039,0.0299066728330777,-0.6937439178565935,0.0040767455394572,-0.0120595300649606,-0.0067146618384281,-9.759769644186996,-18.95662116636379,23.635581117808933,6.073304709665618e-05
274,1724915322029448623,-0.475984126329422,0.0856049880385398,0.1600161343812942,0.0350899957120418,0.0021098132710903,-0.3412071168422699,0.9393305778503418,0.0,0.0,0.0,0.2665898168902474,0.0974435777497366,-0.0580574130017861,1.32599993,0.1512810490467064,-0.2632977847494304,-0.256141928987072,13.237900368779696,-3.550743792740458,2.3480916637152465,0.0645523964519137,0.0279131613621838,-0.695949262369633,0.0069082201361077,-0.0132071839446847,-0.0075975245301904,-25.22710770293822,-3.9649432843022385,21.856976886920553,-0.0001084317981923
276,1724915322039975824,-0.4758987128734588,0.0854995846748352,0.1600289493799209,0.0353377535939216,0.0020864023827016,-0.3428992033004761,0.938705027103424,0.0,0.0,0.0,0.2275026434122843,0.3874713304056805,-0.1814802816833465,1.336527131,0.0505804107996655,0.0008531570619268,-0.3422612917742483,-8.908924166107285,6.411422321914953,9.356822583151516,0.0649840673121837,0.0281553276640433,-0.6995456663870473,0.0085728783011091,-0.0089039150982124,-0.0075093670943617,10.258061870757128,14.607087771672722,26.834961296170555,1.819112966786809e-05
278,1724915322050467009,-0.4758039712905884,0.0854177623987197,0.1598589271306991,0.0349309369921684,0.001536120660603,-0.343221366405487,0.9386035799980164,0.0,0.0,0.0,0.4811930810867701,0.4053917188964672,0.5031974205000106,1.347018316,-0.0360173899121621,-0.127196721519476,-0.060737718583147,-6.101968010221592,0.7380838100331759,2.67367637054128,0.0645863284579807,0.0268649359496566,-0.7002682153082733,0.0116849699536238,-0.0050616299536461,-0.0113982949339224,8.820816017316556,-15.03746306091636,54.216407101219744,-0.0001661534801325
280,1724915322059499288,-0.4756777882575989,0.0853933319449424,0.1597933620214462,0.0345831997692585,0.0016025851946324,-0.3441752791404724,0.9382669925689696,0.0,0.0,0.0,0.4414182485934773,0.1393512006782447,0.9070003855819032,1.356050595,-0.0743946928946434,-0.019877823072612,-0.2244673221804493,6.085434152543346,18.329816739578128,-17.952899065375686,0.0638597479855471,0.0268158841809419,-0.7023037570438646,0.0174663807567014,-0.0010955605595768,-5.7746215354370634e-05,-29.32900684490754,-33.09331374637222,-18.91781808471827,-6.641990083420877e-05
282,1724915322069640210,-0.4754608571529388,0.0854005441069603,0.1598747670650482,0.035497061908245,0.0026293380651623,-0.3460576832294464,0.9375377893447876,0.0,0.0,0.0,-0.1397963279768419,-0.2376766822552117,-0.0092492120685504,1.366191517,0.1049803200624505,0.239419283248744,-0.4045421519454408,4.534148220880088,-0.1529096322299563,-8.7921402603268,0.0648134219370966,0.0295025492571969,-0.7062430656216709,0.019680839730416,-0.0030952381113351,0.005171523398058,47.641468579000346,-23.0255156681825,-64.16443585068981,7.644554524610744e-05
284,1724915322079691928,-0.4752800762653351,0.0853315070271492,0.1598982959985733,0.0355515368282794,0.002580740256235,-0.3479622602462768,0.936830759048462,0.0,0.0,0.0,1.384782772645917,-0.3281087114308926,-0.3933004381888775,1.376243235,0.0194982024603659,-0.0183965933647535,-0.4035962568592867,-6.576222298514551,-19.206816339506496,3.607933350167446,0.0648894422704202,0.029580933779745,-0.7103052600085963,0.0147071422776363,-0.0058876886715595,-0.0001512760756066,-85.79921650868899,18.74387599488391,-30.10181922707863,2.4593220772636785e-05
286,1724915322104104999,-0.4751153886318207,0.0852459073066711,0.159746840596199,0.0347950905561447,0.0015363899292424,-0.3492320477962494,0.9363888502120972,0.0,0.0,0.0,-14.79034440677458,1.77431148574769,-0.6475656896949038,1.400656306,-0.0267299517472584,-0.1053203598252099,-0.1071694391934477,-751.3683267433864,-582.9532867683131,-2845.430610846146,0.0641580498865083,0.0271837860783547,-0.7130830471733306,0.1599609614943347,-0.016880300605635,-0.0016747995972536,-2184.8305981518533,188.1503978089736,-83.91685809166404,-0.0001489466857778
288,1724915322105163269,-0.4749390780925751,0.0852274298667907,0.1597452759742736,0.0342297554016113,0.0013834208948537,-0.3508545756340027,0.9358031153678894,0.0,0.0,0.0,-17.172318354318357,1.9781060551330365,-0.7397442321194626,1.401714576,-0.8562622276602977,-0.7488216388384648,-3.2494927747611126,-595.3187746698435,-464.5635499761462,-2300.441733605207,0.0631581928034155,0.0266116926540757,-0.7165664870672852,0.1433573399448668,-0.0149005483512989,-0.0023869427964955,-1807.041541948562,146.62915984174936,-60.98472549979927,-4.137616961762604e-06
290,1724915322109751856,-0.4747437536716461,0.0852099806070327,0.159716248512268,0.0345580987632274,0.001236718147993,-0.3519255220890045,0.9353890419006348,0.0,0.0,0.0,-16.634782310909884,1.7368307481979797,-0.499932974376677,1.406303163,0.1631836876626352,-0.0253539985444504,-0.4977561778425167,148.57793811008372,110.4932385396158,410.5141917594679,0.0638460753885984,0.0266405302045554,-0.7188540952127496,0.0350568168163327,-0.0036877824304246,-0.0071106168321071,593.6852032347439,-91.62977423494056,70.63496299879864,-3.211386311735344e-05
292,1724915322119419862,-0.4745578169822693,0.0851766690611839,0.1596315205097198,0.0351498574018478,0.0015001522842794,-0.3536412119865417,0.9347193241119384,0.0,0.0,0.0,-1.1878475323149509,0.0555354994518861,0.5572156180315835,1.415971169,0.1005546228218657,0.0819622253873592,-0.3824780944792478,-12.429205615554134,9.920559270537666,3.473962967938707,0.0647193962904821,0.0276688492535789,-0.722494738747132,0.0161581906699659,-0.001293529258934,-0.001157823051666,886.7488457729139,-112.36213203188422,19.44917867339707,-8.63950934363226e-05
294,1724915322130435970,-0.4744184017181396,0.0851894319057464,0.1597142368555069,0.0349178612232208,0.0027120767626911,-0.3559230268001556,0.9338588118553162,0.0,0.0,0.0,-0.3437889717577242,-0.4097852941541823,-0.3569200584321947,1.426987277,-0.1110678653198918,0.1764418529050861,-0.4502708215798612,1.7954531487099803,1.1810725499620558,0.7885625629262414,0.0633568508323225,0.0299260018613426,-0.7273224299361379,0.0126991571295604,-0.003093164637212,0.0042461544861573,40.17537361041154,-20.140670125812075,-43.109230979611105,7.889730122615487e-05
296,1724915322140498001,-0.4742902219295501,0.0851192325353622,0.1597269773483276,0.0355982147157192,0.0031648788135498,-0.3576809167861938,0.9331597685813904,0.0,0.0,0.0,-0.2744941657367178,-0.409335263142796,-0.4242349378480132,1.437049308,0.1000529726600328,0.1203575620082685,-0.3785304099997353,6.706141357343777,-19.542705594038782,13.675899187656048,0.06424940822245,0.0313774277976555,-0.7310479660234339,0.0089661434529979,-0.0094811926908295,-0.0071339526032492,15.021751703584416,28.65309311138991,54.40427685124936,1.5023702342416174e-05
298,1724915322149816411,-0.4742392301559448,0.0850092694163322,0.1595880091190338,0.0354625917971134,0.0023389928974211,-0.3585575520992279,0.9328309297561646,0.0,0.0,0.0,-0.0643124293677647,0.1045489313237273,0.6099543767134351,1.446367718,0.0393471203644992,-0.1822970136113696,-0.1946017280311816,-9.70591059490599,-10.141827044896491,2.8470374396878597,0.0645573512382685,0.0297989399823369,-0.7329678691216228,0.0072411151961766,-0.0113492851027237,-0.0049879880616234,7.061059405819485,32.67325804732124,62.0069167094518,-0.0001322316836998
300,1724915322160331080,-0.4741421043872833,0.0848952904343605,0.1596533209085464,0.0349197350442409,0.0024793576449155,-0.3603504300117492,0.9321599006652832,0.0,0.0,0.0,-0.1739019310313575,0.1814554001640226,0.680854530736114,1.456882387,-0.1005704412248905,-0.0239131399793138,-0.3650713026007217,-6.693118158748051,9.682151092148306,-5.9210604990293305,0.0633852243825988,0.0297934061060483,-0.7368163520395639,0.0079982179090514,-0.0066310517900181,0.0059299723264967,-11.701268186502142,1.6445699614651703,-12.09006857468288,7.078019324179695e-05
302,1724915322170863234,-0.4740709364414215,0.0848698541522026,0.1597128063440323,0.0344587080180645,0.0028347254265099,-0.3619098663330078,0.9315717220306396,0.0,0.0,0.0,-0.3106317042579904,0.1389634721450389,0.3548377042268541,1.467414541,-0.1012902768776771,0.0212931772358507,-0.318861047776969,0.5449550010974447,-2.1902552778308433,-4.049736204112246,0.0622182250805868,0.0302279960894081,-0.740155465495621,0.0035724255390832,-0.0075395797301691,0.0093293245452201,4.385350691780409,40.59354518088084,-43.92866168755373,5.962926219058811e-05
304,1724915322180137498,-0.4740638136863708,0.0847580805420875,0.1598293930292129,0.0339717604219913,0.0028313258662819,-0.3637535572052002,0.930871307849884,0.0,0.0,0.0,-0.1281274129390146,0.8798984393993334,-0.1585237631199055,1.476688805,-0.0912276275690417,-0.0519596589303355,-0.4253233036096591,6.262954224196712,9.717638204435172,-2.93378671202672,0.061252686204832,0.0299903928962503,-0.7441240950294583,0.0015864869716502,-0.004411465131521,0.0128821536284062,12.370883786111856,46.580051641001816,-59.716248358703574,0.0001234767652782
306,1724915322190088868,-0.4740392863750458,0.0847957655787468,0.1599609106779098,0.0345102176070213,0.0039234515279531,-0.3653962910175323,0.930203914642334,0.0,0.0,0.0,-0.083051037355466,0.9877369687994766,-0.7993690166604172,1.486640175,0.0263869972858984,0.232847780278598,-0.363270044066065,6.132848358812977,9.133277780128084,13.497216628446711,0.061406891396852,0.0325247651119557,-0.7475919948718485,0.0012298181764016,0.0101386565782055,0.0055213775751994,2.5164742099372823,-35.2154628364243,-11.241133340235884,0.0001282332454552
308,1724915322199750730,-0.4740389883518219,0.0849533081054687,0.1599420756101608,0.0348963439464569,0.0045153466053307,-0.366113930940628,0.9299045205116272,0.0,0.0,0.0,-0.0776225065677993,0.2154863790691645,-0.4093295085749693,1.496302037,0.0323017961957959,0.1382923910066569,-0.1647426656734074,-7.9887508620754195,-14.683876306843064,12.714700934603275,0.0616688813323441,0.0339562828097515,-0.7490992608583513,-1.5474648815683167e-05,0.0152319305028072,-0.0027619951242421,-21.77202606488324,-55.3016555003077,96.14917849113289,-2.9539010522268928e-05
310,1724915322209403296,-0.4740395843982696,0.0850899815559387,0.159907579421997,0.034230887889862,0.0045334603637456,-0.3666470944881439,0.929719090461731,0.0,0.0,0.0,-0.5031502355037837,-0.0808405021569379,1.0566608020019426,1.505954603,-0.1277513244692197,-0.0506718823786841,-0.1175473104621281,1.0604006991216277,-10.915920959657416,1.579234805313546,0.0603965131754323,0.0335372869534111,-0.7502622867359573,-0.0002703687973308,0.014306444439192,-0.0023929129041837,-45.816570470416494,-10.945777942331093,105.70489255596156,-4.3557638032881225e-05
312,1724915322220501213,-0.4740452468395233,0.0852506309747695,0.1598960906267166,0.034665510058403,0.0040221828967332,-0.3673951923847198,0.9294099807739258,0.0,0.0,0.0,-1.033720496045745,0.0497328222463723,1.6406395569320966,1.51705252,0.1091209271467882,-0.0613084752786068,-0.142257910356435,-11.569674109482053,-14.193670048113436,-26.409883697945737,0.0615537424233296,0.0329543616919083,-0.7518804958265954,-0.0119373863664264,0.0136011800079316,0.0223285981230105,15.17894344460337,7.839661011629607,-49.48854966640175,-2.218546414922717e-05
314,1724915322229662192,-0.4742410182952881,0.0853686183691024,0.1602773219347,0.0331182181835174,0.0032851595897227,-0.3698492646217346,0.9284955263137816,0.0,0.0,0.0,-0.418352361428802,0.0918636800644776,0.4151167955077652,1.526213499,-0.2457638936521494,-0.2914225600504757,-0.5670746772777144,-18.265970300286153,-8.292125400496333,-5.078031894795136,0.0591323330998412,0.0306027857627648,-0.7572297176939103,-0.0212744918512122,0.0149134315711947,0.0329199525745425,48.56463266784293,24.212415555388635,-37.303157854301794,0.000376445437269
316,1724915322240110056,-0.4744621515274048,0.0855486690998077,0.1605176627635955,0.0318384505808353,0.0028183253016322,-0.3704975247383117,0.928283393383026,0.0,0.0,0.0,-0.1326811239585656,0.5785364526148229,1.1749076376927854,1.536661363,-0.1926604467741715,-0.17755724695676,-0.1280850033223125,5.333087169837309,13.525176911170831,16.262317558435214,0.0570765329232794,0.0288285364051366,-0.7586740915978102,-0.0184856596097144,0.015260992217347,0.0284273826270284,18.128584567260457,33.943478646326554,43.736969625987875,0.0002328908473061
318,1724915322253736136,-0.47466641664505,0.0857215672731399,0.1610013991594314,0.0312354508787393,0.0035268049687147,-0.3727857172489166,0.9273849725723268,0.0,0.0,0.0,-0.049401888517246,0.8164689338963433,1.2557729843246292,1.550287443,-0.1155418690074075,0.0534180850826772,-0.3641854648116854,-8.174953080679892,14.588763322333326,-59.124429978198535,0.0553579821943978,0.0298340973361445,-0.7635899392624432,-0.0273950858600002,0.0328342295943429,0.0729577256355114,79.06535839275861,-95.09024366825776,-236.8143266927841,0.0004757298252472
320,1724915322259349144,-0.4748488664627075,0.0859524458646774,0.1614975184202194,0.0308599602431058,0.0041365851648151,-0.3748345673084259,0.9265688061714172,0.0,0.0,0.0,0.563073981571893,0.0224873788852884,-0.6347453228886029,1.555900451,-0.1934159012426441,0.1298430890663789,-0.7926940332178053,-6.385705456636389,12.42966377685755,-39.07667241443458,0.0541387991844196,0.030805293210606,-0.7679948059986701,-0.0262747879021052,0.0363229379611129,0.0753537185887056,88.23330868926989,-77.96338063389351,-206.06233977739095,0.0004840602720475
322,1724915322270975893,-0.4750043153762817,0.0862589254975318,0.1620597392320633,0.0309167075902223,0.0057135308161377,-0.3766699433326721,0.9258137941360474,0.0,0.0,0.0,1.0859811190575346,0.6451039671811936,0.1182951416621471,1.5675272,-0.0873196090468541,0.2457958036749379,-0.349545091430651,5.226050511530913,-1.3372762766341646,28.99931101618309,0.0529971967634472,0.0338765995056282,-0.7719019148744117,-0.0109740648546345,0.0221570677549751,0.0424063394054923,17.808381157256626,27.60599001881691,34.34805513077063,0.000544221335836
324,1724915322289163647,-0.4751357436180115,0.0865423381328582,0.1626617461442947,0.0296999234706163,0.0052453693933784,-0.3773781657218933,0.9255680441856384,0.0,0.0,0.0,0.6369684247774642,0.4090477408040982,-0.1224713433635358,1.585714954,-0.1032044919931329,-0.1003145427472443,-0.0814533560221874,17.804479545392905,-51.42674381144814,59.41699384818265,0.0510681674877758,0.0321316265820852,-0.7734772300261435,0.0022333830181935,0.0869085000108107,0.1285471392900916,-101.24490682297542,-426.5949152419373,-662.4097883233695,0.0005858780565713
326,1724915322293251620,-0.4751179218292236,0.0869631543755531,0.1632749438285827,0.0294144991785287,0.0045994813553988,-0.377015471458435,0.9257283806800842,0.0,0.0,0.0,0.1527385729095757,-1.7149051736895902,-3.426865810312719,1.589802927,-0.0132584083894002,-0.3403130383438523,0.2024922286382262,-1.6369286204441362,-49.27906494561154,30.35894721362664,0.0510377157652248,0.0307000055877678,-0.772721135585824,0.0047553289658743,0.0856853216974729,0.12358217030933,-100.53244036193162,-354.61287920384405,-556.3625476960116,0.0005874901654958
328,1724915322300576175,-0.4750778973102569,0.0873643159866333,0.1638334244489669,0.0274781435728073,0.0031142667867243,-0.377370148897171,0.9256495237350464,0.0,0.0,0.0,-0.3484427884743274,-2.147561094410058,-4.195360497231679,1.597127482,-0.3354851178447909,-0.5775125608055719,-0.0882742086397731,-35.73222280644241,-15.062508407752402,-33.07105475524059,0.0485559270333921,0.0265074054948989,-0.7735777725387024,-0.0002176607641501,0.0545453747916973,0.0694480037231439,-8.052832614515461,73.8069447252934,147.35902949572875,0.0005356770122705
330,1724915322309663654,-0.4751439392566681,0.0878574699163436,0.1643878668546676,0.0241983905434608,0.001942521892488,-0.378745287656784,0.9251824617385864,0.0,0.0,0.0,0.2590542587206019,0.0212991958267281,-0.0118604420878045,1.606214961,-0.5670667825066545,-0.5190961534932872,-0.314095569199566,13.382412421188803,31.011834233044347,-13.86897260667149,0.0433283783956169,0.0219261839682008,-0.7766465734666842,0.0003422215344492,0.0587501575761963,0.0673501871068751,10.870748058676927,86.85515459516131,226.00631375276075,0.000531955038143
332,1724915322319578588,-0.4750582277774811,0.0884884670376777,0.1651242077350616,0.0242332201451063,0.0022577729541808,-0.3802646398544311,0.9245575070381165,0.0,0.0,0.0,-0.2387304606288581,-0.7597725309563466,-0.3061842081925445,1.616129895,-0.0139389419300055,0.0543229861444539,-0.3328186683472423,32.46301096092473,29.594929366167666,6.144566278067454,0.0431172815270692,0.0226068809011753,-0.7799210547773934,0.0050466233366357,0.05418637446467,0.0696015288222495,-46.76010117078312,-28.428551659362416,-29.73323618226381,0.0007048882340718
334,1724915322330721424,-0.4750470519065857,0.0889738574624061,0.1658413559198379,0.0245826300233602,0.0023187841288745,-0.3811045587062835,0.9242022037506104,0.0,0.0,0.0,-0.7166239064536305,-0.4460396206917498,-0.6381021608475934,1.627272731,0.0557049610086269,0.0304634864596725,-0.1637558276008341,-4.24601305456441,-19.24061096447804,15.215689311899109,0.0436967266477788,0.0230251899870954,-0.7817297489929245,-0.0065448616353585,0.0419700403179987,0.0595119829396217,29.891320932348055,44.64462070248018,31.548362858205767,0.0006931988564102
336,1724915322339896053,-0.4751641154289245,0.0893469005823135,0.1663507372140884,0.0238360408693552,0.0012639283668249,-0.3812356293201446,0.9241697192192078,0.0,0.0,0.0,0.1073979698988198,0.0881177268237132,0.1146785552243794,1.63644736,-0.0625391003945536,-0.2752319000122755,-0.0238300215380807,-10.531241925515038,-5.975814299002023,0.710126979768301,0.0431158097262098,0.0205119030569129,-0.782057789250351,-0.0106748228029012,0.0427902082126081,0.0556773776097987,76.07279501225298,40.60623750813746,78.26847258677475,0.000493860215814
338,1724915322349806647,-0.4752475917339325,0.0897937789559364,0.1669042110443115,0.0231073051691055,0.0013608713634312,-0.3820292353630066,0.9238603115081788,0.0,0.0,0.0,0.7142030560772352,0.3019716412463498,0.8498792962821482,1.646357954,-0.1416777795093073,-0.0417237530319136,-0.1724650861866823,-2.278645101944634,17.44074085613579,-14.642030005355496,0.0416765988111798,0.0201712101750967,-0.7837833552112804,-0.0036415594503296,0.0436498309984152,0.062516097128773,1.5495983964700786,28.763442334118743,33.100633975994526,0.000534600121054
340,1724915322359782128,-0.4752359092235565,0.0902147367596626,0.1675948053598404,0.0227464828640222,0.0019275025697425,-0.383471131324768,0.9232707619667052,0.0,0.0,0.0,0.1304433517621222,0.6610451935765491,0.767571327672619,1.656333435,-0.1071094130824825,0.0707990691452197,-0.3149562343666272,-0.1683469753905724,9.758107249353166,-4.428950358767926,0.0405440912185158,0.0210059973562822,-0.7868942560759326,0.0035284627750051,0.0488232621171178,0.0725989517521839,-38.27262236423065,22.146762453241383,-18.17695599880151,0.0006714088285129
342,1724915322369593765,-0.4751785397529602,0.0907576978206634,0.1683396399021148,0.0223781839013099,0.0029152715578675,-0.3846448957920074,0.9227887392044068,0.0,0.0,0.0,-0.0496819967470957,0.744693076905584,0.4934356191865672,1.666145072,-0.1438279460948646,0.1518556573564193,-0.2633041551739979,-14.602324412038444,-21.544146728043593,-1.1684657897907798,0.0390779032938403,0.0225975911585709,-0.7894168884698586,-0.000869258877902,0.0566837207769364,0.0777831583514192,28.206509682849568,-17.967480974836214,-77.27309758249521,0.000719754566545
344,1724915322379749073,-0.4752579629421234,0.0913474783301353,0.1691492050886154,0.019726775586605,0.0019661406986415,-0.3862861394882202,0.9221659898757936,0.0,0.0,0.0,0.7262076894671728,0.2837609230271196,-0.8098390316786244,1.67630038,-0.4062684707022995,-0.3802170281181425,-0.3427859208402927,6.258821685859382,-10.077174114585436,5.343531910040654,0.0348770140977428,0.0188676955706939,-0.7930391817991344,0.0028151908920719,0.0636530325730166,0.0824269189460356,58.421650838646855,34.815155126497736,-75.61827476920631,0.0007874975929377
346,1724915322390097524,-0.4751166701316833,0.0920649990439415,0.1700307577848434,0.0196345597505569,0.00180469523184,-0.3869989514350891,0.9218693375587464,0.0,0.0,0.0,1.1411696991500997,1.4898107156467972,-1.0364661428087616,1.686648831,-0.0029802874571352,-0.0382626229042593,-0.1486058394086732,22.690262882125054,13.265382572104562,20.3835381672204,0.0348171740475191,0.018525554098092,-0.7945901056200182,0.0141624388104304,0.0623449230723793,0.0606842913279876,4.686720657563281,92.28831532356196,41.38965759432065,0.0008522129223109
348,1724915322402347566,-0.4749357998371124,0.0927273482084274,0.1704188287258148,0.0194701552391052,0.0007795677520334,-0.3863151967525482,0.9221609830856324,0.0,0.0,0.0,0.6850673060607941,2.268613381538101,0.3883205892899539,1.698898873,0.0388902309673458,-0.1625723525500186,0.1245759346879883,-27.183679597608133,33.47623357640962,-34.01606772863791,0.035319055910327,0.0164817538295395,-0.7931345618939143,0.0287893334539219,0.1040320301127746,0.0634251545284421,44.70479309242995,1689.5268823348638,478.17960762200846,0.0003611320240708
350,1724915322409508234,-0.474670946598053,0.0936814174056053,0.1710058748722076,0.0188912041485309,0.0020544615108519,-0.3874668478965759,0.92168790102005,0.0,0.0,0.0,1.3481504455036952,21.172521077295016,5.327093855070138,1.706059541,-0.2838528943857989,0.2597371224202541,-0.3547267526972907,-34.75131073312583,46.03252165366245,-51.79857178956463,0.0332432828794363,0.0184276181993198,-0.7956099512790928,0.031564508830796,0.1155285268116271,0.0668946632820461,2417.674400049652,12803.753809298609,24191.7246718407,0.0005490048607897
352,1724915322440309736,-0.4744171798229217,0.0948935747146606,0.1710673719644546,0.0188563596457242,0.0014300909824669,-0.3866926431655884,0.9220148324966432,0.0,0.0,0.0,383.8702353526123,1762.1700191379225,3864.301951622896,1.736861043,0.0131188680870577,-0.0373372610169781,0.0553202740959555,-35873.15734011892,-79231.15466794254,7090.7229636390675,0.0336770333656022,0.0172212125027496,-0.7939451061528878,0.2003605339104979,3.3601504699358884,0.8725799251122908,-64259.15420898399,-801649.2699958887,-414336.89018958993,1.4932171381805434e-05
354,1724915322440628017,-0.4743527770042419,0.0959739685058593,0.1713479608297348,0.0155957927927374,-0.001611755695194,-0.3864200413227081,0.922189712524414,0.0,0.0,0.0,363.16558155889015,1504.1978519894128,3730.6516331570792,1.737179324,-11.52264015161144,-25.515659342186023,2.335439503860034,-37499.5749141805,-7007.906341307253,-43944.09697624422,0.0300159330094002,0.0090804895369911,-0.7934606883739556,0.3237836202736162,3.9264648406781646,2.1151370553831157,-91089.07306499314,-924337.740987358,-684091.2068705922,0.0002497519316619
356,1724915322440900057,-0.4742364585399627,0.097165822982788,0.1722101867198944,0.0122900903224945,-0.0017183269374072,-0.3891404271125793,0.9210948944091796,0.0,0.0,0.0,332.3315282907616,1226.275753435904,3483.125513805034,1.737451364,-22.01597991268496,-10.438610063220258,-21.502583466049035,-37530.15099135909,54026.7466365977,-85328.34047058834,0.0239808092956816,0.0063997013412132,-0.7993849171659745,0.4168558543542195,4.271703083141576,3.08972576232155,-111304.90663105146,-998920.690594019,-895532.4087423604,0.0008350890407458
358,1724915322451241357,-0.474140852689743,0.0983064770698547,0.1728087365627288,0.0104893185198307,-0.0025872907135635,-0.3906513750553131,0.9204753041267396,0.0,0.0,0.0,-17.181675927034036,-179.60905832486225,-134.20148260761664,1.747792664,-0.2544195140741874,-0.2941188344649535,-0.3131250625977508,944.834999292469,422.9973482572532,955.6331544753197,0.0213335184867759,0.0034322657324008,-0.8026911025495808,0.0028604853872629,0.1293745848480876,0.0365467223994748,-14063.672971829072,-49771.09820775163,-149420.4649166254,0.0005774506091364
360,1724915322459761290,-0.474161297082901,0.0995426252484321,0.1729703694581985,0.0081310831010341,-0.0044020479544997,-0.3900766670703888,0.9207359552383424,0.0,0.0,0.0,1.5176307793140416,1.2547158896542694,-0.7592454196002643,1.756312597,-0.3434316135245907,-0.6068086350007059,0.1539836591908448,15.271564961569752,8.698894548067495,24.636951676583124,0.01840850179282,-0.0017627569782409,-0.8014821533128457,0.0168767485251528,0.1500623819721607,0.0235548929001012,1113.3743222989824,11255.19042316114,8372.917664765788,0.0001476368985037
362,1724915322469531223,-0.4737804532051086,0.1010644435882568,0.1732518523931503,0.0085271149873733,-0.0046425689943134,-0.3898211121559143,0.9208394289016724,0.0,0.0,0.0,0.279976938887106,-0.5149360618764893,-0.622375887686055,1.76608253,0.0939097647399252,-0.0131915207190298,0.0564740014538293,1.5403657157108128,7.663866887183687,-9.865753688445013,0.0193249879748551,-0.0019020234138244,-0.8009329494566896,0.0302756606823493,0.1491743465546893,0.0247147097733737,-73.6004797647251,-78.13689636558274,23.69756407609048,0.0002572510536556
364,1724915322479777387,-0.4735637903213501,0.1025220826268196,0.1734610646963119,0.0058455038815736,-0.0063154976814985,-0.390054315328598,0.920751690864563,0.0,0.0,0.0,0.0962247063444647,-0.2087895467666207,-0.2754600358872647,1.776328694,-0.3547717618598778,-0.5052121361112006,-0.0433781844016152,-21.13695059337302,-32.08833791067335,4.654320130429481,0.0156923256081073,-0.0070699412064834,-0.8014680343752384,0.0214158766225693,0.1393416449993179,0.0103742944855014,20.334820324037615,69.60608260287611,70.87670435339916,0.0001971641954205
366,1724915322489960107,-0.4733429849147796,0.1039114072918891,0.1734650582075119,0.0029111846815794,-0.0087875155732035,-0.3893803358078003,0.9210306406021118,0.0,0.0,0.0,0.6905538345661704,0.9020132588382256,0.8208734122577166,1.786511414,-0.3407600728242762,-0.6707357295140134,0.149735082288218,11.702182489663269,27.134469051567898,-21.335240331812592,0.0122074380345719,-0.0139204756373283,-0.8000387255849765,0.0321198726382583,0.1448140292800026,0.018945171823347,-10.30974381243698,14.000087667529366,-34.09283179478685,1.975326118481976e-06
368,1724915322499805923,-0.4729273915290832,0.1054169461131095,0.1738282144069671,0.0023716809228062,-0.0084941620007157,-0.3913977742195129,0.9201793670654296,0.0,0.0,0.0,-0.0647553226217771,0.1346221525227715,-0.8643514145087742,1.79635723,-0.1272369221803315,0.0094988081779747,-0.4439865374362355,-13.23359888239101,18.017183221748247,-21.749971881023747,0.0110152038710076,-0.0137761997039563,-0.8044090898731932,0.0354856400371481,0.1571660473517164,0.0268289934775793,-43.31735027366622,-22.388983368375246,-161.04238090664245,0.0003592707870029
370,1724915322509403674,-0.4726497232913971,0.1069651916623115,0.1739916354417801,-0.0007366920472122,-0.0087040141224861,-0.3927121460437774,0.9196199774742126,0.0,0.0,0.0,-0.1680501809758319,0.439477819674873,-2.3153220744374994,1.805954981,-0.5809616882874341,-0.2953985096899701,-0.2920477825324679,-10.61055670838211,-18.26093622304173,18.80981702050991,0.0054821723774355,-0.0165881471124549,-0.8072356906254843,0.0310599847701062,0.1479801918810008,0.0029547863600081,-12.177881648257893,40.72415166797871,-29.126008051708077,0.0001717937720711
372,1724915322521338587,-0.4722474217414856,0.1085334420204162,0.1738180518150329,-0.0023657989222556,-0.0100380685180425,-0.3928464651107788,0.9195462465286256,0.0,0.0,0.0,-0.3343995505686348,1.0585077168872594,-0.8515374701279687,1.817889894,-0.1634671815655063,-0.3128863919874624,-0.0233400198657247,-10.23190686384944,11.942395748104532,3.9296970389700143,0.0035366540031637,-0.0203211265103681,-0.8075311163298696,0.0334037361919641,0.1739519780019938,-0.0221233609625333,-67.26880104716096,-215.01352745346009,174.68682359555584,-0.0001610338953198
374,1724915322529860848,-0.4719645977020263,0.110274851322174,0.1735833883285522,-0.004638466052711,-0.0096663916483521,-0.3932699561119079,0.91936057806015,0.0,0.0,0.0,-1.2322217570881873,-2.39797410668813,0.9538716072801428,1.826412155,-0.5258052434182036,-0.1295189237648725,-0.1029459813394757,-8.524070127750104,3.5561499645114303,5.955641718444245,-0.0009260554682656,-0.0214237763125306,-0.808410138844792,0.0273238942561491,0.1761717278479579,-0.0217754077887208,-71.41859793679275,-233.23835047656777,161.20958229512306,-0.0002105124038936
376,1724915322539917889,-0.4717593789100647,0.1117123514413833,0.1734327524900436,-0.0062141763046383,-0.0106704588979482,-0.392631858587265,0.9196128249168396,0.0,0.0,0.0,-1.547773359891763,-2.6982407240605255,1.9741957826164096,1.836469196,-0.2081006263811481,-0.3069095224764505,0.1384934037639238,-2.7812512368885187,-26.302112625060516,2.856987511798236,-0.0030510691908776,-0.0245076021142119,-0.8070107381925028,0.0087739833153968,0.1205042633389199,-0.0013460877402664,60.322299471977566,145.86202257623427,6.023849615217724,-0.0001251414068289
378,1724915322551593727,-0.4718146026134491,0.1128152906894683,0.173601821064949,-0.0116763617843389,-0.0129819205030798,-0.3932588696479797,0.9192619919776917,0.0,0.0,0.0,0.3995312818425881,1.3867182553705746,0.7509584451602532,1.848145034,-0.7064868468748002,-0.7314464219880455,-0.1148415053430477,-23.338969259444983,0.0454909074338587,-24.010882126098487,-0.0112631519525382,-0.0330572582788349,-0.8082909945426158,-0.005275784958723,0.1274552272096016,0.0209296332459203,140.06056593647784,81.39881955377118,-137.36233536097075,0.0002047150565189
380,1724915322560157033,-0.4718632102012634,0.1141139343380928,0.1738215535879135,-0.0155926970764994,-0.0136545030400156,-0.3945923149585724,0.9186224937438964,0.0,0.0,0.0,1.4310966034993378,0.3976612481974246,-0.6300353612797763,1.85670834,-0.7848410012346296,-0.5024099987078477,-0.3349841074411827,24.89519133685671,33.568406505306776,-3.843627596349922,-0.0178851411027615,-0.0374009030977515,-0.8110982625103703,0.008212245519747,0.1443004481649819,0.0200944662629538,9.14169158275973,-143.86421885689367,-72.2422977837938,0.0002713621143588
382,1724915322570722273,-0.4715954065322876,0.1155426725745201,0.1739613115787506,-0.016087444499135,-0.0137847615405917,-0.3950326144695282,0.9184227585792542,0.0,0.0,0.0,0.0765809103698516,-1.492039013517478,-0.2328158790548237,1.86727358,-0.0780320350125844,-0.0588237933002305,-0.0905911360078771,20.19242204222967,13.770003442707008,24.887268873019085,-0.0186738831906664,-0.0380397813840263,-0.8120445306797431,0.0214550633084158,0.1280433866791304,0.0064966657755842,-120.80936741442406,-84.60772715370967,78.3944707448799,0.0001940350586351
384,1724915322580355802,-0.4714229106903076,0.1167130544781684,0.1739647686481475,-0.0177290961146354,-0.0139827923849225,-0.394309937953949,0.9187001585960388,0.0,0.0,0.0,-1.0222772776262348,-1.4791985183737095,0.8807653234076014,1.876907109,-0.2937816416683922,-0.1740139235177043,0.1645811371343132,-25.88287544256399,-15.067021260943926,-4.519519610456285,-0.0215669891618553,-0.0396839197163661,-0.810424543704453,0.0118553620506318,0.1140799264698131,0.0135140417529644,-42.50313598291866,40.715482204904205,30.671459581496663,5.246517809212329e-05
386,1724915322590119884,-0.4713670313358307,0.1177536025643348,0.1742269098758697,-0.0209996234625577,-0.014458711259067,-0.3951528668403625,0.9182615280151368,0.0,0.0,0.0,-0.7290662803154043,-0.6919032210580944,0.3398130457172458,1.886671191,-0.5810146770245205,-0.3519055030248081,-0.1864101111278459,-9.653659791142449,-6.11577952348854,-15.43575202997426,-0.0271681332980224,-0.0431632808606566,-0.812161834599891,0.001618547122387,0.0993426529427674,0.0236214534198762,44.4275113187726,130.9490896601636,-88.08958396344352,0.0003132642171542
388,1724915322602478091,-0.4714112281799316,0.1188682690262794,0.1744683682918548,-0.0237956326454877,-0.0148622170090675,-0.3954749703407287,0.9180482029914856,0.0,0.0,0.0,0.0451843766307612,1.713432975859912,-1.26009624732166,1.899029398,-0.3911826622489096,-0.2381729329509982,-0.0563379503921864,-4.4749593124875275,-5.795694147690693,15.293153074552004,-0.0319752578481655,-0.0461259720352126,-0.8127713541497779,-0.0023962912312924,0.1035778661917028,0.0169445967854873,36.9738841191004,17.09595046372148,-65.52444917703599,0.000303256713412
390,1724915322612758938,-0.4714257717132568,0.1200475841760635,0.1746203899383545,-0.0275361314415931,-0.0156216621398925,-0.3947976529598236,0.918222427368164,0.0,0.0,0.0,0.2057013465869823,0.3707611554003289,-1.3869117020405444,1.909310245,-0.6068380242024044,-0.4260366335886142,0.1416677073545924,29.7781228668594,-37.031140211671286,21.554798510529533,-0.0382918649460215,-0.0504521220765044,-0.8111599220884292,0.0012332189844741,0.1329168132085758,-0.0021666439572687,-19.211009680643787,-219.36130488359572,68.33448572386851,0.0002260008364831
392,1724915322619559008,-0.4714054763317108,0.1210333183407783,0.1745294034481048,-0.0291246939450502,-0.0177369583398103,-0.3938019871711731,0.918562650680542,0.0,0.0,0.0,-0.0815663975260234,-1.520142557989013,-0.5593985707577631,1.916110315,-0.1760621153912671,-0.7622201211534736,0.2985648486058084,29.246109766951708,-14.945523854936726,1.963747492091147,-0.0396074519056235,-0.0555523081788985,-0.8089264554410295,0.0019693237115738,0.1242700949489234,-0.0094747665068561,-28.90002903191658,-157.62131316818517,61.815125731937286,-2.4457840633381955e-05
394,1724915322630686276,-0.4714020490646362,0.1220393925905227,0.1744950860738754,-0.0321865864098072,-0.0182496272027492,-0.3941246569156647,0.9183119535446168,0.0,0.0,0.0,-0.1601619609870758,-1.0808779615827149,-0.9618042694867996,1.927237583,-0.4715757180850069,-0.3004774853792458,-0.0639402359572739,-23.87918917359832,17.394051280998486,-15.996645610501217,-0.0448221651237014,-0.0589228460722287,-0.8094970742912692,-0.0023944684716354,0.1028289116912271,-0.0063164703669578,22.71897366254784,56.4657454797709,-26.254814991398817,3.9695034744961274e-05
396,1724915322639387059,-0.4714412689208984,0.1230185404419899,0.1744181364774704,-0.0353573039174079,-0.0183795224875211,-0.3944920599460602,0.9180349111557008,0.0,0.0,0.0,0.2401328116035544,-0.4739959553840842,-1.122825741025404,1.935938366,-0.6611209292600686,-0.3131149951692266,-0.0903128613578634,26.59627781335044,10.916987633753022,15.569502795858265,-0.0505348952057202,-0.0616815428583511,-0.8101532613507929,-0.0022095447117607,0.0991803124495005,-0.0231595368759913,5.96794578341207,61.50046585118724,80.61847309180558,1.287773118141856e-06
398,1724915322650040405,-0.4714348316192627,0.1239009350538253,0.1739846765995025,-0.0342242084443569,-0.0190252568572759,-0.3929037153720855,0.9187455773353576,0.0,0.0,0.0,-0.2185583277381335,0.0735785493412706,1.0290262862521695,1.946591712,0.2533060577491967,-0.0354644267230319,0.318181866037475,26.10359885024051,20.906309847141703,-5.982548640313427,-0.0480469357305191,-0.0618918848281966,-0.8067425465412715,0.0032037517640866,0.0934177517679168,-0.0245167439493485,-46.231882606984925,8.888978571991718,86.60373818418323,-0.0003634997514334
400,1724915322659398456,-0.4713834822177887,0.1248621940612793,0.1738881766796112,-0.033970259130001,-0.0185473319143056,-0.3933611214160919,0.9185689687728882,0.0,0.0,0.0,-0.6773046573716925,-0.1926831930525718,0.8909784693279517,1.955949763,0.0065803804530452,0.1177944837677104,-0.1021804194919411,-53.30395052161467,-29.133894476556673,-14.543683918309185,-0.0479234185168069,-0.0608366857416383,-0.8077523459573329,-0.0048150936853694,0.0991575960141668,-0.0053809781514235,4.38246041881476,-28.495250403681432,-101.17030235578346,-2.257156110865494e-05
402,1724915322669629845,-0.4715479910373688,0.1258368641138076,0.1738882809877395,-0.0393133237957954,-0.0200804844498634,-0.3928976058959961,0.91852205991745,0.0,0.0,0.0,-0.0350762025373402,-0.4847052532360267,-1.1108319200499532,1.966181152,-0.8401376057997041,-0.6893836269414415,0.0888123515199167,-22.02472382647415,-39.01977284959017,8.494795870206788,-0.0566014806401127,-0.0678329656113666,-0.8064739276180816,-0.0097359479296095,0.0881696057529222,-0.0091724508711301,73.63508985028258,26.25397293209448,-79.2913428017925,8.686081821988e-05
404,1724915322679909901,-0.4715825617313385,0.1266699880361557,0.173699140548706,-0.0427647046744823,-0.0223830193281173,-0.3924668729305267,0.9184988141059875,0.0,0.0,0.0,0.8341174562520008,0.3511699033876336,-0.7240485848237809,1.976461208,-0.4392531668292497,-0.6786672553872334,0.0710676299607189,8.462266627340696,21.411379764685993,2.501041919859862,-0.0611984773002432,-0.0747546184171364,-0.8053310710962777,-0.0054910547428193,0.0892730807294484,-0.0282379697451489,59.64026729802755,14.919455705160342,82.4007826446498,-0.0001079116908239
406,1724915322689673122,-0.4716559052467346,0.1276178956031799,0.1733322143554687,-0.0461855642497539,-0.0223879106342792,-0.3918718993663788,0.9185870289802552,0.0,0.0,0.0,1.1854128435840614,-0.1187692843347294,0.4956294987627774,1.986224429,-0.6397573095281097,-0.2807549010054306,0.1346817653052486,22.800312271004277,44.17544586663764,-12.366399261027816,-0.0675580482438585,-0.077405412063947,-0.8038381349375899,0.0065580697183982,0.0949624988041035,-0.0248240103435453,-17.612163642568536,-44.93338853813219,10.024815412474783,-0.0002675680140315
408,1724915322699548474,-0.4714505970478058,0.1285344362258911,0.1732145100831985,-0.0457161664962768,-0.0216032471507787,-0.3927113115787506,0.9182707667350768,0.0,0.0,0.0,0.4761516520119219,-0.5305359154773042,-0.5530914104330382,1.996099781,0.018287081269285,0.1896466603025131,-0.1760496570033083,34.528913839647466,6.653492875875461,-2.6302616004015915,-0.0672347770108067,-0.0756539191401645,-0.8057043314577852,0.0177777728384462,0.0867823962003599,-0.0184715937582584,-82.23962227355888,37.49859675472768,-104.44325238013305,-2.5372179359546136e-05
410,1724915322709467614,-0.4713042676448822,0.1293351799249649,0.1729660034179687,-0.0458362847566604,-0.0223588068038225,-0.3922843933105469,0.91842919588089,0.0,0.0,0.0,-0.4433931143033922,0.63044734663452,-1.5716178035173065,2.006018921,0.0409070401931082,-0.1526492466344961,0.085147933528761,-6.254944303372228,-8.869079344217946,20.099420228825235,-0.066901276221815,-0.0771080671583397,-0.8047574514970856,0.015925323207476,0.0844869477683056,-0.0358771777753839,-51.78446895433575,59.759638350167705,-7.016705131783802,-0.0001664963881823
412,1724915322720167544,-0.4711203277111053,0.1302825808525085,0.1724571883678436,-0.0463739074766635,-0.0218036789447069,-0.3911891281604767,0.9188824892044068,0.0,0.0,0.0,-0.5251817587222,0.6086762076538292,-0.5424992035649678,2.016718851,-0.1245373182998973,0.0483885115613938,0.2282648556802817,-40.703792516367194,-2.591868759033046,4.722871723576695,-0.0684185482078572,-0.0764263536060583,-0.802348378337304,0.0082188852875013,0.1011804732103067,-0.0505796647337959,20.1116102369552,-89.38221154152306,70.62611455556218,-0.0004099365251208
414,1724915322729464831,-0.4711163938045501,0.1313253790140152,0.171962484717369,-0.0496835634112358,-0.0211085062474012,-0.390362411737442,0.9190773963928224,0.0,0.0,0.0,-0.1139754547290025,-0.9279740589713668,-0.0923048911198369,2.026016138,-0.7068868192541595,-0.1484320701684869,0.2022743554184627,-0.4918759098961078,-13.819166640957151,-6.084420157690538,-0.0751431577183124,-0.0776679558679383,-0.8003679097754148,0.0049118405414354,0.0991529928620549,-0.0489055525523873,16.9608021307806,-119.6461047807243,25.10169522182867,-0.0003794006231613
416,1724915322739965622,-0.4710115790367126,0.1322122812271118,0.1714999824762344,-0.0499969162046909,-0.0221296083182096,-0.3898259699344635,0.919264018535614,0.0,0.0,0.0,-0.2592724129686796,-1.6431377327497652,-0.1052994059651064,2.036516929,0.0249885814591699,-0.2063665509646718,0.0993761756148612,48.774660254677926,-4.895051243758979,-0.2815005535795993,-0.0749756434051398,-0.0797506089364513,-0.7991610346484117,0.0065818813956965,0.0809890356753895,-0.0531051520599241,-72.82961889032579,441.86266666780386,-185.96608961181843,-0.0003630890337591
418,1724915322750334612,-0.4709781408309936,0.1330165117979049,0.1708565652370453,-0.0490173548460006,-0.0239140428602695,-0.3887994885444641,0.9197067618370056,0.0,0.0,0.0,-1.6184606086662328,8.16001798912199,-3.924987221025794,2.046885919,0.3165102614587016,-0.250753675986205,0.1939063902957158,10.956847937847565,-0.3852671320195302,4.761652301241579,-0.0718719563760887,-0.0821961833839125,-0.7969579697140545,-0.000389542087289,0.0648383750057002,-0.051180306352585,0.6918026729655651,158.57689546297547,-29.548553168517827,-0.0005523187034433
420,1724915322769144218,-0.4711087942123413,0.133801981806755,0.1702648401260376,-0.0500485450029373,-0.0247039534151554,-0.3875886797904968,0.9201412796974182,0.0,0.0,0.0,2.890818994120089,-15.705506437894089,7.080381632690234,2.065695525,-0.0628425169299345,-0.1250820296597869,0.1348746932659441,-1811.8719975440304,-401.7355563334333,329.90641937059684,-0.0732794402972866,-0.0843587731541982,-0.7942476762189848,-0.0631150264145503,0.5499005937047201,-0.2652666891506783,563.3697476019329,-4675.235205501385,1970.6989081589363,-0.0004997813746459
422,1724915322770683382,-0.4712130129337311,0.1347123682498932,0.1698271036148071,-0.0524775832891464,-0.024322472512722,-0.3871305584907532,0.9202089309692384,0.0,0.0,0.0,3.7986987432304575,-23.330493387281592,10.288124265327395,2.067234689,-3.077271585713262,-0.7948580754054458,0.6846009897750421,-1627.215741446938,-357.35647084436675,294.07058398757744,-0.0781131922935976,-0.0854989944329753,-0.7931002708197539,-0.0578814850461144,0.5205012329820264,-0.2520435573967448,494.868502976551,-4285.803141140029,1780.2088152149458,-0.0003293068952867
424,1724915322779730071,-0.4712139666080475,0.1356469392776489,0.1692673861980438,-0.0530492179095745,-0.0235493127256631,-0.3872166574001312,0.9201599955558776,0.0,0.0,0.0,3.224997644877043,-26.57361163244649,10.23519640430044,2.076281378,-0.1834923724520706,0.1091005435691518,-0.0096601651271285,184.24606682677336,39.13003056659668,-29.482843669268096,-0.0797591285960994,-0.0845219536364825,-0.7932657618735901,-0.0023289294858201,0.0845336907189624,-0.0687342359519576,-185.76588684329136,989.071407583037,-472.64557519603966,-0.0004476601390639
426,1724915322789990368,-0.4712637364864349,0.1362958401441574,0.1684822738170623,-0.0528613664209842,-0.0246693417429924,-0.3860245645046234,0.9206423163414,0.0,0.0,0.0,-0.1047704531643986,-0.7443018823384251,-0.0462461319601863,2.086541675,0.1286916014294096,-0.1968262600738587,0.2377783798931362,13.975986818541813,-7.074923909706708,17.001121679276544,-0.078660693418441,-0.0863420911976444,-0.7906645874486122,-0.0031681022673382,0.0634339563363415,-0.0804039134833001,-180.44476839494655,1290.4159479870382,-412.51874053604377,-0.0007040212558202
428,1724915322799921439,-0.4712790250778198,0.1369276344776153,0.167646437883377,-0.052495714277029,-0.0250117983669042,-0.3844516277313232,0.9213119149208068,0.0,0.0,0.0,-0.5117797858651993,0.2766022968360206,1.5239214098770075,2.096472746,0.1093599505139046,-0.0484858845130776,0.338225460609414,-16.63170240953847,15.86107645211143,-5.060214052639308,-0.0778681071533372,-0.0865595127184258,-0.7872655498454298,-0.0044294984335166,0.0686550958584417,-0.0703749298549638,-11.713936954736177,3.6832961502217074,58.17250040125237,-0.0007568320355505
430,1724915322809351760,-0.4713466763496399,0.1376201808452606,0.1671062558889389,-0.0530931912362575,-0.0241739582270383,-0.383827805519104,0.9215600490570068,0.0,0.0,0.0,-0.3601429454503873,-0.5762263450872545,1.1776151747522507,2.105903067,-0.1789849471450227,0.1093641250430971,0.1546198478912791,-31.394394485650015,-9.169263899841388,-8.829761288227008,-0.0796742896173521,-0.0854166231424586,-0.785887942164728,-0.012701244465326,0.0690325806038476,-0.0514005273657645,52.25228991243076,-78.79891914119837,-67.51848962828034,-0.0004556259010149
432,1724915322819700778,-0.4715408980846405,0.1382845640182495,0.1666411012411117,-0.0561187528073787,-0.0244381483644247,-0.3829354047775268,0.9217450618743896,0.0,0.0,0.0,0.5914366576345979,-1.2595672531833155,0.1291099982532473,2.116252085,-0.5131766840276876,-0.2797694709564871,0.18408066087467,1.2002207535122391,-11.599782164415892,11.402133919027117,-0.0851710968282636,-0.0881452976511982,-0.7837429436276123,-0.0105566828389136,0.0560702618570942,-0.0486903722809266,31.92705575496088,-13.492082037854033,-49.92914481145232,-0.000380098581865
434,1724915322829746291,-0.4715668857097626,0.1387685686349868,0.1661154776811599,-0.0572481527924537,-0.0246556270867586,-0.3811468780040741,0.9224108457565308,0.0,0.0,0.0,0.3268939254041678,-0.8828141642134772,0.1285996566704699,2.126297598,-0.1745390828339167,-0.1427595674631731,0.3820439536738065,24.803266453628822,8.321701499957776,3.9149468693043583,-0.0872754349604981,-0.0892435600140722,-0.7797802537970651,-0.0008689725038095,0.0433485141619689,-0.0486879811980243,-17.640232058005004,39.49557008978306,21.7649671939166,-0.0004612774583283
436,1724915322840029649,-0.4715577363967895,0.139163464307785,0.1656530797481537,-0.0575651153922081,-0.0250909570604562,-0.3799003958702087,0.9228934645652772,0.0,0.0,0.0,0.2370153531227252,-0.4557086140662336,0.5820676055543088,2.136580956,-0.0132414422156031,-0.1131579635448054,0.256066231740565,9.274116394885011,3.580667195644042,-7.421979841262195,-0.0876566963346736,-0.0901727320696667,-0.777044443795436,-0.0042181349717225,0.0383082799371941,-0.0460143032502902,26.59557013111132,20.683714941323117,51.45319200581669,-0.0004092875748149
438,1724915322849601946,-0.4716436266899109,0.1395293325185775,0.1652032732963562,-0.0576432198286056,-0.0253823827952146,-0.3788706660270691,0.9233039617538452,0.0,0.0,0.0,0.8064519928377702,-0.443499424444586,1.1401371313725657,2.146153253,0.0184068470509964,-0.0726269906235932,0.2280461515041101,20.85970902358205,-2.2720636756609176,1.2091095776520238,-0.0876832078052447,-0.0906741591433348,-0.7748000275203832,0.003064557028896,0.0342528552079119,-0.0375728311306939,-1.957258416321814,4.933578250121354,18.17555068731752,-0.0003999819850406
440,1724915322859313218,-0.4714952707290649,0.1398228704929351,0.1649311780929565,-0.056203693151474,-0.0267403684556484,-0.377518743276596,0.9239078164100648,0.0,0.0,0.0,0.1820697423559998,-0.3595474656496835,0.9213234065923924,2.155864525,0.3939226011020508,-0.1587930025263053,0.2805402143346532,-2.532520663545042,1.1977165392302398,-4.120858909111849,-0.0841183889649462,-0.0919767943805544,-0.7719412882602323,0.0113459161741609,0.0297504745287424,-0.023956082306638,-52.51657618431624,0.4043895258789973,-59.28551488860778,-0.0002346102642598
442,1724915322869473182,-0.4714217782020569,0.1401200741529464,0.164730966091156,-0.0566255897283554,-0.0267531424760818,-0.3768718540668487,0.924145758152008,0.0,0.0,0.0,-0.2263037152269293,-0.4430293450222597,-0.0716833421901488,2.166024489,-0.0697443125755255,-0.0395810055270784,0.1374133190667788,-28.23860910608999,6.559477669459659,-6.540961068846923,-0.0849586383677201,-0.0922596156888777,-0.7705101410270833,0.0060667394319366,0.0272037570740453,-0.0197064587945066,-10.34141718885509,-8.177415583787855,-63.509401216811526,-0.0001620401170961
