seq,stamp,px,py,pz,ox,oy,oz,ow,lx,ly,lz,ax,ay,az
8,1724915320703448693,-0.4698769450187683,0.12909166514873505,0.17330317199230194,-0.046393897384405136,-0.02252800203859806,-0.3916807770729065,0.9186546802520752,0.0,0.0,0.0,0.0,0.0,0.0
10,1724915320709321524,-0.46975287795066833,0.1298711746931076,0.1728835254907608,-0.045615531504154205,-0.023617001250386238,-0.39115816354751587,0.9188889265060425,0.0,0.0,0.0,0.0,0.0,0.0
12,1724915320719477943,-0.46971404552459717,0.13078784942626953,0.17252156138420105,-0.0477876253426075,-0.023837460204958916,-0.39013803005218506,0.919206440448761,0.0,0.0,0.0,0.0,0.0,0.0
14,1724915320729741192,-0.4697261452674866,0.13166797161102295,0.17202700674533844,-0.04928992688655853,-0.023392947390675545,-0.3893473446369171,0.9194737672805786,0.0,0.0,0.0,0.0,0.0,0.0
16,1724915320739851253,-0.4696982502937317,0.13251622021198273,0.17153233289718628,-0.04898431524634361,-0.02332572266459465,-0.389261394739151,0.9195282459259033,0.0,0.0,0.0,0.0,0.0,0.0
18,1724915320787108328,-0.4696767330169678,0.13335813581943512,0.1711713969707489,-0.04856261610984802,-0.022853843867778778,-0.38966572284698486,0.9193910956382751,0.0,0.0,0.0,0.0,0.0,0.0
20,1724915320787844702,-0.4698861837387085,0.13406242430210114,0.1706930696964264,-0.05015699937939644,-0.02365635335445404,-0.388967365026474,0.9195809364318848,0.0,0.0,0.0,0.0,0.0,0.0
22,1724915320789214264,-0.4701731503009796,0.13487063348293304,0.17012910544872284,-0.053257446736097336,-0.023717954754829407,-0.3877614140510559,0.9199142456054688,0.0,0.0,0.0,0.0,0.0,0.0
24,1724915320790322921,-0.4702914357185364,0.13570313155651093,0.16956588625907898,-0.05391695722937584,-0.02317039854824543,-0.38733574748039246,0.92006915807724,0.0,0.0,0.0,0.0,0.0,0.0
26,1724915320791715734,-0.47035619616508484,0.13626155257225037,0.16883079707622528,-0.05239109694957733,-0.0237918458878994,-0.38604864478111267,0.9206821322441101,0.0,0.0,0.0,0.0,0.0,0.0
28,1724915320803652189,-0.4705938696861267,0.1367700695991516,0.16808348894119263,-0.05241013690829277,-0.024443289265036583,-0.3846682906150818,0.9212416410446167,0.0,0.0,0.0,0.0,0.0,0.0
30,1724915320809288102,-0.470868319272995,0.1372760385274887,0.16751325130462646,-0.05421086773276329,-0.025265397503972054,-0.3831855058670044,0.9217330813407898,0.0,0.0,0.0,0.0,0.0,0.0
32,1724915320819384549,-0.47107118368148804,0.13775447010993958,0.16699956357479095,-0.05552651360630989,-0.025471558794379234,-0.3819088339805603,0.9221787452697754,0.0,0.0,0.0,0.0,0.0,0.0
34,1724915320830100308,-0.47129443287849426,0.13827109336853027,0.16665011644363403,-0.05753067508339882,-0.02465519867837429,-0.3812432885169983,0.9223534464836121,0.0,0.0,0.0,0.0,0.0,0.0
36,1724915320840182603,-0.4714308977127075,0.13862118124961853,0.1661512702703476,-0.057864200323820114,-0.02475741133093834,-0.3800292909145355,0.9228307604789734,0.0,0.0,0.0,0.0,0.0,0.0
38,1724915320851330662,-0.4714885354042053,0.13891729712486267,0.16566990315914154,-0.05826710909605026,-0.025228772312402725,-0.37874481081962585,0.9233205914497375,0.0,0.0,0.0,0.0,0.0,0.0
40,1724915320860371107,-0.47147783637046814,0.13921961188316345,0.16526229679584503,-0.05828818678855896,-0.025785164907574654,-0.37724974751472473,0.9239157438278198,0.0,0.0,0.0,0.0,0.0,0.0
42,1724915320869617615,-0.4713754653930664,0.13951902091503143,0.16489127278327942,-0.05728569254279137,-0.026787810027599335,-0.3755154311656952,0.924656093120575,0.0,0.0,0.0,0.0,0.0,0.0
44,1724915320880043342,-0.47129979729652405,0.13979941606521606,0.16467304527759552,-0.05731728672981262,-0.026961391791701317,-0.37454965710639954,0.9250407218933105,0.0,0.0,0.0,0.0,0.0,0.0
46,1724915320890094564,-0.4713170528411865,0.14005649089813232,0.16447512805461884,-0.05767562612891197,-0.02675345353782177,-0.3737313151359558,0.9253554344177246,0.0,0.0,0.0,0.0,0.0,0.0
48,1724915320899632725,-0.47139960527420044,0.14020904898643494,0.16423143446445465,-0.05800139904022217,-0.02744741179049015,-0.3722418248653412,0.925915002822876,0.0,0.0,0.0,0.0,0.0,0.0
50,1724915320911611580,-0.4715336561203003,0.14048025012016296,0.16407589614391327,-0.058743178844451904,-0.02694784663617611,-0.3714618384838104,0.9261960983276367,0.0,0.0,0.0,0.0,0.0,0.0
52,1724915320919471025,-0.47158169746398926,0.14072906970977783,0.16383466124534607,-0.059672482311725616,-0.026591461151838303,-0.3699512183666229,0.926751434803009,0.0,0.0,0.0,0.0,0.0,0.0
54,1724915320929788666,-0.4716474413871765,0.141057088971138,0.16336633265018463,-0.0603022575378418,-0.02662663906812668,-0.3681078553199768,0.9274434447288513,0.0,0.0,0.0,0.0,0.0,0.0
56,1724915320940434959,-0.4716342091560364,0.14139695465564728,0.1630089282989502,-0.061075761914253235,-0.02689625695347786,-0.3669458031654358,0.9278454780578613,0.0,0.0,0.0,0.0,0.0,0.0
58,1724915320974519616,-0.47161561250686646,0.14167442917823792,0.16266018152236938,-0.0612555593252182,-0.02715463750064373,-0.36615249514579773,0.9281393885612488,0.0,0.0,0.0,0.0,0.0,0.0
60,1724915320975169212,-0.4715670645236969,0.1419338881969452,0.16248151659965515,-0.061080191284418106,-0.02758048288524151,-0.36526617407798767,0.9284875392913818,0.0,0.0,0.0,0.0,0.0,0.0
62,1724915320975688751,-0.47149205207824707,0.14214716851711273,0.1624266356229782,-0.061041202396154404,-0.027734894305467606,-0.36389026045799255,0.9290257096290588,0.0,0.0,0.0,0.0,0.0,0.0
64,1724915320979484336,-0.47144100069999695,0.14237800240516663,0.1624496430158615,-0.06158607080578804,-0.02745537832379341,-0.36222198605537415,0.9296497106552124,0.0,0.0,0.0,0.0,0.0,0.0
66,1724915320990161246,-0.47139015793800354,0.14253778755664825,0.16237297654151917,-0.0618886835873127,-0.027117516845464706,-0.36015409231185913,0.9304426908493042,0.0,0.0,0.0,0.0,0.0,0.0
68,1724915321003758252,-0.47135797142982483,0.14279603958129883,0.16236603260040283,-0.06179115176200867,-0.02696324698626995,-0.3581295311450958,0.9312346577644348,0.0,0.0,0.0,0.0,0.0,0.0
70,1724915321044759468,-0.4712860882282257,0.14301250874996185,0.16237184405326843,-0.061718184500932693,-0.026802467182278633,-0.35678866505622864,0.9317588210105896,0.0,0.0,0.0,0.0,0.0,0.0
72,1724915321045312003,-0.4712161719799042,0.14318864047527313,0.1623784601688385,-0.06130446866154671,-0.02679450251162052,-0.3560084104537964,0.9320846199989319,0.0,0.0,0.0,0.0,0.0,0.0
74,1724915321045561204,-0.4711783230304718,0.1433812379837036,0.16229182481765747,-0.061134327203035355,-0.02623392455279827,-0.35478025674819946,0.9325799942016602,0.0,0.0,0.0,0.0,0.0,0.0
76,1724915321045865045,-0.4711843729019165,0.1435215175151825,0.16221439838409424,-0.060923051089048386,-0.02598092332482338,-0.3538496494293213,0.9329543709754944,0.0,0.0,0.0,0.0,0.0,0.0
78,1724915321072794027,-0.47118228673934937,0.14364996552467346,0.16214028000831604,-0.059889987111091614,-0.026093019172549248,-0.3527369201183319,0.933439314365387,0.0,0.0,0.0,0.0,0.0,0.0
80,1724915321073200210,-0.471329927444458,0.14373427629470825,0.16219493746757507,-0.061440907418727875,-0.027006028220057487,-0.3513542413711548,0.9338340163230896,0.0,0.0,0.0,0.0,0.0,0.0
82,1724915321073462587,-0.4713955819606781,0.14382480084896088,0.16229452192783356,-0.061892591416835785,-0.026379333809018135,-0.3499492108821869,0.934349536895752,0.0,0.0,0.0,0.0,0.0,0.0
84,1724915321080619379,-0.4714398980140686,0.14387750625610352,0.16232268512248993,-0.06155451759696007,-0.025699883699417114,-0.3473133444786072,0.9353737235069275,0.0,0.0,0.0,0.0,0.0,0.0
86,1724915321090074269,-0.4714180827140808,0.14396046102046967,0.16234499216079712,-0.06025271117687225,-0.024897797033190727,-0.3450133204460144,0.9363308548927307,0.0,0.0,0.0,0.0,0.0,0.0
88,1724915321099780831,-0.47146809101104736,0.14401382207870483,0.16227661073207855,-0.06012788414955139,-0.024877434596419334,-0.34281086921691895,0.9371481537818909,0.0,0.0,0.0,0.0,0.0,0.0
90,1724915321111653799,-0.47153639793395996,0.14415499567985535,0.16230612993240356,-0.06074140593409538,-0.024516955018043518,-0.34116822481155396,0.9377173185348511,0.0,0.0,0.0,0.0,0.0,0.0
92,1724915321119404464,-0.47152775526046753,0.1442769467830658,0.1622563600540161,-0.060357533395290375,-0.024196188896894455,-0.33943670988082886,0.9383785128593445,0.0,0.0,0.0,0.0,0.0,0.0
94,1724915321129993549,-0.4715427756309509,0.1443501114845276,0.1622125208377838,-0.06010454148054123,-0.02427210845053196,-0.3379269242286682,0.9389375448226929,0.0,0.0,0.0,0.0,0.0,0.0
96,1724915321141039695,-0.47167107462882996,0.1443174034357071,0.16215328872203827,-0.061102062463760376,-0.02516787312924862,-0.33600589632987976,0.9395387768745422,0.0,0.0,0.0,0.0,0.0,0.0
98,1724915321149932239,-0.4717167317867279,0.14433905482292175,0.16210459172725677,-0.060873519629240036,-0.025442618876695633,-0.33451101183891296,0.9400795698165894,0.0,0.0,0.0,0.0,0.0,0.0
100,1724915321160372768,-0.47176122665405273,0.1443723440170288,0.16208133101463318,-0.06044808030128479,-0.025674153119325638,-0.33307892084121704,0.9406090378761292,0.0,0.0,0.0,0.0,0.0,0.0
102,1724915321169578720,-0.4719043970108032,0.1443634033203125,0.16204465925693512,-0.06093698740005493,-0.025706617161631584,-0.33130043745040894,0.9412045478820801,0.0,0.0,0.0,0.0,0.0,0.0
104,1724915321179622807,-0.47197937965393066,0.1443462073802948,0.16202855110168457,-0.05939435213804245,-0.025330977514386177,-0.3292919993400574,0.9420177340507507,0.0,0.0,0.0,0.0,0.0,0.0
106,1724915321191278508,-0.47212931513786316,0.14426030218601227,0.1620747447013855,-0.059967197477817535,-0.025168169289827347,-0.3275854289531708,0.9425806999206543,0.0,0.0,0.0,0.0,0.0,0.0
108,1724915321199412110,-0.4722509980201721,0.14415906369686127,0.1622305065393448,-0.06002018600702286,-0.024491388350725174,-0.32672354578971863,0.9428941607475281,0.0,0.0,0.0,0.0,0.0,0.0
110,1724915321209499635,-0.4724283814430237,0.14394710958003998,0.16229628026485443,-0.06023735925555229,-0.02440396323800087,-0.3255506455898285,0.9432883262634277,0.0,0.0,0.0,0.0,0.0,0.0
112,1724915321221617091,-0.4725596308708191,0.14373578131198883,0.16243399679660797,-0.06011265888810158,-0.02425093576312065,-0.32440677285194397,0.9436941742897034,0.0,0.0,0.0,0.0,0.0,0.0
114,1724915321229416499,-0.4727063775062561,0.14359916746616364,0.16267132759094238,-0.059460777789354324,-0.023565325886011124,-0.32304880023002625,0.9442185163497925,0.0,0.0,0.0,0.0,0.0,0.0
116,1724915321240165307,-0.472947359085083,0.14338259398937225,0.16281774640083313,-0.05990268662571907,-0.023433363065123558,-0.3206239640712738,0.9450200200080872,0.0,0.0,0.0,0.0,0.0,0.0
118,1724915321249563234,-0.47316083312034607,0.14310452342033386,0.16305407881736755,-0.0597560778260231,-0.023089082911610603,-0.31930258870124817,0.9454851150512695,0.0,0.0,0.0,0.0,0.0,0.0
120,1724915321259535811,-0.47337862849235535,0.14277125895023346,0.163170725107193,-0.05978775396943092,-0.023148350417613983,-0.31800714135169983,0.945918083190918,0.0,0.0,0.0,0.0,0.0,0.0
122,1724915321272173160,-0.4735261797904968,0.14244511723518372,0.16343377530574799,-0.058710306882858276,-0.022295191884040833,-0.31679731607437134,0.9464119076728821,0.0,0.0,0.0,0.0,0.0,0.0
124,1724915321279526725,-0.4736778140068054,0.14214535057544708,0.16381651163101196,-0.05814780294895172,-0.02167939394712448,-0.31531140208244324,0.946956992149353,0.0,0.0,0.0,0.0,0.0,0.0
126,1724915321290184663,-0.47377458214759827,0.14184828102588654,0.16435128450393677,-0.05783311650156975,-0.020647089928388596,-0.3140149414539337,0.9474300146102905,0.0,0.0,0.0,0.0,0.0,0.0
128,1724915321300958066,-0.47393688559532166,0.14151513576507568,0.16492177546024323,-0.05775613337755203,-0.02018861658871174,-0.31313249468803406,0.9477366805076599,0.0,0.0,0.0,0.0,0.0,0.0
130,1724915321309576956,-0.4740764796733856,0.14119736850261688,0.1654987931251526,-0.05684131756424904,-0.0198159608989954,-0.31300634145736694,0.9478414058685303,0.0,0.0,0.0,0.0,0.0,0.0
132,1724915321322067102,-0.47410818934440613,0.1407012790441513,0.16598708927631378,-0.05517302080988884,-0.019938090816140175,-0.3117516338825226,0.9483509063720703,0.0,0.0,0.0,0.0,0.0,0.0
134,1724915321330655768,-0.4742560386657715,0.14021478593349457,0.166489377617836,-0.05525241047143936,-0.02010452188551426,-0.30960536003112793,0.9490456581115723,0.0,0.0,0.0,0.0,0.0,0.0
136,1724915321340202749,-0.4743872284889221,0.13981753587722778,0.16728979349136353,-0.05553431436419487,-0.019493693485856056,-0.30873265862464905,0.9493260979652405,0.0,0.0,0.0,0.0,0.0,0.0
138,1724915321350509196,-0.47442108392715454,0.13939540088176727,0.16808241605758667,-0.052969858050346375,-0.01974659413099289,-0.3075375556945801,0.9498552083969116,0.0,0.0,0.0,0.0,0.0,0.0
140,1724915321361101797,-0.47456973791122437,0.13888804614543915,0.16881287097930908,-0.05262153595685959,-0.01982467621564865,-0.30711036920547485,0.950011134147644,0.0,0.0,0.0,0.0,0.0,0.0
142,1724915321369454252,-0.47464001178741455,0.13819639384746552,0.1693936586380005,-0.052164703607559204,-0.01931983046233654,-0.3060677647590637,0.9503831267356873,0.0,0.0,0.0,0.0,0.0,0.0
144,1724915321379772435,-0.474565714597702,0.13746078312397003,0.1699673980474472,-0.05061965808272362,-0.018546678125858307,-0.30540257692337036,0.9506961107254028,0.0,0.0,0.0,0.0,0.0,0.0
146,1724915321391309753,-0.47443652153015137,0.1367320865392685,0.1705513894557953,-0.04777776077389717,-0.017610203474760056,-0.3047386705875397,0.951073944568634,0.0,0.0,0.0,0.0,0.0,0.0
148,1724915321407975669,-0.4743596315383911,0.13591301441192627,0.17112891376018524,-0.04738036170601845,-0.01781546324491501,-0.3036835491657257,0.9514274001121521,0.0,0.0,0.0,0.0,0.0,0.0
150,1724915321409511295,-0.47419026494026184,0.13492804765701294,0.17163090407848358,-0.04531813785433769,-0.018367040902376175,-0.30293282866477966,0.9517566561698914,0.0,0.0,0.0,0.0,0.0,0.0
152,1724915321420389730,-0.4740152359008789,0.13372763991355896,0.1719839870929718,-0.04301272705197334,-0.018856944516301155,-0.30220118165016174,0.9520865678787231,0.0,0.0,0.0,0.0,0.0,0.0
154,1724915321429865168,-0.47388944029808044,0.13244129717350006,0.17240160703659058,-0.04107765853404999,-0.0193745419383049,-0.3020891845226288,0.9521971344947815,0.0,0.0,0.0,0.0,0.0,0.0
156,1724915321440129353,-0.4737634062767029,0.13114161789417267,0.17288412153720856,-0.03872646391391754,-0.019862564280629158,-0.3015202581882477,0.9524658918380737,0.0,0.0,0.0,0.0,0.0,0.0
158,1724915321452302749,-0.47372865676879883,0.12988553941249847,0.17340169847011566,-0.037276942282915115,-0.020301302894949913,-0.3007742464542389,0.9527503252029419,0.0,0.0,0.0,0.0,0.0,0.0
160,1724915321459389898,-0.47374266386032104,0.12842656672000885,0.17395833134651184,-0.03699025139212608,-0.020303675904870033,-0.3007529079914093,0.9527681469917297,0.0,0.0,0.0,0.0,0.0,0.0
162,1724915321469402030,-0.47362053394317627,0.12669764459133148,0.1743447482585907,-0.033255401998758316,-0.019798560068011284,-0.3013352155685425,0.9527325630187988,0.0,0.0,0.0,0.0,0.0,0.0
164,1724915321480063968,-0.4737113416194916,0.12531572580337524,0.1742425560951233,-0.030738355591893196,-0.018685709685087204,-0.30104610323905945,0.9529308676719666,0.0,0.0,0.0,0.0,0.0,0.0
166,1724915321491121346,-0.4737657904624939,0.12392642349004745,0.17404364049434662,-0.02846357598900795,-0.01843087188899517,-0.3000534176826477,0.9533195495605469,0.0,0.0,0.0,0.0,0.0,0.0
168,1724915321505082000,-0.4736860394477844,0.12261432409286499,0.1737992763519287,-0.024517614394426346,-0.017848769202828407,-0.2998127043247223,0.9535160064697266,0.0,0.0,0.0,0.0,0.0,0.0
170,1724915321509450733,-0.47379809617996216,0.1215720996260643,0.17370133101940155,-0.02449263259768486,-0.016877319663763046,-0.29942792654037476,0.9536552429199219,0.0,0.0,0.0,0.0,0.0,0.0
172,1724915321521095831,-0.47392329573631287,0.12059466540813446,0.17390979826450348,-0.02162752114236355,-0.015750182792544365,-0.2995177209377289,0.9537156224250793,0.0,0.0,0.0,0.0,0.0,0.0
174,1724915321530246404,-0.4741235077381134,0.11951135098934174,0.17421439290046692,-0.0184463020414114,-0.016222162172198296,-0.29968777298927307,0.9537210464477539,0.0,0.0,0.0,0.0,0.0,0.0
176,1724915321540018706,-0.47437313199043274,0.11835373938083649,0.17436203360557556,-0.017268920317292213,-0.01683388091623783,-0.29956522583961487,0.9537710547447205,0.0,0.0,0.0,0.0,0.0,0.0
178,1724915321554160092,-0.47463494539260864,0.11745604872703552,0.17450633645057678,-0.017007818445563316,-0.01649927906692028,-0.29958146810531616,0.953776478767395,0.0,0.0,0.0,0.0,0.0,0.0
180,1724915321585975994,-0.47487401962280273,0.11646575480699539,0.1744469851255417,-0.014992883428931236,-0.015962157398462296,-0.29890549182891846,0.9540315270423889,0.0,0.0,0.0,0.0,0.0,0.0
182,1724915321586418694,-0.47503888607025146,0.11516579985618591,0.1740928292274475,-0.010332710109651089,-0.014802701771259308,-0.29788050055503845,0.9544324278831482,0.0,0.0,0.0,0.0,0.0,0.0
184,1724915321586932719,-0.47520163655281067,0.1139218807220459,0.17382016777992249,-0.006114596035331488,-0.013795394450426102,-0.29879945516586304,0.954196572303772,0.0,0.0,0.0,0.0,0.0,0.0
186,1724915321590006636,-0.4755391776561737,0.11271201819181442,0.17324164509773254,-0.0049706511199474335,-0.014583442360162735,-0.2982967793941498,0.9543488621711731,0.0,0.0,0.0,0.0,0.0,0.0
188,1724915321604135469,-0.47565338015556335,0.11184018850326538,0.17292706668376923,-0.002135793911293149,-0.012248570099473,-0.29889100790023804,0.9542062878608704,0.0,0.0,0.0,0.0,0.0,0.0
190,1724915321611314348,-0.4755479395389557,0.11080081015825272,0.17280638217926025,0.0008924410212785006,-0.010943244211375713,-0.2989683449268341,0.9541999101638794,0.0,0.0,0.0,0.0,0.0,0.0
192,1724915321619374902,-0.47544699907302856,0.10966769605875015,0.17275309562683105,0.0036195842549204826,-0.010206246748566628,-0.299073189496994,0.9541687965393066,0.0,0.0,0.0,0.0,0.0,0.0
194,1724915321630421906,-0.47559353709220886,0.1085524708032608,0.1725950986146927,0.0037019308656454086,-0.009868955239653587,-0.298129141330719,0.9544674158096313,0.0,0.0,0.0,0.0,0.0,0.0
196,1724915321639524811,-0.47567659616470337,0.10761919617652893,0.17253921926021576,0.008381282910704613,-0.007598746567964554,-0.29816925525665283,0.9544459581375122,0.0,0.0,0.0,0.0,0.0,0.0
198,1724915321649565500,-0.4757465720176697,0.10676930844783783,0.17246167361736298,0.012489023618400097,-0.005548595916479826,-0.2980712354183197,0.9544458389282227,0.0,0.0,0.0,0.0,0.0,0.0
200,1724915321659904604,-0.47590288519859314,0.10580392181873322,0.17228038609027863,0.015554789453744888,-0.005132005549967289,-0.29836854338645935,0.9543101787567139,0.0,0.0,0.0,0.0,0.0,0.0
202,1724915321669503818,-0.47624272108078003,0.10472515970468521,0.17190082371234894,0.01536046713590622,-0.006762780714780092,-0.2989470362663269,0.9541221857070923,0.0,0.0,0.0,0.0,0.0,0.0
204,1724915321679731955,-0.4764692783355713,0.10382270812988281,0.1716012805700302,0.01618293486535549,-0.006493256893008947,-0.2990474998950958,0.9540789127349854,0.0,0.0,0.0,0.0,0.0,0.0
206,1724915321691113893,-0.476491779088974,0.10288721323013306,0.17119784653186798,0.019026758149266243,-0.005683690309524536,-0.2991282343864441,0.9540063142776489,0.0,0.0,0.0,0.0,0.0,0.0
208,1724915321703342288,-0.476448118686676,0.10206575691699982,0.17076779901981354,0.019957510754466057,-0.005729136057198048,-0.29949963092803955,0.9538704752922058,0.0,0.0,0.0,0.0,0.0,0.0
210,1724915321710036962,-0.47630175948143005,0.10130282491445541,0.1701924353837967,0.021964941173791885,-0.006177774630486965,-0.29876187443733215,0.9540548920631409,0.0,0.0,0.0,0.0,0.0,0.0
212,1724915321720555572,-0.4762080907821655,0.10051476955413818,0.16990889608860016,0.02434711344540119,-0.0051865545101463795,-0.29939407110214233,0.9538047313690186,0.0,0.0,0.0,0.0,0.0,0.0
214,1724915321730524376,-0.47628048062324524,0.09959614276885986,0.16932134330272675,0.026939624920487404,-0.0042876144871115685,-0.2997150719165802,0.9536387324333191,0.0,0.0,0.0,0.0,0.0,0.0
216,1724915321739788585,-0.47643014788627625,0.09855730086565018,0.16892465949058533,0.024521250277757645,-0.004519924521446228,-0.3014177680015564,0.9531661868095398,0.0,0.0,0.0,0.0,0.0,0.0
218,1724915321779474423,-0.47645917534828186,0.09760874509811401,0.16852588951587677,0.024176839739084244,-0.0038371621631085873,-0.30318334698677063,0.9526178240776062,0.0,0.0,0.0,0.0,0.0,0.0
220,1724915321779852869,-0.47648078203201294,0.09673207253217697,0.1679443120956421,0.025794707238674164,-0.004114451352506876,-0.3029934763908386,0.9526346325874329,0.0,0.0,0.0,0.0,0.0,0.0
222,1724915321780199885,-0.4763997495174408,0.09594400227069855,0.16735334694385529,0.028086217120289803,-0.0023076552897691727,-0.3036285638809204,0.9523736834526062,0.0,0.0,0.0,0.0,0.0,0.0
224,1724915321780440948,-0.47644466161727905,0.09510282427072525,0.16673585772514343,0.028737429529428482,-0.0012976102298125625,-0.3045012056827545,0.9520775079727173,0.0,0.0,0.0,0.0,0.0,0.0
226,1724915321790106685,-0.4764470160007477,0.09429129958152771,0.16590194404125214,0.031440019607543945,0.0004894818994216621,-0.3056005835533142,0.9516405463218689,0.0,0.0,0.0,0.0,0.0,0.0
228,1724915321800894252,-0.47657352685928345,0.09345807135105133,0.1650746762752533,0.03180123120546341,3.94705384678673e-05,-0.30638059973716736,0.9513777494430542,0.0,0.0,0.0,0.0,0.0,0.0
230,1724915321810043512,-0.4767087399959564,0.09267908334732056,0.1644977182149887,0.030312122777104378,-0.0022660489194095135,-0.3072715997695923,0.9511362910270691,0.0,0.0,0.0,0.0,0.0,0.0
232,1724915321820945445,-0.4767160713672638,0.09199420362710953,0.1640029102563858,0.03032476082444191,-0.0021174070425331593,-0.3077845871448517,0.9509704113006592,0.0,0.0,0.0,0.0,0.0,0.0
234,1724915321829856354,-0.4765527844429016,0.09137183427810669,0.16346009075641632,0.03155924379825592,-0.001689793774858117,-0.3088322579860687,0.9505913257598877,0.0,0.0,0.0,0.0,0.0,0.0
236,1724915321839805867,-0.47637397050857544,0.0907600149512291,0.16322071850299835,0.032503169029951096,-0.0007837206940166652,-0.3109787404537201,0.949860692024231,0.0,0.0,0.0,0.0,0.0,0.0
238,1724915321849755542,-0.47638142108917236,0.09016962349414825,0.16288183629512787,0.03186050429940224,-0.0007651663618162274,-0.3126094937324524,0.9493469595909119,0.0,0.0,0.0,0.0,0.0,0.0
240,1724915321859557915,-0.4764080047607422,0.0897582396864891,0.1627516746520996,0.03246299922466278,-0.00056566292187199,-0.3144543766975403,0.9487172365188599,0.0,0.0,0.0,0.0,0.0,0.0
242,1724915321869645908,-0.47642621397972107,0.08948467671871185,0.1626436710357666,0.03306214138865471,0.00015919072029646486,-0.315905898809433,0.9482142925262451,0.0,0.0,0.0,0.0,0.0,0.0
244,1724915321880094549,-0.47632932662963867,0.08922982960939407,0.16234908998012543,0.035724490880966187,0.002540856832638383,-0.31725576519966125,0.9476635456085205,0.0,0.0,0.0,0.0,0.0,0.0
246,1724915321889887996,-0.47630494832992554,0.08879520744085312,0.16196490824222565,0.03574354574084282,0.0023326275404542685,-0.3184782564640045,0.9472531676292419,0.0,0.0,0.0,0.0,0.0,0.0
248,1724915321899765417,-0.4762136936187744,0.08829723298549652,0.1614617109298706,0.03603730350732803,0.001975298160687089,-0.318959504365921,0.9470809102058411,0.0,0.0,0.0,0.0,0.0,0.0
250,1724915321909914622,-0.4761912226676941,0.08791118115186691,0.16111476719379425,0.035684116184711456,0.001412973739206791,-0.31970253586769104,0.946844756603241,0.0,0.0,0.0,0.0,0.0,0.0
252,1724915321919507286,-0.47625958919525146,0.08749173581600189,0.1610284000635147,0.03487182781100273,0.001130534801632166,-0.32251256704330444,0.9459219574928284,0.0,0.0,0.0,0.0,0.0,0.0
254,1724915321929486025,-0.4762834310531616,0.08718524128198624,0.16088227927684784,0.03412919491529465,0.0009757729712873697,-0.32469692826271057,0.9452016353607178,0.0,0.0,0.0,0.0,0.0,0.0
256,1724915321941727787,-0.47631940245628357,0.08701753616333008,0.16068565845489502,0.034535929560661316,0.002328102011233568,-0.3267492949962616,0.9444769620895386,0.0,0.0,0.0,0.0,0.0,0.0
258,1724915321949926865,-0.4762961268424988,0.08681963384151459,0.1604282259941101,0.0351545549929142,0.0027049104683101177,-0.32776758074760437,0.9441002011299133,0.0,0.0,0.0,0.0,0.0,0.0
260,1724915321959749013,-0.47628194093704224,0.08658631145954132,0.1601063758134842,0.034940190613269806,0.0017209795769304037,-0.32840898633003235,0.9438876509666443,0.0,0.0,0.0,0.0,0.0,0.0
262,1724915321971233341,-0.47619864344596863,0.08641624450683594,0.160073921084404,0.036029018461704254,0.0018629167461767793,-0.3299221098423004,0.9433185458183289,0.0,0.0,0.0,0.0,0.0,0.0
264,1724915321979760708,-0.4761376678943634,0.08624030649662018,0.16004204750061035,0.037609294056892395,0.002775970147922635,-0.33228006958961487,0.9424266219139099,0.0,0.0,0.0,0.0,0.0,0.0
266,1724915321990191181,-0.4760940670967102,0.08602230995893478,0.15996555984020233,0.03726571053266525,0.002524040173739195,-0.3341255784034729,0.9417882561683655,0.0,0.0,0.0,0.0,0.0,0.0
268,1724915322005199816,-0.47600257396698,0.08593864738941193,0.1600578874349594,0.03776417672634125,0.0037171419244259596,-0.3362167179584503,0.9410198330879211,0.0,0.0,0.0,0.0,0.0,0.0
270,1724915322009360251,-0.476047545671463,0.08581230044364929,0.16007675230503082,0.035552892833948135,0.0033304935786873102,-0.33826395869255066,0.9403735995292664,0.0,0.0,0.0,0.0,0.0,0.0
272,1724915322021357565,-0.4760325253009796,0.08573171496391296,0.16013242304325104,0.03488070145249367,0.003282827092334628,-0.3401946425437927,0.9397021532058716,0.0,0.0,0.0,0.0,0.0,0.0
274,1724915322029448623,-0.475984126329422,0.08560498803853989,0.16001613438129425,0.035089995712041855,0.0021098132710903883,-0.3412071168422699,0.9393305778503418,0.0,0.0,0.0,0.0,0.0,0.0
276,1724915322039975824,-0.47589871287345886,0.0854995846748352,0.16002894937992096,0.03533775359392166,0.0020864023827016354,-0.3428992033004761,0.9387050271034241,0.0,0.0,0.0,0.0,0.0,0.0
278,1724915322050467009,-0.4758039712905884,0.08541776239871979,0.15985892713069916,0.034930936992168427,0.0015361206606030464,-0.34322136640548706,0.9386035799980164,0.0,0.0,0.0,0.0,0.0,0.0
280,1724915322059499288,-0.4756777882575989,0.08539333194494247,0.15979336202144623,0.0345831997692585,0.001602585194632411,-0.3441752791404724,0.9382669925689697,0.0,0.0,0.0,0.0,0.0,0.0
282,1724915322069640210,-0.47546085715293884,0.0854005441069603,0.15987476706504822,0.03549706190824509,0.002629338065162301,-0.3460576832294464,0.9375377893447876,0.0,0.0,0.0,0.0,0.0,0.0
284,1724915322079691928,-0.4752800762653351,0.0853315070271492,0.1598982959985733,0.035551536828279495,0.0025807402562350035,-0.34796226024627686,0.9368307590484619,0.0,0.0,0.0,0.0,0.0,0.0
286,1724915322104104999,-0.4751153886318207,0.08524590730667114,0.15974684059619904,0.034795090556144714,0.0015363899292424321,-0.3492320477962494,0.9363888502120972,0.0,0.0,0.0,0.0,0.0,0.0
288,1724915322105163269,-0.4749390780925751,0.08522742986679077,0.15974527597427368,0.03422975540161133,0.0013834208948537707,-0.3508545756340027,0.9358031153678894,0.0,0.0,0.0,0.0,0.0,0.0
290,1724915322109751856,-0.4747437536716461,0.08520998060703278,0.15971624851226807,0.03455809876322746,0.0012367181479930878,-0.3519255220890045,0.9353890419006348,0.0,0.0,0.0,0.0,0.0,0.0
292,1724915322119419862,-0.4745578169822693,0.08517666906118393,0.15963152050971985,0.03514985740184784,0.0015001522842794657,-0.35364121198654175,0.9347193241119385,0.0,0.0,0.0,0.0,0.0,0.0
294,1724915322130435970,-0.47441840171813965,0.08518943190574646,0.1597142368555069,0.034917861223220825,0.00271207676269114,-0.35592302680015564,0.9338588118553162,0.0,0.0,0.0,0.0,0.0,0.0
296,1724915322140498001,-0.47429022192955017,0.08511923253536224,0.15972697734832764,0.03559821471571922,0.003164878813549876,-0.35768091678619385,0.9331597685813904,0.0,0.0,0.0,0.0,0.0,0.0
298,1724915322149816411,-0.4742392301559448,0.08500926941633224,0.1595880091190338,0.03546259179711342,0.0023389928974211216,-0.3585575520992279,0.9328309297561646,0.0,0.0,0.0,0.0,0.0,0.0
300,1724915322160331080,-0.4741421043872833,0.0848952904343605,0.15965332090854645,0.03491973504424095,0.0024793576449155807,-0.36035043001174927,0.9321599006652832,0.0,0.0,0.0,0.0,0.0,0.0
302,1724915322170863234,-0.4740709364414215,0.0848698541522026,0.1597128063440323,0.0344587080180645,0.0028347254265099764,-0.3619098663330078,0.9315717220306396,0.0,0.0,0.0,0.0,0.0,0.0
304,1724915322180137498,-0.47406381368637085,0.08475808054208755,0.15982939302921295,0.03397176042199135,0.0028313258662819862,-0.3637535572052002,0.930871307849884,0.0,0.0,0.0,0.0,0.0,0.0
306,1724915322190088868,-0.4740392863750458,0.0847957655787468,0.15996091067790985,0.03451021760702133,0.003923451527953148,-0.36539629101753235,0.930203914642334,0.0,0.0,0.0,0.0,0.0,0.0
308,1724915322199750730,-0.4740389883518219,0.08495330810546875,0.15994207561016083,0.03489634394645691,0.004515346605330706,-0.36611393094062805,0.9299045205116272,0.0,0.0,0.0,0.0,0.0,0.0
310,1724915322209403296,-0.47403958439826965,0.08508998155593872,0.15990757942199707,0.03423088788986206,0.004533460363745689,-0.3666470944881439,0.929719090461731,0.0,0.0,0.0,0.0,0.0,0.0
312,1724915322220501213,-0.4740452468395233,0.08525063097476959,0.1598960906267166,0.034665510058403015,0.004022182896733284,-0.36739519238471985,0.9294099807739258,0.0,0.0,0.0,0.0,0.0,0.0
314,1724915322229662192,-0.4742410182952881,0.08536861836910248,0.1602773219347,0.033118218183517456,0.0032851595897227526,-0.3698492646217346,0.9284955263137817,0.0,0.0,0.0,0.0,0.0,0.0
316,1724915322240110056,-0.4744621515274048,0.08554866909980774,0.16051766276359558,0.03183845058083534,0.002818325301632285,-0.37049752473831177,0.9282833933830261,0.0,0.0,0.0,0.0,0.0,0.0
318,1724915322253736136,-0.47466641664505005,0.08572156727313995,0.16100139915943146,0.031235450878739357,0.003526804968714714,-0.3727857172489166,0.9273849725723267,0.0,0.0,0.0,0.0,0.0,0.0
320,1724915322259349144,-0.4748488664627075,0.08595244586467743,0.16149751842021942,0.03085996024310589,0.0041365851648151875,-0.3748345673084259,0.9265688061714172,0.0,0.0,0.0,0.0,0.0,0.0
322,1724915322270975893,-0.47500431537628174,0.08625892549753189,0.1620597392320633,0.03091670759022236,0.005713530816137791,-0.3766699433326721,0.9258137941360474,0.0,0.0,0.0,0.0,0.0,0.0
324,1724915322289163647,-0.4751357436180115,0.08654233813285828,0.16266174614429474,0.02969992347061634,0.005245369393378496,-0.3773781657218933,0.9255680441856384,0.0,0.0,0.0,0.0,0.0,0.0
326,1724915322293251620,-0.47511792182922363,0.08696315437555313,0.16327494382858276,0.029414499178528786,0.004599481355398893,-0.37701547145843506,0.9257283806800842,0.0,0.0,0.0,0.0,0.0,0.0
328,1724915322300576175,-0.47507789731025696,0.0873643159866333,0.16383342444896698,0.027478143572807312,0.003114266786724329,-0.377370148897171,0.9256495237350464,0.0,0.0,0.0,0.0,0.0,0.0
330,1724915322309663654,-0.4751439392566681,0.08785746991634369,0.16438786685466766,0.024198390543460846,0.0019425218924880028,-0.37874528765678406,0.9251824617385864,0.0,0.0,0.0,0.0,0.0,0.0
332,1724915322319578588,-0.4750582277774811,0.08848846703767776,0.16512420773506165,0.024233220145106316,0.0022577729541808367,-0.38026463985443115,0.9245575070381165,0.0,0.0,0.0,0.0,0.0,0.0
334,1724915322330721424,-0.4750470519065857,0.08897385746240616,0.16584135591983795,0.024582630023360252,0.0023187841288745403,-0.38110455870628357,0.9242022037506104,0.0,0.0,0.0,0.0,0.0,0.0
336,1724915322339896053,-0.47516411542892456,0.08934690058231354,0.16635073721408844,0.0238360408693552,0.0012639283668249846,-0.38123562932014465,0.9241697192192078,0.0,0.0,0.0,0.0,0.0,0.0
338,1724915322349806647,-0.4752475917339325,0.08979377895593643,0.16690421104431152,0.02310730516910553,0.0013608713634312153,-0.3820292353630066,0.9238603115081787,0.0,0.0,0.0,0.0,0.0,0.0
340,1724915322359782128,-0.4752359092235565,0.09021473675966263,0.1675948053598404,0.022746482864022255,0.0019275025697425008,-0.38347113132476807,0.9232707619667053,0.0,0.0,0.0,0.0,0.0,0.0
342,1724915322369593765,-0.4751785397529602,0.09075769782066345,0.16833963990211487,0.022378183901309967,0.002915271557867527,-0.38464489579200745,0.9227887392044067,0.0,0.0,0.0,0.0,0.0,0.0
344,1724915322379749073,-0.4752579629421234,0.09134747833013535,0.16914920508861542,0.019726775586605072,0.0019661406986415386,-0.3862861394882202,0.9221659898757935,0.0,0.0,0.0,0.0,0.0,0.0
346,1724915322390097524,-0.47511667013168335,0.0920649990439415,0.17003075778484344,0.019634559750556946,0.0018046952318400145,-0.3869989514350891,0.9218693375587463,0.0,0.0,0.0,0.0,0.0,0.0
348,1724915322402347566,-0.4749357998371124,0.09272734820842743,0.17041882872581482,0.019470155239105225,0.0007795677520334721,-0.3863151967525482,0.9221609830856323,0.0,0.0,0.0,0.0,0.0,0.0
350,1724915322409508234,-0.474670946598053,0.09368141740560532,0.17100587487220764,0.01889120414853096,0.0020544615108519793,-0.3874668478965759,0.92168790102005,0.0,0.0,0.0,0.0,0.0,0.0
352,1724915322440309736,-0.47441717982292175,0.09489357471466064,0.17106737196445465,0.018856359645724297,0.0014300909824669361,-0.3866926431655884,0.9220148324966431,0.0,0.0,0.0,0.0,0.0,0.0
354,1724915322440628017,-0.47435277700424194,0.09597396850585938,0.1713479608297348,0.015595792792737484,-0.001611755695194006,-0.38642004132270813,0.9221897125244141,0.0,0.0,0.0,0.0,0.0,0.0
356,1724915322440900057,-0.47423645853996277,0.09716582298278809,0.1722101867198944,0.012290090322494507,-0.0017183269374072552,-0.38914042711257935,0.9210948944091797,0.0,0.0,0.0,0.0,0.0,0.0
358,1724915322451241357,-0.47414085268974304,0.09830647706985474,0.17280873656272888,0.010489318519830704,-0.0025872907135635614,-0.3906513750553131,0.9204753041267395,0.0,0.0,0.0,0.0,0.0,0.0
360,1724915322459761290,-0.474161297082901,0.09954262524843216,0.17297036945819855,0.008131083101034164,-0.0044020479544997215,-0.3900766670703888,0.9207359552383423,0.0,0.0,0.0,0.0,0.0,0.0
362,1724915322469531223,-0.47378045320510864,0.10106444358825684,0.17325185239315033,0.008527114987373352,-0.0046425689943134785,-0.3898211121559143,0.9208394289016724,0.0,0.0,0.0,0.0,0.0,0.0
364,1724915322479777387,-0.4735637903213501,0.10252208262681961,0.17346106469631195,0.005845503881573677,-0.0063154976814985275,-0.390054315328598,0.920751690864563,0.0,0.0,0.0,0.0,0.0,0.0
366,1724915322489960107,-0.47334298491477966,0.10391140729188919,0.1734650582075119,0.0029111846815794706,-0.008787515573203564,-0.3893803358078003,0.9210306406021118,0.0,0.0,0.0,0.0,0.0,0.0
368,1724915322499805923,-0.47292739152908325,0.10541694611310959,0.17382821440696716,0.002371680922806263,-0.008494162000715733,-0.39139777421951294,0.9201793670654297,0.0,0.0,0.0,0.0,0.0,0.0
370,1724915322509403674,-0.4726497232913971,0.10696519166231155,0.1739916354417801,-0.0007366920472122729,-0.008704014122486115,-0.39271214604377747,0.9196199774742126,0.0,0.0,0.0,0.0,0.0,0.0
372,1724915322521338587,-0.4722474217414856,0.10853344202041626,0.17381805181503296,-0.0023657989222556353,-0.010038068518042564,-0.3928464651107788,0.9195462465286255,0.0,0.0,0.0,0.0,0.0,0.0
374,1724915322529860848,-0.47196459770202637,0.11027485132217407,0.17358338832855225,-0.00463846605271101,-0.009666391648352146,-0.39326995611190796,0.9193605780601501,0.0,0.0,0.0,0.0,0.0,0.0
376,1724915322539917889,-0.4717593789100647,0.11171235144138336,0.17343275249004364,-0.006214176304638386,-0.010670458897948265,-0.392631858587265,0.9196128249168396,0.0,0.0,0.0,0.0,0.0,0.0
378,1724915322551593727,-0.4718146026134491,0.11281529068946838,0.17360182106494904,-0.011676361784338951,-0.012981920503079891,-0.39325886964797974,0.9192619919776917,0.0,0.0,0.0,0.0,0.0,0.0
380,1724915322560157033,-0.4718632102012634,0.1141139343380928,0.1738215535879135,-0.015592697076499462,-0.013654503040015697,-0.3945923149585724,0.9186224937438965,0.0,0.0,0.0,0.0,0.0,0.0
382,1724915322570722273,-0.4715954065322876,0.11554267257452011,0.1739613115787506,-0.016087444499135017,-0.013784761540591717,-0.3950326144695282,0.9184227585792542,0.0,0.0,0.0,0.0,0.0,0.0
384,1724915322580355802,-0.4714229106903076,0.11671305447816849,0.17396476864814758,-0.017729096114635468,-0.013982792384922504,-0.394309937953949,0.9187001585960388,0.0,0.0,0.0,0.0,0.0,0.0
386,1724915322590119884,-0.4713670313358307,0.11775360256433487,0.17422690987586975,-0.020999623462557793,-0.014458711259067059,-0.39515286684036255,0.9182615280151367,0.0,0.0,0.0,0.0,0.0,0.0
388,1724915322602478091,-0.47141122817993164,0.11886826902627945,0.17446836829185486,-0.023795632645487785,-0.014862217009067535,-0.39547497034072876,0.9180482029914856,0.0,0.0,0.0,0.0,0.0,0.0
390,1724915322612758938,-0.47142577171325684,0.12004758417606354,0.1746203899383545,-0.02753613144159317,-0.015621662139892578,-0.3947976529598236,0.9182224273681641,0.0,0.0,0.0,0.0,0.0,0.0
392,1724915322619559008,-0.4714054763317108,0.12103331834077835,0.17452940344810486,-0.02912469394505024,-0.01773695833981037,-0.3938019871711731,0.918562650680542,0.0,0.0,0.0,0.0,0.0,0.0
394,1724915322630686276,-0.47140204906463623,0.12203939259052277,0.17449508607387543,-0.032186586409807205,-0.018249627202749252,-0.3941246569156647,0.9183119535446167,0.0,0.0,0.0,0.0,0.0,0.0
396,1724915322639387059,-0.47144126892089844,0.1230185404419899,0.1744181364774704,-0.03535730391740799,-0.01837952248752117,-0.3944920599460602,0.9180349111557007,0.0,0.0,0.0,0.0,0.0,0.0
398,1724915322650040405,-0.4714348316192627,0.12390093505382538,0.17398467659950256,-0.03422420844435692,-0.019025256857275963,-0.39290371537208557,0.9187455773353577,0.0,0.0,0.0,0.0,0.0,0.0
400,1724915322659398456,-0.4713834822177887,0.1248621940612793,0.1738881766796112,-0.03397025913000107,-0.018547331914305687,-0.3933611214160919,0.9185689687728882,0.0,0.0,0.0,0.0,0.0,0.0
402,1724915322669629845,-0.4715479910373688,0.12583686411380768,0.17388828098773956,-0.03931332379579544,-0.020080484449863434,-0.3928976058959961,0.91852205991745,0.0,0.0,0.0,0.0,0.0,0.0
404,1724915322679909901,-0.4715825617313385,0.1266699880361557,0.17369914054870605,-0.042764704674482346,-0.02238301932811737,-0.39246687293052673,0.9184988141059875,0.0,0.0,0.0,0.0,0.0,0.0
406,1724915322689673122,-0.4716559052467346,0.12761789560317993,0.17333221435546875,-0.04618556424975395,-0.02238791063427925,-0.3918718993663788,0.9185870289802551,0.0,0.0,0.0,0.0,0.0,0.0
408,1724915322699548474,-0.4714505970478058,0.1285344362258911,0.17321451008319855,-0.045716166496276855,-0.02160324715077877,-0.3927113115787506,0.9182707667350769,0.0,0.0,0.0,0.0,0.0,0.0
410,1724915322709467614,-0.4713042676448822,0.1293351799249649,0.17296600341796875,-0.04583628475666046,-0.022358806803822517,-0.3922843933105469,0.9184291958808899,0.0,0.0,0.0,0.0,0.0,0.0
412,1724915322720167544,-0.47112032771110535,0.13028258085250854,0.17245718836784363,-0.04637390747666359,-0.021803678944706917,-0.3911891281604767,0.9188824892044067,0.0,0.0,0.0,0.0,0.0,0.0
414,1724915322729464831,-0.47111639380455017,0.1313253790140152,0.17196248471736908,-0.04968356341123581,-0.021108506247401237,-0.390362411737442,0.9190773963928223,0.0,0.0,0.0,0.0,0.0,0.0
416,1724915322739965622,-0.47101157903671265,0.13221228122711182,0.17149998247623444,-0.04999691620469093,-0.022129608318209648,-0.3898259699344635,0.919264018535614,0.0,0.0,0.0,0.0,0.0,0.0
418,1724915322750334612,-0.47097814083099365,0.13301651179790497,0.1708565652370453,-0.04901735484600067,-0.023914042860269547,-0.3887994885444641,0.9197067618370056,0.0,0.0,0.0,0.0,0.0,0.0
420,1724915322769144218,-0.4711087942123413,0.13380198180675507,0.1702648401260376,-0.05004854500293732,-0.02470395341515541,-0.3875886797904968,0.9201412796974182,0.0,0.0,0.0,0.0,0.0,0.0
422,1724915322770683382,-0.4712130129337311,0.1347123682498932,0.16982710361480713,-0.05247758328914642,-0.024322472512722015,-0.3871305584907532,0.9202089309692383,0.0,0.0,0.0,0.0,0.0,0.0
424,1724915322779730071,-0.4712139666080475,0.13564693927764893,0.16926738619804382,-0.05304921790957451,-0.023549312725663185,-0.3872166574001312,0.9201599955558777,0.0,0.0,0.0,0.0,0.0,0.0
426,1724915322789990368,-0.47126373648643494,0.1362958401441574,0.16848227381706238,-0.05286136642098427,-0.0246693417429924,-0.3860245645046234,0.9206423163414001,0.0,0.0,0.0,0.0,0.0,0.0
428,1724915322799921439,-0.4712790250778198,0.13692763447761536,0.16764643788337708,-0.05249571427702904,-0.02501179836690426,-0.38445162773132324,0.9213119149208069,0.0,0.0,0.0,0.0,0.0,0.0
430,1724915322809351760,-0.4713466763496399,0.13762018084526062,0.1671062558889389,-0.05309319123625755,-0.024173958227038383,-0.383827805519104,0.9215600490570068,0.0,0.0,0.0,0.0,0.0,0.0
432,1724915322819700778,-0.4715408980846405,0.1382845640182495,0.16664110124111176,-0.05611875280737877,-0.024438148364424706,-0.38293540477752686,0.9217450618743896,0.0,0.0,0.0,0.0,0.0,0.0
434,1724915322829746291,-0.4715668857097626,0.13876856863498688,0.16611547768115997,-0.057248152792453766,-0.024655627086758614,-0.3811468780040741,0.9224108457565308,0.0,0.0,0.0,0.0,0.0,0.0
436,1724915322840029649,-0.47155773639678955,0.13916346430778503,0.1656530797481537,-0.0575651153922081,-0.025090957060456276,-0.37990039587020874,0.9228934645652771,0.0,0.0,0.0,0.0,0.0,0.0
438,1724915322849601946,-0.4716436266899109,0.13952933251857758,0.1652032732963562,-0.05764321982860565,-0.025382382795214653,-0.3788706660270691,0.9233039617538452,0.0,0.0,0.0,0.0,0.0,0.0
440,1724915322859313218,-0.47149527072906494,0.13982287049293518,0.16493117809295654,-0.056203693151474,-0.026740368455648422,-0.37751874327659607,0.9239078164100647,0.0,0.0,0.0,0.0,0.0,0.0
442,1724915322869473182,-0.4714217782020569,0.14012007415294647,0.164730966091156,-0.05662558972835541,-0.026753142476081848,-0.37687185406684875,0.9241457581520081,0.0,0.0,0.0,0.0,0.0,0.0
444,1724915322880372887,-0.47136929631233215,0.14039263129234314,0.1645161658525467,-0.05758358910679817,-0.026491882279515266,-0.37611067295074463,0.9244041442871094,0.0,0.0,0.0,0.0,0.0,0.0
446,1724915322890060513,-0.47128212451934814,0.1405455768108368,0.1642061322927475,-0.05758877098560333,-0.0267525315284729,-0.37517067790031433,0.9247783422470093,0.0,0.0,0.0,0.0,0.0,0.0
448,1724915322899853228,-0.47124412655830383,0.14070412516593933,0.16397690773010254,-0.05761050805449486,-0.02685455046594143,-0.37446320056915283,0.9250606298446655,0.0,0.0,0.0,0.0,0.0,0.0
450,1724915322909698034,-0.47136762738227844,0.14093117415905,0.16378839313983917,-0.05844739452004433,-0.02667189948260784,-0.37360820174217224,0.9253591299057007,0.0,0.0,0.0,0.0,0.0,0.0
452,1724915322919417077,-0.4714175760746002,0.14113661646842957,0.16341078281402588,-0.059271324425935745,-0.026856180280447006,-0.3706763684749603,0.9264798164367676,0.0,0.0,0.0,0.0,0.0,0.0
454,1724915322930660755,-0.47158417105674744,0.14131338894367218,0.1630304455757141,-0.0609377883374691,-0.02723114565014839,-0.36709773540496826,0.9277846217155457,0.0,0.0,0.0,0.0,0.0,0.0
456,1724915322940617530,-0.4716832935810089,0.14154504239559174,0.16274778544902802,-0.06055368110537529,-0.027306916192173958,-0.36503610014915466,0.9286206960678101,0.0,0.0,0.0,0.0,0.0,0.0
458,1724915322950024873,-0.47182732820510864,0.14176863431930542,0.162602499127388,-0.061294615268707275,-0.02730657532811165,-0.3637811839580536,0.9290644526481628,0.0,0.0,0.0,0.0,0.0,0.0
460,1724915322974475755,-0.4719367027282715,0.1420212686061859,0.1624932587146759,-0.061755262315273285,-0.027004996314644814,-0.3628053367137909,0.9294241666793823,0.0,0.0,0.0,0.0,0.0,0.0
462,1724915322974825651,-0.4720098674297333,0.14219509065151215,0.162388414144516,-0.06168808043003082,-0.027277229353785515,-0.36172249913215637,0.9298426508903503,0.0,0.0,0.0,0.0,0.0,0.0
464,1724915322980264532,-0.4720836281776428,0.14236357808113098,0.16230767965316772,-0.06188880652189255,-0.02728251926600933,-0.36085227131843567,0.9301671981811523,0.0,0.0,0.0,0.0,0.0,0.0
466,1724915322989908486,-0.4721250832080841,0.1424841433763504,0.1621798276901245,-0.062417950481176376,-0.027004795148968697,-0.3595822751522064,0.930631697177887,0.0,0.0,0.0,0.0,0.0,0.0
468,1724915322999681739,-0.47206684947013855,0.14249737560749054,0.162074476480484,-0.06074206903576851,-0.027682919055223465,-0.35844722390174866,0.9311603903770447,0.0,0.0,0.0,0.0,0.0,0.0
470,1724915323009440237,-0.4720817506313324,0.14252111315727234,0.1620049774646759,-0.06120859086513519,-0.027796447277069092,-0.35703131556510925,0.9316702485084534,0.0,0.0,0.0,0.0,0.0,0.0
472,1724915323020704728,-0.4720621109008789,0.14253881573677063,0.1620764583349228,-0.06141425669193268,-0.02743639051914215,-0.3558574318885803,0.9321164488792419,0.0,0.0,0.0,0.0,0.0,0.0
474,1724915323029574079,-0.47203463315963745,0.14263004064559937,0.16214533150196075,-0.06076446920633316,-0.02696990966796875,-0.35460221767425537,0.9326508641242981,0.0,0.0,0.0,0.0,0.0,0.0
476,1724915323039960340,-0.4720448851585388,0.1426660567522049,0.16221001744270325,-0.060935840010643005,-0.02665313147008419,-0.35269439220428467,0.9333719611167908,0.0,0.0,0.0,0.0,0.0,0.0
478,1724915323081376273,-0.47211402654647827,0.14282967150211334,0.16224618256092072,-0.061516210436820984,-0.026328301057219505,-0.3507470190525055,0.9340766072273254,0.0,0.0,0.0,0.0,0.0,0.0
480,1724915323081638691,-0.47208619117736816,0.14304542541503906,0.16217230260372162,-0.060120079666376114,-0.025839680805802345,-0.3485409915447235,0.9350064992904663,0.0,0.0,0.0,0.0,0.0,0.0
482,1724915323081948791,-0.47208625078201294,0.14329445362091064,0.16213804483413696,-0.060005929321050644,-0.025807475671172142,-0.34636324644088745,0.9358235597610474,0.0,0.0,0.0,0.0,0.0,0.0
484,1724915323082260452,-0.47211509943008423,0.1434834897518158,0.16206660866737366,-0.06008962541818619,-0.025961246341466904,-0.34435176849365234,0.9365559816360474,0.0,0.0,0.0,0.0,0.0,0.0
486,1724915323089748335,-0.4721604883670807,0.14371776580810547,0.16204631328582764,-0.05999036133289337,-0.02567378059029579,-0.3430079519748688,0.9370632767677307,0.0,0.0,0.0,0.0,0.0,0.0
488,1724915323102261801,-0.47214841842651367,0.14388930797576904,0.16190749406814575,-0.05922570079565048,-0.025867629796266556,-0.34110766649246216,0.9377999305725098,0.0,0.0,0.0,0.0,0.0,0.0
490,1724915323110659366,-0.4721781313419342,0.14419029653072357,0.1618436872959137,-0.060083914548158646,-0.025295589119195938,-0.33917245268821716,0.9384626746177673,0.0,0.0,0.0,0.0,0.0,0.0
492,1724915323119713133,-0.47221559286117554,0.14427705109119415,0.1616813987493515,-0.060284197330474854,-0.025805577635765076,-0.3368663191795349,0.9392662048339844,0.0,0.0,0.0,0.0,0.0,0.0
494,1724915323130697130,-0.4721899628639221,0.14438319206237793,0.16170981526374817,-0.06008273363113403,-0.025782626122236252,-0.33571529388427734,0.9396917819976807,0.0,0.0,0.0,0.0,0.0,0.0
496,1724915323142448899,-0.4722141623497009,0.14443592727184296,0.16171090304851532,-0.06037832424044609,-0.026000680401921272,-0.33435019850730896,0.9401533603668213,0.0,0.0,0.0,0.0,0.0,0.0
498,1724915323149987342,-0.47224724292755127,0.14444862306118011,0.16173510253429413,-0.06099056825041771,-0.026435717940330505,-0.33317744731903076,0.9405180215835571,0.0,0.0,0.0,0.0,0.0,0.0
500,1724915323160218007,-0.47228607535362244,0.14443384110927582,0.16179445385932922,-0.06074829772114754,-0.02679908461868763,-0.33200734853744507,0.9409370422363281,0.0,0.0,0.0,0.0,0.0,0.0
502,1724915323169572806,-0.47234901785850525,0.14435948431491852,0.16184373199939728,-0.06006480008363724,-0.026844745501875877,-0.33063217997550964,0.9414637684822083,0.0,0.0,0.0,0.0,0.0,0.0
504,1724915323179629144,-0.4724697470664978,0.14428216218948364,0.16194748878479004,-0.06020960956811905,-0.026491418480873108,-0.32920536398887634,0.941964328289032,0.0,0.0,0.0,0.0,0.0,0.0
506,1724915323190595782,-0.4726514518260956,0.14417488873004913,0.16204379498958588,-0.060589734464883804,-0.026149511337280273,-0.3279375433921814,0.9423916935920715,0.0,0.0,0.0,0.0,0.0,0.0
508,1724915323199588995,-0.47277888655662537,0.14411793649196625,0.16218966245651245,-0.059704989194869995,-0.025493593886494637,-0.3271966278553009,0.9427235722541809,0.0,0.0,0.0,0.0,0.0,0.0
510,1724915323209163643,-0.4729929566383362,0.1439909189939499,0.1622382253408432,-0.059674233198165894,-0.02522236667573452,-0.32597166299819946,0.9431570768356323,0.0,0.0,0.0,0.0,0.0,0.0
512,1724915323221959724,-0.4731982350349426,0.14383858442306519,0.1623191088438034,-0.0593358613550663,-0.024964790791273117,-0.3247130513191223,0.9436193704605103,0.0,0.0,0.0,0.0,0.0,0.0
514,1724915323229709290,-0.47343572974205017,0.14361950755119324,0.16232307255268097,-0.05944047123193741,-0.025155117735266685,-0.32269418239593506,0.9443000555038452,0.0,0.0,0.0,0.0,0.0,0.0
516,1724915323240091467,-0.4736010730266571,0.14339898526668549,0.16242174804210663,-0.059209197759628296,-0.024875037372112274,-0.32106679677963257,0.9448766112327576,0.0,0.0,0.0,0.0,0.0,0.0
518,1724915323252894560,-0.4738037586212158,0.1432068943977356,0.16250057518482208,-0.05920477211475372,-0.025047315284609795,-0.3198111057281494,0.9452980756759644,0.0,0.0,0.0,0.0,0.0,0.0
520,1724915323259398534,-0.47394731640815735,0.1428953856229782,0.16271091997623444,-0.05930366367101669,-0.024722492322325706,-0.31871455907821655,0.9456706047058105,0.0,0.0,0.0,0.0,0.0,0.0
522,1724915323270276981,-0.4740217626094818,0.14251692593097687,0.16285133361816406,-0.058730147778987885,-0.02400280348956585,-0.31666073203086853,0.946414589881897,0.0,0.0,0.0,0.0,0.0,0.0
524,1724915323279975459,-0.4740884602069855,0.14226999878883362,0.16323882341384888,-0.05778111144900322,-0.022766495123505592,-0.3150387406349182,0.9470447301864624,0.0,0.0,0.0,0.0,0.0,0.0
526,1724915323290658535,-0.4742083251476288,0.1419917643070221,0.1638077348470688,-0.05761513486504555,-0.02151467092335224,-0.313437819480896,0.9476151466369629,0.0,0.0,0.0,0.0,0.0,0.0
528,1724915323306364300,-0.4743751585483551,0.1416826844215393,0.16440944373607635,-0.05777653679251671,-0.021428804844617844,-0.3128870725631714,0.947789192199707,0.0,0.0,0.0,0.0,0.0,0.0
530,1724915323309165268,-0.47446924448013306,0.14139492809772491,0.16504622995853424,-0.05685029551386833,-0.020603982731699944,-0.31311148405075073,0.9477893710136414,0.0,0.0,0.0,0.0,0.0,0.0
532,1724915323319952497,-0.4746440351009369,0.14083291590213776,0.16537535190582275,-0.056565061211586,-0.020710520446300507,-0.31121647357940674,0.9484280347824097,0.0,0.0,0.0,0.0,0.0,0.0
534,1724915323330570871,-0.4747242033481598,0.14051491022109985,0.16603253781795502,-0.05629342794418335,-0.018679048866033554,-0.310852974653244,0.9486055970191956,0.0,0.0,0.0,0.0,0.0,0.0
536,1724915323340069623,-0.47487035393714905,0.14004731178283691,0.16656740009784698,-0.05643343925476074,-0.017571134492754936,-0.30923089385032654,0.9491484761238098,0.0,0.0,0.0,0.0,0.0,0.0
538,1724915323385997770,-0.4749041497707367,0.139521986246109,0.1671363115310669,-0.055409252643585205,-0.017604583874344826,-0.30722662806510925,0.9498587846755981,0.0,0.0,0.0,0.0,0.0,0.0
540,1724915323386513746,-0.4750124216079712,0.13888302445411682,0.1677028387784958,-0.054071683436632156,-0.017776014283299446,-0.3060728907585144,0.9503051042556763,0.0,0.0,0.0,0.0,0.0,0.0
542,1724915323386918760,-0.47513172030448914,0.13813085854053497,0.1682451218366623,-0.052275173366069794,-0.017583640292286873,-0.3050291836261749,0.9507446885108948,0.0,0.0,0.0,0.0,0.0,0.0
544,1724915323387340834,-0.47519704699516296,0.13719768822193146,0.1690274029970169,-0.049573853611946106,-0.0179061871021986,-0.30539169907569885,0.950766921043396,0.0,0.0,0.0,0.0,0.0,0.0
546,1724915323389816406,-0.4751769006252289,0.1364358365535736,0.16975419223308563,-0.04805340990424156,-0.017350949347019196,-0.30474409461021423,0.9510630965232849,0.0,0.0,0.0,0.0,0.0,0.0
548,1724915323402284053,-0.47517478466033936,0.1354827880859375,0.17042513191699982,-0.04767612740397453,-0.018146352842450142,-0.30320626497268677,0.9515585899353027,0.0,0.0,0.0,0.0,0.0,0.0
550,1724915323410374111,-0.47519412636756897,0.1343955248594284,0.17080385982990265,-0.04657285287976265,-0.018682222813367844,-0.30131813883781433,0.9522024393081665,0.0,0.0,0.0,0.0,0.0,0.0
552,1724915323419492262,-0.47503477334976196,0.1331111192703247,0.17126835882663727,-0.04306335002183914,-0.01708831824362278,-0.30147188901901245,0.9523488879203796,0.0,0.0,0.0,0.0,0.0,0.0
554,1724915323429791451,-0.47494783997535706,0.1318405419588089,0.17158930003643036,-0.039829082787036896,-0.01576252095401287,-0.3021326959133148,0.9523030519485474,0.0,0.0,0.0,0.0,0.0,0.0
556,1724915323440242278,-0.4750790596008301,0.13060742616653442,0.17176422476768494,-0.04084346815943718,-0.015554039739072323,-0.3018568456172943,0.9523510336875916,0.0,0.0,0.0,0.0,0.0,0.0
558,1724915323451082608,-0.4751787483692169,0.1295306235551834,0.17189906537532806,-0.0402965284883976,-0.01576358638703823,-0.3014371991157532,0.9525037407875061,0.0,0.0,0.0,0.0,0.0,0.0
560,1724915323459541097,-0.47520712018013,0.12828437983989716,0.17187397181987762,-0.03807233273983002,-0.015444536693394184,-0.3005352318286896,0.9528854489326477,0.0,0.0,0.0,0.0,0.0,0.0
562,1724915323469552888,-0.4752799868583679,0.12683147192001343,0.171934112906456,-0.03433128446340561,-0.016225997358560562,-0.29930639266967773,0.9534012079238892,0.0,0.0,0.0,0.0,0.0,0.0
564,1724915323479841369,-0.47538039088249207,0.12582609057426453,0.1722174733877182,-0.0315987803041935,-0.015017108991742134,-0.3000832200050354,0.9532713294029236,0.0,0.0,0.0,0.0,0.0,0.0
566,1724915323490491926,-0.47554290294647217,0.1245364248752594,0.17221030592918396,-0.029003674164414406,-0.015012170188128948,-0.29898592829704285,0.9536985158920288,0.0,0.0,0.0,0.0,0.0,0.0
568,1724915323501237205,-0.475564181804657,0.1232827678322792,0.17225566506385803,-0.02329874038696289,-0.014465801417827606,-0.2990644574165344,0.9538388252258301,0.0,0.0,0.0,0.0,0.0,0.0
570,1724915323511457246,-0.475670725107193,0.12225618213415146,0.17266413569450378,-0.02126769721508026,-0.01268294733017683,-0.300329327583313,0.9535140991210938,0.0,0.0,0.0,0.0,0.0,0.0
572,1724915323520677491,-0.47580352425575256,0.12102852761745453,0.17298713326454163,-0.021472766995429993,-0.012565836310386658,-0.30041471123695374,0.9534841775894165,0.0,0.0,0.0,0.0,0.0,0.0
574,1724915323529689649,-0.47589972615242004,0.11969415098428726,0.17302991449832916,-0.019731393083930016,-0.012702617794275284,-0.2994810938835144,0.9538136720657349,0.0,0.0,0.0,0.0,0.0,0.0
576,1724915323539963160,-0.47592872381210327,0.11854061484336853,0.17308621108531952,-0.018304655328392982,-0.011661941185593605,-0.29987481236457825,0.9537317156791687,0.0,0.0,0.0,0.0,0.0,0.0
578,1724915323551015703,-0.475966215133667,0.1175536960363388,0.17288868129253387,-0.0174885056912899,-0.009979226626455784,-0.29982489347457886,0.9537817239761353,0.0,0.0,0.0,0.0,0.0,0.0
580,1724915323559431309,-0.4759533703327179,0.11635967344045639,0.17250587046146393,-0.014353139325976372,-0.009264346212148666,-0.2980611324310303,0.9543939828872681,0.0,0.0,0.0,0.0,0.0,0.0
582,1724915323571537813,-0.4759131371974945,0.11508205533027649,0.17232747375965118,-0.007884682156145573,-0.00784236565232277,-0.29748234152793884,0.9546626210212708,0.0,0.0,0.0,0.0,0.0,0.0
584,1724915323580571866,-0.476187527179718,0.11376289278268814,0.17226631939411163,-0.004744878038764,-0.00985037349164486,-0.297818660736084,0.9545598030090332,0.0,0.0,0.0,0.0,0.0,0.0
586,1724915323590046802,-0.47647833824157715,0.1126166358590126,0.1723833531141281,-0.003459225408732891,-0.009488163515925407,-0.29800334572792053,0.9545114040374756,0.0,0.0,0.0,0.0,0.0,0.0
588,1724915323602492673,-0.47665804624557495,0.11159679293632507,0.17252276837825775,-0.0017259432934224606,-0.008296980522572994,-0.2980513274669647,0.9545122981071472,0.0,0.0,0.0,0.0,0.0,0.0
590,1724915323609643863,-0.4766361117362976,0.1105707436800003,0.17271952331066132,0.0016848044469952583,-0.007439660839736462,-0.2978295087814331,0.9545886516571045,0.0,0.0,0.0,0.0,0.0,0.0
592,1724915323619427240,-0.47659188508987427,0.1093645989894867,0.17292502522468567,0.004587134812027216,-0.006786554120481014,-0.2978256046772003,0.9545851349830627,0.0,0.0,0.0,0.0,0.0,0.0
594,1724915323631065058,-0.4766528904438019,0.10813930630683899,0.17313160002231598,0.008279455825686455,-0.005679144058376551,-0.29819798469543457,0.9544512629508972,0.0,0.0,0.0,0.0,0.0,0.0
596,1724915323639641105,-0.4767692983150482,0.10703594237565994,0.17315328121185303,0.011820288375020027,-0.004641038831323385,-0.29791781306266785,0.9545071125030518,0.0,0.0,0.0,0.0,0.0,0.0
598,1724915323652584162,-0.47689196467399597,0.10585249215364456,0.17283198237419128,0.012469918467104435,-0.00626430194824934,-0.2981341779232025,0.9544219970703125,0.0,0.0,0.0,0.0,0.0,0.0
600,1724915323659710757,-0.4768795669078827,0.10479675233364105,0.17273220419883728,0.013306663371622562,-0.0059393178671598434,-0.2986847162246704,0.954240620136261,0.0,0.0,0.0,0.0,0.0,0.0
602,1724915323669988250,-0.4769287109375,0.10391220450401306,0.1725011020898819,0.015142565593123436,-0.0049614985473454,-0.29825207591056824,0.9543542265892029,0.0,0.0,0.0,0.0,0.0,0.0
604,1724915323680090723,-0.4769752025604248,0.10295476019382477,0.1721876561641693,0.01827261410653591,-0.004527912475168705,-0.29884102940559387,0.9541172385215759,0.0,0.0,0.0,0.0,0.0,0.0
606,1724915323690270742,-0.47693073749542236,0.10207496583461761,0.17172479629516602,0.01995222084224224,-0.004746895749121904,-0.29908356070518494,0.9540064930915833,0.0,0.0,0.0,0.0,0.0,0.0
608,1724915323702717400,-0.47691091895103455,0.10115500539541245,0.17106594145298004,0.022287270054221153,-0.005465342663228512,-0.29879534244537354,0.9540413618087769,0.0,0.0,0.0,0.0,0.0,0.0
610,1724915323709874740,-0.47693943977355957,0.10039862990379333,0.17055806517601013,0.022992588579654694,-0.005933539941906929,-0.2985951006412506,0.9540844559669495,0.0,0.0,0.0,0.0,0.0,0.0
612,1724915323720154689,-0.47686654329299927,0.09969963878393173,0.17005911469459534,0.02434135414659977,-0.005593419075012207,-0.2986055314540863,0.954049825668335,0.0,0.0,0.0,0.0,0.0,0.0
614,1724915323729487301,-0.47694459557533264,0.0989021435379982,0.16962948441505432,0.025081243366003036,-0.004581306595355272,-0.29967746138572693,0.9536998867988586,0.0,0.0,0.0,0.0,0.0,0.0
616,1724915323740002972,-0.477031409740448,0.0981522798538208,0.16918262839317322,0.024917617440223694,-0.003036945592612028,-0.30116987228393555,0.9532400965690613,0.0,0.0,0.0,0.0,0.0,0.0
618,1724915323754556776,-0.477154403924942,0.09721914678812027,0.1683877557516098,0.024910209700465202,-0.004190150648355484,-0.3011975586414337,0.9532271027565002,0.0,0.0,0.0,0.0,0.0,0.0
620,1724915323759790821,-0.4772320091724396,0.09647905081510544,0.16793259978294373,0.026244739070534706,-0.003965637180954218,-0.3022276759147644,0.9528661966323853,0.0,0.0,0.0,0.0,0.0,0.0
622,1724915323773493024,-0.4772222340106964,0.0957527607679367,0.16760984063148499,0.028071364387869835,-0.0016033578431233764,-0.3039700388908386,0.9522665739059448,0.0,0.0,0.0,0.0,0.0,0.0
624,1724915323779990554,-0.4772590398788452,0.0949208065867424,0.1668395847082138,0.029946627095341682,-0.0006811050116084516,-0.30458638072013855,0.9520136117935181,0.0,0.0,0.0,0.0,0.0,0.0
626,1724915323790127032,-0.47723865509033203,0.09417030960321426,0.16609060764312744,0.03196953237056732,0.00038034748286008835,-0.3052230477333069,0.951744019985199,0.0,0.0,0.0,0.0,0.0,0.0
628,1724915323800915416,-0.47740113735198975,0.0933869257569313,0.16545487940311432,0.03174934536218643,-0.0009674080647528172,-0.3065091669559479,0.9513375759124756,0.0,0.0,0.0,0.0,0.0,0.0
630,1724915323809814581,-0.4775000214576721,0.09276074916124344,0.16494908928871155,0.031664781272411346,-0.0010232646018266678,-0.30726662278175354,0.9510959386825562,0.0,0.0,0.0,0.0,0.0,0.0
632,1724915323820881046,-0.4775594174861908,0.09203345328569412,0.16454042494297028,0.031152576208114624,-0.0017419042997062206,-0.30772098898887634,0.9509649276733398,0.0,0.0,0.0,0.0,0.0,0.0
634,1724915323830297579,-0.47751399874687195,0.09160755574703217,0.1641155332326889,0.03224797546863556,-0.0006767288432456553,-0.30731040239334106,0.9510625004768372,0.0,0.0,0.0,0.0,0.0,0.0
636,1724915323840389056,-0.4774438142776489,0.0908101350069046,0.16363315284252167,0.03217162936925888,-0.0008401747327297926,-0.30783966183662415,0.950893759727478,0.0,0.0,0.0,0.0,0.0,0.0
638,1724915323852592533,-0.47739601135253906,0.09029724448919296,0.16340255737304688,0.03193372115492821,2.913570642704144e-05,-0.30914396047592163,0.9504789710044861,0.0,0.0,0.0,0.0,0.0,0.0
640,1724915323859878898,-0.4773102402687073,0.08988150954246521,0.1633152961730957,0.03276749700307846,0.0008785001700744033,-0.31088846921920776,0.9498810172080994,0.0,0.0,0.0,0.0,0.0,0.0
642,1724915323871001316,-0.47745513916015625,0.08932267129421234,0.16281218826770782,0.03230735659599304,-0.000649855297524482,-0.3120640814304352,0.9495113492012024,0.0,0.0,0.0,0.0,0.0,0.0
644,1724915323930872355,-0.47746461629867554,0.08906769007444382,0.1625097393989563,0.032926298677921295,-0.0003544155915733427,-0.3142014443874359,0.948785126209259,0.0,0.0,0.0,0.0,0.0,0.0
646,1724915323931294678,-0.4773947298526764,0.08875250816345215,0.16192252933979034,0.034796927124261856,0.0005853452603332698,-0.31543099880218506,0.9483101963996887,0.0,0.0,0.0,0.0,0.0,0.0
648,1724915323931655629,-0.4774743616580963,0.0883457213640213,0.16160249710083008,0.03300705924630165,-5.6693712394917384e-05,-0.3181454539299011,0.9474672079086304,0.0,0.0,0.0,0.0,0.0,0.0
650,1724915323931911879,-0.4774596691131592,0.08787142485380173,0.1612236350774765,0.03266250714659691,-0.00028029599343426526,-0.31962651014328003,0.9469804763793945,0.0,0.0,0.0,0.0,0.0,0.0
652,1724915323932268137,-0.4774042069911957,0.08735695481300354,0.1610454022884369,0.033108487725257874,-0.00037303322460502386,-0.3208632469177246,0.9465466737747192,0.0,0.0,0.0,0.0,0.0,0.0
654,1724915323932593074,-0.4773608446121216,0.08707205951213837,0.1610771119594574,0.03417474031448364,0.0010842602932825685,-0.3222688138484955,0.9460305571556091,0.0,0.0,0.0,0.0,0.0,0.0
656,1724915323940418941,-0.4773292541503906,0.08679036796092987,0.16100779175758362,0.03475477173924446,0.0015676008770242333,-0.32279065251350403,0.945830762386322,0.0,0.0,0.0,0.0,0.0,0.0
658,1724915323952726084,-0.4772148132324219,0.08649735152721405,0.16073931753635406,0.03549422696232796,0.001024169148877263,-0.32237672805786133,0.9459452033042908,0.0,0.0,0.0,0.0,0.0,0.0
660,1724915323959213856,-0.4771486222743988,0.08633995801210403,0.1604936718940735,0.036074940115213394,0.00152945751324296,-0.3228412866592407,0.9457641243934631,0.0,0.0,0.0,0.0,0.0,0.0
662,1724915323969356124,-0.4770248532295227,0.08620737493038177,0.16027958691120148,0.03667476773262024,0.00185951660387218,-0.32438069581985474,0.9452136158943176,0.0,0.0,0.0,0.0,0.0,0.0
664,1724915323979521581,-0.47678789496421814,0.08602795004844666,0.16033339500427246,0.038781724870204926,0.0033417069353163242,-0.327770859003067,0.9439550638198853,0.0,0.0,0.0,0.0,0.0,0.0
666,1724915323989839016,-0.47660815715789795,0.085882768034935,0.16032998263835907,0.039488665759563446,0.003532513277605176,-0.3309999704360962,0.9427975416183472,0.0,0.0,0.0,0.0,0.0,0.0
668,1724915324002429983,-0.4765789210796356,0.08565838634967804,0.1600518673658371,0.038040127605199814,0.002065362175926566,-0.3329015076160431,0.9421917796134949,0.0,0.0,0.0,0.0,0.0,0.0
670,1724915324009326142,-0.47653451561927795,0.08541533350944519,0.16011998057365417,0.03693069890141487,0.001273327856324613,-0.33552679419517517,0.9413056969642639,0.0,0.0,0.0,0.0,0.0,0.0
672,1724915324020198220,-0.4765383005142212,0.08520690351724625,0.16013965010643005,0.0347033254802227,0.0011420724913477898,-0.33749306201934814,0.9406874179840088,0.0,0.0,0.0,0.0,0.0,0.0
674,1724915324029652593,-0.47638922929763794,0.08509878069162369,0.1602751761674881,0.03540739044547081,0.0022691371850669384,-0.3395962715148926,0.9399019479751587,0.0,0.0,0.0,0.0,0.0,0.0
676,1724915324039735582,-0.47626742720603943,0.0850149616599083,0.16034922003746033,0.035985879600048065,0.0034255217760801315,-0.34137246012687683,0.9392327070236206,0.0,0.0,0.0,0.0,0.0,0.0
678,1724915324052640176,-0.47609943151474,0.08487161993980408,0.1600959748029709,0.03608857840299606,0.0023999386467039585,-0.3414333462715149,0.9392098188400269,0.0,0.0,0.0,0.0,0.0,0.0
680,1724915324059424181,-0.4760008752346039,0.08469397574663162,0.15990257263183594,0.035638079047203064,0.0009502051980234683,-0.34220337867736816,0.9389494061470032,0.0,0.0,0.0,0.0,0.0,0.0
682,1724915324071393499,-0.4758549630641937,0.0845894068479538,0.15989142656326294,0.03600376471877098,0.0009541425970382988,-0.3442182242870331,0.9381986260414124,0.0,0.0,0.0,0.0,0.0,0.0
684,1724915324079781443,-0.47577399015426636,0.08449320495128632,0.15993712842464447,0.03495738282799721,0.001138394931331277,-0.3462505340576172,0.9374898672103882,0.0,0.0,0.0,0.0,0.0,0.0
686,1724915324089986263,-0.4756392240524292,0.08449365943670273,0.16010040044784546,0.034607838839292526,0.0024553213734179735,-0.34864404797554016,0.9366128444671631,0.0,0.0,0.0,0.0,0.0,0.0
688,1724915324102783575,-0.47547486424446106,0.0844438374042511,0.16008061170578003,0.03551546856760979,0.0031238545197993517,-0.3505004346370697,0.9358838200569153,0.0,0.0,0.0,0.0,0.0,0.0
690,1724915324109230745,-0.47534075379371643,0.08441001921892166,0.15995772182941437,0.03589504584670067,0.003003102960065007,-0.3519570827484131,0.9353228211402893,0.0,0.0,0.0,0.0,0.0,0.0
692,1724915324119448986,-0.47515490651130676,0.08436799794435501,0.1599782556295395,0.036088403314352036,0.002876355079934001,-0.35389795899391174,0.9345831871032715,0.0,0.0,0.0,0.0,0.0,0.0
694,1724915324129818788,-0.4749601483345032,0.08442003279924393,0.15991392731666565,0.03626701235771179,0.0024586301296949387,-0.3550449013710022,0.9341422915458679,0.0,0.0,0.0,0.0,0.0,0.0
696,1724915324139712288,-0.47477635741233826,0.08443643897771835,0.1598758101463318,0.03631530702114105,0.002257895190268755,-0.35662612318992615,0.9335384964942932,0.0,0.0,0.0,0.0,0.0,0.0
698,1724915324152604251,-0.4745773375034332,0.0844775140285492,0.15990234911441803,0.03644190728664398,0.0029856120236217976,-0.35844916105270386,0.9328328967094421,0.0,0.0,0.0,0.0,0.0,0.0
700,1724915324159384010,-0.4744536280632019,0.0844089537858963,0.1599452942609787,0.03564762696623802,0.0032884778920561075,-0.360402911901474,0.9321095943450928,0.0,0.0,0.0,0.0,0.0,0.0
702,1724915324169271473,-0.4744032621383667,0.0843394473195076,0.15987229347229004,0.034934937953948975,0.002323585795238614,-0.3616177439689636,0.9316688179969788,0.0,0.0,0.0,0.0,0.0,0.0
704,1724915324179626434,-0.4743803143501282,0.084376260638237,0.15988540649414062,0.03540269285440445,0.0027495548129081726,-0.36314886808395386,0.9310542941093445,0.0,0.0,0.0,0.0,0.0,0.0
706,1724915324190132968,-0.47439470887184143,0.08439566195011139,0.15992490947246552,0.03504234552383423,0.0028350437059998512,-0.3644511103630066,0.9305586814880371,0.0,0.0,0.0,0.0,0.0,0.0
708,1724915324203228973,-0.47442901134490967,0.08452306687831879,0.1600484997034073,0.03544823080301285,0.00391630083322525,-0.3659766912460327,0.929940402507782,0.0,0.0,0.0,0.0,0.0,0.0
710,1724915324209333804,-0.47449779510498047,0.08472968637943268,0.16004997491836548,0.034770432859659195,0.003981423564255238,-0.36676621437072754,0.929654598236084,0.0,0.0,0.0,0.0,0.0,0.0
712,1724915324219978420,-0.47456827759742737,0.08490155637264252,0.16024303436279297,0.03431646525859833,0.003163664834573865,-0.36859631538391113,0.9289506077766418,0.0,0.0,0.0,0.0,0.0,0.0
714,1724915324229513752,-0.4746498763561249,0.08509597182273865,0.16051892936229706,0.033987369388341904,0.003263229038566351,-0.36985644698143005,0.9284613132476807,0.0,0.0,0.0,0.0,0.0,0.0
716,1724915324239917002,-0.4747646749019623,0.08536006510257721,0.16091802716255188,0.032620079815387726,0.004316810518503189,-0.3712014853954315,0.9279691576957703,0.0,0.0,0.0,0.0,0.0,0.0
718,1724915324254146426,-0.4748477339744568,0.08554472774267197,0.16130387783050537,0.03177843615412712,0.004239420872181654,-0.37298911809921265,0.9272817373275757,0.0,0.0,0.0,0.0,0.0,0.0
720,1724915324259354993,-0.4749104678630829,0.08584512770175934,0.1616971492767334,0.03141583874821663,0.00435123685747385,-0.37461063265800476,0.9266396760940552,0.0,0.0,0.0,0.0,0.0,0.0
722,1724915324271103339,-0.4749029874801636,0.08623924851417542,0.16224151849746704,0.031532350927591324,0.005306573119014502,-0.3760066032409668,0.9260651469230652,0.0,0.0,0.0,0.0,0.0,0.0
724,1724915324279550912,-0.47500085830688477,0.08662672340869904,0.1628056764602661,0.030726736411452293,0.004836000967770815,-0.3762725591659546,0.9259868264198303,0.0,0.0,0.0,0.0,0.0,0.0
726,1724915324291059739,-0.475004643201828,0.08706221729516983,0.1635337620973587,0.02957361564040184,0.004477344918996096,-0.37687787413597107,0.9257799386978149,0.0,0.0,0.0,0.0,0.0,0.0
728,1724915324300209245,-0.4750422239303589,0.08744592219591141,0.1640605479478836,0.02783711440861225,0.003451935015618801,-0.3772389590740204,0.9256910681724548,0.0,0.0,0.0,0.0,0.0,0.0
730,1724915324309364320,-0.47514861822128296,0.08788613975048065,0.16458573937416077,0.025158893316984177,0.0023053823970258236,-0.3784812390804291,0.9252641201019287,0.0,0.0,0.0,0.0,0.0,0.0
732,1724915324319349872,-0.4750453531742096,0.0884854793548584,0.16526038944721222,0.024992380291223526,0.0033715113531798124,-0.3800412714481354,0.9246256351470947,0.0,0.0,0.0,0.0,0.0,0.0
734,1724915324330476943,-0.47502362728118896,0.08901488035917282,0.16590552031993866,0.024798709899187088,0.0038712462410330772,-0.38077259063720703,0.9243280291557312,0.0,0.0,0.0,0.0,0.0,0.0
736,1724915324340064603,-0.4750402569770813,0.08951575309038162,0.16631850600242615,0.023989634588360786,0.0036218706518411636,-0.38092008233070374,0.9242895841598511,0.0,0.0,0.0,0.0,0.0,0.0
738,1724915324349334511,-0.4748806953430176,0.09012436121702194,0.16688677668571472,0.024189412593841553,0.004448537714779377,-0.3820153474807739,0.923828661441803,0.0,0.0,0.0,0.0,0.0,0.0
740,1724915324360155316,-0.4747242033481598,0.09094607084989548,0.16758331656455994,0.02359704300761223,0.006157282739877701,-0.38364851474761963,0.9231571555137634,0.0,0.0,0.0,0.0,0.0,0.0
742,1724915324369210795,-0.47474074363708496,0.09183444082736969,0.16831210255622864,0.023071011528372765,0.005491508170962334,-0.38491880893707275,0.9226458072662354,0.0,0.0,0.0,0.0,0.0,0.0
744,1724915324380412089,-0.47471320629119873,0.09257864952087402,0.169133722782135,0.022523202002048492,0.0032325268257409334,-0.3850421607494354,0.9226184487342834,0.0,0.0,0.0,0.0,0.0,0.0
746,1724915324389930138,-0.4746973514556885,0.09336963295936584,0.17007656395435333,0.02079150266945362,0.0025553673040121794,-0.38563790917396545,0.9224123358726501,0.0,0.0,0.0,0.0,0.0,0.0
748,1724915324405322241,-0.474534809589386,0.09426864236593246,0.17095521092414856,0.01970154605805874,0.003138135652989149,-0.38639357686042786,0.9221182465553284,0.0,0.0,0.0,0.0,0.0,0.0
750,1724915324410906275,-0.4744594097137451,0.09514170140028,0.17136989533901215,0.018622320145368576,0.0014037102228030562,-0.3858798146247864,0.9223600625991821,0.0,0.0,0.0,0.0,0.0,0.0
752,1724915324419293881,-0.4742780327796936,0.09607807546854019,0.17185324430465698,0.01714908704161644,0.001141067361459136,-0.38562265038490295,0.922496497631073,0.0,0.0,0.0,0.0,0.0,0.0
754,1724915324430626023,-0.4740588366985321,0.09714570641517639,0.17268986999988556,0.014029540121555328,0.0016901936614885926,-0.38878631591796875,0.9212197065353394,0.0,0.0,0.0,0.0,0.0,0.0
756,1724915324482217836,-0.47382858395576477,0.09819042682647705,0.17307667434215546,0.011089706793427467,0.00039169282536022365,-0.3901904821395874,0.920667290687561,0.0,0.0,0.0,0.0,0.0,0.0
758,1724915324483092337,-0.47348541021347046,0.09931235015392303,0.1733526885509491,0.01011381670832634,-0.0006178018520586193,-0.3894566297531128,0.9209890961647034,0.0,0.0,0.0,0.0,0.0,0.0
760,1724915324483757155,-0.4729915261268616,0.10048818588256836,0.17358800768852234,0.01077841967344284,-0.00021137975272722542,-0.38909658789634705,0.9211338758468628,0.0,0.0,0.0,0.0,0.0,0.0
762,1724915324484307015,-0.472679078578949,0.10196874290704727,0.17389462888240814,0.00825514830648899,0.00014583594747819006,-0.39038240909576416,0.9206157922744751,0.0,0.0,0.0,0.0,0.0,0.0
764,1724915324485629457,-0.472497820854187,0.10347723960876465,0.1740337312221527,0.00589094078168273,-0.0023161324206739664,-0.38910192251205444,0.9211730360984802,0.0,0.0,0.0,0.0,0.0,0.0
766,1724915324490071559,-0.4724108576774597,0.10471581667661667,0.17461390793323517,0.0036809800658375025,-0.004062351770699024,-0.3900536298751831,0.9207757711410522,0.0,0.0,0.0,0.0,0.0,0.0
768,1724915324499769893,-0.4722651243209839,0.10608048737049103,0.1751844435930252,0.001075005391612649,-0.002917533041909337,-0.3921376168727875,0.9199013710021973,0.0,0.0,0.0,0.0,0.0,0.0
770,1724915324509377409,-0.47217875719070435,0.10739941895008087,0.17531456053256989,-0.0015547758666798472,-0.004847575910389423,-0.39188438653945923,0.9200003743171692,0.0,0.0,0.0,0.0,0.0,0.0
772,1724915324520010865,-0.4718601107597351,0.10895005613565445,0.1756220906972885,-0.0010576257482171059,-0.0036523153539747,-0.39288800954818726,0.919578492641449,0.0,0.0,0.0,0.0,0.0,0.0
774,1724915324529789043,-0.47176864743232727,0.11043308675289154,0.17582876980304718,-0.004835208877921104,-0.0039061838760972023,-0.39474499225616455,0.9187696576118469,0.0,0.0,0.0,0.0,0.0,0.0
776,1724915324539915321,-0.4718242287635803,0.11171016842126846,0.17559809982776642,-0.010622912086546421,-0.007543493062257767,-0.39360007643699646,0.919189453125,0.0,0.0,0.0,0.0,0.0,0.0
778,1724915324550048876,-0.4716278910636902,0.11288052052259445,0.17562194168567657,-0.013376322574913502,-0.008806532248854637,-0.3942997455596924,0.9188423156738281,0.0,0.0,0.0,0.0,0.0,0.0
780,1724915324559574353,-0.47144076228141785,0.11408763378858566,0.17578965425491333,-0.015632931143045425,-0.009107936173677444,-0.39528369903564453,0.9183809161186218,0.0,0.0,0.0,0.0,0.0,0.0
782,1724915324569510879,-0.4710732400417328,0.11547281593084335,0.17574726045131683,-0.01633148081600666,-0.008422388695180416,-0.3952367901802063,0.9183955192565918,0.0,0.0,0.0,0.0,0.0,0.0
784,1724915324583532933,-0.47076186537742615,0.11665305495262146,0.17570196092128754,-0.01758556067943573,-0.008374528028070927,-0.39486148953437805,0.9185341596603394,0.0,0.0,0.0,0.0,0.0,0.0
786,1724915324589969381,-0.4706982672214508,0.11763276159763336,0.17572613060474396,-0.020839236676692963,-0.010684112086892128,-0.3948420286178589,0.9184505939483643,0.0,0.0,0.0,0.0,0.0,0.0
788,1724915324600061700,-0.4706956148147583,0.11873627454042435,0.1759488731622696,-0.023641444742679596,-0.011001959443092346,-0.3954915702342987,0.9180994033813477,0.0,0.0,0.0,0.0,0.0,0.0
790,1724915324610031716,-0.4707179367542267,0.11983692646026611,0.17599079012870789,-0.025456704199314117,-0.01209181360900402,-0.39546066522598267,0.9180505275726318,0.0,0.0,0.0,0.0,0.0,0.0
792,1724915324620118174,-0.4708317518234253,0.12102902680635452,0.17577403783798218,-0.029085202142596245,-0.013481289148330688,-0.39478227496147156,0.918215274810791,0.0,0.0,0.0,0.0,0.0,0.0
794,1724915324630279631,-0.47083988785743713,0.1222178190946579,0.1756177395582199,-0.03148002177476883,-0.014144535176455975,-0.39515432715415955,0.9179662466049194,0.0,0.0,0.0,0.0,0.0,0.0
796,1724915324639996724,-0.47096771001815796,0.12325398623943329,0.1752205342054367,-0.03309841826558113,-0.015819983556866646,-0.3936755359172821,0.9185172319412231,0.0,0.0,0.0,0.0,0.0,0.0
798,1724915324650436935,-0.4709509015083313,0.12436717748641968,0.17496591806411743,-0.03256396949291229,-0.01568441279232502,-0.39292556047439575,0.9188596606254578,0.0,0.0,0.0,0.0,0.0,0.0
800,1724915324660911387,-0.47110146284103394,0.1254444122314453,0.1748848259449005,-0.035639677196741104,-0.01693030260503292,-0.39223888516426086,0.9190168380737305,0.0,0.0,0.0,0.0,0.0,0.0
802,1724915324671007640,-0.47122836112976074,0.12641336023807526,0.17476487159729004,-0.04022235423326492,-0.01864638552069664,-0.3918457627296448,0.9189621210098267,0.0,0.0,0.0,0.0,0.0,0.0
804,1724915324682154458,-0.471392959356308,0.12738579511642456,0.17459392547607422,-0.04415107145905495,-0.019203534349799156,-0.39176854491233826,0.9188032150268555,0.0,0.0,0.0,0.0,0.0,0.0
806,1724915324690897071,-0.47140592336654663,0.12824435532093048,0.1742255985736847,-0.04470634087920189,-0.01970486156642437,-0.3911851644515991,0.9190142750740051,0.0,0.0,0.0,0.0,0.0,0.0
808,1724915324701749066,-0.47136223316192627,0.1290701925754547,0.17404010891914368,-0.043952204287052155,-0.019950449466705322,-0.39131224155426025,0.918991208076477,0.0,0.0,0.0,0.0,0.0,0.0
810,1724915324709215239,-0.4713733494281769,0.12996844947338104,0.17379513382911682,-0.043524082750082016,-0.019840175285935402,-0.39139193296432495,0.918980062007904,0.0,0.0,0.0,0.0,0.0,0.0
812,1724915324720344081,-0.4715253710746765,0.13103525340557098,0.1733030527830124,-0.046944115310907364,-0.019188441336154938,-0.39020031690597534,0.9193322062492371,0.0,0.0,0.0,0.0,0.0,0.0
814,1724915324729331587,-0.4714513123035431,0.1320105940103531,0.172623410820961,-0.047326065599918365,-0.020769581198692322,-0.3889681100845337,0.9198002815246582,0.0,0.0,0.0,0.0,0.0,0.0
816,1724915324739820688,-0.47145336866378784,0.1327928900718689,0.17172987759113312,-0.047179583460092545,-0.02166326716542244,-0.388002872467041,0.9201949238777161,0.0,0.0,0.0,0.0,0.0,0.0
818,1724915324753137376,-0.4715564250946045,0.13343088328838348,0.17097172141075134,-0.04760047793388367,-0.022330526262521744,-0.38746631145477295,0.9203832745552063,0.0,0.0,0.0,0.0,0.0,0.0
820,1724915324759226152,-0.4717072546482086,0.13408692181110382,0.17039021849632263,-0.04922226816415787,-0.02265946939587593,-0.3873377740383148,0.9203440546989441,0.0,0.0,0.0,0.0,0.0,0.0
822,1724915324769721381,-0.47194352746009827,0.13480041921138763,0.16986510157585144,-0.050472699105739594,-0.022648204118013382,-0.38691142201423645,0.9204558730125427,0.0,0.0,0.0,0.0,0.0,0.0
824,1724915324779516355,-0.47204339504241943,0.13555234670639038,0.16941438615322113,-0.05107127130031586,-0.022930143401026726,-0.3863387107849121,0.9206565618515015,0.0,0.0,0.0,0.0,0.0,0.0
826,1724915324789829770,-0.47211551666259766,0.13612480461597443,0.1689600944519043,-0.05070015415549278,-0.0238607507199049,-0.3856580853462219,0.9209387302398682,0.0,0.0,0.0,0.0,0.0,0.0
828,1724915324800421628,-0.47237154841423035,0.13667039573192596,0.16840966045856476,-0.05110066384077072,-0.024408722296357155,-0.3850647509098053,0.9211503863334656,0.0,0.0,0.0,0.0,0.0,0.0
830,1724915324809377000,-0.47247862815856934,0.13726752996444702,0.16807420551776886,-0.05208536982536316,-0.02431500516831875,-0.38503316044807434,0.9211109280586243,0.0,0.0,0.0,0.0,0.0,0.0
832,1724915324820206217,-0.4724704921245575,0.13791435956954956,0.167635977268219,-0.0528220534324646,-0.02398596704006195,-0.38379061222076416,0.921596109867096,0.0,0.0,0.0,0.0,0.0,0.0
834,1724915324832658529,-0.47258493304252625,0.13852258026599884,0.16704902052879333,-0.0566846989095211,-0.02422996237874031,-0.3817543089389801,0.9222058057785034,0.0,0.0,0.0,0.0,0.0,0.0
836,1724915324842247479,-0.4726417660713196,0.13899481296539307,0.16623932123184204,-0.05822237953543663,-0.02473723143339157,-0.3799840807914734,0.9228273630142212,0.0,0.0,0.0,0.0,0.0,0.0
838,1724915324850007370,-0.47271591424942017,0.13944199681282043,0.16555652022361755,-0.058728303760290146,-0.02508191205561161,-0.37850403785705566,0.9233941435813904,0.0,0.0,0.0,0.0,0.0,0.0
840,1724915324859517993,-0.47277310490608215,0.1398126482963562,0.1650797575712204,-0.05857328325510025,-0.025512751191854477,-0.377289742231369,0.9238888621330261,0.0,0.0,0.0,0.0,0.0,0.0
842,1724915324869576939,-0.47280603647232056,0.14014603197574615,0.16479215025901794,-0.05796536058187485,-0.025752654299139977,-0.3761577606201172,0.9243820309638977,0.0,0.0,0.0,0.0,0.0,0.0
844,1724915324880635929,-0.472709983587265,0.14044006168842316,0.1644994169473648,-0.05622546374797821,-0.026433631777763367,-0.37493592500686646,0.92496657371521,0.0,0.0,0.0,0.0,0.0,0.0
846,1724915324917560125,-0.47268810868263245,0.14068089425563812,0.16427549719810486,-0.055919792503118515,-0.026965372264385223,-0.3735200762748718,0.9255423545837402,0.0,0.0,0.0,0.0,0.0,0.0
848,1724915324918145340,-0.472844660282135,0.1409442126750946,0.1641157865524292,-0.058016493916511536,-0.026324497535824776,-0.3718567490577698,0.9261013865470886,0.0,0.0,0.0,0.0,0.0,0.0
850,1724915324918405967,-0.4729158282279968,0.14117944240570068,0.1639901101589203,-0.0595359280705452,-0.025990966707468033,-0.370414674282074,0.9265920519828796,0.0,0.0,0.0,0.0,0.0,0.0
852,1724915324920141905,-0.4729175269603729,0.1414307951927185,0.16382895410060883,-0.06085563823580742,-0.025815196335315704,-0.3689572513103485,0.9270926117897034,0.0,0.0,0.0,0.0,0.0,0.0
854,1724915324929739506,-0.4728126525878906,0.1416558176279068,0.1634128838777542,-0.058875761926174164,-0.025902632623910904,-0.3666269779205322,0.9281419515609741,0.0,0.0,0.0,0.0,0.0,0.0
856,1724915324941057457,-0.4727519750595093,0.14190296828746796,0.163022980093956,-0.060221970081329346,-0.025785598903894424,-0.36455246806144714,0.9288756251335144,0.0,0.0,0.0,0.0,0.0,0.0
858,1724915324949360260,-0.47276782989501953,0.14208374917507172,0.16255536675453186,-0.06092895567417145,-0.026118233799934387,-0.3626733720302582,0.9295556545257568,0.0,0.0,0.0,0.0,0.0,0.0
860,1724915324959170438,-0.4727449417114258,0.14232167601585388,0.16234520077705383,-0.05922957509756088,-0.026492509990930557,-0.3616805374622345,0.930041491985321,0.0,0.0,0.0,0.0,0.0,0.0
862,1724915324969146507,-0.4728523790836334,0.1424831598997116,0.16224734485149384,-0.05945245549082756,-0.02675246261060238,-0.3606688976287842,0.9304126501083374,0.0,0.0,0.0,0.0,0.0,0.0
864,1724915324979773881,-0.47294288873672485,0.14263424277305603,0.16221828758716583,-0.060053952038288116,-0.026538707315921783,-0.35965225100517273,0.9307735562324524,0.0,0.0,0.0,0.0,0.0,0.0
866,1724915324989731589,-0.47309330105781555,0.14282657206058502,0.16214519739151,-0.061148591339588165,-0.026488425210118294,-0.35810431838035583,0.9313005208969116,0.0,0.0,0.0,0.0,0.0,0.0
868,1724915325019740231,-0.47317078709602356,0.1429714858531952,0.1620284616947174,-0.06121276691555977,-0.026248956099152565,-0.3566906452178955,0.9318453669548035,0.0,0.0,0.0,0.0,0.0,0.0
870,1724915325020086411,-0.47312796115875244,0.14318665862083435,0.16211163997650146,-0.0603543296456337,-0.025290343910455704,-0.3560686707496643,0.9321657419204712,0.0,0.0,0.0,0.0,0.0,0.0
872,1724915325020385067,-0.47317785024642944,0.1432584524154663,0.16208551824092865,-0.060287099331617355,-0.025153521448373795,-0.35448190569877625,0.9327783584594727,0.0,0.0,0.0,0.0,0.0,0.0
874,1724915325029939488,-0.4732140302658081,0.1433539092540741,0.16214919090270996,-0.06033464893698692,-0.025095252320170403,-0.353074312210083,0.9333106279373169,0.0,0.0,0.0,0.0,0.0,0.0
876,1724915325040014809,-0.4731796979904175,0.1434059888124466,0.16216136515140533,-0.0601346381008625,-0.025616008788347244,-0.3506433069705963,0.9342253804206848,0.0,0.0,0.0,0.0,0.0,0.0
878,1724915325050696965,-0.47311943769454956,0.14347803592681885,0.16221590340137482,-0.059072528034448624,-0.02580755203962326,-0.34917494654655457,0.9348375797271729,0.0,0.0,0.0,0.0,0.0,0.0
880,1724915325059465618,-0.4731021523475647,0.1435346156358719,0.16210372745990753,-0.058805856853723526,-0.025508197024464607,-0.3471182882785797,0.9356282353401184,0.0,0.0,0.0,0.0,0.0,0.0
882,1724915325069534673,-0.4731355309486389,0.1435258686542511,0.16196958720684052,-0.05880649760365486,-0.026050303131341934,-0.3448438048362732,0.9364539980888367,0.0,0.0,0.0,0.0,0.0,0.0
884,1724915325081792077,-0.4731419086456299,0.14368653297424316,0.161970317363739,-0.059733059257268906,-0.026179537177085876,-0.34284448623657227,0.9371255040168762,0.0,0.0,0.0,0.0,0.0,0.0
886,1724915325089855230,-0.47313520312309265,0.14379815757274628,0.1619797945022583,-0.059872206300497055,-0.02615305781364441,-0.3416261076927185,0.9375622868537903,0.0,0.0,0.0,0.0,0.0,0.0
888,1724915325099456469,-0.47319623827934265,0.14399562776088715,0.1619698852300644,-0.06104566529393196,-0.026159677654504776,-0.3402848541736603,0.9379740953445435,0.0,0.0,0.0,0.0,0.0,0.0
890,1724915325109709763,-0.4731394946575165,0.14416509866714478,0.16192790865898132,-0.06098150461912155,-0.026045627892017365,-0.33887335658073425,0.9384922981262207,0.0,0.0,0.0,0.0,0.0,0.0
892,1724915325119476137,-0.4731602370738983,0.14428961277008057,0.161892369389534,-0.06160486489534378,-0.026177816092967987,-0.3373829424381256,0.9389846920967102,0.0,0.0,0.0,0.0,0.0,0.0
894,1724915325130339526,-0.4731389880180359,0.14447174966335297,0.16193829476833344,-0.062258973717689514,-0.025383267551660538,-0.3361751139163971,0.9393965601921082,0.0,0.0,0.0,0.0,0.0,0.0
896,1724915325141076292,-0.4731326699256897,0.14463120698928833,0.16204334795475006,-0.06296269595623016,-0.025232283398509026,-0.3352830708026886,0.9396725296974182,0.0,0.0,0.0,0.0,0.0,0.0
898,1724915325149512177,-0.4730324447154999,0.14469808340072632,0.1619325876235962,-0.06142071262001991,-0.025966377928853035,-0.33340200781822205,0.9404235482215881,0.0,0.0,0.0,0.0,0.0,0.0
900,1724915325159743111,-0.47295916080474854,0.1447475552558899,0.16187195479869843,-0.06005515530705452,-0.02651970647275448,-0.3320567011833191,0.940972089767456,0.0,0.0,0.0,0.0,0.0,0.0
902,1724915325169142091,-0.47293585538864136,0.14481748640537262,0.1619197130203247,-0.05985407903790474,-0.026290513575077057,-0.3308957517147064,0.9414001703262329,0.0,0.0,0.0,0.0,0.0,0.0
904,1724915325180280647,-0.4729682207107544,0.1448986679315567,0.16200536489486694,-0.05905093997716904,-0.026024458929896355,-0.32967621088027954,0.9418861269950867,0.0,0.0,0.0,0.0,0.0,0.0
906,1724915325190277695,-0.4730600416660309,0.14482584595680237,0.16208234429359436,-0.05869605764746666,-0.026056433096528053,-0.3280426263809204,0.9424775838851929,0.0,0.0,0.0,0.0,0.0,0.0
908,1724915325199323391,-0.47313499450683594,0.1448056697845459,0.1621423214673996,-0.0583573617041111,-0.024767490103840828,-0.32676810026168823,0.9429759979248047,0.0,0.0,0.0,0.0,0.0,0.0
910,1724915325209531097,-0.47329917550086975,0.1446782797574997,0.16207784414291382,-0.05814241245388985,-0.023869739845395088,-0.32467713952064514,0.9437344074249268,0.0,0.0,0.0,0.0,0.0,0.0
912,1724915325220200805,-0.47342854738235474,0.14444470405578613,0.16214407980442047,-0.057809941470623016,-0.023359699174761772,-0.3230992257595062,0.9443089365959167,0.0,0.0,0.0,0.0,0.0,0.0
914,1724915325229912644,-0.4736242890357971,0.144134983420372,0.1622733771800995,-0.058007098734378815,-0.02357308566570282,-0.3214004933834076,0.9448710680007935,0.0,0.0,0.0,0.0,0.0,0.0
916,1724915325240242758,-0.4737856388092041,0.14392732083797455,0.16249915957450867,-0.05798604339361191,-0.023506132885813713,-0.32026609778404236,0.9452590942382812,0.0,0.0,0.0,0.0,0.0,0.0
918,1724915325252684960,-0.47393062710762024,0.1437559425830841,0.1627279371023178,-0.05819711834192276,-0.023334428668022156,-0.31947293877601624,0.9455187320709229,0.0,0.0,0.0,0.0,0.0,0.0
920,1724915325259459630,-0.47407349944114685,0.14353470504283905,0.16286757588386536,-0.057996220886707306,-0.02338290959596634,-0.3185119926929474,0.9458540081977844,0.0,0.0,0.0,0.0,0.0,0.0
922,1724915325270388743,-0.47415369749069214,0.14338092505931854,0.1631067991256714,-0.05693899095058441,-0.02204035222530365,-0.31789955496788025,0.9461565613746643,0.0,0.0,0.0,0.0,0.0,0.0
924,1724915325279650850,-0.4743269085884094,0.1431029736995697,0.16346724331378937,-0.05629473924636841,-0.021167544648051262,-0.31683167815208435,0.9465730786323547,0.0,0.0,0.0,0.0,0.0,0.0
926,1724915325290366872,-0.4745354652404785,0.14283445477485657,0.16404709219932556,-0.056509871035814285,-0.02108319289982319,-0.31659337878227234,0.9466418623924255,0.0,0.0,0.0,0.0,0.0,0.0
928,1724915325300018860,-0.47476211190223694,0.14259597659111023,0.16447804868221283,-0.056494757533073425,-0.02084205485880375,-0.31554582715034485,0.9469978213310242,0.0,0.0,0.0,0.0,0.0,0.0
930,1724915325309375938,-0.4749659299850464,0.14217209815979004,0.16481000185012817,-0.056213390082120895,-0.020788392052054405,-0.3137778341770172,0.9476029872894287,0.0,0.0,0.0,0.0,0.0,0.0
932,1724915325320151905,-0.4751315712928772,0.1418081521987915,0.16536767780780792,-0.05617818608880043,-0.019321871921420097,-0.3129253685474396,0.9479179978370667,0.0,0.0,0.0,0.0,0.0,0.0
934,1724915325329963681,-0.4752918481826782,0.14137020707130432,0.1660991609096527,-0.05519914999604225,-0.018568135797977448,-0.31182631850242615,0.9483526349067688,0.0,0.0,0.0,0.0,0.0,0.0
936,1724915325340521370,-0.4754313826560974,0.14075809717178345,0.16685426235198975,-0.053261321038007736,-0.020114853978157043,-0.3102996349334717,0.948932409286499,0.0,0.0,0.0,0.0,0.0,0.0
938,1724915325350014613,-0.47566089034080505,0.14026384055614471,0.16766028106212616,-0.05358009412884712,-0.01955328695476055,-0.30906999111175537,0.9493274688720703,0.0,0.0,0.0,0.0,0.0,0.0
940,1724915325359118965,-0.47572919726371765,0.1395258605480194,0.16830652952194214,-0.052943531423807144,-0.019427618011832237,-0.30722323060035706,0.9499650001525879,0.0,0.0,0.0,0.0,0.0,0.0
942,1724915325370299051,-0.47559240460395813,0.13875655829906464,0.169001504778862,-0.05134613439440727,-0.018883105367422104,-0.30667731165885925,0.9502400755882263,0.0,0.0,0.0,0.0,0.0,0.0
944,1724915325379992436,-0.475464403629303,0.13809962570667267,0.16970394551753998,-0.050560541450977325,-0.01807749830186367,-0.30634453892707825,0.9504051208496094,0.0,0.0,0.0,0.0,0.0,0.0
946,1724915325389779738,-0.4752219021320343,0.1373017132282257,0.17054922878742218,-0.04815593734383583,-0.01752660423517227,-0.3063957691192627,0.9505237936973572,0.0,0.0,0.0,0.0,0.0,0.0
948,1724915325402938566,-0.4751291871070862,0.13650181889533997,0.17117781937122345,-0.04832122102379799,-0.017937099561095238,-0.3053211271762848,0.9508534669876099,0.0,0.0,0.0,0.0,0.0,0.0
950,1724915325409991407,-0.47497445344924927,0.13558612763881683,0.17182384431362152,-0.04806847870349884,-0.017388973385095596,-0.3045213222503662,0.9511328935623169,0.0,0.0,0.0,0.0,0.0,0.0
952,1724915325419426721,-0.474686861038208,0.13441193103790283,0.1721041053533554,-0.043567098677158356,-0.016560779884457588,-0.3029336929321289,0.9518712759017944,0.0,0.0,0.0,0.0,0.0,0.0
954,1724915325430024511,-0.47460612654685974,0.13307932019233704,0.17214389145374298,-0.04064146801829338,-0.01653895154595375,-0.30208346247673035,0.9522711634635925,0.0,0.0,0.0,0.0,0.0,0.0
956,1724915325442436436,-0.4745740294456482,0.13178423047065735,0.17217151820659637,-0.03668992966413498,-0.01630675233900547,-0.3017859160900116,0.9525299668312073,0.0,0.0,0.0,0.0,0.0,0.0
958,1724915325453565515,-0.4746685326099396,0.13054005801677704,0.1722412407398224,-0.034584641456604004,-0.016416272148489952,-0.30129048228263855,0.9527636766433716,0.0,0.0,0.0,0.0,0.0,0.0
960,1724915325459924316,-0.4748707413673401,0.12946270406246185,0.17264558374881744,-0.034652553498744965,-0.015584328211843967,-0.30189573764801025,0.9525835514068604,0.0,0.0,0.0,0.0,0.0,0.0
962,1724915325470013531,-0.4751383066177368,0.1278517097234726,0.1726512461900711,-0.03381844237446785,-0.016478754580020905,-0.30009925365448,0.9531658887863159,0.0,0.0,0.0,0.0,0.0,0.0
964,1724915325479949213,-0.4752247929573059,0.12655608355998993,0.1729739010334015,-0.02969467267394066,-0.015863340348005295,-0.30093371868133545,0.9530506730079651,0.0,0.0,0.0,0.0,0.0,0.0
966,1724915325489817266,-0.4753805696964264,0.12544091045856476,0.1730533093214035,-0.02695087157189846,-0.015677768737077713,-0.3006591498851776,0.95322185754776,0.0,0.0,0.0,0.0,0.0,0.0
968,1724915325499462023,-0.4755015969276428,0.12413502484560013,0.17306312918663025,-0.022921249270439148,-0.014924596063792706,-0.3001863360404968,0.9534884095191956,0.0,0.0,0.0,0.0,0.0,0.0
970,1724915325509631064,-0.47566166520118713,0.12280146777629852,0.17318664491176605,-0.021076325327157974,-0.014669694006443024,-0.30008503794670105,0.9535667300224304,0.0,0.0,0.0,0.0,0.0,0.0
972,1724915325520167246,-0.47590959072113037,0.12141282856464386,0.17339496314525604,-0.019162673503160477,-0.013616811484098434,-0.30023226141929626,0.9535765051841736,0.0,0.0,0.0,0.0,0.0,0.0
974,1724915325529934253,-0.4761587381362915,0.12004657089710236,0.17347203195095062,-0.016722267493605614,-0.013108138926327229,-0.2991226017475128,0.9539781212806702,0.0,0.0,0.0,0.0,0.0,0.0
976,1724915325539886136,-0.476312518119812,0.11877207458019257,0.1734987199306488,-0.014332187362015247,-0.01306343637406826,-0.29882144927978516,0.9541119933128357,0.0,0.0,0.0,0.0,0.0,0.0
978,1724915325561031395,-0.47644737362861633,0.11764707416296005,0.17346882820129395,-0.013250505551695824,-0.012462111189961433,-0.298543781042099,0.954222559928894,0.0,0.0,0.0,0.0,0.0,0.0
980,1724915325561347643,-0.4765596389770508,0.11653769016265869,0.17333541810512543,-0.010301747359335423,-0.009599204175174236,-0.2979305684566498,0.954483687877655,0.0,0.0,0.0,0.0,0.0,0.0
982,1724915325569543565,-0.4767325222492218,0.11526329070329666,0.17348887026309967,-0.005977295804768801,-0.009186002425849438,-0.2977581322193146,0.9545785188674927,0.0,0.0,0.0,0.0,0.0,0.0
984,1724915325580587998,-0.47698599100112915,0.11412059515714645,0.17363356053829193,-0.0029331401456147432,-0.009408341720700264,-0.29815611243247986,0.9544662237167358,0.0,0.0,0.0,0.0,0.0,0.0
986,1724915325590010102,-0.4773716926574707,0.113058902323246,0.17354924976825714,-0.0023414939641952515,-0.010040877386927605,-0.29778820276260376,0.9545763731002808,0.0,0.0,0.0,0.0,0.0,0.0
988,1724915325603820744,-0.47760874032974243,0.11225782334804535,0.17353209853172302,-0.001034743501804769,-0.009681115858256817,-0.29720214009284973,0.9547649025917053,0.0,0.0,0.0,0.0,0.0,0.0
990,1724915325609784515,-0.4777301251888275,0.11146213859319687,0.17358502745628357,0.0018494542455300689,-0.008046707138419151,-0.29755666851997375,0.9546685218811035,0.0,0.0,0.0,0.0,0.0,0.0
992,1724915325619353043,-0.4778989553451538,0.11040481925010681,0.17373327910900116,0.004721277393400669,-0.007071636617183685,-0.2985829710960388,0.9543458223342896,0.0,0.0,0.0,0.0,0.0,0.0
994,1724915325629820177,-0.4779978394508362,0.10938437283039093,0.17391596734523773,0.0093966880813241,-0.005804460495710373,-0.2986283004283905,0.9543056488037109,0.0,0.0,0.0,0.0,0.0,0.0
996,1724915325639636617,-0.47814375162124634,0.10838232189416885,0.17376016080379486,0.011547340080142021,-0.006209630519151688,-0.2981645464897156,0.9544245600700378,0.0,0.0,0.0,0.0,0.0,0.0
998,1724915325649740290,-0.4783264398574829,0.10730450600385666,0.17360495030879974,0.011428902857005596,-0.007146526128053665,-0.2982611358165741,0.9543891549110413,0.0,0.0,0.0,0.0,0.0,0.0
1000,1724915325661399462,-0.4781956672668457,0.10636888444423676,0.17345070838928223,0.013684887439012527,-0.005245802458375692,-0.29914000630378723,0.9540967345237732,0.0,0.0,0.0,0.0,0.0,0.0
1002,1724915325669383882,-0.4782288372516632,0.10532871633768082,0.17307601869106293,0.016200367361307144,-0.004571390338242054,-0.2997603416442871,0.9538660049438477,0.0,0.0,0.0,0.0,0.0,0.0
1004,1724915325679730432,-0.47832587361335754,0.10459700226783752,0.17276479303836823,0.018858876079320908,-0.004227225668728352,-0.29967206716537476,0.9538465142250061,0.0,0.0,0.0,0.0,0.0,0.0
1006,1724915325689191969,-0.47846293449401855,0.10375403612852097,0.17216795682907104,0.020892420783638954,-0.005367939360439777,-0.2989075779914856,0.9540383219718933,0.0,0.0,0.0,0.0,0.0,0.0
1008,1724915325699342186,-0.47863322496414185,0.10286909341812134,0.1717139333486557,0.021919287741184235,-0.005809469614177942,-0.2993062436580658,0.9538876414299011,0.0,0.0,0.0,0.0,0.0,0.0
1010,1724915325710302118,-0.4786524474620819,0.10214383900165558,0.17133565247058868,0.02467142418026924,-0.005025004502385855,-0.30027684569358826,0.9535197615623474,0.0,0.0,0.0,0.0,0.0,0.0
1012,1724915325719413263,-0.47882190346717834,0.10146547108888626,0.17096272110939026,0.025127697736024857,-0.0037967159878462553,-0.30151623487472534,0.9531223773956299,0.0,0.0,0.0,0.0,0.0,0.0
1014,1724915325729566966,-0.47892993688583374,0.10067056119441986,0.17059075832366943,0.023889580741524696,-0.0016814055852591991,-0.30305662751197815,0.9526716470718384,0.0,0.0,0.0,0.0,0.0,0.0
1016,1724915325740046806,-0.47905752062797546,0.09974835813045502,0.16954632103443146,0.024189958348870277,-0.002123385202139616,-0.30254805088043213,0.9528248310089111,0.0,0.0,0.0,0.0,0.0,0.0
1018,1724915325752119402,-0.4789589047431946,0.0987136960029602,0.16899339854717255,0.025378393009305,-0.0018287586281076074,-0.3035227954387665,0.9524843692779541,0.0,0.0,0.0,0.0,0.0,0.0
1020,1724915325759132621,-0.47896820306777954,0.09774403274059296,0.16830909252166748,0.026439908891916275,-0.0029181602876633406,-0.30328184366226196,0.9525295495986938,0.0,0.0,0.0,0.0,0.0,0.0
1022,1724915325770536209,-0.4790544807910919,0.09691943973302841,0.16782048344612122,0.02720816247165203,-0.0019468944519758224,-0.30459466576576233,0.9520914554595947,0.0,0.0,0.0,0.0,0.0,0.0
1024,1724915325783216713,-0.47913438081741333,0.09590615332126617,0.16740353405475616,0.02840423956513405,-0.0029700081795454025,-0.30517828464508057,0.9518669843673706,0.0,0.0,0.0,0.0,0.0,0.0
1026,1724915325789931351,-0.4791743755340576,0.09492752701044083,0.16690900921821594,0.02840474434196949,-0.003622031072154641,-0.30598604679107666,0.9516052603721619,0.0,0.0,0.0,0.0,0.0,0.0
1028,1724915325799811632,-0.4791000485420227,0.09401589632034302,0.1662246137857437,0.028801478445529938,-0.003756421385332942,-0.30591288208961487,0.9516164064407349,0.0,0.0,0.0,0.0,0.0,0.0
1030,1724915325809440533,-0.47904637455940247,0.09315209835767746,0.16592052578926086,0.028564760461449623,-0.002918699523434043,-0.3072853088378906,0.9511841535568237,0.0,0.0,0.0,0.0,0.0,0.0
1032,1724915325819363945,-0.4790019094944,0.09244770556688309,0.16552026569843292,0.030066022649407387,-0.0019977593328803778,-0.30881473422050476,0.950644850730896,0.0,0.0,0.0,0.0,0.0,0.0
1034,1724915325830704344,-0.47896015644073486,0.09178910404443741,0.1648801565170288,0.031255487352609634,-0.0014237515861168504,-0.31021326780319214,0.9501520395278931,0.0,0.0,0.0,0.0,0.0,0.0
1036,1724915325839818091,-0.4789169728755951,0.09089744091033936,0.16386505961418152,0.03153390437364578,-0.0025184652768075466,-0.3108579218387604,0.9499298334121704,0.0,0.0,0.0,0.0,0.0,0.0
1038,1724915325850537743,-0.4787794053554535,0.0902542844414711,0.1631719172000885,0.032289646565914154,-0.001763521577231586,-0.3118143677711487,0.949592649936676,0.0,0.0,0.0,0.0,0.0,0.0
1040,1724915325888452242,-0.4786711037158966,0.08983128517866135,0.16280719637870789,0.03406592085957527,0.0008710063411854208,-0.31357917189598083,0.948950469493866,0.0,0.0,0.0,0.0,0.0,0.0
1042,1724915325888866307,-0.478644996881485,0.08945736289024353,0.1624237596988678,0.034692857414484024,0.0012471933150663972,-0.3139978051185608,0.9487888216972351,0.0,0.0,0.0,0.0,0.0,0.0
1044,1724915325889170373,-0.4786228537559509,0.08904282748699188,0.16235625743865967,0.034195754677057266,0.00038603084976784885,-0.3156976103782654,0.9482434391975403,0.0,0.0,0.0,0.0,0.0,0.0
1046,1724915325889928106,-0.47859400510787964,0.08859381824731827,0.16205531358718872,0.03347529470920563,-0.001624198746867478,-0.31652969121932983,0.9479904174804688,0.0,0.0,0.0,0.0,0.0,0.0
1048,1724915325899684875,-0.4785153865814209,0.08826616406440735,0.16186249256134033,0.03325454518198967,-0.0017239183653146029,-0.3175218999385834,0.9476661682128906,0.0,0.0,0.0,0.0,0.0,0.0
1050,1724915325910150339,-0.47843295335769653,0.08797625452280045,0.16166485846042633,0.034589216113090515,-0.001126274699345231,-0.31867748498916626,0.9472312331199646,0.0,0.0,0.0,0.0,0.0,0.0
1052,1724915325919251853,-0.4784258306026459,0.08766119182109833,0.16148220002651215,0.03478923812508583,-0.001039995113387704,-0.32040610909461975,0.9466407895088196,0.0,0.0,0.0,0.0,0.0,0.0
1054,1724915325930232902,-0.4783949553966522,0.08726911246776581,0.16135428845882416,0.034222494810819626,-0.0008387398556806147,-0.32322147488594055,0.9457040429115295,0.0,0.0,0.0,0.0,0.0,0.0
1056,1724915325940707264,-0.47835344076156616,0.08702553063631058,0.16112785041332245,0.03387152776122093,-0.0005844836123287678,-0.32559964060783386,0.9449006915092468,0.0,0.0,0.0,0.0,0.0,0.0
1058,1724915325952691501,-0.47822868824005127,0.08694769442081451,0.16075299680233002,0.03551127389073372,0.0004299784195609391,-0.32616785168647766,0.944644570350647,0.0,0.0,0.0,0.0,0.0,0.0
1060,1724915325959415502,-0.4781116843223572,0.08680570870637894,0.1603865623474121,0.037425264716148376,0.0012628795811906457,-0.32686105370521545,0.9443302154541016,0.0,0.0,0.0,0.0,0.0,0.0
1062,1724915325969627232,-0.47800084948539734,0.08656174689531326,0.16022300720214844,0.039133522659540176,0.0014421227388083935,-0.3283897936344147,0.9437301754951477,0.0,0.0,0.0,0.0,0.0,0.0
1064,1724915325980067924,-0.4779086410999298,0.0863967165350914,0.16009899973869324,0.04040948301553726,0.003044953104108572,-0.3299412429332733,0.9431313276290894,0.0,0.0,0.0,0.0,0.0,0.0
1066,1724915325989861996,-0.4779929220676422,0.08620098233222961,0.16013053059577942,0.03862312436103821,0.002236258704215288,-0.3322656452655792,0.942392110824585,0.0,0.0,0.0,0.0,0.0,0.0
1068,1724915325999090106,-0.4780043065547943,0.08606068044900894,0.16007888317108154,0.03803946077823639,0.001905880868434906,-0.3336544930934906,0.9419257640838623,0.0,0.0,0.0,0.0,0.0,0.0
1070,1724915326009431958,-0.47801709175109863,0.08585172146558762,0.16008126735687256,0.03726928308606148,0.0021180452313274145,-0.335527628660202,0.9412904977798462,0.0,0.0,0.0,0.0,0.0,0.0
1072,1724915326021471180,-0.4780360460281372,0.08577856421470642,0.1601080745458603,0.03689153492450714,0.001834890921600163,-0.33741000294685364,0.9406328797340393,0.0,0.0,0.0,0.0,0.0,0.0
1074,1724915326029328059,-0.4780212640762329,0.08570348471403122,0.16009747982025146,0.036461491137742996,0.0014980494743213058,-0.3388732969760895,0.9401240944862366,0.0,0.0,0.0,0.0,0.0,0.0
1076,1724915326039967427,-0.4779529571533203,0.08555785566568375,0.1602115035057068,0.03641466796398163,0.0016809660010039806,-0.34064561128616333,0.9394848942756653,0.0,0.0,0.0,0.0,0.0,0.0
1078,1724915326050419931,-0.47783970832824707,0.08545875549316406,0.1602286547422409,0.037294674664735794,0.002205454045906663,-0.3419133424758911,0.9389886260032654,0.0,0.0,0.0,0.0,0.0,0.0
1080,1724915326059213484,-0.4776841700077057,0.08539962023496628,0.16004346311092377,0.037722378969192505,0.0016531820874661207,-0.34212857484817505,0.9388942718505859,0.0,0.0,0.0,0.0,0.0,0.0
1082,1724915326071254899,-0.47759339213371277,0.08533717691898346,0.15987640619277954,0.03586414083838463,0.0011073731584474444,-0.34350717067718506,0.938464343547821,0.0,0.0,0.0,0.0,0.0,0.0
1084,1724915326081036030,-0.477399080991745,0.0853303074836731,0.1599079817533493,0.035876885056495667,0.0016932187136262655,-0.34555718302726746,0.937710165977478,0.0,0.0,0.0,0.0,0.0,0.0
1086,1724915326089658022,-0.47722163796424866,0.08523085713386536,0.15984871983528137,0.036854829639196396,0.002431942382827401,-0.34747859835624695,0.9369602799415588,0.0,0.0,0.0,0.0,0.0,0.0
1088,1724915326099439978,-0.47694694995880127,0.08514493703842163,0.1601356714963913,0.037316545844078064,0.003449588781222701,-0.3505854606628418,0.9357807040214539,0.0,0.0,0.0,0.0,0.0,0.0
1090,1724915326109895599,-0.4767177104949951,0.08517900854349136,0.1602950543165207,0.03712631016969681,0.004172664135694504,-0.35264214873313904,0.93501216173172,0.0,0.0,0.0,0.0,0.0,0.0
1092,1724915326121282775,-0.47653383016586304,0.08509661257266998,0.1602713018655777,0.03704912215471268,0.004196721129119396,-0.35422849655151367,0.934415340423584,0.0,0.0,0.0,0.0,0.0,0.0
1094,1724915326129686548,-0.47644293308258057,0.08512993156909943,0.1603681594133377,0.03662781044840813,0.0051503367722034454,-0.35724490880966187,0.9332781434059143,0.0,0.0,0.0,0.0,0.0,0.0
1096,1724915326142476143,-0.47631967067718506,0.08513638377189636,0.1604495346546173,0.036265403032302856,0.0055197919718921185,-0.359172523021698,0.9325500726699829,0.0,0.0,0.0,0.0,0.0,0.0
1098,1724915326151583372,-0.476215124130249,0.08518999814987183,0.160615473985672,0.035666193813085556,0.005403553601354361,-0.3611152470111847,0.931823194026947,0.0,0.0,0.0,0.0,0.0,0.0
1100,1724915326159524266,-0.4761086702346802,0.08523157238960266,0.16074609756469727,0.03524389490485191,0.005990101955831051,-0.3629170060157776,0.9311354756355286,0.0,0.0,0.0,0.0,0.0,0.0
1102,1724915326169309546,-0.4760274887084961,0.085190549492836,0.16070856153964996,0.03479296714067459,0.005848339293152094,-0.364085853099823,0.930696964263916,0.0,0.0,0.0,0.0,0.0,0.0
1104,1724915326180857863,-0.47588619589805603,0.0850578099489212,0.1604209989309311,0.036073699593544006,0.004052592441439629,-0.3639669418334961,0.9307042360305786,0.0,0.0,0.0,0.0,0.0,0.0
1106,1724915326190267349,-0.4759422838687897,0.08512408286333084,0.16044387221336365,0.03632546588778496,0.005043562967330217,-0.3657881021499634,0.9299753308296204,0.0,0.0,0.0,0.0,0.0,0.0
1108,1724915326199453726,-0.4759623408317566,0.0851064920425415,0.1602839082479477,0.03691486269235611,0.0035346350632607937,-0.3663448393344879,0.9297400116920471,0.0,0.0,0.0,0.0,0.0,0.0
1110,1724915326209293396,-0.47597822546958923,0.08521964401006699,0.16033582389354706,0.036055777221918106,0.0035748446825891733,-0.36758631467819214,0.9292833209037781,0.0,0.0,0.0,0.0,0.0,0.0
1112,1724915326220181843,-0.4759516716003418,0.08544739335775375,0.16054655611515045,0.03683784604072571,0.004564942326396704,-0.36920619010925293,0.9286059737205505,0.0,0.0,0.0,0.0,0.0,0.0
1114,1724915326229857212,-0.47605040669441223,0.08560001105070114,0.16071093082427979,0.036277882754802704,0.0038084518164396286,-0.3702521324157715,0.9282148480415344,0.0,0.0,0.0,0.0,0.0,0.0
1116,1724915326242123405,-0.4761006534099579,0.08588901162147522,0.161027193069458,0.03629402443766594,0.003751342184841633,-0.3714998662471771,0.9277158379554749,0.0,0.0,0.0,0.0,0.0,0.0
1118,1724915326250280651,-0.4761746823787689,0.08619611710309982,0.16141954064369202,0.03601027652621269,0.00406293710693717,-0.3727802634239197,0.9272117614746094,0.0,0.0,0.0,0.0,0.0,0.0
1120,1724915326259364460,-0.4762333035469055,0.08657921105623245,0.1618092656135559,0.03532944619655609,0.004630992189049721,-0.37385955452919006,0.9268006086349487,0.0,0.0,0.0,0.0,0.0,0.0
1122,1724915326275149062,-0.4762769043445587,0.08697610348463058,0.16236358880996704,0.03405890241265297,0.00508104870095849,-0.37539148330688477,0.9262264966964722,0.0,0.0,0.0,0.0,0.0,0.0
1124,1724915326282969703,-0.47640156745910645,0.08731906116008759,0.1627735048532486,0.03245920315384865,0.00441473675891757,-0.3753379285335541,0.9263089895248413,0.0,0.0,0.0,0.0,0.0,0.0
1126,1724915326289552319,-0.47645285725593567,0.08774799108505249,0.1634124368429184,0.03066987171769142,0.00411832332611084,-0.37588125467300415,0.9261510372161865,0.0,0.0,0.0,0.0,0.0,0.0
1128,1724915326302864339,-0.4765598773956299,0.08807162940502167,0.1641203761100769,0.027532201260328293,0.0027148777153342962,-0.37730172276496887,0.9256770610809326,0.0,0.0,0.0,0.0,0.0,0.0
1130,1724915326309236511,-0.4764699935913086,0.0886036604642868,0.16479666531085968,0.02758902497589588,0.0034319418482482433,-0.3796199560165405,0.924724817276001,0.0,0.0,0.0,0.0,0.0,0.0
1132,1724915326319536088,-0.4764484167098999,0.08915974944829941,0.16530749201774597,0.026836901903152466,0.002661441918462515,-0.38001134991645813,0.9245885610580444,0.0,0.0,0.0,0.0,0.0,0.0
1134,1724915326330387315,-0.47636404633522034,0.0895758867263794,0.1660013198852539,0.02628772146999836,0.0019047888927161694,-0.38016507029533386,0.924543023109436,0.0,0.0,0.0,0.0,0.0,0.0
1136,1724915326339793405,-0.47623705863952637,0.09008477628231049,0.16677771508693695,0.025373760610818863,0.0017585158348083496,-0.38083359599113464,0.9242937564849854,0.0,0.0,0.0,0.0,0.0,0.0
1138,1724915326349501821,-0.47613829374313354,0.09072063863277435,0.16761881113052368,0.023574210703372955,0.002229460049420595,-0.3820786476135254,0.9238265156745911,0.0,0.0,0.0,0.0,0.0,0.0
1140,1724915326359273643,-0.4759388566017151,0.09133404493331909,0.16832038760185242,0.022843364626169205,0.002657700330018997,-0.3835816979408264,0.9232206344604492,0.0,0.0,0.0,0.0,0.0,0.0
1142,1724915326369331700,-0.4758351445198059,0.09203224629163742,0.16934946179389954,0.02046900801360607,0.0023851769510656595,-0.38604289293289185,0.9222505688667297,0.0,0.0,0.0,0.0,0.0,0.0
1144,1724915326380220186,-0.4756535589694977,0.0925990492105484,0.17025576531887054,0.01989888586103916,0.0013661666307598352,-0.3871835470199585,0.921786904335022,0.0,0.0,0.0,0.0,0.0,0.0
1146,1724915326392346412,-0.47545695304870605,0.09329663962125778,0.17110149562358856,0.01935650408267975,0.002193627180531621,-0.3884502649307251,0.9212638139724731,0.0,0.0,0.0,0.0,0.0,0.0
1148,1724915326399248321,-0.47536346316337585,0.09402691572904587,0.17155955731868744,0.018583593890070915,0.001750629278831184,-0.38788411021232605,0.9215191602706909,0.0,0.0,0.0,0.0,0.0,0.0
1150,1724915326410052668,-0.47527289390563965,0.095018669962883,0.17188474535942078,0.017168940976262093,0.00033396435901522636,-0.3871400058269501,0.9218610525131226,0.0,0.0,0.0,0.0,0.0,0.0
1152,1724915326419417961,-0.47520649433135986,0.09602981805801392,0.17238865792751312,0.014260693453252316,-0.0011040100362151861,-0.3874388039112091,0.921784520149231,0.0,0.0,0.0,0.0,0.0,0.0
1154,1724915326429445430,-0.4750388264656067,0.09723411500453949,0.17315725982189178,0.013278997503221035,-0.0012936224229633808,-0.38911476731300354,0.921092689037323,0.0,0.0,0.0,0.0,0.0,0.0
1156,1724915326471134718,-0.47487473487854004,0.09856582432985306,0.17385828495025635,0.01204694714397192,-0.0017320218030363321,-0.39033764600753784,0.920591413974762,0.0,0.0,0.0,0.0,0.0,0.0
1158,1724915326471416884,-0.47483566403388977,0.09968504309654236,0.17413905262947083,0.010886377654969692,-0.004113431088626385,-0.38974177837371826,0.9208506941795349,0.0,0.0,0.0,0.0,0.0,0.0
1160,1724915326471656231,-0.4745563864707947,0.10118573904037476,0.17482031881809235,0.010924316942691803,-0.004195643588900566,-0.3908103108406067,0.9203969240188599,0.0,0.0,0.0,0.0,0.0,0.0
1162,1724915326471907539,-0.47415709495544434,0.10287963598966599,0.1748514622449875,0.00716237211599946,-0.0058150324039161205,-0.3902876079082489,0.9206467866897583,0.0,0.0,0.0,0.0,0.0,0.0
1164,1724915326485612783,-0.4738632142543793,0.10438477993011475,0.17492946982383728,0.003749136347323656,-0.006910502910614014,-0.3907778859138489,0.9204514622688293,0.0,0.0,0.0,0.0,0.0,0.0
1166,1724915326489540281,-0.47367388010025024,0.10581953078508377,0.17497994005680084,0.0011414693435654044,-0.007715316955000162,-0.39152443408966064,0.9201346635818481,0.0,0.0,0.0,0.0,0.0,0.0
1168,1724915326499106285,-0.4734781086444855,0.10715733468532562,0.1749725490808487,-0.0006929411902092397,-0.008180363103747368,-0.39121580123901367,0.9202623963356018,0.0,0.0,0.0,0.0,0.0,0.0
1170,1724915326509755156,-0.47319427132606506,0.10840395092964172,0.1750107854604721,-0.0005418017390184104,-0.009284027852118015,-0.3924832344055176,0.9197121858596802,0.0,0.0,0.0,0.0,0.0,0.0
1172,1724915326520082836,-0.47296735644340515,0.11011932790279388,0.17495790123939514,-0.0028935279697179794,-0.007726790849119425,-0.39313840866088867,0.9194424152374268,0.0,0.0,0.0,0.0,0.0,0.0
1174,1724915326530003592,-0.47298717498779297,0.11153526604175568,0.17480890452861786,-0.007094253320246935,-0.009392287582159042,-0.39243558049201965,0.9197041392326355,0.0,0.0,0.0,0.0,0.0,0.0
1176,1724915326539853615,-0.47291865944862366,0.11267051100730896,0.17476466298103333,-0.011321250349283218,-0.01162030640989542,-0.3931989073753357,0.9193103909492493,0.0,0.0,0.0,0.0,0.0,0.0
1178,1724915326550189471,-0.4728127121925354,0.11384200304746628,0.1748320758342743,-0.014120462350547314,-0.012451108545064926,-0.3938717842102051,0.9189726114273071,0.0,0.0,0.0,0.0,0.0,0.0
1180,1724915326559795360,-0.472680926322937,0.11517123878002167,0.17479252815246582,-0.014610780403017998,-0.012763779610395432,-0.3937944173812866,0.9189937710762024,0.0,0.0,0.0,0.0,0.0,0.0
1182,1724915326570265640,-0.47251349687576294,0.11646740883588791,0.17478707432746887,-0.015652073547244072,-0.01417142990976572,-0.39410796761512756,0.9188215732574463,0.0,0.0,0.0,0.0,0.0,0.0
1184,1724915326583545566,-0.47241345047950745,0.11753145605325699,0.1747232973575592,-0.017787935212254524,-0.015105590224266052,-0.3942994773387909,0.9186856746673584,0.0,0.0,0.0,0.0,0.0,0.0
1186,1724915326590039024,-0.47252434492111206,0.11856014281511307,0.17461375892162323,-0.022328916937112808,-0.015817653387784958,-0.39392879605293274,0.9187334775924683,0.0,0.0,0.0,0.0,0.0,0.0
1188,1724915326600309997,-0.472569078207016,0.11951935291290283,0.17467835545539856,-0.025681093335151672,-0.015958283096551895,-0.3935641348361969,0.918799877166748,0.0,0.0,0.0,0.0,0.0,0.0
1190,1724915326609828010,-0.47245264053344727,0.12049704045057297,0.17482168972492218,-0.02586187794804573,-0.015353227965533733,-0.39384424686431885,0.9186849594116211,0.0,0.0,0.0,0.0,0.0,0.0
1192,1724915326623302984,-0.4724770486354828,0.12142955511808395,0.17493554949760437,-0.027984527871012688,-0.016591129824519157,-0.39369046688079834,0.9186671376228333,0.0,0.0,0.0,0.0,0.0,0.0
1194,1724915326630140554,-0.4725205898284912,0.12234923243522644,0.17502351105213165,-0.03137799724936485,-0.017594290897250175,-0.39417290687561035,0.918332040309906,0.0,0.0,0.0,0.0,0.0,0.0
1196,1724915326642333709,-0.4726744592189789,0.12332626432180405,0.17494092881679535,-0.03513422980904579,-0.01773805357515812,-0.39396849274635315,0.9182808995246887,0.0,0.0,0.0,0.0,0.0,0.0
1198,1724915326649798273,-0.47275668382644653,0.12422323226928711,0.17484261095523834,-0.03675335273146629,-0.01839902065694332,-0.3933553695678711,0.9184672832489014,0.0,0.0,0.0,0.0,0.0,0.0
1200,1724915326659670180,-0.4727599620819092,0.12509837746620178,0.17469365894794464,-0.037567682564258575,-0.020422426983714104,-0.39222994446754456,0.9188728332519531,0.0,0.0,0.0,0.0,0.0,0.0
1202,1724915326670430302,-0.4727284610271454,0.12600472569465637,0.17465484142303467,-0.03827857971191406,-0.02179335616528988,-0.3922446668148041,0.9188057780265808,0.0,0.0,0.0,0.0,0.0,0.0
1204,1724915326679466060,-0.47285833954811096,0.1270444095134735,0.17448242008686066,-0.04233032092452049,-0.02166857197880745,-0.3918159604072571,0.9188138246536255,0.0,0.0,0.0,0.0,0.0,0.0
1206,1724915326690389830,-0.47286975383758545,0.12787863612174988,0.17419926822185516,-0.043188080191612244,-0.021709442138671875,-0.39177557826042175,0.9187902212142944,0.0,0.0,0.0,0.0,0.0,0.0
1208,1724915326699234244,-0.472943514585495,0.12863163650035858,0.17377841472625732,-0.04380200803279877,-0.02200915850698948,-0.39146214723587036,0.9188875555992126,0.0,0.0,0.0,0.0,0.0,0.0
1210,1724915326709350530,-0.4731065034866333,0.12931951880455017,0.17341001331806183,-0.045323215425014496,-0.0228178221732378,-0.39105385541915894,0.9189679026603699,0.0,0.0,0.0,0.0,0.0,0.0
1212,1724915326719154391,-0.4733109772205353,0.13011009991168976,0.17304924130439758,-0.047644611448049545,-0.023028548806905746,-0.3911095857620239,0.9188215136528015,0.0,0.0,0.0,0.0,0.0,0.0
1214,1724915326729630798,-0.47357529401779175,0.1309429556131363,0.17238624393939972,-0.05093393102288246,-0.02329234406352043,-0.3898966610431671,0.9191539287567139,0.0,0.0,0.0,0.0,0.0,0.0
1216,1724915326740270326,-0.4736769199371338,0.1317361295223236,0.17176119983196259,-0.05162613093852997,-0.02339896373450756,-0.3891693651676178,0.9194207191467285,0.0,0.0,0.0,0.0,0.0,0.0
1218,1724915326752670975,-0.47369593381881714,0.13257534801959991,0.17126771807670593,-0.05057172849774361,-0.022736692801117897,-0.3898327052593231,0.9192149639129639,0.0,0.0,0.0,0.0,0.0,0.0
1220,1724915326759246489,-0.47372737526893616,0.13331808149814606,0.170669823884964,-0.050501372665166855,-0.02237861417233944,-0.3890497088432312,0.9195592999458313,0.0,0.0,0.0,0.0,0.0,0.0
1222,1724915326769887462,-0.4736107587814331,0.13403840363025665,0.1700809895992279,-0.05043758079409599,-0.023158293217420578,-0.38781461119651794,0.9200650453567505,0.0,0.0,0.0,0.0,0.0,0.0
1224,1724915326779906707,-0.47361481189727783,0.13480360805988312,0.16929364204406738,-0.0524461604654789,-0.02321338653564453,-0.38608211278915405,0.9206797480583191,0.0,0.0,0.0,0.0,0.0,0.0
1226,1724915326789962185,-0.4736259877681732,0.1355355679988861,0.16845577955245972,-0.05331342667341232,-0.023439306765794754,-0.3848158121109009,0.921154260635376,0.0,0.0,0.0,0.0,0.0,0.0
1228,1724915326800175269,-0.4735720157623291,0.13628044724464417,0.16791029274463654,-0.052990756928920746,-0.023732706904411316,-0.38483530282974243,0.92115718126297,0.0,0.0,0.0,0.0,0.0,0.0
1230,1724915326809210861,-0.4735066294670105,0.13696876168251038,0.16752661764621735,-0.05274603143334389,-0.02378593385219574,-0.3850383162498474,0.9210850596427917,0.0,0.0,0.0,0.0,0.0,0.0
1232,1724915326819382164,-0.4735824763774872,0.13751918077468872,0.16695235669612885,-0.05477076396346092,-0.02494661509990692,-0.38415682315826416,0.9213041663169861,0.0,0.0,0.0,0.0,0.0,0.0
1234,1724915326830508799,-0.47358888387680054,0.13807529211044312,0.16648565232753754,-0.0557861365377903,-0.02544245310127735,-0.383785605430603,0.9213843941688538,0.0,0.0,0.0,0.0,0.0,0.0
1236,1724915326839727974,-0.4736975431442261,0.138626366853714,0.16590280830860138,-0.05808800086379051,-0.02570093795657158,-0.38266170024871826,0.9217024445533752,0.0,0.0,0.0,0.0,0.0,0.0
1238,1724915326850566637,-0.4736873507499695,0.13912716507911682,0.16538164019584656,-0.05874150991439819,-0.02548293210566044,-0.3815218210220337,0.9221394658088684,0.0,0.0,0.0,0.0,0.0,0.0
1240,1724915326859366408,-0.47365838289260864,0.1395852118730545,0.1649918407201767,-0.05977323651313782,-0.025404181331396103,-0.3801423907279968,0.922644853591919,0.0,0.0,0.0,0.0,0.0,0.0
1242,1724915326870645455,-0.4736289978027344,0.13999058306217194,0.16465677320957184,-0.059965960681438446,-0.02574875019490719,-0.37820857763290405,0.9234172701835632,0.0,0.0,0.0,0.0,0.0,0.0
1244,1724915326879744727,-0.47355273365974426,0.14026598632335663,0.16438667476177216,-0.059438448399305344,-0.026398254558444023,-0.3762960135936737,0.9242140054702759,0.0,0.0,0.0,0.0,0.0,0.0
1246,1724915326890125846,-0.4735618233680725,0.14052563905715942,0.16411557793617249,-0.059693120419979095,-0.02692820504307747,-0.37424635887145996,0.9250142574310303,0.0,0.0,0.0,0.0,0.0,0.0
1248,1724915326899240497,-0.47356611490249634,0.14078348875045776,0.16387125849723816,-0.05944317951798439,-0.02700899727642536,-0.3721804916858673,0.925861120223999,0.0,0.0,0.0,0.0,0.0,0.0
1250,1724915326909220636,-0.47359371185302734,0.14120474457740784,0.1636439561843872,-0.059509534388780594,-0.027094077318906784,-0.37029150128364563,0.9266114830970764,0.0,0.0,0.0,0.0,0.0,0.0
1252,1724915326919051436,-0.4736405909061432,0.14156118035316467,0.1634417027235031,-0.05955996364355087,-0.027141539379954338,-0.36923080682754517,0.9270299673080444,0.0,0.0,0.0,0.0,0.0,0.0
1254,1724915326929201851,-0.47365954518318176,0.14186224341392517,0.16325914859771729,-0.05960218608379364,-0.027086079120635986,-0.36885130405426025,0.9271799921989441,0.0,0.0,0.0,0.0,0.0,0.0
1256,1724915326940862143,-0.47364673018455505,0.1421375870704651,0.1629488468170166,-0.05892327055335045,-0.027432532981038094,-0.36822614073753357,0.9274616837501526,0.0,0.0,0.0,0.0,0.0,0.0
1258,1724915326953826772,-0.47358930110931396,0.142386332154274,0.16265083849430084,-0.05811595916748047,-0.027309613302350044,-0.3677125871181488,0.9277199506759644,0.0,0.0,0.0,0.0,0.0,0.0
1260,1724915326959746376,-0.47360727190971375,0.1425457000732422,0.16242608428001404,-0.05812252685427666,-0.027469579130411148,-0.3664972186088562,0.9281955361366272,0.0,0.0,0.0,0.0,0.0,0.0
