seq,stamp,px,py,pz,ox,oy,oz,ow,lx,ly,lz,ax,ay,az,timestamp,lyap_z,wx,wy,wz,aa_x,aa_y,aa_z,roll,pitch,yaw,vx,vy,vz,jx,jy,jz,forward_velocity,forward_velocity_1
10650,1724812250434088687,0.103995107114315,-0.5900947451591492,0.1600365340709686,0.0180112980306148,-0.0624097287654876,0.1277986317873001,0.989670753479004,0.0,0.0,0.0,-0.8386721801704371,-0.5066762995451165,0.5107499728876127,0.0,0.1600365340709686,0.0,0.0,0.0,9.426595548106974,-12.327987125425686,19.915652055165214,0.019863788768543878,-0.12848704376464568,0.2555656985773712,0.17039692752570604,0.05923407166054384,0.02450177190320158,130.3838501493944,102.17787503854154,42.92807627282713,0.0,0.0
10652,1724812250444100935,0.1057011634111404,-0.589501678943634,0.1602818518877029,0.0184955578297376,-0.0629788041114807,0.1288048028945922,0.98949533700943,0.0,0.0,0.0,0.4667632627201366,0.516353925453771,0.9405565186940735,0.010012248,0.1602818518877029,0.09438141242334294,-0.12343086444056907,0.1994004474580238,0.1449665672862821,9.637342234300828,-6.191615854836774,0.02055282223618377,-0.1297629602119621,0.2575533238519535,0.16199993366713894,0.05416110289377585,0.029615527297745636,65.00662111682453,72.45826357249175,7.292229882345817,0.1815227095984333,0.14521723444620385
10654,1724812250455895696,0.1074952408671379,-0.5889333486557007,0.1607022136449813,0.0181670542806386,-0.0612538158893585,0.1274451166391372,0.9897856712341307,0.0,0.0,0.0,0.3251090306605988,0.9580391018556833,0.5314200629044938,0.021807009,0.1607022136449813,-0.0328734545544151,0.2954392011121197,-0.23637876357204712,1.2739287858599488,22.832096093240654,-12.624753582131508,0.02051460999465929,-0.12622179608732054,0.2548150002273819,0.18564382495658016,0.074465990847429,0.04668116551669321,705.0187335581032,277.5963143590238,213.3256812012561,0.16256117352224225,0.12960523928684098
10656,1724812250463444938,0.1090587526559829,-0.5882441997528076,0.1611079722642898,0.0181518588215112,-0.0597033649682998,0.12668077647686,0.989978849887848,0.0,0.0,0.0,9.112073760891224,4.214054523087367,3.340243403401519,0.029356251,0.1611079722642898,0.035031043408210845,0.4065303014920236,-0.21416427313167202,6.7662461093104,10.497050063309596,3.10249040243988,0.020973665529320094,-0.12311993729232351,0.2532501135027522,0.17998298008727265,0.07800941169745501,0.04626956315391806,8719.187627949603,4872.893449031326,-2178.7492297653025,0.22828441078939637,0.16978346831809313
10658,1724812250500083084,0.1108297333121299,-0.5877470374107361,0.1614733934402465,0.0160798374563455,-0.0591982863843441,0.1252630650997162,0.990225315093994,0.0,0.0,0.0,1671.9862091133336,972.5204683665731,-530.0534904316273,0.065994397,0.1614733934402465,-0.11334577476863333,0.04102189540105235,-0.07206631851240501,49.759700316243396,2268.431644668792,-3754.0128203415734,0.017141950287156243,-0.12156691156679729,0.250619163223158,2.2674122856334407,0.8982575510756305,0.7722835387715179,-464151.6569384113,-216984.45426958543,-50294.74403235514,0.05103134127879635,0.04196011718553982
10660,1724812250500769094,0.1124137043952941,-0.587119460105896,0.162012979388237,0.0160380136221647,-0.0586343333125114,0.1243548020720481,0.9903740882873536,0.0,0.0,0.0,1347.0286154306514,820.5403664446148,-565.0152137051707,0.066680407,0.162012979388237,-0.07851895051456488,1.6264543845476747,-2.695626021137559,21522.1222570217,13050.741559072145,1128.1891063284154,0.017310559978953546,-0.12041947667781255,0.24877599153242774,3.435156053863892,1.5776205830661638,0.40159858187226405,-635749.459568203,-316915.30646438175,4651.211941417074,2.5397760528757582,1.9064048875794575
10662,1724812250501171532,0.1140620186924934,-0.5863280892372131,0.1620837152004242,0.0185355823487043,-0.0564128905534744,0.124331846833229,0.990462362766266,0.0,0.0,0.0,1052.919666146884,670.4854683866475,-550.0135295721087,0.067082845,0.1620837152004242,13.651855504085528,9.414033671274954,-1.0723760454190325,32232.204181311066,18273.263555339934,3828.5154408018425,0.022846923305451166,-0.11662299981393796,0.2484180492418859,3.893395050390575,1.867757062680262,0.16839172597095242,-701585.3374697183,-358870.63886102184,39228.397309092055,4.443781425316384,3.4358595003072963
10664,1724812250508447182,0.1157626062631607,-0.5857195258140564,0.1623385995626449,0.0187111534178257,-0.054178737103939,0.1237266734242439,0.9906595349311828,0.0,0.0,0.0,-206.4174272462037,-99.81745783924089,-7.923370672299331,0.074358495,0.1623385995626449,0.11377091483463572,0.6022614170107238,-0.18561422572694036,-913.2524892131314,-502.25555067995595,30.735088723538944,0.023818085749064605,-0.11221083384419982,0.24716196107000954,0.27647519105957485,0.10846333072076675,0.04326834883610786,-47624.91675214528,-32055.256860632737,31314.576505620782,0.24946626272868422,0.20093585790464502
10666,1724812250513513810,0.1173141971230506,-0.5850824117660522,0.1625868827104568,0.015647092834115,-0.0531265623867511,0.1227097138762474,0.9908961057662964,0.0,0.0,0.0,-5.038467208411127,-1.7740404373158387,-1.6617484109677896,0.079425123,0.1625868827104568,-1.1703179520688276,0.5586522484573109,-0.3514808132904544,-150.03175659252418,-20.851679140415595,-13.725377197365646,0.01807994991051273,-0.10934366406375892,0.2454302015093268,0.25634612794114897,0.10370340965496716,0.03584573027125737,28541.980654511302,13892.048977582042,889.4644943198116,0.33100460674155646,0.2595261519585457
10668,1724812250526312461,0.118982084095478,-0.5844678282737732,0.162620261311531,0.0173015166074037,-0.0535968355834484,0.1233398839831352,0.9907650351524352,0.0,0.0,0.0,-1.9734965188109737,-0.4581823450688818,-1.4767325348773521,0.092223774,0.162620261311531,0.2527117319457041,-0.10409046204706394,0.08750630093285659,56.395896233419506,-7.367337864483902,-5.747589255744616,0.021193517002297,-0.11069761774930721,0.24653044560801718,0.157409551446535,0.05401604222820566,0.008216716957006653,198.13711572552094,114.3227780304925,37.36431308002807,0.13753880441214042,0.11351280736014421
10670,1724812250535249562,0.1205579414963722,-0.5839476585388184,0.1627286970615387,0.0191300194710493,-0.0528767667710781,0.1225007772445678,0.9908742308616638,0.0,0.0,0.0,-0.4607066610869701,0.6353649380946145,-0.9998406647788578,0.101160875,0.1627286970615387,0.41480278458823505,0.1072442610722633,-0.21377984948440398,19.51595638388724,32.99404029061477,-25.427214712750803,0.02510953977201911,-0.10969519778011949,0.24463106359663592,0.1756979449114322,0.07128949886069691,-0.0007248016771796983,202.54351076288643,72.16483269226438,34.78699208579437,0.1853898054774967,0.15458737913192738
10672,1724812250544410814,0.122161641716957,-0.5831716656684875,0.1626013070344925,0.0216931775212287,-0.0502465553581714,0.1210158094763755,0.9911406636238098,0.0,0.0,0.0,1.7073107353587584,0.825097300958685,-0.8555764193589743,0.110322127,0.1626013070344925,0.6065443993196882,0.4972902171285367,-0.3689238155585832,-15.598425840709176,10.799856368199471,-2.527975124972302,0.031016643975652056,-0.10504632976258522,0.24136156006773446,0.14793350886882717,0.0649261730970494,-0.00987845563597567,165.9282123809469,0.3477697337126493,-4.463533600958158,0.1877180747743694,0.14984934418063092
10674,1724812250558480267,0.1236570179462432,-0.5826855301856995,0.1625493317842483,0.0189536102116107,-0.0508349239826202,0.1202176287770271,0.9912641048431396,0.0,0.0,0.0,2.5137094536950357,0.3900116459648917,-1.355074789067249,0.12439158,0.1625493317842483,-0.4021879357548647,-0.03734867202692521,-0.09319911465294185,22.27299323921816,34.4363692706099,-39.692129076811504,0.025498168133599296,-0.10553457730855527,0.24002866182525368,0.2743284976784146,0.10937113944720522,-0.018813271073728544,-1041.3687373171692,-448.6029713303379,40.02788189719436,0.11044321223564607,0.09471767276495738
10676,1724812250563426944,0.1253062933683395,-0.5820143818855286,0.1624299734830856,0.0186107195913791,-0.0502197593450546,0.1192508041858673,0.9914186000823976,0.0,0.0,0.0,-4.548438690274997,-2.555510001765237,-1.025707529963522,0.129338257,0.1624299734830856,-0.12857852931491306,0.25897832358217554,-0.3926596931070465,48.92556739194141,32.10176733296794,-27.74685493089097,0.025063095799863315,-0.10420477816044074,0.2381086964507546,0.2755104828138908,0.10648462632614297,-0.02676865538693196,482.7619477645236,-59.3473772972294,-236.08604618394355,0.35156431049029996,0.2922069233391185
10678,1724812250573603907,0.1268978714942932,-0.581541895866394,0.1621022820472717,0.0197942852973938,-0.0500598549842834,0.1193693801760673,0.9913895726203918,0.0,0.0,0.0,40.363783621505945,8.065207873784487,-9.76546192960127,0.13951522,0.1621022820472717,0.23562488310613042,0.0035649196329681273,0.011517320098395052,20.462675385616386,-17.279001091895044,26.595057862033343,0.027448694490438463,-0.10417160431159415,0.23822750146826563,0.12898579714291047,0.039189062986075385,-0.025010777033978027,-438.7680440626332,-91.61588390487498,148.0497501713054,0.15869792097856544,0.14311299917960138
10680,1724812250596189732,0.1284374743700027,-0.5810195803642273,0.1618977189064026,0.0190254468470811,-0.0500863716006279,0.1188219636678695,0.9914690256118774,0.0,0.0,0.0,-212.74698329957573,-50.90681519303098,44.04553984218023,0.162101045,0.1618977189064026,-0.07034146425243464,0.00519167743629542,-0.045442170357407635,225.14173349460717,7905.383625478927,-12645.487290986504,0.02596683754970899,-0.10402697576564501,0.23719907398308332,3.78554946321168,0.957069367614622,-0.7437229573428681,-33629.15804796934,-8392.774019951685,6689.487393220756,0.07036417799329574,0.06126560740209253
10682,1724812250596589143,0.1299757212400436,-0.5806307196617126,0.1615954786539077,0.0190051384270191,-0.049428854137659,0.1178075820207595,0.9916234612464904,0.0,0.0,0.0,-226.33721475360275,-54.29981939027337,46.747815899889225,0.162500456,0.1615954786539077,0.021268535747169248,3.2185259852993644,-5.185489218337256,219.6862009788836,7697.33439285531,-12311.136641929103,0.026186616791434938,-0.10268789716010096,0.23515123116124975,3.69792978102765,0.936090010728909,-0.7255948177982108,-32911.85707204612,-8215.022287568872,6555.436685190787,3.873639800449189,3.5670608171824965
10684,1724812250605781819,0.1315228193998336,-0.5799586176872253,0.1615095436573028,0.0188398342579603,-0.047664750367403,0.1164092496037483,0.991878092288971,0.0,0.0,0.0,-293.2281121690671,-70.57752989783833,62.53344356581514,0.171693132,0.1615095436573028,-0.006538239781227219,0.38178467088786955,-0.31372212823436063,-2.7049460714530063,-250.58394374410352,428.48511663106717,0.02640903918963766,-0.09910365059038663,0.23234630351070304,0.1436702506528268,0.06157814833211139,-0.007981374047087653,-958.4783016270271,2311.49553345136,-1494.441437681222,0.17879840456698154,0.14679874095248083
10686,1724812250643911648,0.1331060826778412,-0.5794349312782288,0.16142138838768,0.0177438259124755,-0.0477745123207569,0.1158852130174636,0.9919543862342834,0.0,0.0,0.0,669.4698392325645,663.190336072933,-502.39154783263757,0.209822961,0.16142138838768,-0.059077076471045424,0.0006545427510786137,-0.02488093346653579,13567.748263858213,891.9995487332171,-9397.627256250564,0.02425065239019303,-0.09905467330964715,0.23139386383721186,3.736710539607259,1.253824828187362,-0.0797921600745326,-1299076.148358712,-838609.2178477066,-215809.28746748436,0.043123828006612644,0.03724690133681939
10688,1724812250644308221,0.134603202342987,-0.5789325833320618,0.1613894253969192,0.0188291929662227,-0.0475671254098415,0.1151917427778244,0.9920250177383424,0.0,0.0,0.0,148.82901204973132,327.0822649562838,-588.8047012319771,0.210219534,0.1613894253969192,5.377492720722143,0.35811784542938574,-3.790518828827147,306.10062367717524,11677.74693580775,-7438.281320452406,0.026532063752561327,-0.09887451557550485,0.22988732133983902,4.004576826970151,1.519434633398646,-0.2810914776495963,-1936657.2943487982,-1381363.1703324679,179777.77800824773,3.9371528170660692,3.3733565931788596
10690,1724812250644665095,0.1361060142517089,-0.578309178352356,0.1612247228622436,0.0189234130084514,-0.0461096055805683,0.1142045184969902,0.9922062158584596,0.0,0.0,0.0,-742.6487874338591,-337.32991302079427,-396.93291982632064,0.210576408,0.1612247228622436,1.1824433990012013,7.986422103256434,-5.784391189231979,-5690.8135427310735,-1562.6438094275377,5152.101417949693,0.02714824982070893,-0.09597000306810936,0.22789080934061567,3.8885653350287157,1.5261102834917892,-0.517300302170355,-1824629.5257272846,-1422330.7600142076,642240.1082283201,4.4319051128538005,3.7245899060981205
10692,1724812250645053262,0.1374792754650116,-0.5778099894523621,0.161000370979309,0.0192631464451551,-0.0465221665799617,0.1143541187047958,0.9921632409095764,0.0,0.0,0.0,-1166.6023223862082,-703.904853005995,-103.47634092373022,0.210964575,0.161000370979309,1.5337755998291054,-2.3046538886581436,0.7495963172388919,870.8458662761519,-25620.958101770226,16269.594129993458,0.027717854999658106,-0.09687224828127097,0.22815839651886036,3.4239930721970793,1.244850208254793,-0.559513597846562,-1052687.8008018064,-910941.1667924321,731175.1455725853,3.6635795184826834,3.186656856010089
10694,1724812250656311502,0.1388627290725708,-0.5772369503974915,0.1607303172349929,0.0199899077415466,-0.0453406050801277,0.1142536476254463,0.992215096950531,0.0,0.0,0.0,-118.18788148304526,-42.594693464811144,20.264760838689188,0.222222815,0.1607303172349929,0.15109097414933959,0.19357746960663957,-0.02881174426336787,-47.062478083137535,95.3618919498669,-67.86859689783884,0.029444039298167322,-0.0946845190242485,0.22789521421985917,0.16231064487353208,0.072873362952528,-0.002356852314649771,46808.94000113762,27109.41327026591,2860.7840746144498,0.12835046226136457,0.10958623914426811
10696,1724812250664039508,0.1403262168169021,-0.5765572190284729,0.1608268469572067,0.0206966754049062,-0.0442206859588623,0.1122110486030578,0.9924841523170472,0.0,0.0,0.0,-2.138620115552593,-0.8856760610800358,-0.7566351768120063,0.229950821,0.1608268469572067,0.18924139621700642,0.25926937505688763,-0.546549911448782,-4.069023993415023,-12.66655019705616,-13.069063135807049,0.031297185468243574,-0.09255353275945286,0.223715930254214,0.15886204587449537,0.06996840006863891,-0.000776674183252446,8364.656346557127,3027.9025077886145,-1506.7159214960045,0.20444951560177596,0.1630744757185225
10698,1724812250673792256,0.1415000110864639,-0.57609623670578,0.1606559753417968,0.0209545474499464,-0.0448023974895477,0.1121569946408271,0.9924588799476624,0.0,0.0,0.0,-2.4335931267464606,-0.5156385471014984,-0.5162449602472761,0.239703569,0.1606559753417968,0.03871569488364179,-0.12478777608636507,-0.010289540098024425,-13.42644530097324,-7.042373449413607,27.006435431757918,0.03168772893055603,-0.0937668152135797,0.22357675644890154,0.11717493846542393,0.05505632299754737,-0.01998525564969622,44.16265308057972,28.19423958791972,77.25040579970064,0.12563762673550566,0.10770841522202153
10700,1724812250684075910,0.1426705121994018,-0.5754455924034119,0.1604237258434295,0.0204784087836742,-0.044060256332159,0.1119721233844757,0.9925228953361512,0.0,0.0,0.0,-1.172601944953377,-0.33139680876006805,0.8485586187098101,0.249987223,0.1604237258434295,-0.07758639382915186,0.15343593104816955,-0.03595530769652608,-1.1658594094362826,11.896359434799024,-14.937396593236599,0.030919710185864743,-0.09217812938960097,0.22325517295677147,0.11210938278392746,0.06074215907396052,-0.009535221148082584,148.85320914820636,44.11849798918696,12.949507184062952,0.1223954065869077,0.09822002017677572
10702,1724812250694150160,0.1437830328941345,-0.5748586058616638,0.1604564487934112,0.0205311253666877,-0.0434038788080215,0.1104411482810974,0.99272221326828,0.0,0.0,0.0,0.585871781190582,0.3716595042889921,-0.20297173576065186,0.260061473,0.1604564487934112,0.010776292257837225,0.1236810676982432,-0.3092260302847142,0.0713488188900282,-5.6787113185152736,-8.21052479882093,0.03131043918104793,-0.09083581645680684,0.22016728940055502,0.09358511827549876,0.04867635862159503,-0.0026408946860660976,114.08688707404689,59.09277609102384,-59.714270210419684,0.12028915955612689,0.0941767905412155
10704,1724812250708272625,0.1447711586952209,-0.5743610262870789,0.1603025645017624,0.0194300897419452,-0.0435949973762035,0.1100349202752113,0.992781102657318,0.0,0.0,0.0,1.0000207438637432,0.9944681782094253,-0.16205786753966933,0.274183938,0.1603025645017624,-0.16044944179000853,-0.01046733690170557,-0.050708184546938574,-2.453743033598844,45.72101522355108,-24.799333771185005,0.029110148625291057,-0.09096194165053222,0.21944403833036805,0.14986076023716066,0.08499410121547157,-0.023074051079976954,-416.10616547469385,-237.82616249776754,139.57059829111233,0.07465641131437009,0.061147231644152145
10706,1724812250713552077,0.1457200199365615,-0.5738140940666199,0.160156711935997,0.0189576242119073,-0.0427353456616401,0.1093355566263198,0.9929048418998718,0.0,0.0,0.0,-2.0759120952630603,-0.8175445296003245,0.844542266929622,0.27946339,0.160156711935997,-0.15431759320021404,0.33989868551140473,-0.2667082222218191,9.957810186611358,33.61696049858644,-20.717483799424166,0.028417855150237818,-0.08912770251186672,0.21808262746851284,0.14924939028213657,0.08713160566271583,-0.02139390558162635,-422.3067276070009,-251.1738600474892,127.32869624904893,0.194639659545038,0.15434303848480418
10708,1724812250724416539,0.1466601192951202,-0.5732355713844299,0.160063624382019,0.0197949539870023,-0.042787529528141,0.109150543808937,0.99290668964386,0.0,0.0,0.0,-3.079729066816846,-1.4884745480180208,0.8118722741224994,0.290327852,0.160063624382019,0.150535133783727,-0.02702240943838891,-0.04025904670673725,8.434981249081071,-11.62130746181624,1.9422074560534668,0.030093244425919458,-0.08940838064383633,0.21763508620058034,0.08287211540343797,0.050918962776449916,-0.0004515407622989187,84.83439577448674,49.8270749914964,-90.54010651120909,0.09483776886901923,0.07321003743332782
10710,1724812250735288022,0.1475212723016739,-0.5727073550224304,0.1601470112800598,0.0199503954499959,-0.0422734059393405,0.1079535037279129,0.9930564761161804,0.0,0.0,0.0,-0.22946688175446983,0.2670613674472899,-1.1246620448123539,0.301199335,0.1601470112800598,0.028749037020304763,0.08760973460389408,-0.22475800000815593,-17.069915178016284,7.39220597397329,-7.9012696036714685,0.030620898978283077,-0.08838220933581264,0.21521210777008123,0.08235112755265384,0.05480411574696831,-0.0037627666313326813,111.65012547656528,47.24396653948687,-93.05399897646447,0.08809530262023735,0.06597230820597147
10712,1724812250743974700,0.1482584178447723,-0.572188138961792,0.1600349694490432,0.0192405357956886,-0.0417680628597736,0.1069412976503372,0.9932013154029846,0.0,0.0,0.0,-0.30440306912423054,-0.11545727305104592,-1.342486137433617,0.309886013,0.1600349694490432,-0.1602583105485481,0.12994495550646157,-0.23044190608595358,11.086355413952193,3.3270262220525253,8.572287013624775,0.02940190627476221,-0.08719384944607515,0.21323747621273823,0.07909773241186357,0.0564971574440456,-0.019224495383419082,-15.435642088069203,-33.9107480539964,30.85529476955486,0.09410014497469013,0.07084606145336914
10714,1724812250755239480,0.1490652710199356,-0.571599543094635,0.1597259938716888,0.0216391626745462,-0.0406901240348815,0.107066236436367,0.9931831955909728,0.0,0.0,0.0,-0.5777494044878084,-0.34955769225396693,-0.17786701798297977,0.321150793,0.1597259938716888,0.44442281765362684,0.1448310659490068,0.0009056553328526775,6.300931515870966,-15.355867627627184,11.621041038067027,0.03440284641156876,-0.0855635074019797,0.21329992749853666,0.07669307089675037,0.050662834036337756,-0.0279570284716133,-64.82160892835172,-16.48638203163329,88.64756667014703,0.0784232084312354,0.060632321831794116
10716,1724812250764005259,0.1497721076011657,-0.5711662769317627,0.1594773232936859,0.0224484875798225,-0.0410619564354419,0.1072704792022705,0.993127942085266,0.0,0.0,0.0,-1.422600569516955,-0.4647751372681621,0.498665592429393,0.329916572,0.1594773232936859,0.17648254720013828,-0.10353391137035971,0.04195425845107278,-22.628198091714108,-12.48334624516244,2.121210078569291,0.03592091401453738,-0.08648343947721357,0.21363682524488714,0.06914381990579432,0.04874715652671924,-0.02544162102027947,442.17619072306564,646.4240721606575,102.55943597146302,0.08649803406322355,0.07006296403387732
10718,1724812250775750186,0.1504033505916595,-0.5706044435501099,0.1592245697975158,0.0226503927260637,-0.0410472229123115,0.1074338555335998,0.9931063055992126,0.0,0.0,0.0,12.245764319216145,17.506768779459595,2.102622330698465,0.341661499,0.1592245697975158,0.03563962086057274,-0.000723218320146274,0.02655668959299055,-9.000840060336072,6.523934596729351,-1.4630576912176658,0.03631249765162338,-0.0865031905282676,0.21394938960320808,0.04360125075576238,0.03941351704213236,-0.016253273008131952,3885.930107222346,1725.7296455566773,-7086.234116300463,0.06058363839442733,0.043677440453456215
10720,1724812250807783344,0.1509137153625488,-0.5700777769088745,0.15916408598423,0.0227865483611822,-0.0408061370253562,0.1069100275635719,0.9931696653366088,0.0,0.0,0.0,374.55252126720006,89.87428926496523,-855.9287723861958,0.373694657,0.15916408598423,0.008627372907842022,0.013456807581407194,-0.033594773371000315,1194.363681293538,23424.251222323222,-27014.152334430568,0.03668050650861957,-0.08603314862631939,0.21288573779759246,1.6957561046802994,2.1991611330633987,0.16645126136188537,-678958.5662103649,-823951.9541136848,46264.56174152065,0.018813771612572024,0.012136927102364494
10722,1724812250808067887,0.151400476694107,-0.5694465041160583,0.1592118740081787,0.0227789226919412,-0.0398234389722347,0.1058332771062851,0.9933250546455384,0.0,0.0,0.0,179.61493958218807,-146.66374368795368,-842.5798785123957,0.3739792,0.1592118740081787,0.3514961174439949,6.73786786614926,-7.788557014041331,36707.10312051091,9922.51206672956,-8244.432455041508,0.03696328631349823,-0.08403565037016607,0.2107338700695567,1.8031487340902572,2.224790981119895,-0.07927507968855707,-721076.4498725936,-833934.4607053762,142593.1126649757,2.143460228612264,1.183969427260962
10724,1724812250808311103,0.1518582552671432,-0.5689041018486023,0.1591411978006363,0.0247385036200284,-0.0388315953314304,0.1052254661917686,0.9933819770812988,0.0,0.0,0.0,-3.243648153003368,-350.0395015493274,-788.007979767468,0.374222416,0.1591411978006363,16.659834408373392,6.301031483462506,-5.841790662710338,64103.64022161297,-1767.8765422123843,7711.218970962648,0.041128690140050266,-0.08244883522035594,0.20936921408945272,1.8057117043760071,2.139904344765009,-0.2798377349195511,-721836.2005838335,-800301.6337727313,221166.39656494808,2.2728420229589714,1.385227656763071
10726,1724812250813846613,0.1522186547517776,-0.5684252977371216,0.1589468270540237,0.0245615411549806,-0.0386549793183803,0.1050131916999816,0.9934157133102416,0.0,0.0,0.0,-219.39067025480998,-258.1737527894788,31.86098604997362,0.379757926,0.1589468270540237,-0.06007914792830873,0.06869350806622002,-0.0765664033846754,-2080.175719904999,-775.7055622451422,719.3559107384376,0.040829746677525446,-0.0820515364184291,0.20895992804494187,0.05147901421564027,0.07349701108213047,-0.028280326535977895,-21457.334671472705,17928.554157228158,101423.38415809114,0.0784811731322657,0.04778065359306903
10728,1724812250826173443,0.1524791419506073,-0.5678761601448059,0.1587857902050018,0.0251675695180892,-0.0378466807305812,0.1047385483980178,0.9934606552124025,0.0,0.0,0.0,-1.0423981292362448,-0.5848527087232829,0.5111494992313101,0.392084756,0.1587857902050018,0.10954964733646706,0.11914289578582608,-0.05205450828563449,-18.451410768697336,-0.7635862270801619,-8.161735458074894,0.04222741884793872,-0.08055750741990327,0.2083778625538381,0.023882671070097672,0.05127628519057481,-0.008399916221838666,7624.535766977445,8981.468375673048,-1136.7687092286,0.02874222280773746,0.012165405137947925
10730,1724812250835404948,0.1527186334133148,-0.567356288433075,0.1587404906749725,0.0238641612231731,-0.0376006662845611,0.1037920266389846,0.9936015009880066,0.0,0.0,0.0,-0.4041128505441043,-0.04685494373606458,-0.2595353036071907,0.401316261,0.1587404906749725,-0.283482512414403,0.0785206005835395,-0.1975725555172357,-13.721107953307646,1.0470160797245143,-1.3451944487600835,0.03975445179108597,-0.07975851224164157,0.20657943658887554,0.022530468338631593,0.054296240272869056,-0.011297252546000891,22.757784345001546,-3.4245316750927906,-44.28275735544277,0.03643378811852301,0.013936528633395269
10732,1724812250844185856,0.1528879702091217,-0.566896378993988,0.1585879176855087,0.0231072008609771,-0.0370844677090644,0.103390946984291,0.9936805963516236,0.0,0.0,0.0,-0.5916944625886912,-0.592287529245453,-0.3209557230254859,0.410097169,0.1585879176855087,-0.16296903749052785,0.13321281542368466,-0.08896101566401436,10.69848638944865,-0.15341275423855638,9.565479043861377,0.03838172807952614,-0.07855916300128193,0.20584224909944707,0.016830136989701927,0.05076112719159909,-0.013122529492340718,-16.890734158807547,-39.82040848684862,-8.652161163911295,0.028127932760651547,0.009165133273064223
10734,1724812250853418777,0.1530195325613021,-0.5664433836936951,0.1585080474615097,0.02264941111207,-0.0368057787418365,0.1032545566558837,0.9937157034873962,0.0,0.0,0.0,-0.7042330614332686,-0.7434986431140453,-0.4169307457883658,0.41933009,0.1585080474615097,-0.09356780261187082,0.06983910412311738,-0.027861392004625174,13.313075527244758,-5.907376638709667,6.7548182459493935,0.03753605860384012,-0.07790505003891192,0.20560895938701018,0.011925085295126259,0.043450969361312985,-0.017183758888246636,-7.722482636679484,-4.80526313840743,22.1944404401126,0.023220074738630747,0.004349047341459881
10736,1724812250864353628,0.1531198322772979,-0.5660409331321716,0.1582096368074417,0.0233202408999204,-0.036644160747528,0.1035418659448623,0.9936762452125548,0.0,0.0,0.0,-0.7308356833990213,-0.6461786697760736,0.24781011239661033,0.430264941,0.1582096368074417,0.12707447732269528,0.017630089379998656,0.04777880078104904,7.7020763820346065,-3.7225766256121533,5.640249717466151,0.0388843143224722,-0.07773236362933261,0.20613999599551486,0.001984271675100402,0.03594579145807231,-0.021445837539024737,-86.8395086280721,279.68265794341926,-135.1255468639224,0.014342494181364934,0.003170467971521639
10738,1724812250873868718,0.1530791968107223,-0.5657060146331787,0.1580539643764495,0.0237677376717329,-0.0366493500769138,0.1039873585104942,0.9936189651489258,0.0,0.0,0.0,-2.2559807222354555,4.257017696325738,-2.6600458739385258,0.439780031,0.1580539643764495,0.09706478555246668,-0.009080555203704594,0.09087231698867673,-2.7950794826535676,-2.174627239077518,3.246998324308822,0.03974081427726673,-0.07785268800281381,0.207003215901197,-0.003493771235444365,0.030129981040826426,-0.01380894891260187,-882.681311480095,1120.1317991820163,26.69096946413802,0.0017731691972208208,-0.010391158438565395
10740,1724812250914731256,0.1530727595090866,-0.5653643012046814,0.157937467098236,0.024671196937561,-0.036286111921072,0.1039993017911911,0.9936090707778932,0.0,0.0,0.0,-165.09329900170087,156.16551025372564,56.74321720476746,0.480642569,0.157937467098236,0.045818951206261074,0.013062978145391778,-0.0014119820163716534,-19680.46070454304,2301.6275684384505,12569.8764201758,0.04161589113208417,-0.07731700385186326,0.20696718440350614,-0.3905376289256992,1.0583807892473942,-0.7301458991014442,-1472381.622709449,1201956.5981717238,423921.55734605563,0.0013393809940280082,-0.0017060118233849712
10742,1724812250915009274,0.1529634445905685,-0.5650680661201477,0.1577330976724624,0.0238893982023,-0.0362863428890705,0.1044597178697586,0.9935797452926636,0.0,0.0,0.0,-577.2194556646705,492.5976227535682,175.40016465260942,0.480920587,0.1577330976724624,-5.462927804746955,0.6573095167822774,3.5170208882134313,-5919.86890271446,1868.1386604883098,2670.1285891727143,0.04002089334010519,-0.07717429413222328,0.20795451600679532,-0.43673090528551484,1.1020454101578707,-0.7142297702028486,-1249128.224516803,943663.8456673985,415129.11866990745,-0.22091906906337153,-0.5572678428061322
10744,1724812250915284314,0.1528314799070358,-0.5647550225257874,0.1575423330068588,0.0234143305569887,-0.0361956171691417,0.1046563014388084,0.9935737252235411,0.0,0.0,0.0,-857.3154175254866,679.6447980358303,286.40281261443454,0.481195627,0.1575423330068588,-3.310524231359198,1.0489127891599845,1.5344778345695433,-4754.331536165153,-1925.7937259309315,723.4143784225744,0.03907693752302381,-0.07690272125194843,0.20838894405322017,-0.7073382621247504,1.3288280676282511,-0.6338393769102026,-265059.66472489294,64142.14236978046,188227.71823084718,-0.2865462431628469,-0.6601788036070745
10746,1724812250915584113,0.1525450646877288,-0.5642943382263184,0.1573718339204788,0.0220828913152217,-0.0364424027502536,0.1052528694272041,0.993532121181488,0.0,0.0,0.0,-690.6040377674844,497.59659853664425,272.4566301755367,0.481495426,0.1573718339204788,-8.846883653397219,-0.6230428148313283,4.34330326650491,-17788.38016003069,-5381.264598529466,9026.036144022299,0.03632477166260449,-0.07713844800719956,0.20968692428235106,-0.9229997424856833,1.4852336625116624,-0.5498987096561775,539889.3663684068,-588612.2078640101,-45893.12862763727,-0.6565718258386177,-1.2169675424476134
10748,1724812250923913596,0.1523452699184417,-0.5638206005096436,0.1571451276540756,0.0221786480396986,-0.0371409244835376,0.1058567911386489,0.9934399724006652,0.0,0.0,0.0,60.17020742943527,-95.6924760195552,34.90232516167282,0.489824909,0.1571451276540756,0.010963281767033681,-0.16666202088319879,0.14926504249859052,594.9112057270912,36.0166531716186,-284.5277600558843,0.03632309547823931,-0.07857089547065917,0.21088261989420892,-0.022081073277360197,0.05152993837096176,-0.023826182037662846,47466.33497587775,-35438.37667272584,-17322.93752932246,-0.013650522328197322,-0.033557897419222424
10750,1724812250934307833,0.1521404683589935,-0.5633543133735657,0.1569414585828781,0.0227987878024578,-0.037264909595251,0.1060420274734497,0.99340158700943,0.0,0.0,0.0,0.10505547910055624,0.16793214972619008,0.07463447555812341,0.500219146,0.1569414585828781,0.11750321789461189,-0.035815067281080214,0.032287466936113667,10.99663869685244,12.044013203674115,-3.649842562560128,0.037519070351051474,-0.07895530824743043,0.2112052751774051,-0.019127065896642925,0.048258312112853474,-0.027540710416912972,-2806.8194326861462,4481.77362430764,-1592.891191130393,-0.011375883524460912,-0.027377111270720275
10752,1724812250944126100,0.151958018541336,-0.5628489851951599,0.1565973609685897,0.0238795690238475,-0.0367739982903003,0.1064197421073913,0.993354082107544,0.0,0.0,0.0,0.10878330190213914,0.2050713874535477,0.737247450547492,0.510037413,0.1565973609685897,0.23239652506688432,0.077387385648098,0.0669756558314158,-8.996364190577957,5.017967161290955,-8.58789377679756,0.039746743582346256,-0.07822146098763211,0.2118938350770256,-0.019756996552361628,0.054383647651597755,-0.022801481349571162,5.161310287349876,-10.488341977836537,-4.133443235892763,-0.010058872421303088,-0.02670121831794099
10754,1724812250953531249,0.1517616212368011,-0.5623112320899963,0.1564932316541671,0.0236870869994163,-0.0364716351032257,0.1058458685874939,0.9934311509132384,0.0,0.0,0.0,0.2004058575979173,-0.02214645610683119,0.05310664486019445,0.519442562,0.1564932316541671,-0.03869569445726617,0.06591450478017317,-0.12299714018113109,-10.725941852848578,-4.037231781596467,-4.931907643582605,0.039471103068610486,-0.07755620372679273,0.21075904465032066,-0.01717576424665257,0.05253923250381831,-0.013574191553003878,-7.975371642762774,11.130983385769351,-56.50322430755939,-0.009290763487649388,-0.031734738830753166
10756,1724812250964389714,0.1516215801239013,-0.5617988705635071,0.1563144624233245,0.0240785758942365,-0.0365037582814693,0.1059384122490882,0.9934107661247252,0.0,0.0,0.0,-0.10830244377504317,0.5411250706384658,-0.35686801118829337,0.530301027,0.1563144624233245,0.07171828293663216,-0.013243312908963615,0.014841152279335062,-9.625868808192855,-0.6854227045605659,7.928894390290726,0.04023777924176374,-0.07770632354931092,0.2109148380899292,-0.015927893272435156,0.05447958612300852,-0.02463105081718453,-15.754010073226839,18.62580590895143,37.142692973873295,-0.004002456964573598,-0.02147762008660312
10758,1724812250973778549,0.1514474302530288,-0.5612281560897827,0.1560169011354446,0.0232166200876235,-0.0364403873682022,0.1061474382877349,0.9934112429618835,0.0,0.0,0.0,-0.15330755244295402,0.4460875273242011,0.5998963303733529,0.539689862,0.1560169011354446,-0.1793500492551419,0.03393776390019748,0.05059987674506938,3.1684633515656113,7.59720248455992,-5.2935580884116,0.038516021324126785,-0.07740662801890652,0.2114035333300133,-0.018756883686477543,0.06250236745713167,-0.022612283464215288,-7.414640529779824,-12.186588403163189,34.84312813892669,-0.007815389438609465,-0.02886546779053791
10760,1724812250984128887,0.1512509137392044,-0.5605616569519043,0.1558864712715149,0.0241600964218378,-0.0355907902121543,0.1056456193327903,0.9934729933738708,0.0,0.0,0.0,-0.25995993860886235,0.2963991932523866,0.19534382948674933,0.5500402,0.1558864712715149,0.194722616132098,0.14191834889792526,-0.10804915884099572,13.857936870235706,-0.03486802277330581,-3.948285838063537,0.04061282460056203,-0.07589463228242808,0.21034102578425729,-0.018654865929879527,0.06245938561648856,-0.012011572062866627,-16.380261377395012,8.940519934339662,-46.630257750236,-0.006063705133817805,-0.03131556726978289
10762,1724812250995131534,0.1510495394468307,-0.5598970651626587,0.1557612121105194,0.024625739082694,-0.0354336015880107,0.105564571917057,0.99347585439682,0.0,0.0,0.0,-0.5112517002347758,0.6684879792035936,-0.4059514915246544,0.561042847,0.1557612121105194,0.08657117392063747,0.019106903701820766,-0.018393929356684036,-17.415521933957645,-7.214834496504357,10.164956550964357,0.04158003986142678,-0.07567627748509821,0.21014691960567683,-0.024670903967857427,0.0692358362164569,-0.01955651130820968,25.839132567106002,-46.25846127700192,24.140889522652945,-0.006144985010092998,-0.029881165672361057
10764,1724812251003815602,0.1507916450500488,-0.5592352747917175,0.1555353701114654,0.024117175489664,-0.0355671644210815,0.1059058979153633,0.993447244167328,0.0,0.0,0.0,0.04678239909031978,-0.2820750106920822,0.3437292096614031,0.569726915,0.1555353701114654,-0.11666103856293299,-0.01649307909762759,0.0837001017587386,-3.902563488116751,-0.3668191315581675,4.546259202937594,0.04051226680873727,-0.07584921234237849,0.21086936584075056,-0.02886712797025126,0.07540152321088556,-0.02116413839217568,-206.36258577179038,725.4618024250627,-81.93289115785257,-0.01502166696938074,-0.04341771952438882
10766,1724812251013376922,0.1505243778228759,-0.5585228204727173,0.1553839892148971,0.0243423711508512,-0.0354554615914821,0.1061603128910064,0.9934185743331908,0.0,0.0,0.0,-4.775206912838911,15.443684436273637,-2.2109748797330018,0.579288235,0.1553839892148971,0.05130886784759909,0.01929386014413087,0.05126502054160386,12.981028821421082,2.8324147140128977,-3.365572250753696,0.04096509731520632,-0.07568485128281456,0.21136805785894153,-0.02284050086196765,0.062260752472728775,-0.01231029763230218,2400.4297654458705,-5058.056985230358,610.5916994143241,-0.012861610940368633,-0.04206453940738564
10768,1724812251045146762,0.1503384262323379,-0.5578383207321167,0.1553647220134735,0.0240269880741834,-0.0352617464959621,0.1053200811147689,0.993522584438324,0.0,0.0,0.0,378.1207690151168,-852.816722090286,109.84896279222221,0.611058075,0.1553647220134735,-0.02046376118311897,0.013166942776900552,-0.052834828929282845,-4408.216379441323,-10896.4161493199,3031.5381318925215,0.04044044942547274,-0.07519858414896108,0.20970318332055315,-0.7451716178944707,2.3282701419821024,-0.41370210458126166,135020.15250594332,-447210.5342744589,79527.45916364406,-0.001281783655612378,-0.010214734715929073
10770,1724812251045432351,0.1501237154006958,-0.5571674704551697,0.1552455127239227,0.0238867625594139,-0.0357275530695915,0.1054192781448364,0.9934988021850586,0.0,0.0,0.0,416.9967286913014,-981.6130698256393,132.75624177568852,0.611343664,0.1552455127239227,-1.2907130562694618,-3.1267029627759975,0.8207302386844015,8933.626179896188,-2003.5987337485765,-2800.9863874636176,0.040056808042681386,-0.07610024417946623,0.20990202279444353,-0.6361553856449689,2.08234256354001,-0.38201600399168,109601.61672603164,-389867.9913743795,72148.86170682666,-0.276890904933107,-1.2017082638282044
10772,1724812251045765819,0.149956613779068,-0.5565769076347351,0.1551319062709808,0.0250489581376314,-0.0356454402208328,0.1050623953342437,0.993510901927948,0.0,0.0,0.0,443.21763290743354,-1087.8242103784407,153.67652878407284,0.611677132,0.1551319062709808,6.89875261713807,-0.2940688928771861,-2.3949644663044105,23623.26515217569,8181.772059919016,-9277.158020521902,0.04241849669528395,-0.07616529372871174,0.2090976719968489,-0.4833661175167706,1.7080907651694903,-0.32925526524396564,73957.85597141233,-302528.67374268675,59841.49363705491,-0.1481415849517799,-0.8393029330829687
10774,1724812251054458668,0.1497739255428314,-0.5559781789779663,0.1548590362071991,0.0264965649694204,-0.0356156937777996,0.1046975255012512,0.9935129880905152,0.0,0.0,0.0,27.175090969733972,-97.39733934844814,18.06875349668191,0.620369981,0.1548590362071991,0.3286103783986938,-0.030277961297184398,-0.09549620252028865,-410.38742324143817,13.374585408070105,140.25018508841916,0.045339328926439534,-0.07639183672819291,0.20825436184381116,-0.02170569459897731,0.06464643335178266,-0.022557042770356972,-25962.730540362834,63534.81361648133,-8937.713019533958,-0.008698752004944276,-0.03291330109136153
10776,1724812251063586709,0.1495691835880279,-0.5554286241531372,0.1547378003597259,0.026048369705677,-0.0359871350228786,0.1046423390507698,0.9935171604156494,0.0,0.0,0.0,0.07506531886501067,-0.5436068589443459,0.34235952395123925,0.629498022,0.1547378003597259,-0.10654046163105733,-0.07086305097873062,-0.006454963357048851,-23.976464998124868,-2.506850351225305,14.071311794233655,0.04437356726530882,-0.07703536819308926,0.20816619065704867,-0.02221846429591423,0.05415963457810591,-0.022610862854521407,-1583.5286976994275,5701.30733974769,-1019.3088146607312,-0.010497380637894316,-0.03363454621466274
10778,1724812251074029371,0.1493396908044815,-0.5549352765083313,0.1543902307748794,0.0256695933640003,-0.0364367924630641,0.1056146472692489,0.9934078454971312,0.0,0.0,0.0,0.08902590928475373,0.34412975375332655,0.720755821604897,0.639940684,0.1543902307748794,-0.07383863217514591,-0.07387258680835296,0.1920559695666292,-3.1715661989831965,10.228613756798362,-6.784337436304885,0.043449609776449266,-0.0778941075111919,0.21014193833981662,-0.01986670239882926,0.0557136025131193,-0.014875241958169916,-0.7605168639548889,25.889769250149147,-27.61211121100989,-0.014192769849171945,-0.029200597995719325
10780,1724812251084301961,0.1491569280624389,-0.5542773604393005,0.1544234454631805,0.0247528795152902,-0.0358093380928039,0.1048952117562294,0.9935300946235656,0.0,0.0,0.0,0.060018628030272136,0.012652064715432232,-0.20809174435351718,0.650213274,0.1544234454631805,-0.17011374253913242,0.137477160650655,-0.1382920115795033,-15.45348692453496,1.0291431634874284,-6.798349044049049,0.041807173511578956,-0.07642259540486969,0.2087787183350123,-0.020328326126714202,0.06122247316109508,-0.007673471784395147,20.406618619493038,-41.33269920435677,-72.5076932451461,-0.0038715758638234034,-0.031030235281981337
10782,1724812251093589620,0.1489468216896057,-0.5537324547767639,0.1542605906724929,0.0230765715241432,-0.0360671021044254,0.1048855930566787,0.9935621619224548,0.0,0.0,0.0,0.4446175734178164,-0.44734827066626526,-0.731105937583218,0.659500933,0.1542605906724929,-0.364707370262989,-0.017087062072424667,0.011518017089879512,12.626914293999416,-5.67651470034172,7.492906335551687,0.038412190661619695,-0.07658546024387736,0.20887955000811875,-0.018889560533145833,0.0569430853706514,-0.017240507845784236,17.916374088208375,-20.239444414024074,-2.10328672623804,-0.01127674244656306,-0.03321937699757199
10784,1724812251103801948,0.1487958282232284,-0.5531703233718872,0.1540878266096115,0.0237693246454,-0.0357464700937271,0.1048718467354774,0.9935588240623474,0.0,0.0,0.0,0.36377786454365235,-0.32515588122844497,-0.143863597911689,0.669713261,0.1540878266096115,0.14130063269151996,0.04807334955562942,-0.008948481924917779,31.820977132182918,1.3644992956240785,-0.12371709577737688,0.03986071091787221,-0.07609131296564091,0.20880721476367797,-0.01109585480324693,0.05252522645032087,-0.021349599815527753,-26.434383671214974,10.71368826123367,52.8249310633087,-0.004331102091668848,-0.024869460532811038
10786,1724812251114574765,0.1487182229757309,-0.5526331067085266,0.1538074612617492,0.0252765268087387,-0.0355573110282421,0.1049862280488014,0.9935163855552672,0.0,0.0,0.0,-0.13144027913517364,-0.22396136692610336,0.37204466238342904,0.680486078,0.1538074612617492,0.2826426797008537,0.005769953046927197,0.011087504313302654,-3.473325536277919,-2.6776353233031145,-2.5816563749579298,0.04289628357484714,-0.07603415686337658,0.20892950378381817,-0.01171562091962386,0.0502433903629651,-0.01996177902588947,-9.484613295033178,-15.623186552834493,12.621985569472074,0.0013096490135145304,-0.015818747528211472
10788,1724812251123740097,0.1485756635665893,-0.552169680595398,0.1536717861890792,0.0258413627743721,-0.0355345346033573,0.1047900095582008,0.993523359298706,0.0,0.0,0.0,0.06612660800264619,-0.5622259854897738,0.2127209846746626,0.68965141,0.1536717861890792,0.12141659986393143,-0.009030333117073196,-0.0472079330249722,-5.325293525049467,1.911384445816918,-1.1442004102256316,0.04404232347717256,-0.07609803858916196,0.20849236489547215,-0.013496641382483077,0.04809599032827805,-0.01465531875513193,-14.709905775145401,94.38513005134769,-63.31241956445449,-0.005863229002544662,-0.02482947250924527
10790,1724812251134285381,0.1484583020210266,-0.5516924262046814,0.1535190343856811,0.0269322525709867,-0.0351343713700771,0.1048584207892417,0.993501365184784,0.0,0.0,0.0,-0.5290065886195698,2.026059641135667,-1.012184726288373,0.700196694,0.1535190343856811,0.214078051104348,0.05390911357515541,0.004014665698755624,2.1005193145087944,2.4177207465879684,3.8269244156174693,0.04629467234652662,-0.07553203780021708,0.20856050784465271,-0.009639300241340631,0.03818838085772924,-0.01685582711360123,-22.678773665906515,78.50330910112056,-26.43013932267091,-0.0026061880123981096,-0.019442894026754153
10792,1724812251151023375,0.1483365446329116,-0.5512410402297974,0.1531739234924316,0.0275155212730169,-0.0350803546607494,0.1052177995443344,0.9934492707252502,0.0,0.0,0.0,-0.01176424038176016,-1.095149774657699,0.9292271466722433,0.716934688,0.1531739234924316,0.07159423361706872,4.2252707510224785e-05,0.04069283998037707,8.983661878291993,21.139028593587643,-51.68853154045277,0.04744151335758026,-0.0755632387210483,0.20924284603795223,-0.0422661537234319,0.15088846395889277,-0.0551449802735533,246.1047832800669,-888.2128956918264,335.64281328848614,-0.0030661179519657633,-0.011467462670317475
10794,1724812251153698832,0.1482084989547729,-0.5507843494415283,0.1530116200447082,0.0276487823575735,-0.0349723398685455,0.1050647795200347,0.9934656023979188,0.0,0.0,0.0,0.738710732682417,-3.7716264098133117,1.9211611828563349,0.719610145,0.1530116200447082,0.10311198035579078,0.06701529764535527,-0.12063953457623174,4.894092461261835,17.94694366574187,-45.284345993896515,0.04774111937928267,-0.07536879441366968,0.20892809125648787,-0.0414690467570642,0.1446106172500965,-0.05128320141167331,229.25258422678542,-806.8411820803716,293.41817112593475,-0.015949659884843155,-0.07878683720423443
10796,1724812251163964159,0.1480344980955124,-0.5503273010253906,0.1528546512126922,0.0270616635680198,-0.0351786203682422,0.1050699949264526,0.9934739470481871,0.0,0.0,0.0,1.0734694696958842,-4.431251021540758,1.8872401224764395,0.729875472,0.1528546512126922,-0.11787319811952121,-0.027823963744239413,0.0059503064111423466,6.192253176426818,-0.8854412902314155,4.619506351424721,0.046527515612926264,-0.07565697919853252,0.20897578885714813,-0.016525239439782347,0.049761204566607375,-0.012744860334743535,-56.65748063314187,209.34649491382152,-109.5096498723888,-0.008479581097781921,-0.024932157687184993
10798,1724812251173735526,0.1478769779205322,-0.5497923493385315,0.1527538001537323,0.0280170235782861,-0.0348728969693183,0.1050096452236175,0.9934646487236024,0.0,0.0,0.0,-0.3104499348762082,0.15918964742277097,-0.17065229250615477,0.739646839,0.1527538001537323,0.20045838930650822,0.04122008615931062,-0.020644094822051408,0.8807008565044399,-6.353469360976665,4.490461744251979,0.04850005650957717,-0.07524508003210024,0.2087929158349033,-0.018652455230484755,0.05118684377937299,-0.011669093803054587,-70.22671834142713,242.3695400361407,-114.46824067203954,-0.005185956526223688,-0.0266011705178002
10800,1724812251183951139,0.1476593911647796,-0.5493074655532837,0.1526201963424682,0.0274333916604518,-0.0358041897416114,0.1054815649986267,0.9933978319168092,0.0,0.0,0.0,-0.2652670877508905,0.20633424032348335,-0.3132764658879891,0.749862452,0.1526201963424682,-0.12907364131940396,-0.16700471609636205,0.10225465862495456,0.20415235042677615,-8.595313182648557,10.185479312680615,0.047108129443763296,-0.07699910673006186,0.20975759258600643,-0.02281447795052749,0.05295500132589481,-0.01641079520504185,6.764194749854068,-10.357711351649495,7.798334555815195,-0.011922876326521904,-0.029956695594530736
10802,1724812251193574736,0.1474260985851287,-0.5487480759620667,0.1524320542812347,0.028273407369852,-0.0364263877272605,0.1063687801361084,0.9932570457458496,0.0,0.0,0.0,-0.17894547230975055,-0.029084737854827125,-0.0409571628541906,0.759486049,0.1524320542812347,0.16718647477056484,-0.1428567127327133,0.18354901163181198,17.35070776902328,5.279224492049632,-1.623397112924175,0.04858476851058057,-0.07845681323800374,0.21146136312859629,-0.024078578713152332,0.05524212334092127,-0.018057728263262796,1.6237394039122215,-24.736307744385627,18.683912754900458,-0.012998440776083873,-0.03473386790108361
10804,1724812251203707761,0.1471838504076004,-0.5482190847396851,0.1522649973630905,0.0292994119226932,-0.0366282798349857,0.1066971719264984,0.9931846261024476,0.0,0.0,0.0,-0.24087014565041964,-0.28265780710180843,0.04580090964278127,0.769619074,0.1522649973630905,0.19966809726053045,-0.05980817027913475,0.059649549241468945,-14.215691116710202,6.3293460340898005,-8.518892215915052,0.05056272425008434,-0.0790920525714119,0.21203678962223696,-0.026399607944255443,0.05210141984170491,-0.017083827581425126,4.5090084660913,1.5342409325127921,-5.794747843437254,-0.013648702438376408,-0.03337820696666377
10806,1724812251213951172,0.1468876153230667,-0.5476864576339722,0.1520838141441345,0.0286625027656555,-0.036771684885025,0.1067261770367622,0.993194818496704,0.0,0.0,0.0,-0.08471054019486135,0.008072969982712674,-0.16222028405432487,0.779862485,0.1520838141441345,-0.12634571045431847,-0.014301510040353443,0.010787519980685535,-21.842827938759335,1.7754407726638246,-2.8675795371900477,0.04926033969681449,-0.07924388299826896,0.21214017766161747,-0.02898927628017045,0.04948862219117345,-0.017135636637700458,7.589897754522899,40.71739198202849,-53.092045970772354,-0.018668977826745432,-0.03813176772764944
10808,1724812251224921478,0.1465687751770019,-0.547173023223877,0.1519023180007934,0.0273227393627166,-0.0370600000023841,0.1066809669137001,0.9932267069816588,0.0,0.0,0.0,-0.09138380408628066,0.5996784419798216,-1.129831209134245,0.790832791,0.1519023180007934,-0.2486700546466306,-0.026159433744688824,0.0016815199981571028,6.115705891998069,2.04937304003828,-0.9457175692616993,0.046531978281252696,-0.0795314121398594,0.21214487311239802,-0.027943576495045086,0.05266880720780165,-0.020761710802902122,6.738307911255642,0.9496736094956573,-37.28761549729274,-0.019813563543448137,-0.03721398711924561
10810,1724812251235115354,0.1462945342063903,-0.5465805530548096,0.1516507267951965,0.0271958950906991,-0.0369476862251758,0.106634221971035,0.993239402770996,0.0,0.0,0.0,0.0468956905981146,0.1075285156543675,-1.0276483050694019,0.801026667,0.1516507267951965,-0.02277497343767155,0.024382917496635455,-0.00905457274421618,5.106013180506562,-3.050107685194771,10.131030712946023,0.04630623295598633,-0.07927884210205668,0.21206395439634412,-0.030643673280841277,0.0617162917970866,-0.03985031858667476,-1115.2755350868931,2267.2508549778368,-955.6406104778932,-0.0159772579354934,-0.03697716365646334
10812,1724812251244616482,0.1459702551364898,-0.5459623336791992,0.1511377692222595,0.0266103036701679,-0.0373914912343025,0.1074811816215515,0.993147313594818,0.0,0.0,0.0,-20.545878663478653,42.15404458604884,-18.658713314515165,0.810527795,0.1511377692222595,-0.12528188814303012,-0.07551296917064577,0.1862430392759062,-2.900170756306134,-5.776471861724039,11.243528294977109,0.04497737955374158,-0.08007628214096146,0.2138043978907565,-0.027437244611273837,0.05583056529903985,-0.042132089111443616,-500.6407948474706,1029.7036895408899,-373.94894325337555,-0.023803375586442535,-0.04356641698403147
10814,1724812251264057408,0.1457031071186065,-0.5452443957328796,0.1507903486490249,0.0278728157281875,-0.037256047129631,0.1078615188598632,0.9930765628814696,0.0,0.0,0.0,36.02408132569053,-72.90741736149175,33.01386222645942,0.829968721,0.1507903486490249,0.13214619773733974,0.0006476106765603222,0.03441439563674118,-29648.973722918687,-22122.70191714617,6703.042279222886,0.04749274206853953,-0.0800946319884617,0.21447547429037397,-1.2575965294489606,2.576851182908513,-1.1375546775161638,10197.821315209294,-20827.522163637448,9164.69164011997,-0.006978819157320639,-0.02015675879190349
10816,1724812251264325437,0.1453614383935928,-0.5445443391799927,0.1504813134670257,0.026895796880126,-0.0381774269044399,0.1080463901162147,0.9930484294891356,0.0,0.0,0.0,38.784324266108456,-78.54489015384381,35.494309636531256,0.83023675,0.1504813134670257,-7.924248587735518,-6.0106419790252,1.8558225504687416,-29393.16918155535,-21931.46381266755,6645.051467280568,0.045334584195949525,-0.0817270047125881,0.21489899839577564,-1.2475740870657772,2.556561279713959,-1.1283757950852202,10089.524539639178,-20592.0878900828,9038.047450570444,-0.7802736499550247,-1.7263895407059568
10818,1724812251276433994,0.1451183408498764,-0.5438423156738281,0.1502836346626281,0.0257521960884332,-0.0388242304325103,0.1078935265541076,0.9930703043937684,0.0,0.0,0.0,46.7498352761557,-86.65929345555222,26.583249956377102,0.842345307,0.1502836346626281,-0.20018240603500106,-0.08622357729430986,-0.015378941158923602,388.3213064040628,293.4361100509025,-91.71444422744626,0.042929796459373774,-0.08276181858967532,0.2146661219503997,-0.016939416593567014,0.04950514315791388,-0.015661927802867126,-224.05975057829295,332.1361414078708,-139.61072754021245,-0.008589994118204923,-0.030920439011732574
10820,1724812251294354207,0.1448979824781417,-0.5431798696517944,0.150020569562912,0.0270113945007324,-0.0388840176165103,0.1080007404088974,0.9930227994918824,0.0,0.0,0.0,19.345516344121506,-54.125784649661,39.89654727220204,0.86026552,0.150020569562912,0.1394411719796035,-0.02168674930298791,0.0071705184275442065,-674.9629479952745,-2778.984472642447,4152.444651499051,0.04541936044831979,-0.08315573541129974,0.21477769065091584,-0.6347548697474963,1.6894187414450244,-1.2714291642967055,5936.661598080122,-15895.729201231938,12119.307666734821,-0.005340460640763402,-0.018931330657290506
10822,1724812251294732072,0.144653171300888,-0.5425283312797546,0.1495301276445388,0.0269991662353277,-0.0390999391674995,0.1082961931824684,0.9929825067520142,0.0,0.0,0.0,21.648258664062627,-60.27334092943947,44.56665251618383,0.860643385,0.1495301276445388,-0.12113257262618143,-1.0939383827550901,1.609309210169606,-666.5736789736139,-2739.1275574092265,4092.186517606825,0.04532439172061949,-0.08359625747751359,0.2153684834249893,-0.627016046095032,1.6678061115671747,-1.2554774371330468,5895.961013196579,-15732.627583718919,11954.69241895166,-0.37187712210554613,-0.9119885071710809
10824,1724812251305568675,0.1443424969911575,-0.5420002937316895,0.1491179913282394,0.0260625891387462,-0.0400529578328132,0.1083671376109123,0.9929618239402772,0.0,0.0,0.0,23.96722413981121,-64.01100562183383,48.40620519334346,0.871479988,0.1491179913282394,-0.1900744403216772,-0.15573079226888462,0.0249224342801726,17.71627595803668,45.48504895561949,-72.07401729204277,0.04324811657719424,-0.08529415536655467,0.215564285391131,-0.029475974172104458,0.058495907813210124,-0.04181393258254751,-1749.5032892021538,4725.788149357941,-3450.4132044723606,-0.02075881347840009,-0.03568160144458128
10826,1724812251313757777,0.1440961211919784,-0.5414608120918274,0.1487521678209304,0.0265195984393358,-0.0401480831205844,0.1079470217227935,0.99299156665802,0.0,0.0,0.0,-2.5105704637101827,6.068544542869998,-3.3948053615283196,0.87966909,0.1487521678209304,0.10401196061224376,-0.037547118836157016,-0.10653366747003983,29.65695155750776,12.336586421250413,-12.987647706527731,0.04417566506018043,-0.08556320328920378,0.2146759961350245,-0.02612157686496519,0.05719880969348745,-0.038934768906539685,-1539.0260956679135,6906.175967529651,-5404.929022812143,-0.019122581859264937,-0.040244857894113056
10828,1724812251355570445,0.1438502371311187,-0.5409221053123474,0.1483490467071533,0.0266256816685199,-0.0394883342087268,0.1080700680613517,0.9930018782615662,0.0,0.0,0.0,294.85004270814716,-57.74270367153895,-32.83367971578991,0.921481758,0.1483490467071533,0.008668391938364436,0.030964341598364854,0.004750500737633592,-22315.710730641593,7598.595210444985,-7109.285344651335,0.044516342853576495,-0.08427859325117487,0.2149327867644978,-0.7545288859772086,1.6403357336471345,-0.9807010482661553,320736.13842027844,1668611.4719163836,-2813120.823415928,-0.003798359707785593,-0.007816613686399092
10830,1724812251355851884,0.1436364650726318,-0.5404573678970337,0.1480711996555328,0.0257213227450847,-0.0392716415226459,0.1077623069286346,0.993067741394043,0.0,0.0,0.0,385.71181578096,415.0334688439734,-829.8832984108767,0.921763197,0.1480711996555328,-6.314112411746974,2.1838966890091673,-2.0095521880033207,-11823.231561930486,1866.9115250912237,2285.015393562794,0.04278459789376407,-0.08363986362178827,0.21439267213937052,-0.6709550340436579,1.623903574744304,-0.989961257422209,107575.28017152357,1554758.863576132,-2641219.79367156,-0.47196944291289467,-1.0248158049446927
10832,1724812251356180473,0.143449991941452,-0.5399342775344849,0.1477448642253875,0.0246979240328073,-0.0392954535782337,0.1081108748912811,0.9930549263954164,0.0,0.0,0.0,338.4733806529564,877.9192160471857,-1624.548918968865,0.922091786,0.1477448642253875,-6.116162348701799,0.5788336488192846,2.363655497495535,11580.27529648643,-1153.2876015512002,10212.107721722821,0.04070923738803882,-0.08348225070354219,0.21517936356831988,-0.5101626947172804,1.9419008494755872,-1.5684037801413524,-339387.46017447265,356069.02196979034,-649237.3967309892,-0.2965625376908192,-0.8251811077881744
10834,1724812251356416277,0.1433393955230713,-0.5394171476364136,0.147277683019638,0.0244873985648155,-0.0392174310982227,0.1086038425564765,0.9930094480514526,0.0,0.0,0.0,225.34080971422614,783.7552282235001,-1478.2625548520916,0.92232759,0.147277683019638,-1.5278253622344478,0.9383122124101505,4.247649509769024,18922.351135009427,1478.456372373024,7753.491233886035,0.04026457063730053,-0.08330171783648531,0.21619263876827985,-0.4558791353358756,2.1337139162172485,-1.9284931789123017,-467072.81221498695,-391311.4802784202,608499.0089559427,-0.1525553358868345,-0.7899681037005074
10836,1724812251364645027,0.1433610916137695,-0.5388979315757751,0.1465513259172439,0.0256795994937419,-0.0395687334239482,0.1095862388610839,0.9928573369979858,0.0,0.0,0.0,29.05669555799583,-133.23160525022982,119.33249740664847,0.93055634,0.1465513259172439,0.28873543789913647,-0.1118598099219854,0.23184471016598407,117.00632711105104,-61.526946322709954,-265.59805800297494,0.0424835793350598,-0.08430028777396134,0.2180672535549117,0.0012520970607852178,0.05810054361010586,-0.07721360749622619,-14066.468986914722,-51741.21400813096,95989.51386404439,0.008734902110747043,-0.004854905474283922
10838,1724812251373774633,0.1433584988117218,-0.5384181141853333,0.1459583938121795,0.0270578656345605,-0.0394411720335483,0.1099127903580665,0.9927898049354552,0.0,0.0,0.0,-0.2314183549834889,-0.9452987298509696,1.4236917958597872,0.939685946,0.1459583938121795,0.3060495817010128,-0.004091126532501427,0.059982361449658114,-20.862462196853713,3.1710294694145347,-14.627951937156892,0.045231593058149985,-0.0843616277266832,0.21861469146387616,-0.0018543971317921404,0.047186556397623036,-0.05783713966482029,-1688.2505545350457,7689.676008439708,-6882.985778363091,0.005609006645959548,-0.007158464972823943
10840,1724812251384062347,0.1433212161064148,-0.537994921207428,0.1454457938671112,0.0262263100594282,-0.0398982055485248,0.1096540614962577,0.9928224682807922,0.0,0.0,0.0,0.01881711771926542,-0.6682937569174459,0.5409452235731664,0.94997366,0.1454457938671112,-0.17241577596436883,-0.07155175401218633,-0.041853733053189575,-9.235946858691022,2.559852027312384,-1.865474958549613,0.04349713101365228,-0.08507791139831729,0.21815022407667975,-0.0029733220084366963,0.040361529252820105,-0.051290277310869214,14.64102289614962,66.48424500232761,-124.55466178884751,0.001111237879025772,-0.008907210217665154
10842,1724812251394371968,0.1432972848415374,-0.5375868082046509,0.1449018865823745,0.026795158162713,-0.0395838171243667,0.1097969487309455,0.992803990840912,0.0,0.0,0.0,0.06972300897619128,0.42583459559014947,-1.1435018446180678,0.960283281,0.1449018865823745,0.11744848523600283,0.04903489169932414,0.021910895951593217,11.581229795953886,5.746735735298003,3.9417903441831874,0.04468688863268031,-0.08458281484088619,0.21839904039088887,-0.0014612188980231977,0.033421272036870064,-0.04669929536847306,0.6415001813336354,66.40134038042305,-88.89168814861436,0.0018311873975366435,-0.007136015366345062
10844,1724812251408679659,0.1432934552431106,-0.5372310280799866,0.1443540155887603,0.0264545008540153,-0.0395326018333435,0.1100265011191368,0.9927898049354552,0.0,0.0,0.0,-0.00640500537849048,0.5870848624280729,-0.9361630786559214,0.974590972,0.1443540155887603,-0.045166753960015765,0.013117314126881517,0.033767893229420705,-86.8560793154159,20.668030648094074,-2.9857662485179093,0.04399907399960278,-0.08441674633056526,0.21889180578821255,-0.0019915020709078135,0.06133629994978662,-0.09460796035894958,8.64176266290131,-231.2261040540659,348.50732601837035,0.0018914548086865672,-0.002961989534438229
10846,1724812251413508982,0.143281027674675,-0.5368753671646118,0.1438053250312805,0.0250043701380491,-0.0393282361328601,0.1100113913416862,0.9928371906280518,0.0,0.0,0.0,0.0580885997371139,-0.9248635955975189,1.291356536270814,0.979420295,0.1438053250312805,-0.5876766748975111,0.15071203597651484,0.013130839513247243,-57.737335768762094,18.98946791678833,-3.220979764867977,0.04115304554858297,-0.08369227013593934,0.2189864805804957,-0.0019724599297346046,0.06194817978092715,-0.0951968188061647,8.40221622097525,-201.33016118120233,252.0570230468931,0.0039420861110418485,-0.01048811812593507
10848,1724812251423896688,0.1432739645242691,-0.5364932417869568,0.1432280093431472,0.0250938385725021,-0.0386105142533779,0.1100520342588424,0.9928585290908812,0.0,0.0,0.0,0.034714627759678,-0.5194029743548763,-0.7644463145881941,0.989808001,0.1432280093431472,0.03250958991151595,0.135659188307984,0.003184438692425536,29.347863286375752,-5.754760333371969,-0.35987865391598967,0.04148314893630468,-0.08228563964709013,0.21907802429412687,-0.0001592458545620623,0.02884523652951998,-0.05020459681895417,16.45093342193246,26.359500127942894,-37.80546850662735,0.0027382394808440347,-0.004817646717652512
10850,1724812251441450772,0.1432866156101226,-0.5362224578857422,0.1425060778856277,0.0221041589975357,-0.039765503257513,0.1100386008620262,0.9928855299949646,0.0,0.0,0.0,0.8782537679161424,-0.43263110897596846,3.3212504128584612,1.007362085,0.1425060778856277,-0.35281066005990114,-0.0930854542400242,0.014595715326442342,-182.0362750998171,-150.78957141373553,66.82511207260643,0.03527376778183574,-0.08392830358753921,0.21927204022717722,-0.003698119746644579,0.09885282225920378,-0.2147862607103832,38.59707833275883,-559.0176831637259,1336.6023330567252,0.0005969373763108518,0.00035062016014444095
10852,1724812251443896441,0.1432760655879974,-0.5359522700309753,0.1419216096401214,0.0211277343332767,-0.0405033752322196,0.1102268397808075,0.9928561449050904,0.0,0.0,0.0,0.9694272318349674,-1.9919647041212638,6.966259125875819,1.009807754,0.1419216096401214,-0.8525580296829194,-0.5088060998194252,0.20057599816807584,-146.2439592462881,-126.45852626173745,55.74420646561688,0.033150749969775996,-0.08518873686429264,0.21972136425076838,-0.0011822579582876358,0.09628844764847244,-0.20233728489670222,15.780390930027178,-533.7645581378163,1200.9029835300853,-0.0005368618554639642,-0.010457050986281417
10854,1724812251453961254,0.143393874168396,-0.5355708003044128,0.1414029151201248,0.0215411912649869,-0.0403436720371246,0.1098499074578285,0.9928954243659972,0.0,0.0,0.0,0.23775085927741058,-3.0637277609239817,7.062333114175024,1.019872567,0.1414029151201248,0.08187135051008564,0.02118578306534976,-0.07922448074348884,33.65876082331078,22.976489258941797,-6.615144170463234,0.034042109391368286,-0.08494882301270393,0.21892868173527005,0.006119711807590633,0.03716259467053007,-0.054516700870008705,-47.9293009419866,102.4487290837301,-377.7513514288315,0.015213670651614934,0.006935591308635984
10856,1724812251463333019,0.143402487039566,-0.535228967666626,0.1408659815788269,0.0209902133792638,-0.0405140668153762,0.1100281700491905,0.9928805828094482,0.0,0.0,0.0,0.004697907180474914,-0.2803449304493424,0.14241350031634425,1.029244332,0.1408659815788269,-0.11913866810635229,-0.02249695766333941,0.0436471534535024,-8.985400168013188,-1.699423529958557,10.55283140148719,0.03289131459567207,-0.0851732339807836,0.21933192155197967,0.004091588885306585,0.03297818577717848,-0.05486521858137028,-5.843479641850538,188.1096362582428,-398.93430102966084,0.003927166087989062,-0.0027930022091643475
10858,1724812251473801374,0.1434824168682098,-0.5349246263504028,0.1403200179338455,0.0206165052950382,-0.0405959486961364,0.1106587052345275,0.9928150177001952,0.0,0.0,0.0,0.1659797776099662,0.415609662399693,-0.064551873046931,1.039712687,0.1403200179338455,-0.06746715099079148,-0.005655473851329315,0.12420658331366885,2.825013698787034,9.441183828555001,0.2605847641697707,0.032074188340849026,-0.08527463854878088,0.22063428952504371,0.006726213942918946,0.03198622441660959,-0.051274256365897664,3.8285077172934057,27.155011071746628,-2.89280014930001,0.00932056992483532,0.004952596074851417
10860,1724812251484420141,0.1435440480709076,-0.534553587436676,0.1397850215435028,0.0201838761568069,-0.03969307243824,0.1109124198555946,0.9928320646286012,0.0,0.0,0.0,0.0819221231228136,0.2803606817717821,0.08652638522416467,1.050331454,0.1397850215435028,-0.06020684891087009,0.1789635337714003,0.0468894612958907,-18.56596012822828,-5.872212978660987,10.538803647649607,0.031387697827191335,-0.08339101264488466,0.22119421056416738,0.007565660272327079,0.0418968312877297,-0.056349923131323365,73.061375047461,211.2642873329594,-204.11347878521357,0.009085766687917409,0.0016369138055939512
10862,1724812251493628016,0.1436277776956558,-0.534112274646759,0.1392185091972351,0.0184034146368503,-0.0401940606534481,0.1121444255113601,0.992708146572113,0.0,0.0,0.0,1.4012211565564237,4.014180114574891,-3.5362563814600176,1.059539329,0.1392185091972351,-0.3848579320796134,-0.06081183926446265,0.2862121048631966,-17.698740615538085,-16.478208860019045,13.935579339279931,0.027624327758808034,-0.08402847321610403,0.2238211668141799,0.008342896589677462,0.03926491533144194,-0.05104584716299421,51.828719569999336,138.28678074765702,-115.83291584349607,0.014271781518057485,0.0027488202095873587
10864,1724812251511815917,0.1437525600194931,-0.5337093472480774,0.1386665552854538,0.017696289345622,-0.0404427051544189,0.1130758002400398,0.992605209350586,0.0,0.0,0.0,-0.9415576755872408,-3.07060872712691,4.330368654142575,1.07772723,0.1386665552854538,-0.07593212688616141,-0.016992422795361787,0.10656812580378174,-38.61083983861937,-126.9622363987811,453.0396572995817,0.026080433306019495,-0.08438945249924211,0.22575726471492727,0.08113558790950037,0.2667555936934036,-0.2631001168906266,-530.7284879256543,-1726.8303178806168,1696.5022375605722,0.00904620314504889,0.003973164216152589
10866,1724812251513412207,0.1438924819231033,-0.5332492589950562,0.138213962316513,0.0175737105309963,-0.0406568311154842,0.1137764602899551,0.9925185441970824,0.0,0.0,0.0,-1.8450634419068452,-6.014487277986015,7.215563337797535,1.07932352,0.138213962316513,-0.1453552862053064,-0.23778603778567667,0.8946058685284582,-34.136041977749,-117.86432682556078,426.420215426975,0.025728178229789102,-0.0848058847943637,0.2271800811299455,0.07893995550892807,0.25967146181999823,-0.25394745556342047,-502.5635492787808,-1641.040818803565,1599.1710038265294,0.125762782539363,0.04133639418065284
10868,1724812251525169654,0.1440659463405609,-0.5326687693595886,0.1377898454666137,0.0189914144575595,-0.0396281741559505,0.1143479943275451,0.9924683570861816,0.0,0.0,0.0,-2.260071736021052,-7.715470604981867,7.981988642018082,1.091080967,0.1377898454666137,0.26336552852090833,0.14759382683914565,0.08458495692505284,6.848887464244476,-4.6196540682377165,-23.992148122279584,0.028737055062892515,-0.08309828185457765,0.22822515078144012,0.01657936643740321,0.052422767097027645,-0.04078328277823573,119.90185571661608,371.029521843536,-425.9921829188242,0.02245917410537002,0.005721697249260513
10870,1724812251534290504,0.1442300826311111,-0.5321690440177917,0.1373845338821411,0.0196220614016056,-0.0402974188327789,0.115187682211399,0.9923321008682252,0.0,0.0,0.0,-0.06835080123384119,-0.682510001671353,0.6212402848612506,1.100201817,0.1373845338821411,0.12832868558407648,-0.15914527759995192,0.18346158436838622,-24.492564782425603,-17.925680273424764,2.9745658555149763,0.029770519892725694,-0.08459815738461801,0.2298610823426216,0.017502380963102304,0.05218032403576345,-0.03978409057241539,169.66443898257756,454.74288080646215,-486.1473343715026,0.02614353487851629,0.00820088621721589
10872,1724812251543684020,0.1443897187709808,-0.5317041277885437,0.1370558440685272,0.0187804400920867,-0.0412340015172958,0.1157649978995323,0.9922426342964172,0.0,0.0,0.0,0.8420633537790694,0.5287148417046323,-0.8411209491773071,1.109595333,0.1370558440685272,-0.19546052408711626,-0.1755964014018364,0.13530337012531368,-22.38680335802669,0.4876619800742792,-5.430445924376169,0.027829707022632155,-0.08628352521616263,0.23108846764944113,0.015220052090916258,0.03942348148771657,-0.028998200932415674,53.03660137130238,65.01184870895625,-81.91494749897123,0.024759227621725503,0.007745169059410848
10874,1724812251559872333,0.1445866078138351,-0.53134685754776,0.1367536038160324,0.0170928407460451,-0.0422919243574142,0.1159876808524131,0.9922026991844176,0.0,0.0,0.0,0.47638802812199366,-0.2024024418041641,-0.10934251770132519,1.125783646,0.1367536038160324,-0.22078228261610208,-0.10523836691622501,0.03892108318541387,130.3103672062835,-17.562391037297512,134.2128577543293,0.024204460723445002,-0.08800298717326546,0.2316762749258755,0.05912199197516799,0.10061961816305143,-0.09811360946413572,-217.57812528071793,-423.0659981924424,432.47428768315496,0.015198531458992554,0.008172924689371024
10876,1724812251563293431,0.14482282102108,-0.5309458374977112,0.1363605111837387,0.0176291354000568,-0.042553324252367,0.117022804915905,0.9920605421066284,0.0,0.0,0.0,-0.40894243327056634,-1.9229707746807008,1.6501850225786188,1.129204744,0.1363605111837387,0.3203656209575152,-0.18116063329499385,0.5994148623580123,117.15575925656773,-17.455249281648417,119.87861472096837,0.025120246575421227,-0.08867312893022362,0.23371897124981036,0.05913548178878214,0.09704776870163734,-0.09547997495493288,-202.8171671425796,-395.3647245163528,407.00228203044765,0.08377053826190214,0.0487393143564106
10878,1724812251575471842,0.1451133489608764,-0.5306384563446045,0.1360397338867187,0.0175340920686721,-0.0437300503253936,0.1179230734705925,0.9919044971466064,0.0,0.0,0.0,-0.4525584167915211,-2.0747010178894434,1.9544644579360817,1.141383155,0.1360397338867187,-0.03135584225065584,-0.18837113384091647,0.15374268486885356,-45.202838786439514,-14.379309145180581,-4.0998305005528906,0.024574900156220398,-0.0910130122328332,0.2355411152710553,0.0362555260530133,0.035526147915433626,-0.03721724045689534,28.231021556229393,92.06595085958114,-118.13307990059619,0.026573128438248498,0.01933414035415726
10880,1724812251583535996,0.1454719305038452,-0.530297040939331,0.1356815248727798,0.0157299861311912,-0.0454919375479221,0.1189873665571212,0.9917283058166504,0.0,0.0,0.0,-0.05502625982871501,-0.7741223528059764,0.23759484731417357,1.149447309,0.1356815248727798,-0.4830356671931911,-0.37794952458386005,0.29420094362532423,-13.86320690505939,-1.8936722405194173,3.1134801071206635,0.020465805145440805,-0.09411349473314812,0.23785422567885675,0.04022153574320253,0.034692066609814276,-0.036565895123043646,29.45100321020047,79.20535487608983,-121.92143689237415,0.048779917793133024,0.03681225943264133
10882,1724812251593559623,0.145822212100029,-0.5300445556640625,0.1354128569364547,0.0152910519391298,-0.0461956150829792,0.1196867376565933,0.9916184544563292,0.0,0.0,0.0,-0.007076147265701271,-1.0027712764271617,0.14903944698781646,1.159470936,0.1354128569364547,-0.09686882656458638,-0.12762357569893323,0.1471910007054566,32.64271654463498,14.741099072498566,-1.1899483100677752,0.01935703624314238,-0.09542186315123621,0.23931037323741727,0.03285685159636298,0.01857625591863865,-0.03223042273550103,27.64333103504631,32.17877963260207,-4.769506380242555,0.0371849596735592,0.030138168726823122
10884,1724812251605579902,0.1461870521306991,-0.5299165844917297,0.1349472105503082,0.0165263768285512,-0.0466576181352138,0.1216856092214584,0.991333782672882,0.0,0.0,0.0,0.6547179317625731,0.17668519098865199,0.1503065211001009,1.171491215,0.1349472105503082,0.21070515117448435,-0.09792925734701,0.32714503356295105,25.92638225107598,2.7889084188838362,-3.7419667309599856,0.02151330417550569,-0.09667912786017055,0.24323601466039338,0.04326070777838176,0.015243690393297982,-0.03452527742685518,-24.095144686553834,40.166263717548844,17.42973710795567,0.028133786454754027,0.030163813168062815
10886,1724812251613600403,0.1466031074523925,-0.5297697186470032,0.1346928477287292,0.0181970633566379,-0.0467590242624282,0.1225422918796539,0.991194188594818,0.0,0.0,0.0,0.03787035821234941,0.1886782215455537,0.38281563162285437,1.179511716,0.1346928477287292,0.4204590426074976,-0.07385600835219602,0.1969878620679947,5.798329293447553,5.636115497715909,-10.862350329934563,0.024733245523487112,-0.09730785832504689,0.2448092227622799,0.04738370415559956,0.019090075269382112,-0.031493641151168816,-51.912433975979866,-27.570705603331163,12.28965326010069,0.051425180287636735,0.0484080254210906
10888,1724812251623926712,0.1470327079296112,-0.52956223487854,0.1343705654144287,0.0192204173654317,-0.0465418137609958,0.1233937889337539,0.9910793900489808,0.0,0.0,0.0,-0.16586571523651328,-0.4824582582858231,0.28769971928304283,1.189838025,0.1343705654144287,0.20972918530355167,0.01937197868688518,0.15615705095757204,-45.96477481039612,-4.433537270431866,-3.822641157739742,0.02674124220122102,-0.09714936889287934,0.24643400673728266,0.04144385521949623,0.01717102643521784,-0.027476357286841058,-9.206661349915295,-39.97344926799308,-17.03385477545858,0.04200661105069583,0.03793622222225391
10890,1724812251633761040,0.1474387943744659,-0.5294207334518433,0.1341353207826614,0.0169368106871843,-0.0475777387619018,0.123852752149105,0.9910146594047546,0.0,0.0,0.0,-0.1578495146508192,-0.6412436930025882,0.04691626940040283,1.199672353,0.1341353207826614,-0.48167136467521454,-0.15030864429268953,0.11979475375955564,-23.96338980913041,-13.93857518641332,-0.10133845427312238,0.021892179210628936,-0.0986557719875416,0.2475813386175587,0.043646556449585816,0.009648317212061386,-0.025596097839687637,-22.48792095870417,15.243401769113694,-16.006333065336023,0.04099179190740906,0.038439088797552194
10892,1724812251643692429,0.147895872592926,-0.5293724536895752,0.1338643133640289,0.0158030167222023,-0.0490047000348567,0.124532863497734,0.9908785820007324,0.0,0.0,0.0,-0.6149015538479852,-0.1750380422992917,-0.027023112113837122,1.209603742,0.1338643133640289,-0.25488411411588785,-0.2554871982136889,0.1548555601892208,-7.355034313781495,-1.6983642569296862,2.526625291444212,0.019211867726329705,-0.10122417947412407,0.24907423504251153,0.03824935893250281,0.0045205165022110805,-0.026577169175899584,-1.7471818164419952,45.537820016879024,-1.0090884811423781,0.04280976862877193,0.04571043992051782
10894,1724812251653663790,0.1481994390487671,-0.5293307900428772,0.133606418967247,0.0127605842426419,-0.0503152906894683,0.1252035051584243,0.9907722473144532,0.0,0.0,0.0,-0.18907669199913202,0.2649716211428044,0.027348183087360978,1.219575103,0.133606418967247,-0.6304751750605679,-0.18339845860012827,0.17000114584455522,-1.4882824264413372,8.110335438986334,0.36501079854741114,0.012754408526588278,-0.10307977471460171,0.2507486701968196,0.03140260080287671,0.00619191737515834,-0.026128183614371636,39.73057168796445,23.37687500381172,14.819562105306003,0.027705195685801813,0.030789225353805752
10896,1724812251664104914,0.1485377997159958,-0.5292441248893738,0.1333307176828384,0.0114809172227978,-0.0509504787623882,0.1259653866291046,0.9906588792800904,0.0,0.0,0.0,0.1932379681020937,0.2821872333467785,0.2844886427104931,1.230016227,0.1333307176828384,-0.25047215457041244,-0.08908811179110793,0.16119668364668083,30.658304425315432,4.136803846719026,0.399498593428838,0.009965390007194326,-0.10402901753355247,0.2524300850167533,0.03486832128557715,0.0100228644933118,-0.026035926249680763,6.161563707647881,-7.029985115468434,23.831800055292984,0.030529783185899235,0.03171780176483806
10898,1724812251673743875,0.1488958001136779,-0.5291321873664856,0.1330830454826355,0.0114653259515762,-0.0514068081974983,0.1267995238304138,0.9905290007591248,0.0,0.0,0.0,-0.018369606713269926,0.13719770940591647,0.507120526596723,1.239655188,0.1330830454826355,-0.006004076723700047,-0.09277837288161683,0.17610592808232128,21.375489859735122,0.9451959469988718,-1.929463579746507,0.009730439398209174,-0.10493996517653913,0.25412790284375725,0.03549679528236549,0.011988961809734633,-0.02084087633088405,-17.01764991419985,-12.093552001804625,2.65814687783541,0.035962352513218165,0.03536156385121895
10900,1724812251684712647,0.1492646336555481,-0.5289959907531738,0.1329150348901748,0.0124503886327147,-0.0516471602022647,0.1274516731500625,0.990420937538147,0.0,0.0,0.0,-0.14342457373824757,0.04134931275333131,0.2811573809155564,1.25062396,0.1329150348901748,0.17869284337760954,-0.06583402240074412,0.11155158748251882,-10.647240952372421,-3.8743555130213556,2.231098735653351,0.011561970853697206,-0.10567507642760049,0.2553505203291236,0.034252165747387764,0.012660347588791865,-0.01567585465364818,29.32638229777024,1.7947021060710524,-30.44781746689975,0.03385711816600087,0.030721650186387353
10902,1724812251694365346,0.1496005803346634,-0.5288717150688171,0.1327606737613678,0.0117434421554207,-0.0525066889822483,0.1283685714006424,0.990265965461731,0.0,0.0,0.0,0.4856142666962293,0.14814594976269652,-0.09639385953686286,1.260276659,0.1327606737613678,-0.15755972926222467,-0.1570093332144438,0.20203259642017335,-14.887464713115302,0.09354678214304205,2.4898834368042997,0.009834468466208734,-0.10721142039810798,0.25729537015571535,0.032613283691400596,0.012890782669231271,-0.014573568041709173,49.84628578861356,15.174359474308098,4.101879920395447,0.03501065053058954,0.03179011849479263
10904,1724812251707179854,0.1499812453985214,-0.5287062525749207,0.1325980424880981,0.0116417948156595,-0.0524818152189254,0.1291072964668274,0.9901725053787231,0.0,0.0,0.0,0.8637315877717446,0.4125247468948743,0.6913500101895023,1.273091167,0.1325980424880981,-0.008986586330105425,0.006468896131821739,0.11683268524536568,12.26920326940632,-1.0768788573029404,9.062645600909807,0.009558154015112163,-0.10714305847000168,0.25880193319525946,0.04998583458049666,0.016903336962251103,-0.019391337515656915,-60.835356458991896,-24.903686348111755,66.33100176337133,0.030480217434761158,0.02651559508582714
10906,1724812251714391719,0.1504240483045578,-0.5285681486129761,0.1324310004711151,0.0119156138971447,-0.0526589415967464,0.129998579621315,0.9900431632995604,0.0,0.0,0.0,0.05831749390572449,0.0481075655587222,1.1894384515000733,1.280303032,0.1324310004711151,0.08223718828055637,-0.057446910644809966,0.24595985275655985,-4.633528280885279,0.9171805046518666,-0.5205224380801611,0.009960510132372577,-0.1075746370148546,0.2605818532556282,0.054218193658555514,0.020281845706190182,-0.0100734521396868,-71.7142030904765,-66.77797322825029,-0.20421971779006398,0.061401829551398925,0.0563735115339567
10908,1724812251724444787,0.1508684754371643,-0.5283483862876892,0.1325131505727768,0.0108343670144677,-0.0523507893085479,0.1298621594905853,0.9900897741317748,0.0,0.0,0.0,-0.10257923991229045,-0.8509053113602716,0.2166725107301266,1.2903561,0.1325131505727768,-0.2065361262128688,0.08882334679121058,-0.01747837913547405,-5.724650315815802,11.203487845208059,-6.649663429041612,0.007902224264573654,-0.10668014409328616,0.2604131279912909,0.04739767349564694,0.014874749597346693,0.00044649446250311087,-8.690785166320794,-36.08539302888097,-63.080472447806706,0.04894139610526698,0.03600445518611622
10910,1724812251734291536,0.1513659507036209,-0.5282692909240723,0.1324430406093597,0.0105002177879214,-0.0515692569315433,0.130375400185585,0.9900670051574708,0.0,0.0,0.0,-0.11761458660162916,-0.6917699474982437,-0.07960751340382277,1.300202849,0.1324430406093597,-0.04107569049140055,0.16686709878689696,0.10564639336502478,-8.63369849828323,7.818367299512707,0.4406430277616009,0.007385892343161876,-0.10504505916715541,0.2614718923714971,0.0519416971398341,0.0034768365059214545,-0.005422828126141255,67.40584008182856,58.012636986714654,-0.9253640219006147,0.04985400589103732,0.04716070927251239
10912,1724812251744394733,0.1519054472446441,-0.5282813906669617,0.1324058473110199,0.0083823669701814,-0.0506024286150932,0.1302111148834228,0.99015873670578,0.0,0.0,0.0,1.277979370451455,0.32818861613168915,0.213364305054433,1.310306046,0.1324058473110199,-0.3919945062963221,0.2447435123747119,-0.014955446151768744,-12.301961766892596,1.699283190831606,-6.20754175423833,0.0034398365165151925,-0.10257159180485183,0.26133345275491854,0.0447503886786893,0.001315974040839052,-0.0008733317145743769,49.4777627553333,54.03008198277088,18.510807631051513,0.05062965204167631,0.05198509038181779
10914,1724812251760052326,0.1523962765932083,-0.5281997919082642,0.1324603110551834,0.0079313404858112,-0.049672070890665,0.1304116696119308,0.990183174610138,0.0,0.0,0.0,-0.09861292331202876,0.035531252740012675,0.24872255014556993,1.325963639,0.1324603110551834,-0.04030008809096129,0.12554269754218672,0.02687812430264547,-37.29500061049134,93.66217418899983,49.497431517414725,0.00276531108856761,-0.10060721172228573,0.26176261281105045,0.113043322399065,0.01960822004127749,-0.003282013347746471,-568.4115666893748,-111.32285311088222,5.528667586565604,0.031817908307060785,0.028441722845863757
10916,1724812251763514810,0.1528502404689788,-0.5281208753585815,0.1324437707662582,0.0074232462793588,-0.0488197617232799,0.1308016628026962,0.9901780486106871,0.0,0.0,0.0,-2.4346355506287773,-0.4208491693996683,0.27036961041696433,1.329426123,0.1324437707662582,-0.21518819860901497,0.5273914107151512,0.23411592549834653,-38.24819672464208,77.65230220211913,39.497088562635334,0.0019387115858302028,-0.09878303593673476,0.2625815877763169,0.10928671741107276,0.018863926999879155,-0.0021125831324342315,-523.5692557303929,-98.11298878413652,-15.786433913777588,0.13141425612014196,0.12053019969894874
10918,1724812251773987400,0.1533035188913345,-0.5280477404594421,0.1325060427188873,0.0061586028896272,-0.0483321025967597,0.1307637691497802,0.9902156591415404,0.0,0.0,0.0,-3.131708480666379,-0.38107186199041443,-0.5930251829389509,1.339898713,0.1325060427188873,-0.22736775726778063,0.12410333332075806,0.0029942147800075167,5.391562268068034,-17.370355031257258,-7.766041857409519,-0.0004456013887035842,-0.0974833781388891,0.26261407642165796,0.041037957453417206,0.007934926589317826,-0.0014151882673969496,107.60866377456476,25.900723502162148,-46.24618391902253,0.04398303816383703,0.03922772563035006
10920,1724812251785042445,0.1537310034036636,-0.5279489159584045,0.1324044913053512,0.0055073597468435,-0.0474224798381328,0.1312054544687271,0.9902050495147704,0.0,0.0,0.0,0.09045938509584417,0.16319556607209385,-0.6818623986648087,1.350953758,0.1324044913053512,-0.09127281469077472,0.17875803968219708,0.08405664907968836,-20.807727885503457,-8.954405256988329,18.089227234034027,-0.0015443839440964135,-0.0955062756643763,0.26354569324695937,0.045921538127078776,0.01145357669798841,-0.015668775881776398,267.31642695198616,16.94547917551328,2.7763346573367045,0.038605589942404414,0.03568541730233988
10922,1724812251793553981,0.1541693955659866,-0.527834951877594,0.1322286427021026,0.0033931164070963,-0.0476523041725158,0.13240747153759,0.9900435209274292,0.0,0.0,0.0,2.207476200766032,0.09584341483854666,-0.5873764851460189,1.359465294,0.1322286427021026,-0.48541095541584783,0.011463711387745979,0.30851427764456074,-37.08327951166493,-16.193916158739142,20.8158407790311,-0.005927362797639212,-0.09539889552009462,0.26618325677782795,0.04438938985883789,0.011826287905493782,-0.01749160577165132,1569.0786035308272,56.31880420561557,792.6589627095751,0.051003882739516275,0.04788186312033223
10924,1724812251835981975,0.154547706246376,-0.5276637673377991,0.1321566104888916,0.0009460411965847,-0.0467728711664676,0.1326548010110855,0.990057647228241,0.0,0.0,0.0,348.0269318186092,16.069956525517235,198.33801078098807,1.401893288,0.1321566104888916,-0.10816111502008877,0.05638731633135918,0.016810658957786714,-10850.752420076204,526.4759765188212,3039.656020868352,-0.010581947147357568,-0.09300067583419414,0.26687978071018514,0.6429856966166767,0.026901913943333966,-0.12134569481384005,-154445.09176780639,275421.7448533795,94016.93034593057,0.00946548964305536,0.007660358862049099
10926,1724812251836618603,0.1549631059169769,-0.5276464223861694,0.1320782154798507,-0.0013439983595162,-0.0469489954411983,0.133172869682312,0.9899792671203612,0.0,0.0,0.0,248.14965838515616,194.03853246934426,259.0451343378727,1.402529916,0.1320782154798507,-7.119791135685147,0.3965757339613326,1.981042911384205,-10345.244992632615,1839.0233449895177,-537.2895751446778,-0.015231756007920117,-0.0927319424526048,0.26814303194784483,0.867739155920134,0.03728261293247215,0.006839851018582976,-458108.7073956718,241975.79782047,-55353.96085362995,0.622263742025467,0.6307896291844045
10928,1724812251837073182,0.1554274260997772,-0.5276262164115906,0.13212351500988,-0.0040114922448992,-0.0469273179769516,0.1331742703914642,0.9899729490280152,0.0,0.0,0.0,-57.87071877422511,291.83989673366364,184.9632602066863,1.402984495,0.13212351500988,-11.60554940371544,1.656035783020341,0.5609294061061271,4772.974702108936,5413.268322566416,-957.8212041029158,-0.020529769303527713,-0.09197471514971714,0.26838558194078654,0.9464974523336309,0.18317845439310076,0.1433232468600636,-577919.8462346935,51529.94718369428,-215843.2974970299,1.0015891049312629,0.9596302459040229
10930,1724812251837519820,0.1558172851800918,-0.5274835228919983,0.1322066932916641,-0.0048525198362767,-0.0458599515259265,0.1333770900964737,0.9899918437004088,0.0,0.0,0.0,-274.18147737182085,243.0540677988539,65.3559143662447,1.403431133,0.1322066932916641,-3.0488012030939617,5.233501026342076,1.0837350996902422,17924.730017233018,7430.048466968693,1082.6600652454554,-0.021931022747192275,-0.0896274752984437,0.26882165535393776,0.8192237644552169,0.3007519330083177,0.17534674008442863,-450226.8170973049,-104824.94418137388,-250936.45919312857,0.9393294005609955,0.7367676294702641
10932,1724812251843833286,0.1562013775110244,-0.527256429195404,0.1323422938585281,-0.0048950808122754,-0.0445693768560886,0.1336168795824051,0.9900182485580444,0.0,0.0,0.0,-75.04478500484772,-25.71683059908802,-14.411287909463349,1.409744599,0.1323422938585281,0.044705377114012554,0.4065539905371986,0.07668758038235016,294.72494965143613,-470.26252639609385,-99.22010131057658,-0.02168669144303646,-0.0870507630579275,0.2692514101883299,0.05005373636998467,0.033689861006585886,0.02188639959922245,22144.72848078267,-24898.982725270485,-7100.331496374828,0.06982238970975582,0.04699880845570314
10934,1724812251853666178,0.1565284132957458,-0.5269600749015808,0.1325637549161911,-0.0053219073452055,-0.0431920439004898,0.1337177753448486,0.9900635480880736,0.0,0.0,0.0,-1.203448810214289,0.08802181078751037,0.5226676673712183,1.419577491,0.1325637549161911,-0.04755722299739627,0.28926201340374,0.024326802916910122,-10.403206277731918,-1.8738859714550777,-9.453514079324904,-0.022169494545495334,-0.08420193210951454,0.2694288819747993,0.028626361362060315,0.03478320436542148,0.03172419405066407,3915.107689002011,1333.2277649082055,726.553576771991,0.04183411202166359,0.022021268951181297
10936,1724812251864112741,0.1567760407924652,-0.5265451669692993,0.1329972892999649,-0.0064275679178535,-0.0413405671715736,0.1330471634864807,0.9902262687683104,0.0,0.0,0.0,-0.1979046744823223,-0.31378308018334633,-0.6798460803925335,1.430024054,0.1329972892999649,-0.1675571176255752,0.38127818009299963,-0.12024966980117327,-1.040423286953529,-0.5476970033783957,-0.9381850965212739,-0.02380884747665319,-0.08024879602846577,0.2680768431654304,0.0268833416791594,0.03544556964051182,0.03188105254440732,41.5456847529632,-23.649669804696316,-71.1316049813799,0.03659707680076873,0.008871143219552227
10938,1724812251873478820,0.157054528594017,-0.5262490510940552,0.1332151144742965,-0.0070243650116026,-0.0400169864296913,0.132924735546112,0.990293025970459,0.0,0.0,0.0,-0.26820593567339857,-0.4108960659269536,-0.9767604360293627,1.439390133,0.1332151144742965,-0.08957807211402824,0.29758307066369055,-0.02069892502877832,8.884859914890368,-8.887985853434003,7.385852489247278,-0.024627194753621653,-0.0774671202234755,0.2678147231432435,0.024768982480320112,0.029339271795542743,0.019678566724492974,-0.7069721719508415,8.349395687820653,-2.2033971196104645,0.038728765103164364,0.018395329410919623
10940,1724812251885989768,0.1572814434766769,-0.525920033454895,0.1334015130996704,-0.0069928201846778,-0.038830891251564,0.1330326199531555,0.9903259873390198,0.0,0.0,0.0,-0.16342793531626,0.006373500133591836,-0.5113691642844719,1.451901081,0.1334015130996704,0.030924715142426475,0.1871880357018689,0.01750867020878505,-7.202677235273501,-8.463624571592106,2.8596311107052736,-0.024252662186972966,-0.07512056726452623,0.2679769530668777,0.020703898730438652,0.02822715943106857,0.012907707007476787,-6.398242035311132,-5.172463892800247,14.843092488533514,0.02550246604315318,0.009351923236178917
10942,1724812251894574273,0.1574742943048477,-0.525666356086731,0.1335005909204483,-0.0076191294938325,-0.0384080596268177,0.1331813186407089,0.9903179407119752,0.0,0.0,0.0,-0.30537252128468084,-0.26495378266094827,-0.515630798771615,1.460485586,0.1335005909204483,-0.13006740684048307,0.11665400245429991,0.04091268457266599,-15.328335262804218,-11.672014104081727,7.951246951828434,-0.025393618936214914,-0.07411075200529377,0.26830415194356766,0.020252206313095655,0.02884301377784837,0.008693538834311454,242.1419637894243,193.87675175054548,-67.29598881408434,0.030268605211051864,0.012922691898276419
10944,1724812251903999349,0.1576422750949859,-0.5254018306732178,0.1335530579090118,-0.0087474239990115,-0.0386878512799739,0.133931964635849,0.9901964664459229,0.0,0.0,0.0,4.653610808109731,3.8956408730043144,-1.8411392942795075,1.469910662,0.1335530579090118,-0.2390915434996489,-0.029113781928527645,0.16992120442093792,-7.046026317951264,-11.496890212795842,8.811315799585838,-0.027766669648794432,-0.07434248839240444,0.26991683013242124,0.014758546568203634,0.02286171031019979,0.0035778080053729955,90.10984856754541,64.04969537649242,-13.645919521709317,0.025006661159871015,0.009265241094259406
10946,1724812251930008107,0.1578062027692794,-0.5251807570457458,0.1335033625364303,-0.0099566141143441,-0.039409764111042,0.1345197409391403,0.9900768995285034,0.0,0.0,0.0,-24.29801315809368,-21.524437564982577,6.918291741776102,1.49591942,0.1335033625364303,-0.09783851143831988,-0.04326647526202146,0.0490983798966978,16861.498709552303,-1124.050490602313,5762.575715229802,-0.030409552846445757,-0.07543018081190862,0.2712296887384908,0.5116257947227041,0.4493275725856165,-0.13749372610891442,-3118.1466806036115,-2757.943370062392,858.9642753185872,0.008181920640624809,0.003951865897478002
10948,1724812251930477480,0.1580506265163421,-0.5249661207199097,0.1334376782178878,-0.0081147952005267,-0.0392867177724838,0.135245680809021,0.9899996519088744,0.0,0.0,0.0,-25.77857064766932,-22.83402436026409,7.325889553713805,1.496388793,0.1334376782178878,7.959275525278312,-0.5803822520165312,2.8027479270386437,16413.56738683245,-1094.2621441211022,5609.522748889657,-0.02677380186369616,-0.07566487024448326,0.2725562326465153,0.49985332157522355,0.4389033635496862,-0.13414191955021282,-2960.282553326579,-2616.2666200537237,813.9489338802089,0.6122546746064262,0.3891176439321186
10950,1724812251941185043,0.1582996547222137,-0.5247560739517212,0.1334177553653717,-0.0081349844112992,-0.0396542139351367,0.1355555206537246,0.98994243144989,0.0,0.0,0.0,-10.076691968466921,-8.391891427180687,2.743717253860052,1.507096356,0.1334177553653717,-0.010829975433659551,-0.06833541123334376,0.058330951695422115,-372.666066418632,-98.13604272303405,71.30009276340836,-0.026938816456580437,-0.07637953641711523,0.273202090373588,0.053501899483826776,0.041684437061690005,-0.010544515949689526,2399.6151388218946,2186.052264311411,-663.1028973184318,0.02746485412729185,0.0172273983729563
10952,1724812251944573806,0.1585133969783783,-0.5245911478996277,0.1333727091550827,-0.0095185153186321,-0.0407811477780342,0.1365965753793716,0.9897412061691284,0.0,0.0,0.0,-0.9441353958257335,-0.08591397010308566,0.2444074789506318,1.510485119,0.1333727091550827,-0.875087937350966,-0.5574321782514807,0.651303549656564,-153.56422495541557,-83.39003255721566,109.65324971039514,-0.030079321345918526,-0.07820486405196304,0.2754689303852926,0.05325452296474431,0.0440321879640031,-0.01068381906022342,1927.7490449466122,1741.862430356696,-521.1754387955235,0.07266907468076539,0.048496206877361586
10954,1724812251953563404,0.1587579697370529,-0.5243058800697327,0.1333388835191726,-0.0088919643312692,-0.0400266833603382,0.1369723677635193,0.9897258877754213,0.0,0.0,0.0,-1.9101917184412356,-1.3391322467199132,0.718691101918337,1.519474717,0.1333388835191726,0.16426986435845137,0.14615517097987266,0.07912691098918914,49.98364800963536,38.03205669499828,-36.99531830906915,-0.028654843927334733,-0.07687066633271371,0.2761433849372833,0.023992869546488826,0.024689512802023472,-0.0016779339390753378,11.057478888175545,-8.369539340130046,31.016374208031003,0.03443559533756136,0.017824243487937843
10956,1724812251965617283,0.1589952409267425,-0.5241221189498901,0.1333523541688919,-0.0106237065047025,-0.0405386202037334,0.1372853070497512,0.9896447062492372,0.0,0.0,0.0,0.1387152694276652,0.6779086169444648,0.7411370561886041,1.531528596,0.1333523541688919,-0.29405757318433456,-0.045712818782646325,0.0639806505826382,3.24742592277156,-1.190864172082987,0.5594367295487674,-0.03226026067378405,-0.07739795568602212,0.27693342002478083,0.0227042765039851,0.021680610957890423,0.0024090927163706866,76.54620934821328,73.37707589327732,-15.19457023829711,0.023119551583017362,0.014655259526499305
10958,1724812251976227927,0.1592643558979034,-0.5238319635391235,0.1333899796009063,-0.010039173066616,-0.0400261841714382,0.1377639919519424,0.9896050691604614,0.0,0.0,0.0,0.07823738851923157,0.578895975550874,0.4205996615301807,1.54213924,0.1333899796009063,0.12587633574631463,0.07920150997937095,0.08687830074869503,9.996271987795364,10.19131604231,-3.862688649316355,-0.03099362961671759,-0.0765288351180124,0.27783083444736845,0.026470259004369723,0.03753698013739637,0.014028488692506613,-12.986230138288654,-95.15823268762676,-81.90767394477761,0.03206802184886608,0.016593824755988768
10960,1724812251983972762,0.1594756245613098,-0.5234836339950562,0.1335578858852386,-0.0099840657785534,-0.0394343100488185,0.1378516256809234,0.9896172285079956,0.0,0.0,0.0,-0.0635297089348672,-0.6432716994556877,-0.5060165520048776,1.549884075,0.1335578858852386,0.036076457936075924,0.1491927856880887,0.022927242339610437,-5.496943222311998,0.4451292606788373,-2.938421847755463,-0.030725018676397837,-0.07536843941185109,0.27797309963619143,0.025512066769886488,0.036845141090640965,0.013473152190478288,-9.048461578704769,-91.8794245705149,-73.81518005963039,0.040096102410354176,0.012169486889472479
10962,1724812251994914091,0.1597274541854858,-0.5232061743736267,0.1335784494876861,-0.0096358517184853,-0.0392623096704483,0.1382607370615005,0.989570379257202,0.0,0.0,0.0,-0.019456880067762805,-0.6295485739352624,-0.6052857432643116,1.560825404,0.1335784494876861,0.07018789835361931,0.021255297352618947,0.07299069388465221,-24.305424015435953,-14.628820902621285,1.4635939080418279,-0.0300167071377182,-0.07511172469414987,0.2787664933673767,0.02574733709416499,0.021244548078826142,0.0012234482637909494,-4.807886288370935,50.124512777098374,18.233259202263262,0.029164798499266748,0.014994444226036102
10964,1724812252004138542,0.1599861979484558,-0.5230422019958496,0.1335846334695816,-0.0112363938242197,-0.0401167832314968,0.1384843736886978,0.9894880652427672,0.0,0.0,0.0,-0.13252432347445064,0.21288561766611824,-0.2247347636485032,1.570049855,0.1335846334695816,-0.3672851377422089,-0.13651898900837903,0.062289317285544474,-8.915228523972432,-4.1707573945337755,1.226052223867355,-0.03345132797483115,-0.07635218941434717,0.27938257174055836,0.025249314654180566,0.02163005658143291,-0.00036031661330504505,-8.656889744639313,38.626867439031685,21.96247201554612,0.031822376745108544,0.021972734922125564
10966,1724812252013496903,0.1601959019899368,-0.5228031873703003,0.1335714757442474,-0.0116142835468053,-0.0404111221432685,0.1389175504446029,0.989410936832428,0.0,0.0,0.0,-0.1793549568319588,0.0740308576856481,-0.20236557377233583,1.579408216,0.1335714757442474,-0.08509346829029231,-0.05276020173241791,0.09641789237753158,14.63924123945539,0.6214310113588049,6.397269267210949,-0.03431814082105549,-0.07681507645461984,0.28030375941329827,0.023263476610358325,0.025246716372642197,-0.002967064611739012,3.090649871198612,-10.13548477134104,0.717387693574949,0.02840705347879677,0.014590255394099343
10968,1724812252023821268,0.16044582426548,-0.5225458741188049,0.1335230618715286,-0.012118668295443,-0.0412000566720962,0.1398926079273224,0.989234983921051,0.0,0.0,0.0,-0.05524552427004614,0.022944854962297145,-0.21401348991161007,1.589732581,0.1335230618715286,-0.11066657152323792,-0.14120918936444954,0.19379309608905765,3.1659490800213472,0.014224596495138242,1.9989832166663835,-0.03561995958634678,-0.07820213469320687,0.2823604906776896,0.02178585085593543,0.02245241037756074,-0.004188642238153406,6.772616960314982,1.340315298445487,15.664821474237836,0.029733941815053577,0.016702422708771435
10970,1724812252036647319,0.1606866717338562,-0.5222972631454468,0.1334773153066635,-0.0120155466720461,-0.0412016250193119,0.1405389010906219,0.989144504070282,0.0,0.0,0.0,-0.052007269966747094,0.1403349193393444,0.25448288455872825,1.602558632,0.1334773153066635,0.019853801756540824,-0.0042939801518655,0.10100157036426377,-0.6031057767127557,2.09241204985786,1.5463262845553203,-0.035466918521237095,-0.07821113005668313,0.28366102208589306,0.02247745769333953,0.027424844203004284,-0.008458364300357957,34.30155976259079,14.470744678197006,34.51224437569462,0.02310205038111034,0.012905348289309898
10972,1724812252044930652,0.1608926504850387,-0.5220270752906799,0.1333810836076736,-0.0121992109343409,-0.041353203356266,0.1411918848752975,0.9890429377555848,0.0,0.0,0.0,0.41427126642178635,0.28865128717228083,0.5295815903156731,1.610841965,0.1333810836076736,-0.042806326946496887,-0.03287361734590004,0.1607843870568967,-3.787972031089065,-0.5478746480537742,-0.511895203183353,-0.03592672153726375,-0.07843572846309954,0.2850058481053697,0.021479989979825476,0.02726408744069353,-0.0032081928379361635,40.259732857926295,7.811835437048208,-9.037416503600625,0.032022719858157814,0.01570346608032478
10974,1724812252058012606,0.161103680729866,-0.5217810273170471,0.1335128545761108,-0.0123088238760828,-0.0412379950284957,0.1411501914262771,0.9890523552894592,0.0,0.0,0.0,0.6097302008462169,0.1823076677887956,-0.4615197810197245,1.623923919,0.1335128545761108,-0.01433343920319083,0.019923707601435227,-0.0055997741164142325,30.20734276266785,11.687199998262066,8.189088293691682,-0.03610775102243278,-0.07817789659276006,0.2849230081513146,0.03794641035183588,0.03740484337835426,0.0015660818571703317,-118.4993160837778,-104.11451924061599,-21.51133397986502,0.021490942450560404,0.009344747381855692
10976,1724812252063602320,0.1613678932189941,-0.5215275287628174,0.1335012912750244,-0.0117478584870696,-0.0408613458275795,0.1414212137460708,0.9890361428260804,0.0,0.0,0.0,-0.3713558320976923,-0.628914189767306,-0.45219233368976014,1.629513633,0.1335012912750244,0.2214657518324559,0.10352618103763336,0.09011075586021498,22.173641791081668,6.59393990354488,11.182374286212859,-0.03490750316477429,-0.07758170586636326,0.28540733572777177,0.03980460002474562,0.03700789713017727,-0.0029876226987326504,-126.42569733637217,-92.11340655888573,22.260313824776304,0.057788812726935423,0.032750174786975575
10978,1724812252073741365,0.1616342216730117,-0.5213057398796082,0.1334540992975235,-0.0113868452608585,-0.0407164432108402,0.1419089287519455,0.9889764189720154,0.0,0.0,0.0,-0.7503677463279841,-0.5878737342099756,0.15220599199740037,1.639652678,0.1334540992975235,0.07826664085814074,0.016587162319515767,0.09424256373090345,-9.317828614068873,-5.36433441347193,-1.9034006394741143,-0.034187638597714,-0.07738061400806681,0.28635930760049094,0.023096102607456537,0.020370979498256503,-0.000906330012802492,13.205554370828388,46.181100407951746,21.590865868855385,0.030923027921095976,0.01939272666514291
10980,1724812252085328376,0.1618598401546478,-0.5210896134376526,0.1334932297468185,-0.0111996941268444,-0.040703322738409,0.1421554088592529,0.9889436960220336,0.0,0.0,0.0,0.07250586707805962,0.5051468177005449,-0.10107361347123898,1.651239689,0.1334932297468185,0.03393681988134985,-0.0030588686036186526,0.04158725057215207,21.81258185729978,1.9345860825034564,4.770902283652467,-0.03383185080267706,-0.07739965127793454,0.2868435547546384,0.026286968950469003,0.027502888435364525,0.00015455500891015106,10.040803429705273,33.143524832244765,12.84710462112978,0.024142778326062854,0.01311008545727997
10982,1724812252093901947,0.1621284484863281,-0.5207976698875427,0.1334741115570068,-0.0096204532310366,-0.040307730436325,0.1428206115961074,0.9888807535171508,0.0,0.0,0.0,-0.2282310716185051,0.40113835227940564,0.22924137727067084,1.65981326,0.1334741115570068,0.3835944062832285,0.036556259191109636,0.14158530479858075,-0.9890353805963583,-2.3757922790096195,7.338830428184624,-0.030636176997359522,-0.07704728614081975,0.2880503541002142,0.025621583232254608,0.031133681083524323,-0.0019340313294291533,-13.1586507698994,-6.575797764667161,31.49654920150583,0.039423041509484565,0.020541811863579753
10984,1724812252104127146,0.1623208224773407,-0.5205149054527283,0.1334579437971115,-0.0102881072089076,-0.0407682582736015,0.1436246633529663,0.9887386560440063,0.0,0.0,0.0,-0.09548409077287534,0.401648721686799,0.4655620642455389,1.670038459,0.1334579437971115,-0.13593096363698637,-0.07305781222504967,0.16388666572744978,-28.851123712169887,1.4256602398464713,-6.841531697168765,-0.032157806211047656,-0.0777413380171671,0.2897538326968188,0.021451038222229712,0.03496286338440768,0.006176399423892143,18.932434677458915,-12.569085848527148,-21.474169633677075,0.025729444059271668,0.010276290402879472
10986,1724812252113328889,0.1625400483608245,-0.5201326608657837,0.1335790157318115,-0.0113187991082668,-0.0407272465527057,0.1437007486820221,0.988718032836914,0.0,0.0,0.0,0.1279984365495408,0.18149674914291003,-0.10124026287600599,1.679240202,0.1335790157318115,-0.2195899051256824,0.04063558493453435,0.026219370331507785,18.277548596307838,7.90175284428604,-3.980920025887648,-0.03419619033342682,-0.07735962321516682,0.2899832523108663,0.023159194778484604,0.038883668132658755,0.007747461432799696,10.070281207135405,-20.040628020984684,-28.585836807137312,0.035620647559327145,0.009893163621085506
10988,1724812252124107938,0.1627812832593917,-0.5197470784187317,0.1335942149162292,-0.0096782092005014,-0.0400988459587097,0.1444169878959655,0.988656759262085,0.0,0.0,0.0,0.057036144419133405,0.014525114733471955,0.007458066799472529,1.690019251,0.1335942149162292,0.32300797035066464,0.06957098522103373,0.1219513364575317,8.605415917281027,-4.370965615616098,6.505742626908621,-0.03081390488746839,-0.07656738616412759,0.29127652332538007,0.023811147400074617,0.03775157150968411,0.0032220269491345377,-5.925567455161354,-5.839143398043159,10.047750692417278,0.03172492606807607,0.011071687575690908
10990,1724812252134113897,0.1630328297615051,-0.5193509459495544,0.1336432844400406,-0.0095763467252254,-0.0402716733515262,0.1452392190694809,0.9885303378105164,0.0,0.0,0.0,0.003854886060804086,0.045742682401654466,0.10765668553639446,1.70002521,0.1336432844400406,0.021486156622038156,-0.03969728870035163,0.1649826039152606,-23.59973028127103,-7.508081087159236,-0.4779760977435883,-0.030726732147586283,-0.07691363013474595,0.2929437170085798,0.02434983030752136,0.0390073517476921,0.007265495902099239,-7.568135193707521,15.457921569575205,-9.779321352710532,0.03577290350020842,0.012255908757026725
10992,1724812252144379065,0.1632744669914245,-0.5189566612243652,0.1337427347898483,-0.0103097381070256,-0.0407896600663661,0.1457685530185699,0.988423764705658,0.0,0.0,0.0,-0.0975617024429174,0.3343537086829289,-0.20117386778232502,1.710290378,0.1337427347898483,-0.15195368131570805,-0.08083440102176963,0.10975285349782758,-0.022960746049918962,-0.8888145980657338,-0.6889842324138868,-0.03237581907078863,-0.07770744930188936,0.29409939378694683,0.023863043446073817,0.038636942340605884,0.005248673950732474,-0.9670737718173492,38.285168162781936,-23.94334746480818,0.03431352955505045,0.010614525759150648
10994,1724812252153893451,0.1635043621063232,-0.518587052822113,0.1337535232305526,-0.0103108212351799,-0.0410754419863224,0.1464506685733795,0.9883111119270324,0.0,0.0,0.0,-0.028166849693709972,0.7882943534619593,-0.37481730599793406,1.719804764,0.1337535232305526,-0.0033773625742796265,-0.06178922243825604,0.14456808896795206,4.919047674272114,9.122647108432908,-1.879286709228536,-0.032516864343592564,-0.07825040990806911,0.29549748406793447,0.02249263920049316,0.045084824115434685,0.0032931679461247754,4.155670130651329,-10.924151083132802,-18.29385125178947,0.0344118530838082,0.011736866000349963
10996,1724812252163663569,0.163707360625267,-0.5180839896202087,0.133807361125946,-0.0106980726122856,-0.0406397692859172,0.1467741429805755,0.988277018070221,0.0,0.0,0.0,-0.019048212085385874,0.09329407747077179,-0.5539841240931658,1.729574882,0.133807361125946,-0.06263690208553396,0.09878236619711468,0.07064092449762648,0.9013003663248442,10.967761109973697,1.1713109720908195,-0.03318010944149216,-0.07726314779412558,0.2961575783317893,0.023379918530210375,0.053896134133626816,-0.0020672390993627943,316.8318463919045,587.2363481578363,-45.84705666786684,0.035221362854798426,0.004460877024345425
10998,1724812252173552606,0.1639646142721176,-0.5175269246101379,0.1337110698223114,-0.010764623992145,-0.0398738533258438,0.1475983709096908,0.988184690475464,0.0,0.0,0.0,6.276069447792285,12.490403497716033,-1.282714157610268,1.739463919,0.1337110698223114,0.01600846775362241,0.15251946988819512,0.1696859422953069,5.431754961132508,3.123649123772529,6.681867684296631,-0.033146484338400686,-0.07570006002560274,0.2977894202943077,0.022091878630308814,0.04672542801776247,-0.00759896741628141,-405.8149170207003,5838.187823918271,-4523.294328310596,0.04054223601892983,0.009212079070615735
11000,1724812252207421354,0.1642578840255737,-0.5170586705207825,0.1337017267942428,-0.0122938537970185,-0.040265180170536,0.147692933678627,0.9881368279457092,0.0,0.0,0.0,-128.38183431383732,742.0154262152,-670.6187623586034,1.773332667,0.1337017267942428,-0.09245486879657025,-0.009679588102491107,0.009287246789931798,26308.253148418666,10750.784627522764,17495.592200464926,-0.036302572338589585,-0.07601677412499286,0.2981160857098299,0.9777640133490877,2.0027117240451844,-0.13494701841887036,-238101.07223864645,-569682.9892968687,89822.56037236983,0.01228133146162071,0.004254385417813513
11002,1724812252207697482,0.1645300537347793,-0.5165011882781982,0.1336641609668731,-0.0113952727988362,-0.0397024378180503,0.1483936756849289,0.9880654215812684,0.0,0.0,0.0,-194.65527914390532,583.3790175606237,-645.569535835489,1.773608795,0.1336641609668731,7.23122385178337,2.9831264447087253,4.879707564466946,4205.381733121281,8021.435587557321,12783.564753374569,-0.034405596744790115,-0.07514594288663834,0.2994373471127339,0.9419616528350048,2.2091434008007127,-0.3216248948930911,-228427.61192352034,-624840.8339923591,139875.93269340997,1.5228016552017758,0.36006736162819164
11004,1724812252207953072,0.1647604703903198,-0.5158915519714355,0.1335380524396896,-0.011131465435028,-0.0390834286808967,0.1492862850427627,0.9879586696624756,0.0,0.0,0.0,-250.2989671213724,411.7670827721243,-598.1884086786863,1.773864385,0.1335380524396896,3.0262394895794764,4.366871482630464,6.998534634348451,-15992.931844897555,5245.81027292822,8031.117762619961,-0.03376281624108928,-0.07396950960085927,0.30119191978827237,0.8768328145113881,2.3193992963422914,-0.47941363573384327,-210845.04497967203,-654074.7848234419,182144.1754921759,1.5277674705042856,0.1968069726802402
11006,1724812252216669503,0.1650681644678115,-0.5152379870414734,0.133517324924469,-0.0107575198635458,-0.0385015606880188,0.1495688259601593,0.98794287443161,0.0,0.0,0.0,-48.395654848423895,-129.12717172199234,27.755058666984155,1.782580816,0.133517324924469,0.10719399352736013,0.11823053650124268,0.06272262777978815,-154.18325125634922,-250.8217586391736,-397.97081912412915,-0.03286614195144949,-0.07292131539690576,0.3017053624013081,0.03832809417415817,0.07904554379932804,0.002750279945630041,14367.43498614665,-23994.26071948491,34580.623838098436,0.05566440978569983,0.011707932659113561
11008,1724812252225508354,0.1654340773820877,-0.5145028829574585,0.1335875988006591,-0.0092012044042348,-0.0381597317755222,0.1501102894544601,0.9878897666931152,0.0,0.0,0.0,-0.2433538904669459,-0.07480864104177698,-0.2955248619405209,1.791419667,0.1335875988006591,0.3640639715614242,0.021962498788801656,0.1101127104111392,11.915529723027307,5.557728005835352,6.560406822604326,-0.029718745660629407,-0.07269684096027634,0.3026746699833922,0.03901960373038804,0.08407015904090187,0.0010386735331504582,2659.9676063228694,7131.361686501593,-1547.2208043724934,0.06471407612457614,0.014182838906875163
11010,1724812252234072434,0.1657485067844391,-0.5137754082679749,0.1335391402244568,-0.0079925525933504,-0.0370729342103004,0.1509003937244415,0.9878213405609132,0.0,0.0,0.0,-0.5962035440842104,-0.9797265202256362,-0.050965696996600654,1.799983747,0.1335391402244568,0.32383509186038784,0.20605227560416944,0.17624436181739225,-7.609865010918645,11.976604296047757,-2.76843928458123,-0.02705030008019297,-0.0708900727469175,0.30413714692275134,0.03426700301085717,0.07809166770694631,-0.0023376022381791373,10.672356292184617,13.527716521859446,45.91279076060735,0.05991568615341544,0.010096129969027668
11012,1724812252243864619,0.1660566478967666,-0.5130874514579773,0.1335534304380417,-0.0071103302761912,-0.0358632318675518,0.1510842889547348,0.9878445863723756,0.0,0.0,0.0,0.08909842023887227,0.4872616509991512,0.59295015048422,1.809775932,0.1335534304380417,0.21670871638230682,0.21675123438150104,0.03168033906279006,-9.675482441682984,-0.536837144817822,-6.898399900038427,-0.024946074402943386,-0.06876025046202963,0.304392681748636,0.02796692994292105,0.06534467901196273,0.0010067340405148784,56.33773932626913,126.3808773023488,50.88662727924575,0.05105762199248983,0.008908785398095665
11014,1724812252257348986,0.1663687527179718,-0.512297511100769,0.1335586011409759,-0.006582629866898,-0.034553475677967,0.1516661494970321,0.9878056645393372,0.0,0.0,0.0,0.5953730533886405,1.756339711894631,1.002979484787399,1.823260299,0.1335586011409759,0.1097211649029405,0.17925576141267563,0.08469897343429987,-134.1321317957585,-26.884708311026326,10.91719806246075,-0.02353981555905703,-0.06631611086245359,0.30547828251151365,0.04276949490679982,0.10513473851572996,0.01367081553490479,-89.7634105947757,-215.32980427226198,-38.62416117694228,0.03963075008275103,0.004472190412049869
11016,1724812252263376882,0.1666794419288635,-0.5115383267402649,0.1336768120527267,-0.0096713257953524,-0.0351670011878013,0.1520622819662094,0.9876977801322936,0.0,0.0,0.0,-0.2887627462406984,-0.37548802956212635,0.5841408149524226,1.829288195,0.1336768120527267,-1.0388715383751255,-0.04775421811375938,0.16932968911995855,-90.2771505629423,-20.008888065315194,8.955451776850836,-0.029870449986080554,-0.06657662226268497,0.3065086315064533,0.04500459595997519,0.11250305198891297,0.019888621509735138,-13.030468756754658,-69.12311159274216,-15.933062491944668,0.08825293669013826,0.009864671041360322
11018,1724812252274398127,0.1670437157154083,-0.5105692744255066,0.1339016109704971,-0.0098491571843624,-0.0346935763955116,0.1529561579227447,0.9875747561454772,0.0,0.0,0.0,2.2606702201902413,4.596385153708036,1.4876287653804725,1.84030944,0.1339016109704971,-0.013321268539078494,0.08740767725160396,0.1655745876676869,77.34690848630842,9.968797752914496,-0.6177928948384118,-0.03013604063253793,-0.06555897377202463,0.3083076866947033,0.02853139694562601,0.07616636564650614,0.017311762730486513,3105.2914630820587,6970.571741616587,3681.0072431121343,0.05938557714979014,0.003463405054179312
11020,1724812252329646413,0.1673680394887924,-0.5096180438995361,0.1340036243200302,-0.0123582100495696,-0.0349872708320617,0.1543612778186798,0.987317442893982,0.0,0.0,0.0,969.7793825995254,2195.294710879768,1201.6212464964624,1.895557726,0.1340036243200302,-0.08965292890122284,0.002568894573983138,0.05470482684310807,2522.364814680624,18168.434272012535,8504.835267909724,-0.035286867792149915,-0.06531826390996898,0.3113301963507277,1.193486296236415,2.516200927514319,0.5762588419233339,-211684.7991764648,-2372919.831544656,-930854.0517833689,0.010959565961996428,0.00020847462332357388
11022,1724812252330034469,0.1678344160318374,-0.5086348056793213,0.1342288106679916,-0.0124221984297037,-0.0335916951298713,0.154997318983078,0.9872655272483826,0.0,0.0,0.0,887.0091155164555,1267.8931080281336,837.8013567096186,1.895945782,0.1342288106679916,0.8960447196272376,7.10246379239973,3.3782438506608017,-20380.551762740975,16657.728075168547,7021.766488710253,-0.035016812415803095,-0.06251774712067894,0.3125459935550027,1.5724008104221525,3.3739614376011104,1.0458027992133907,-1426929.4609392704,-5079140.223583215,-2377967.8460640092,1.9551870834049172,0.32731249551727415
11024,1724812252330277359,0.1682726740837097,-0.5076875686645508,0.1345535963773727,-0.0135510163381695,-0.032419417053461,0.1555313020944595,0.9872058629989624,0.0,0.0,0.0,355.91519923365877,-374.62554517015633,41.23146579878153,1.896188672,0.1345535963773727,-7.538777322130303,10.899386678553048,4.849208239263448,-24400.495787832748,6482.9605584345645,-771.6519560603642,-0.03691417109038551,-0.05982975078089876,0.31362987453060825,1.7742499795081699,3.538631534434785,1.1927130777876869,-2077245.5615694397,-5629880.061634018,-2833938.7423304673,2.9942222939358394,0.4278793595104129
11026,1724812252330579639,0.1687976717948913,-0.5067538022994995,0.1348597854375839,-0.0154281063005328,-0.0312693230807781,0.1557630747556686,0.9871788620948792,0.0,0.0,0.0,-230.87085202137538,-1650.3821636825385,-647.776300602308,1.896490952,0.1348597854375839,-11.029843577126616,9.417160580512292,2.0474124675756675,-11305.7461356642,-4818.624706822654,-9087.924989865965,-0.04027801003688344,-0.05696136879404544,0.31413932896366015,1.7031013355526552,3.0294151868582,0.993150610846158,-1902538.5356202908,-4135215.947730252,-2233609.2469272683,2.659757359521218,0.6347063682396933
11028,1724812252345550920,0.1693132519721985,-0.5056389570236206,0.1350607722997665,-0.0144817307591438,-0.0295703914016485,0.1569879502058029,0.9870515465736388,0.0,0.0,0.0,-46.72593321177919,-361.6686809934472,-156.8599811838701,1.911462233,0.1350607722997665,0.165010534635268,0.2013001424211248,0.1637296081888436,-1180.5655510965507,44787.830150053815,10701.736951369281,-0.03793690601006186,-0.05385411477569551,0.31647447122178085,1.5852207223036316,3.682313446926173,0.5003849976952779,-416545.0041598072,-957202.8755085396,-121751.56982206024,0.056544329822063026,0.008821660035021705
11030,1724812252345882342,0.169850006699562,-0.5043920874595642,0.1352301836013794,-0.0149396285414695,-0.0270521268248558,0.1575692296028137,0.9870243072509766,0.0,0.0,0.0,-187.92443915564718,-686.5610707231353,-198.34496670869578,1.911793655,0.1352301836013794,-0.24040246866031334,15.37808576557322,3.7899597459859806,-24287.683431412468,10193.85120559763,8173.435685291453,-0.03807106609606837,-0.04871342581496978,0.31753737776839563,1.5694496715612445,3.5594750607328933,0.44748878879178733,-415647.793812825,-929645.5524199944,-109282.74883877809,2.73491519697486,0.33987282420092557
11032,1724812252346205542,0.1703414618968963,-0.5033055543899536,0.1353547424077987,-0.017603550106287,-0.0262409932911396,0.1583701372146606,0.9868741035461426,0.0,0.0,0.0,-318.9868673732836,-971.0577121368635,-228.6569259715133,1.912116855,0.1353547424077987,-15.359674408029724,7.452549449289893,5.559192701260172,-44900.47476791701,-23608.987338510455,5237.330644341659,-0.04311597145850915,-0.04623382972697858,0.3192367992921858,1.464480349905521,3.238006025598366,0.3711731765582802,-388813.35286797874,-842672.3967029178,-89186.93810037992,2.5139790012183783,0.37237746359061524
11034,1724812252354261914,0.1708715856075287,-0.5020788908004761,0.1354895532131195,-0.0166777819395065,-0.0235570836812257,0.1591666936874389,0.9868296980857848,0.0,0.0,0.0,-97.39392392392497,-213.6919561909621,-23.39360418276941,1.920173227,0.1354895532131195,0.3373201987665573,0.6173695538171003,0.20259409940160883,1071.8032999865682,-470.95195645674414,-377.0010246259944,-0.04046062501538925,-0.04119621629004657,0.3206610936140803,0.058246754962094194,0.1514685277911454,0.02877659299096713,19577.021581616173,61625.17333761251,15172.659513109253,0.11103460885261679,0.013816412054097137
11036,1724812252364372210,0.1713646203279495,-0.500557541847229,0.1359332948923111,-0.0169450808316469,-0.0202934369444847,0.1593355387449264,0.9868704080581664,0.0,0.0,0.0,-0.057316382230363505,-1.515524225232359,-0.7510424889294335,1.930283523,0.1359332948923111,0.05150033680751373,0.6451545339406142,0.043691859540525395,-19.578408055944298,-5.917937748081812,-6.414372346825139,-0.03994673930174319,-0.03466101742388146,0.3208404377137391,0.05250084716374381,0.14062707250393203,0.03468074109177266,4693.086040202008,10225.588974820157,1049.6808006838987,0.09519630330147548,-0.002964655977517375
11038,1724812252373998869,0.1719042658805847,-0.4992940425872803,0.1361827403306961,-0.0176139753311872,-0.0179152153432369,0.1596072316169738,0.9868609309196472,0.0,0.0,0.0,-0.10794971624132454,-1.7104819215789373,-1.552695389031811,1.939910182,0.1361827403306961,-0.05730419584419916,0.5087495061646505,0.06721107002818673,-22.299248618936367,-28.37491375590938,12.126139557014119,-0.04051287699806635,-0.02974140093846933,0.3212902529124802,0.056633043538428574,0.12197514223399963,0.015213741736998188,44.62490485210435,127.72133320191449,10.118880755161136,0.09536515682737562,0.010839841463289358
11040,1724812252384387012,0.1724990308284759,-0.4981309175491333,0.1362208575010299,-0.019800366833806,-0.0179486665874719,0.1611098796129226,0.986574649810791,0.0,0.0,0.0,0.914819687670037,1.2750645042026516,-0.40065483230829235,1.950298325,0.1362208575010299,-0.41222491836555053,0.054746219125347856,0.3017243025204127,-14.93916675183879,-26.00892612686984,12.773757470056129,-0.04488648472329088,-0.02903941072842802,0.3243988088431774,0.049489766713565864,0.10675157692443094,0.004347166219345944,61.07212947398639,198.07633400127114,74.5012466063744,0.09002471235198545,0.01857782835816228
11042,1724812252397190317,0.1730101406574249,-0.4968464374542236,0.1362872123718261,-0.0217323116958141,-0.0182125885039567,0.1630363464355468,0.9862125515937804,0.0,0.0,0.0,1.1068368221010836,2.4015800797857274,-0.021157166274182626,1.96310163,0.1362872123718261,-0.3000975796041839,0.0009736238968592213,0.3106058966001231,-12.996728579755825,48.146655069556786,-0.17730565806394338,-0.04884370793665186,-0.028840651390735526,0.32837227384010353,0.08648921400828868,0.16632225900093545,0.00940186761298456,-208.34736259831325,-315.87853842750656,30.209634363882913,0.07026223110505254,0.005366035025282562
11044,1724812252403385908,0.173685610294342,-0.4956181049346924,0.1363581120967865,-0.0233420692384243,-0.0170232988893985,0.1639176905155182,0.9860509634017944,0.0,0.0,0.0,-0.853604151804463,-0.7662937567552301,0.1677153781394456,1.969297221,0.1363581120967865,-0.4458414985202586,0.4562098273584301,0.3068960513061849,9.169895233037103,40.70684605493979,-5.363512334467144,-0.05165409252717322,-0.02592222740471583,0.3301300052108208,0.08800114700526063,0.17445225221884542,0.008023723277149841,-199.5070622211166,-389.29323731223445,37.97470338205207,0.16764620145082668,0.03869839661525053
11046,1724812252413766267,0.174233466386795,-0.4942212700843811,0.1363819241523742,-0.0225042328238487,-0.0152369439601898,0.1647607386112213,0.9859590530395508,0.0,0.0,0.0,-0.8911544502047049,-2.685201112440324,0.6921652305354841,1.97967758,0.1363819241523742,0.2179444198171471,0.30882509636285527,0.16835421626781646,-18.274580369517015,-28.256560682398742,-12.929319199138321,-0.04943018505139207,-0.02263230970877724,0.33171379912528204,0.06005064247877101,0.13034892104427342,0.016550125745431465,74.52767002277972,-6.869486676422348,-29.885905840798817,0.09375190448999825,0.006175034569681169
11048,1724812252423597402,0.1748915463685989,-0.4929790496826172,0.1366773694753646,-0.0259513463824987,-0.0163048598915338,0.1649349629878997,0.985828161239624,0.0,0.0,0.0,0.5691439167036592,-1.0954767729409651,-0.3503347547366904,1.989508715,0.1366773694753646,-0.727271959973211,-0.09986386746810856,0.04512902700301038,-14.18609046368519,-8.00152473766867,2.8820358998490185,-0.05659155704763318,-0.02358919902410111,0.33220901962430494,0.06806310280193895,0.11850830726425698,0.0221516163551696,102.44136399759192,110.8450994558487,-36.01148342970036,0.10516687349703784,0.021054145339738282
