seq,stamp,px,py,pz,ox,oy,oz,ow,lx,ly,lz,ax,ay,az
19084,1724816793624205844,-1.8381743431091309,-0.6105588674545288,0.17523053288459778,-0.014990377239882946,-0.037953831255435944,0.38875454664230347,-0.920437216758728,0.0,0.0,0.0,0.0,0.0,0.0
19086,1724816793633884895,-1.8381786346435547,-0.6105411648750305,0.17522886395454407,-0.015175113454461098,-0.037819962948560715,0.38874176144599915,-0.9204450845718384,0.0,0.0,0.0,0.0,0.0,0.0
19088,1724816793648794550,-1.838173270225525,-0.6105482578277588,0.17519231140613556,-0.015110595151782036,-0.03778815269470215,0.38863882422447205,-0.9204909205436707,0.0,0.0,0.0,0.0,0.0,0.0
19090,1724816793662771156,-1.838160514831543,-0.6105340719223022,0.17521588504314423,-0.015120348893105984,-0.037844084203243256,0.3887052834033966,-0.9204604625701904,0.0,0.0,0.0,0.0,0.0,0.0
19092,1724816793663686776,-1.8381510972976685,-0.6105151176452637,0.17521683871746063,-0.015198132954537868,-0.03785879909992218,0.3886740207672119,-0.9204717874526978,0.0,0.0,0.0,0.0,0.0,0.0
19094,1724816793678829186,-1.838160753250122,-0.6105122566223145,0.17519740760326385,-0.014974893070757389,-0.037764739245176315,0.38861969113349915,-0.9205021858215332,0.0,0.0,0.0,0.0,0.0,0.0
19096,1724816793684221251,-1.8381431102752686,-0.61049485206604,0.1752004474401474,-0.01509137637913227,-0.03779206424951553,0.38857102394104004,-0.9205197095870972,0.0,0.0,0.0,0.0,0.0,0.0
19098,1724816793693887885,-1.8381587266921997,-0.6104936003684998,0.17518164217472076,-0.015106839127838612,-0.03777000680565834,0.38853704929351807,-0.9205347895622253,0.0,0.0,0.0,0.0,0.0,0.0
19100,1724816793704110947,-1.838153600692749,-0.6104913949966431,0.17520658671855927,-0.014976526610553265,-0.037823986262083054,0.3885634243488312,-0.9205235838890076,0.0,0.0,0.0,0.0,0.0,0.0
19102,1724816793713637297,-1.8381398916244507,-0.610499918460846,0.17521362006664276,-0.015041827224195004,-0.03778292238712311,0.38850441575050354,-0.9205490350723267,0.0,0.0,0.0,0.0,0.0,0.0
19104,1724816793723887401,-1.8381482362747192,-0.6105079650878906,0.1752241551876068,-0.015005698427557945,-0.03794188052415848,0.38846728205680847,-0.920558750629425,0.0,0.0,0.0,0.0,0.0,0.0
19106,1724816793735812712,-1.838138461112976,-0.6104916334152222,0.17520128190517426,-0.014916366897523403,-0.03800636902451515,0.3884022533893585,-0.9205849766731262,0.0,0.0,0.0,0.0,0.0,0.0
19108,1724816793743375206,-1.8381215333938599,-0.6104823350906372,0.17526943981647491,-0.014888494275510311,-0.038130100816488266,0.3886198103427887,-0.9204885363578796,0.0,0.0,0.0,0.0,0.0,0.0
19110,1724816793754535864,-1.8381222486495972,-0.6104819774627686,0.17522434890270233,-0.015077350661158562,-0.03793546184897423,0.38848382234573364,-0.9205509424209595,0.0,0.0,0.0,0.0,0.0,0.0
19112,1724816793763636138,-1.8381444215774536,-0.6104916334152222,0.17521445453166962,-0.014954643324017525,-0.03773679584264755,0.3883460462093353,-0.9206191301345825,0.0,0.0,0.0,0.0,0.0,0.0
19114,1724816793774167798,-1.8381402492523193,-0.6104763746261597,0.17523695528507233,-0.014801060780882835,-0.038008518517017365,0.38844209909439087,-0.9205699563026428,0.0,0.0,0.0,0.0,0.0,0.0
19116,1724816793784333429,-1.8381296396255493,-0.610493540763855,0.175200954079628,-0.015167737379670143,-0.037831056863069534,0.3884044289588928,-0.9205872416496277,0.0,0.0,0.0,0.0,0.0,0.0
19118,1724816793793894147,-1.8381314277648926,-0.6104740500450134,0.175245001912117,-0.014974494464695454,-0.03804502263665199,0.38847386837005615,-0.9205522537231445,0.0,0.0,0.0,0.0,0.0,0.0
19120,1724816793804195790,-1.8381024599075317,-0.6104661226272583,0.17526067793369293,-0.015032305382192135,-0.03804554417729378,0.38855069875717163,-0.9205188155174255,0.0,0.0,0.0,0.0,0.0,0.0
19122,1724816793813782767,-1.8381015062332153,-0.6104532480239868,0.17526578903198242,-0.014923522248864174,-0.03811117261648178,0.3886096477508545,-0.920492947101593,0.0,0.0,0.0,0.0,0.0,0.0
19124,1724816793824898166,-1.8380800485610962,-0.6104501485824585,0.17528320848941803,-0.015315861441195011,-0.038278739899396896,0.3887415826320648,-0.9204238653182983,0.0,0.0,0.0,0.0,0.0,0.0
19126,1724816793835374161,-1.8380836248397827,-0.6104657053947449,0.17525935173034668,-0.015399417839944363,-0.038018859922885895,0.3885323405265808,-0.9205216765403748,0.0,0.0,0.0,0.0,0.0,0.0
19128,1724816793846711266,-1.8381009101867676,-0.6104627847671509,0.17523834109306335,-0.015123977325856686,-0.038010839372873306,0.38839223980903625,-0.9205856323242188,0.0,0.0,0.0,0.0,0.0,0.0
19130,1724816793853664843,-1.8380903005599976,-0.6104637980461121,0.17524950206279755,-0.015131732448935509,-0.038000427186489105,0.3884938955307007,-0.9205430746078491,0.0,0.0,0.0,0.0,0.0,0.0
19132,1724816793864695512,-1.8380744457244873,-0.610467255115509,0.17527203261852264,-0.015295060351490974,-0.038039110600948334,0.3885330259799957,-0.9205222725868225,0.0,0.0,0.0,0.0,0.0,0.0
19134,1724816793874555388,-1.8381056785583496,-0.6104575991630554,0.17524851858615875,-0.014926198869943619,-0.037999227643013,0.3884863257408142,-0.9205496311187744,0.0,0.0,0.0,0.0,0.0,0.0
19136,1724816793884662261,-1.8381057977676392,-0.6104422211647034,0.17525431513786316,-0.015038198791444302,-0.03792829066514969,0.388583779335022,-0.9205096364021301,0.0,0.0,0.0,0.0,0.0,0.0
19138,1724816793897717553,-1.8380985260009766,-0.6104505658149719,0.17529089748859406,-0.015174499712884426,-0.03805184364318848,0.3886610269546509,-0.9204696416854858,0.0,0.0,0.0,0.0,0.0,0.0
19140,1724816793903880847,-1.838103175163269,-0.6104446649551392,0.1752694994211197,-0.015023523941636086,-0.038082364946603775,0.38857215642929077,-0.9205084443092346,0.0,0.0,0.0,0.0,0.0,0.0
19142,1724816793914281181,-1.8381145000457764,-0.6104495525360107,0.17521211504936218,-0.015235953964293003,-0.03787883743643761,0.3884333074092865,-0.9205719828605652,0.0,0.0,0.0,0.0,0.0,0.0
19144,1724816793924211282,-1.838089942932129,-0.6104254722595215,0.17526915669441223,-0.015348131768405437,-0.03809856250882149,0.3887138068675995,-0.9204425811767578,0.0,0.0,0.0,0.0,0.0,0.0
19146,1724816793934106682,-1.838098168373108,-0.6104312539100647,0.17524565756320953,-0.015217170119285583,-0.03792204707860947,0.388578325510025,-0.9205092191696167,0.0,0.0,0.0,0.0,0.0,0.0
19148,1724816793944467942,-1.8380889892578125,-0.610427737236023,0.17526987195014954,-0.015348175540566444,-0.038133639842271805,0.38862237334251404,-0.9204797148704529,0.0,0.0,0.0,0.0,0.0,0.0
19150,1724816793954790869,-1.8380858898162842,-0.6104345917701721,0.17528285086154938,-0.01517253927886486,-0.0379832498729229,0.38853445649147034,-0.9205260276794434,0.0,0.0,0.0,0.0,0.0,0.0
19152,1724816793963902092,-1.8380836248397827,-0.610435962677002,0.17528894543647766,-0.015343434177339077,-0.03820185363292694,0.3886454403400421,-0.92046719789505,0.0,0.0,0.0,0.0,0.0,0.0
19154,1724816793977367335,-1.8381004333496094,-0.610434353351593,0.17525483667850494,-0.014977829530835152,-0.03796304017305374,0.38855278491973877,-0.9205222725868225,0.0,0.0,0.0,0.0,0.0,0.0
19156,1724816793983711978,-1.8381011486053467,-0.6104247570037842,0.17529620230197906,-0.014982239343225956,-0.03812986612319946,0.38864246010780334,-0.9204773902893066,0.0,0.0,0.0,0.0,0.0,0.0
19158,1724816793995607232,-1.8381342887878418,-0.6104386448860168,0.17528033256530762,-0.015056553296744823,-0.038001056760549545,0.3884336054325104,-0.9205697178840637,0.0,0.0,0.0,0.0,0.0,0.0
19160,1724816794003745005,-1.83809494972229,-0.6104257106781006,0.1753169298171997,-0.015225890092551708,-0.03815019875764847,0.3887346088886261,-0.9204337000846863,0.0,0.0,0.0,0.0,0.0,0.0
19162,1724816794013494396,-1.8380928039550781,-0.6104200482368469,0.17531536519527435,-0.015199514105916023,-0.038094136863946915,0.38877612352371216,-0.920418918132782,0.0,0.0,0.0,0.0,0.0,0.0
19164,1724816794023961070,-1.838118314743042,-0.6104329228401184,0.17525504529476166,-0.015320210717618465,-0.037866126745939255,0.38854071497917175,-0.9205256700515747,0.0,0.0,0.0,0.0,0.0,0.0
19166,1724816794034054977,-1.8381071090698242,-0.6104258894920349,0.17526257038116455,-0.015264573507010937,-0.038034334778785706,0.3884586691856384,-0.9205542802810669,0.0,0.0,0.0,0.0,0.0,0.0
19168,1724816794043629393,-1.8381049633026123,-0.6104161143302917,0.17531093955039978,-0.015306747518479824,-0.038133587688207626,0.38867682218551636,-0.9204574227333069,0.0,0.0,0.0,0.0,0.0,0.0
19170,1724816794053508163,-1.8381214141845703,-0.6104243397712708,0.17528699338436127,-0.014678174629807472,-0.03805423527956009,0.3885016143321991,-0.9205448627471924,0.0,0.0,0.0,0.0,0.0,0.0
19172,1724816794063282418,-1.8381232023239136,-0.6104259490966797,0.1752491146326065,-0.01511590275913477,-0.037837475538253784,0.3884768486022949,-0.9205572009086609,0.0,0.0,0.0,0.0,0.0,0.0
19174,1724816794074048363,-1.8381117582321167,-0.6104250550270081,0.17528733611106873,-0.014880247414112091,-0.038057003170251846,0.3885849416255951,-0.9205064177513123,0.0,0.0,0.0,0.0,0.0,0.0
19176,1724816794084416995,-1.838121771812439,-0.6104321479797363,0.17528915405273438,-0.015126965939998627,-0.037990111857652664,0.38857147097587585,-0.9205107688903809,0.0,0.0,0.0,0.0,0.0,0.0
19178,1724816794117354172,-1.838100790977478,-0.6104269623756409,0.17533192038536072,-0.015310781076550484,-0.03810817375779152,0.38876810669898987,-0.9204198718070984,0.0,0.0,0.0,0.0,0.0,0.0
19180,1724816794117935610,-1.8380903005599976,-0.6104103922843933,0.175308495759964,-0.015177177265286446,-0.037932783365249634,0.38863280415534973,-0.9204865097999573,0.0,0.0,0.0,0.0,0.0,0.0
19182,1724816794118338744,-1.8381248712539673,-0.6104224324226379,0.17531777918338776,-0.015031960792839527,-0.03798045963048935,0.3884803056716919,-0.9205512404441833,0.0,0.0,0.0,0.0,0.0,0.0
19184,1724816794126218282,-1.8380794525146484,-0.6104011535644531,0.17536740005016327,-0.015184286050498486,-0.03827739506959915,0.38872238993644714,-0.920434296131134,0.0,0.0,0.0,0.0,0.0,0.0
19186,1724816794134073096,-1.8381094932556152,-0.6104031205177307,0.17533379793167114,-0.014891187660396099,-0.038026489317417145,0.38855281472206116,-0.920521080493927,0.0,0.0,0.0,0.0,0.0,0.0
19188,1724816794144304728,-1.83809494972229,-0.6104075908660889,0.1753062754869461,-0.015063133090734482,-0.0379735603928566,0.38853177428245544,-0.920529305934906,0.0,0.0,0.0,0.0,0.0,0.0
19190,1724816794153333285,-1.8380836248397827,-0.6104049682617188,0.1752757877111435,-0.01530429907143116,-0.03792139142751694,0.38846755027770996,-0.9205545783042908,0.0,0.0,0.0,0.0,0.0,0.0
19192,1724816794165777632,-1.838096022605896,-0.610396146774292,0.17530418932437897,-0.014926636591553688,-0.038082871586084366,0.38853561878204346,-0.9205253720283508,0.0,0.0,0.0,0.0,0.0,0.0
19194,1724816794174743703,-1.8380930423736572,-0.6103850603103638,0.1752927154302597,-0.01506311446428299,-0.037876375019550323,0.3885563910007477,-0.9205229878425598,0.0,0.0,0.0,0.0,0.0,0.0
19196,1724816794184096761,-1.8381118774414062,-0.6103907823562622,0.17524918913841248,-0.015253543853759766,-0.03769455850124359,0.3884149491786957,-0.9205869436264038,0.0,0.0,0.0,0.0,0.0,0.0
19198,1724816794193728956,-1.8381532430648804,-0.6103611588478088,0.17524473369121552,-0.014947471208870411,-0.03754543140530586,0.3883814215660095,-0.9206121563911438,0.0,0.0,0.0,0.0,0.0,0.0
19200,1724816794203410695,-1.8382362127304077,-0.6102691888809204,0.17511026561260223,-0.014299429953098297,-0.03690237179398537,0.3883448839187622,-0.9206638932228088,0.0,0.0,0.0,0.0,0.0,0.0
19202,1724816794213790638,-1.8383300304412842,-0.6102088093757629,0.1746218502521515,-0.013421479612588882,-0.03619685769081116,0.3882949650287628,-0.9207261800765991,0.0,0.0,0.0,0.0,0.0,0.0
19204,1724816794225285172,-1.8385612964630127,-0.6101694107055664,0.17402403056621552,-0.011851999908685684,-0.03568650409579277,0.3876864016056061,-0.9210241436958313,0.0,0.0,0.0,0.0,0.0,0.0
19206,1724816794234478242,-1.8388751745224,-0.6101573705673218,0.1732383668422699,-0.010207436978816986,-0.03545364364981651,0.386658638715744,-0.9214845895767212,0.0,0.0,0.0,0.0,0.0,0.0
19208,1724816794249042849,-1.839195966720581,-0.6101680397987366,0.17236410081386566,-0.00912506878376007,-0.03576887398958206,0.3863646984100342,-0.9216071367263794,0.0,0.0,0.0,0.0,0.0,0.0
19210,1724816794253605340,-1.839511752128601,-0.6100995540618896,0.17154914140701294,-0.008284557610750198,-0.036123353987932205,0.3865939974784851,-0.9215050339698792,0.0,0.0,0.0,0.0,0.0,0.0
19212,1724816794263852381,-1.8399449586868286,-0.609996497631073,0.17054997384548187,-0.007030720356851816,-0.035864342004060745,0.38686424493789673,-0.9214121699333191,0.0,0.0,0.0,0.0,0.0,0.0
19214,1724816794274276975,-1.8403942584991455,-0.6099982261657715,0.16954369843006134,-0.006408602464944124,-0.03537089750170708,0.38678178191185,-0.9214704632759094,0.0,0.0,0.0,0.0,0.0,0.0
19216,1724816794283965792,-1.840821385383606,-0.6098517775535583,0.16867870092391968,-0.005238312296569347,-0.03476220741868019,0.3867467939853668,-0.921515703201294,0.0,0.0,0.0,0.0,0.0,0.0
19218,1724816794293495818,-1.841415286064148,-0.6099631786346436,0.16770039498806,-0.003558197757229209,-0.03403962403535843,0.38576656579971313,-0.9219613671302795,0.0,0.0,0.0,0.0,0.0,0.0
19220,1724816794304568799,-1.8420629501342773,-0.6100967526435852,0.166847825050354,-0.002487300429493189,-0.0332886166870594,0.3851119577884674,-0.9222660064697266,0.0,0.0,0.0,0.0,0.0,0.0
19222,1724816794313793797,-1.8428884744644165,-0.6099130511283875,0.16586856544017792,-0.000679271062836051,-0.03132890537381172,0.38525390625,-0.9222784042358398,0.0,0.0,0.0,0.0,0.0,0.0
19224,1724816794323523178,-1.8435407876968384,-0.6100908517837524,0.1652681976556778,-1.499843619967578e-05,-0.031216079369187355,0.38552892208099365,-0.9221675992012024,0.0,0.0,0.0,0.0,0.0,0.0
19226,1724816794334459554,-1.8441147804260254,-0.6104081869125366,0.16459231078624725,-6.1019927670713514e-05,-0.030065208673477173,0.385240375995636,-0.9223263263702393,0.0,0.0,0.0,0.0,0.0,0.0
19228,1724816794343434268,-1.8445994853973389,-0.6107474565505981,0.1639097034931183,5.831776434206404e-05,-0.028171462938189507,0.3845199644565582,-0.9226866960525513,0.0,0.0,0.0,0.0,0.0,0.0
19230,1724816794353480465,-1.84494948387146,-0.6110684275627136,0.16312114894390106,0.0004853134450968355,-0.026150118559598923,0.3837830722332001,-0.9230529069900513,0.0,0.0,0.0,0.0,0.0,0.0
19232,1724816794363801933,-1.8450926542282104,-0.6105469465255737,0.16429725289344788,0.0009840111015364528,-0.03512778505682945,0.3894672691822052,-0.9203697443008423,0.0,0.0,0.0,0.0,0.0,0.0
19234,1724816794374146394,-1.8453117609024048,-0.6115167140960693,0.1624133288860321,0.0015925884945318103,-0.025389833375811577,0.3837258219718933,-0.9230965375900269,0.0,0.0,0.0,0.0,0.0,0.0
19236,1724816794384011973,-1.845388412475586,-0.6117666959762573,0.1621766835451126,0.0019526565447449684,-0.025488026440143585,0.3836051821708679,-0.9231433272361755,0.0,0.0,0.0,0.0,0.0,0.0
19238,1724816794396074505,-1.84542977809906,-0.611982524394989,0.1618986427783966,0.0017816419713199139,-0.02492530457675457,0.38348543643951416,-0.9232087731361389,0.0,0.0,0.0,0.0,0.0,0.0
19240,1724816794403296147,-1.845420479774475,-0.612139880657196,0.16172507405281067,0.001729396521113813,-0.02443946711719036,0.38358479738235474,-0.9231805801391602,0.0,0.0,0.0,0.0,0.0,0.0
19242,1724816794415729288,-1.8454350233078003,-0.6122658252716064,0.161760151386261,0.001177916768938303,-0.02445625327527523,0.3835734724998474,-0.9231857657432556,0.0,0.0,0.0,0.0,0.0,0.0
19244,1724816794424803311,-1.8453991413116455,-0.6122997403144836,0.16170959174633026,0.0010766532504931092,-0.024448910728096962,0.38379207253456116,-0.923095166683197,0.0,0.0,0.0,0.0,0.0,0.0
19246,1724816794433861285,-1.8453903198242188,-0.6123186349868774,0.16162404417991638,0.0009179110056720674,-0.024277575314044952,0.383777916431427,-0.9231057167053223,0.0,0.0,0.0,0.0,0.0,0.0
19248,1724816794444940350,-1.8454176187515259,-0.6122941374778748,0.1615704745054245,0.001040759845636785,-0.02438662387430668,0.3838845491409302,-0.9230585098266602,0.0,0.0,0.0,0.0,0.0,0.0
19250,1724816794453630757,-1.8454360961914062,-0.6122572422027588,0.16153545677661896,0.000674285925924778,-0.024386201053857803,0.3838824927806854,-0.9230596423149109,0.0,0.0,0.0,0.0,0.0,0.0
19252,1724816794480317765,-1.8454595804214478,-0.6122291088104248,0.16149015724658966,0.0008450040477328002,-0.02434881590306759,0.38389357924461365,-0.92305588722229,0.0,0.0,0.0,0.0,0.0,0.0
19254,1724816794480661150,-1.8454804420471191,-0.6121994853019714,0.16142523288726807,0.0008300465997308493,-0.024365251883864403,0.3838881850242615,-0.9230576753616333,0.0,0.0,0.0,0.0,0.0,0.0
19256,1724816794485428523,-1.8454986810684204,-0.612226665019989,0.16143840551376343,0.0005418680375441909,-0.02436232939362526,0.38389432430267334,-0.9230554699897766,0.0,0.0,0.0,0.0,0.0,0.0
19258,1724816794497084305,-1.8454973697662354,-0.6122032999992371,0.1614137887954712,0.0006383323925547302,-0.024248240515589714,0.38377702236175537,-0.9231071472167969,0.0,0.0,0.0,0.0,0.0,0.0
19260,1724816794504198994,-1.845513939857483,-0.6122316122055054,0.16135233640670776,0.0007538951467722654,-0.024052036926150322,0.38363999128341675,-0.9231691360473633,0.0,0.0,0.0,0.0,0.0,0.0
19262,1724816794514297118,-1.8454920053482056,-0.6121944785118103,0.1614505648612976,0.0009247546549886465,-0.024672191590070724,0.38399574160575867,-0.9230048060417175,0.0,0.0,0.0,0.0,0.0,0.0
19264,1724816794523589617,-1.8454885482788086,-0.6122092604637146,0.16141656041145325,0.0009151152335107327,-0.024339504539966583,0.38404780626296997,-0.9229918718338013,0.0,0.0,0.0,0.0,0.0,0.0
19266,1724816794535602696,-1.8455020189285278,-0.6122105121612549,0.16137340664863586,0.0005741926142945886,-0.024361737072467804,0.38393181562423706,-0.9230397939682007,0.0,0.0,0.0,0.0,0.0,0.0
19268,1724816794543572665,-1.8455255031585693,-0.6122112274169922,0.1612815260887146,0.0004959935904480517,-0.02419799380004406,0.3839171826839447,-0.9230502843856812,0.0,0.0,0.0,0.0,0.0,0.0
19270,1724816794553735659,-1.845548152923584,-0.6121865510940552,0.1612253338098526,0.0005756715545430779,-0.02419276162981987,0.3839959502220154,-0.923017680644989,0.0,0.0,0.0,0.0,0.0,0.0
19272,1724816794563459447,-1.8456029891967773,-0.6122015714645386,0.1610954850912094,0.0006381324492394924,-0.02396031841635704,0.38388070464134216,-0.9230716228485107,0.0,0.0,0.0,0.0,0.0,0.0
19274,1724816794573835462,-1.845632791519165,-0.612171471118927,0.16104194521903992,0.00035965119604952633,-0.024188511073589325,0.3840682804584503,-0.922987699508667,0.0,0.0,0.0,0.0,0.0,0.0
19276,1724816794583883145,-1.8456710577011108,-0.6121617555618286,0.16094937920570374,-6.280232628341764e-05,-0.024165861308574677,0.38416898250579834,-0.9229465126991272,0.0,0.0,0.0,0.0,0.0,0.0
19278,1724816794593470726,-1.8457143306732178,-0.6121588945388794,0.16073526442050934,-8.445867570117116e-05,-0.023482363671064377,0.3840410113334656,-0.9230173826217651,0.0,0.0,0.0,0.0,0.0,0.0
19280,1724816794631385715,-1.845779538154602,-0.6121602654457092,0.16063255071640015,-0.0001390577817801386,-0.02343047969043255,0.38411203026771545,-0.9229891300201416,0.0,0.0,0.0,0.0,0.0,0.0
19282,1724816794631997453,-1.8458307981491089,-0.6121090054512024,0.16042374074459076,-0.00028250968898646533,-0.02308189682662487,0.38412347435951233,-0.9229931235313416,0.0,0.0,0.0,0.0,0.0,0.0
19284,1724816794632315553,-1.8458880186080933,-0.6120753288269043,0.16026532649993896,-0.00037847639760002494,-0.022793428972363472,0.3842523694038391,-0.922946572303772,0.0,0.0,0.0,0.0,0.0,0.0
19286,1724816794633611040,-1.8459422588348389,-0.6120510101318359,0.1601271629333496,-0.0006270412704907358,-0.022681264206767082,0.38440993428230286,-0.9228836297988892,0.0,0.0,0.0,0.0,0.0,0.0
19288,1724816794647066192,-1.8460222482681274,-0.6120550036430359,0.1596376597881317,-0.0008266682852990925,-0.021573619917035103,0.38426870107650757,-0.9229688048362732,0.0,0.0,0.0,0.0,0.0,0.0
19290,1724816794653333211,-1.8461049795150757,-0.6119958162307739,0.15933367609977722,-0.001184019260108471,-0.02116457372903824,0.384366899728775,-0.9229370355606079,0.0,0.0,0.0,0.0,0.0,0.0
19292,1724816794664608123,-1.8462350368499756,-0.6119248270988464,0.15904933214187622,-0.0010099640348926187,-0.020958708599209785,0.3846801817417145,-0.9228114485740662,0.0,0.0,0.0,0.0,0.0,0.0
19294,1724816794674283374,-1.846407413482666,-0.6118857860565186,0.15857870876789093,-0.001464308239519596,-0.019983546808362007,0.38454562425613403,-0.9228885173797607,0.0,0.0,0.0,0.0,0.0,0.0
19296,1724816794683438659,-1.846587896347046,-0.6118436455726624,0.1581953763961792,-0.0017764783697202802,-0.019300086423754692,0.3845575749874115,-0.9228975176811218,0.0,0.0,0.0,0.0,0.0,0.0
19298,1724816794699017295,-1.8468375205993652,-0.611699104309082,0.15772227942943573,-0.0022797754500061274,-0.01831384189426899,0.3842032253742218,-0.923064112663269,0.0,0.0,0.0,0.0,0.0,0.0
19300,1724816794703059364,-1.847042441368103,-0.6115356683731079,0.1571567803621292,-0.0023100676480680704,-0.01717233471572399,0.38437512516975403,-0.9230144023895264,0.0,0.0,0.0,0.0,0.0,0.0
19302,1724816794723302784,-1.8472973108291626,-0.6112880706787109,0.15657922625541687,-0.002178589580580592,-0.016319479793310165,0.3844323754310608,-0.9230062961578369,0.0,0.0,0.0,0.0,0.0,0.0
19304,1724816794724015253,-1.8475985527038574,-0.611076831817627,0.15594005584716797,-0.0030136550776660442,-0.015553824603557587,0.3845127820968628,-0.9229837656021118,0.0,0.0,0.0,0.0,0.0,0.0
19306,1724816794734050954,-1.8479430675506592,-0.610815167427063,0.15523001551628113,-0.0039413259364664555,-0.014715454541146755,0.3846818804740906,-0.9229235649108887,0.0,0.0,0.0,0.0,0.0,0.0
19308,1724816794748551700,-1.8483316898345947,-0.6104701161384583,0.15447528660297394,-0.004862135276198387,-0.013627340085804462,0.38487058877944946,-0.9228571057319641,0.0,0.0,0.0,0.0,0.0,0.0
19310,1724816794753685119,-1.848739743232727,-0.6100375652313232,0.1536904275417328,-0.00569461565464735,-0.012582661584019661,0.3851087987422943,-0.9227678179740906,0.0,0.0,0.0,0.0,0.0,0.0
19312,1724816794763374361,-1.8492703437805176,-0.6097884774208069,0.15289758145809174,-0.005753807723522186,-0.011278572492301464,0.38343390822410583,-0.9234815239906311,0.0,0.0,0.0,0.0,0.0,0.0
19314,1724816794773735851,-1.8495641946792603,-0.6092247366905212,0.15180592238903046,-0.007684716954827309,-0.009927225299179554,0.3850785791873932,-0.9227983355522156,0.0,0.0,0.0,0.0,0.0,0.0
19316,1724816794786491433,-1.8498417139053345,-0.6084789037704468,0.1513761729001999,-0.00898662768304348,-0.010957643389701843,0.386989563703537,-0.9219751954078674,0.0,0.0,0.0,0.0,0.0,0.0
19318,1724816794794950382,-1.8500432968139648,-0.6075811982154846,0.15152260661125183,-0.009562023915350437,-0.014089333824813366,0.38914597034454346,-0.9210187792778015,0.0,0.0,0.0,0.0,0.0,0.0
19320,1724816794803329347,-1.8503217697143555,-0.6072369813919067,0.1506115049123764,-0.010903500951826572,-0.011829265393316746,0.38807451725006104,-0.9214876294136047,0.0,0.0,0.0,0.0,0.0,0.0
19322,1724816794814389045,-1.8506296873092651,-0.6065993905067444,0.14999309182167053,-0.011834874749183655,-0.011360572651028633,0.3882886469364166,-0.9213917851448059,0.0,0.0,0.0,0.0,0.0,0.0
19324,1724816794826408339,-1.8509482145309448,-0.6059828996658325,0.14925210177898407,-0.01235660258680582,-0.010521536692976952,0.38830703496932983,-0.9213871359825134,0.0,0.0,0.0,0.0,0.0,0.0
19326,1724816794834344172,-1.8512446880340576,-0.6054333448410034,0.1487504541873932,-0.012335972860455513,-0.0104466388002038,0.3882814347743988,-0.9213990569114685,0.0,0.0,0.0,0.0,0.0,0.0
19328,1724816794846101984,-1.851443886756897,-0.6049850583076477,0.1483653038740158,-0.012268147431313992,-0.009979333728551865,0.38842758536338806,-0.9213435053825378,0.0,0.0,0.0,0.0,0.0,0.0
19330,1724816794853882921,-1.851719617843628,-0.6043741106987,0.1483863890171051,-0.010901173576712608,-0.012295782566070557,0.38975802063941956,-0.9207707643508911,0.0,0.0,0.0,0.0,0.0,0.0
19332,1724816794865092302,-1.8519920110702515,-0.6041415333747864,0.1476835161447525,-0.010773372836411,-0.011162620037794113,0.38969266414642334,-0.9208142757415771,0.0,0.0,0.0,0.0,0.0,0.0
19334,1724816794874125295,-1.852143406867981,-0.603965163230896,0.14727240800857544,-0.010928268544375896,-0.010686452500522137,0.38976728916168213,-0.9207864999771118,0.0,0.0,0.0,0.0,0.0,0.0
19336,1724816794886046314,-1.8523598909378052,-0.6040805578231812,0.1461140215396881,-0.013131938874721527,-0.00613187113776803,0.39020004868507385,-0.9206159710884094,0.0,0.0,0.0,0.0,0.0,0.0
19338,1724816794898142839,-1.8524744510650635,-0.6041551828384399,0.14564549922943115,-0.013169828802347183,-0.0043417238630354404,0.38994157314300537,-0.920735239982605,0.0,0.0,0.0,0.0,0.0,0.0
19340,1724816794903511307,-1.8525563478469849,-0.6042395234107971,0.1461862027645111,-0.012543836608529091,-0.007328362204134464,0.3901659846305847,-0.9206299185752869,0.0,0.0,0.0,0.0,0.0,0.0
19342,1724816794914670887,-1.852613091468811,-0.604412853717804,0.14593550562858582,-0.012625171802937984,-0.006520212162286043,0.3900677263736725,-0.9206765294075012,0.0,0.0,0.0,0.0,0.0,0.0
19344,1724816794927519913,-1.8526586294174194,-0.6044899821281433,0.14589840173721313,-0.012292386963963509,-0.006715563591569662,0.39013198018074036,-0.9206523895263672,0.0,0.0,0.0,0.0,0.0,0.0
19346,1724816794933834252,-1.8527641296386719,-0.6041550636291504,0.1463123857975006,-0.009618714451789856,-0.00814102217555046,0.39143070578575134,-0.9201213121414185,0.0,0.0,0.0,0.0,0.0,0.0
19348,1724816794943725962,-1.8527896404266357,-0.6040951013565063,0.14629454910755157,-0.009848128072917461,-0.00874374620616436,0.391458123922348,-0.9201016426086426,0.0,0.0,0.0,0.0,0.0,0.0
19350,1724816794953390469,-1.8527196645736694,-0.6041619181632996,0.1462201178073883,-0.009561647661030293,-0.00794947613030672,0.39131829142570496,-0.9201713800430298,0.0,0.0,0.0,0.0,0.0,0.0
19352,1724816794963546305,-1.8527660369873047,-0.6049255728721619,0.14490294456481934,-0.0092651741579175,0.000394088972825557,0.38608860969543457,-0.9224151372909546,0.0,0.0,0.0,0.0,0.0,0.0
19354,1724816794974202927,-1.8527476787567139,-0.6049140095710754,0.14492899179458618,-0.009427908807992935,0.0003138076572213322,0.38593173027038574,-0.9224790930747986,0.0,0.0,0.0,0.0,0.0,0.0
19356,1724816794983960291,-1.852726936340332,-0.6048871874809265,0.1449374556541443,-0.009197715669870377,0.00034654609044082463,0.38581621646881104,-0.9225296974182129,0.0,0.0,0.0,0.0,0.0,0.0
19358,1724816794993615950,-1.8526897430419922,-0.6048969626426697,0.14495441317558289,-0.009233660064637661,0.00018260897195432335,0.3858007788658142,-0.9225358963012695,0.0,0.0,0.0,0.0,0.0,0.0
19360,1724816795003447206,-1.8526774644851685,-0.6049164533615112,0.14493677020072937,-0.008920988067984581,0.00035449001006782055,0.3856780230998993,-0.9225903153419495,0.0,0.0,0.0,0.0,0.0,0.0
19362,1724816795013685106,-1.8526759147644043,-0.6049343347549438,0.14489910006523132,-0.009429222904145718,0.0002543391892686486,0.3857254683971405,-0.9225653409957886,0.0,0.0,0.0,0.0,0.0,0.0
19364,1724816795023796128,-1.8527029752731323,-0.6049382090568542,0.14489531517028809,-0.00929188635200262,0.00025930494302883744,0.3857637643814087,-0.9225507378578186,0.0,0.0,0.0,0.0,0.0,0.0
19366,1724816795034209826,-1.8527239561080933,-0.6049318909645081,0.14490064978599548,-0.009584028273820877,0.00010521254444029182,0.38583219051361084,-0.9225192666053772,0.0,0.0,0.0,0.0,0.0,0.0
19368,1724816795044070400,-1.8527570962905884,-0.6049188375473022,0.1448962539434433,-0.009228442795574665,0.00013112823944538832,0.3858322203159332,-0.9225228428840637,0.0,0.0,0.0,0.0,0.0,0.0
19370,1724816795053908014,-1.852759838104248,-0.6049189567565918,0.14485959708690643,-0.00922076404094696,0.0002886219008360058,0.3857786953449249,-0.9225452542304993,0.0,0.0,0.0,0.0,0.0,0.0
19372,1724816795064052483,-1.8527358770370483,-0.6049199104309082,0.14488346874713898,-0.009479262866079807,0.00012819452967960387,0.38569602370262146,-0.9225772023200989,0.0,0.0,0.0,0.0,0.0,0.0
19374,1724816795073424692,-1.852724552154541,-0.6049198508262634,0.14489349722862244,-0.009360820055007935,0.00010842993651749566,0.38567593693733215,-0.9225868582725525,0.0,0.0,0.0,0.0,0.0,0.0
19376,1724816795090633367,-1.8527097702026367,-0.6049156785011292,0.14489510655403137,-0.009235404431819916,2.9745944630121812e-05,0.38563621044158936,-0.9226046800613403,0.0,0.0,0.0,0.0,0.0,0.0
19378,1724816795093761100,-1.8527048826217651,-0.6049180030822754,0.1448988914489746,-0.009387430734932423,0.00011710314720403403,0.3857390880584717,-0.9225601553916931,0.0,0.0,0.0,0.0,0.0,0.0
19380,1724816795103608667,-1.8529857397079468,-0.6054239273071289,0.14426502585411072,-0.008771483786404133,0.00401604687795043,0.3823162615299225,-0.923981249332428,0.0,0.0,0.0,0.0,0.0,0.0
19382,1724816795113999621,-1.8531019687652588,-0.6057092547416687,0.14416368305683136,-0.008386359550058842,0.004158299416303635,0.38045448064804077,-0.9247522354125977,0.0,0.0,0.0,0.0,0.0,0.0
19384,1724816795124515197,-1.8530837297439575,-0.6057866811752319,0.14419378340244293,-0.008464530110359192,0.003784209955483675,0.3802644908428192,-0.9248313903808594,0.0,0.0,0.0,0.0,0.0,0.0
19386,1724816795134038110,-1.8530707359313965,-0.6057985424995422,0.14419330656528473,-0.008485088124871254,0.0036313480231910944,0.3804115951061249,-0.9247713088989258,0.0,0.0,0.0,0.0,0.0,0.0
19388,1724816795146895353,-1.8530761003494263,-0.6058118939399719,0.14417831599712372,-0.008413692936301231,0.0037046601064503193,0.38037189841270447,-0.9247879385948181,0.0,0.0,0.0,0.0,0.0,0.0
19390,1724816795153718332,-1.8530727624893188,-0.6057808995246887,0.14420023560523987,-0.008395714685320854,0.0037044361233711243,0.38046371936798096,-0.9247503280639648,0.0,0.0,0.0,0.0,0.0,0.0
19392,1724816795163905449,-1.8530477285385132,-0.6057908535003662,0.14424951374530792,-0.008322810754179955,0.0036497872788459063,0.3804726004600525,-0.9247475862503052,0.0,0.0,0.0,0.0,0.0,0.0
19394,1724816795175031395,-1.8530447483062744,-0.6057789921760559,0.1442558318376541,-0.008387585170567036,0.0036301524378359318,0.38057971000671387,-0.9247029423713684,0.0,0.0,0.0,0.0,0.0,0.0
19396,1724816795183939352,-1.8530555963516235,-0.6057897210121155,0.14425629377365112,-0.00833592563867569,0.003547711530700326,0.38054773211479187,-0.9247168898582458,0.0,0.0,0.0,0.0,0.0,0.0
19398,1724816795199329924,-1.8530465364456177,-0.6057954430580139,0.1442510336637497,-0.008362626656889915,0.003534193616360426,0.3805703818798065,-0.9247074127197266,0.0,0.0,0.0,0.0,0.0,0.0
19400,1724816795203472786,-1.853060245513916,-0.6057944893836975,0.14422406256198883,-0.008411332964897156,0.0037679574452340603,0.38049930334091187,-0.9247352480888367,0.0,0.0,0.0,0.0,0.0,0.0
19402,1724816795214172626,-1.853055477142334,-0.6057942509651184,0.14420492947101593,-0.008415251970291138,0.0037207927089184523,0.3805660009384155,-0.9247080087661743,0.0,0.0,0.0,0.0,0.0,0.0
19404,1724816795231851337,-1.8530632257461548,-0.6057846546173096,0.14421364665031433,-0.008085139095783234,0.003657097229734063,0.380664587020874,-0.9246705770492554,0.0,0.0,0.0,0.0,0.0,0.0
19406,1724816795235099548,-1.8530727624893188,-0.6057853698730469,0.1442008912563324,-0.008061490952968597,0.0037974005099385977,0.38051578402519226,-0.9247315526008606,0.0,0.0,0.0,0.0,0.0,0.0
19408,1724816795244249299,-1.8530367612838745,-0.6057962775230408,0.14426490664482117,-0.008472049608826637,0.0034675283823162317,0.3807315230369568,-0.9246403574943542,0.0,0.0,0.0,0.0,0.0,0.0
19410,1724816795254867283,-1.8530304431915283,-0.6057655811309814,0.14426164329051971,-0.008290236815810204,0.003679933724924922,0.38068997859954834,-0.9246582984924316,0.0,0.0,0.0,0.0,0.0,0.0
19412,1724816795264053584,-1.8530511856079102,-0.6057679653167725,0.14423808455467224,-0.008125691674649715,0.0037303089629858732,0.3805466294288635,-0.9247184991836548,0.0,0.0,0.0,0.0,0.0,0.0
19414,1724816795273897844,-1.8530418872833252,-0.6057513356208801,0.1442408412694931,-0.008110788650810719,0.0037702135741710663,0.3806105852127075,-0.9246922135353088,0.0,0.0,0.0,0.0,0.0,0.0
19416,1724816795289634283,-1.853058099746704,-0.6057555079460144,0.1442098468542099,-0.008181148208677769,0.0038186265155673027,0.38049930334091187,-0.9247371554374695,0.0,0.0,0.0,0.0,0.0,0.0
19418,1724816795293348380,-1.8530772924423218,-0.6057503819465637,0.14419002830982208,-0.008039882406592369,0.003714554011821747,0.38054364919662476,-0.9247206449508667,0.0,0.0,0.0,0.0,0.0,0.0
19420,1724816795305015651,-1.8530631065368652,-0.6057493686676025,0.1441916823387146,-0.008050479926168919,0.003740007756277919,0.38068825006484985,-0.9246608018875122,0.0,0.0,0.0,0.0,0.0,0.0
19422,1724816795313650330,-1.8530640602111816,-0.6057472825050354,0.14420072734355927,-0.008156277239322662,0.0036308965645730495,0.3805846571922302,-0.9247030019760132,0.0,0.0,0.0,0.0,0.0,0.0
19424,1724816795328874572,-1.8530449867248535,-0.6057703495025635,0.1442377269268036,-0.008237816393375397,0.0035153927747160196,0.380825012922287,-0.9246037602424622,0.0,0.0,0.0,0.0,0.0,0.0
19426,1724816795342886981,-1.8530257940292358,-0.6057561635971069,0.14424197375774384,-0.008273229002952576,0.003714853199198842,0.38085079193115234,-0.9245920181274414,0.0,0.0,0.0,0.0,0.0,0.0
19428,1724816795346680519,-1.8530415296554565,-0.6057807803153992,0.14422185719013214,-0.008168181404471397,0.003645777702331543,0.38065171241760254,-0.9246751666069031,0.0,0.0,0.0,0.0,0.0,0.0
19430,1724816795354022553,-1.8530542850494385,-0.6057755947113037,0.14424656331539154,-0.008093307726085186,0.003703741356730461,0.38056257367134094,-0.9247123003005981,0.0,0.0,0.0,0.0,0.0,0.0
19432,1724816795364291222,-1.8530349731445312,-0.6057778000831604,0.14425086975097656,-0.00817342009395361,0.0036067382898181677,0.3806566894054413,-0.9246732592582703,0.0,0.0,0.0,0.0,0.0,0.0
19434,1724816795374244938,-1.8530516624450684,-0.6057688593864441,0.1442248821258545,-0.00798592809587717,0.0036037536337971687,0.3806525468826294,-0.9246765971183777,0.0,0.0,0.0,0.0,0.0,0.0
19436,1724816795385544644,-1.8530586957931519,-0.6057577133178711,0.14419330656528473,-0.008335980586707592,0.003737988416105509,0.38059666752815247,-0.9246960878372192,0.0,0.0,0.0,0.0,0.0,0.0
19438,1724816795393775282,-1.853073000907898,-0.6057685017585754,0.14421363174915314,-0.008311173878610134,0.0038471391890197992,0.38057270646095276,-0.9247056841850281,0.0,0.0,0.0,0.0,0.0,0.0
19440,1724816795403882381,-1.8530746698379517,-0.6057833433151245,0.14420028030872345,-0.00817443523555994,0.0038185773883014917,0.38056105375289917,-0.9247117638587952,0.0,0.0,0.0,0.0,0.0,0.0
19442,1724816795413760018,-1.853076696395874,-0.6057723760604858,0.14419926702976227,-0.008255626074969769,0.003854408161714673,0.3804973065853119,-0.9247371554374695,0.0,0.0,0.0,0.0,0.0,0.0
19444,1724816795426627801,-1.8530594110488892,-0.6057701706886292,0.14422354102134705,-0.008141529746353626,0.003774362150579691,0.38068443536758423,-0.9246614575386047,0.0,0.0,0.0,0.0,0.0,0.0
19446,1724816795433946471,-1.8530460596084595,-0.605762243270874,0.14422479271888733,-0.008293994702398777,0.0037385020405054092,0.38062164187431335,-0.9246861934661865,0.0,0.0,0.0,0.0,0.0,0.0
19448,1724816795443562863,-1.8530571460723877,-0.6057648658752441,0.14420130848884583,-0.008146368898451328,0.003820273093879223,0.3806441128253937,-0.924677848815918,0.0,0.0,0.0,0.0,0.0,0.0
19450,1724816795453743305,-1.8530579805374146,-0.6057639718055725,0.14421863853931427,-0.008187765255570412,0.0036808561999350786,0.3806711733341217,-0.9246669411659241,0.0,0.0,0.0,0.0,0.0,0.0
19452,1724816795463605395,-1.8530704975128174,-0.6057660579681396,0.1442210078239441,-0.00816731434315443,0.0036153297405689955,0.3806339502334595,-0.9246827363967896,0.0,0.0,0.0,0.0,0.0,0.0
19454,1724816795473788222,-1.8530645370483398,-0.6057656407356262,0.1441865861415863,-0.007996988482773304,0.003962735179811716,0.3806229829788208,-0.9246872067451477,0.0,0.0,0.0,0.0,0.0,0.0
19456,1724816795483806293,-1.853065013885498,-0.6057735085487366,0.14419350028038025,-0.008174876682460308,0.003693429520353675,0.38060611486434937,-0.924693763256073,0.0,0.0,0.0,0.0,0.0,0.0
19458,1724816795493333871,-1.8530598878860474,-0.605768084526062,0.14417611062526703,-0.00825143326073885,0.003980935551226139,0.3806304335594177,-0.9246818423271179,0.0,0.0,0.0,0.0,0.0,0.0
19460,1724816795503791955,-1.8530371189117432,-0.605785071849823,0.1441829800605774,-0.008179375901818275,0.0039055077359080315,0.38059329986572266,-0.9246981143951416,0.0,0.0,0.0,0.0,0.0,0.0
19462,1724816795513504126,-1.8530303239822388,-0.6057878732681274,0.14418651163578033,-0.00797614548355341,0.004056345205754042,0.38043496012687683,-0.9247643947601318,0.0,0.0,0.0,0.0,0.0,0.0
19464,1724816795523766109,-1.8530244827270508,-0.6057664155960083,0.1441899538040161,-0.008205973543226719,0.0039450484327971935,0.38046994805336,-0.9247484803199768,0.0,0.0,0.0,0.0,0.0,0.0
19466,1724816795535873894,-1.8529876470565796,-0.6057625412940979,0.14416320621967316,-0.008133543655276299,0.004103450570255518,0.3805208206176758,-0.9247274994850159,0.0,0.0,0.0,0.0,0.0,0.0
19468,1724816795543365409,-1.8529765605926514,-0.6057831048965454,0.14414840936660767,-0.007995126768946648,0.00435104314237833,0.38045790791511536,-0.9247534871101379,0.0,0.0,0.0,0.0,0.0,0.0
19470,1724816795567774549,-1.8529597520828247,-0.605809211730957,0.14414140582084656,-0.00786135345697403,0.0042629241943359375,0.3803504407405853,-0.9247992634773254,0.0,0.0,0.0,0.0,0.0,0.0
19472,1724816795568096488,-1.8529094457626343,-0.6058493256568909,0.1441279649734497,-0.007763699162751436,0.004111688584089279,0.38037824630737305,-0.9247892498970032,0.0,0.0,0.0,0.0,0.0,0.0
19474,1724816795573556503,-1.8529435396194458,-0.6058926582336426,0.14410808682441711,-0.006604303605854511,0.003966744989156723,0.3801378011703491,-0.9248978495597839,0.0,0.0,0.0,0.0,0.0,0.0
19476,1724816795584153822,-1.8529731035232544,-0.6058397889137268,0.14400793612003326,-0.005967430304735899,0.004675065167248249,0.3796427547931671,-0.925102174282074,0.0,0.0,0.0,0.0,0.0,0.0
19478,1724816795593294092,-1.8526884317398071,-0.6054903864860535,0.1442727893590927,-0.006327957846224308,0.0031512794084846973,0.382040798664093,-0.9241184592247009,0.0,0.0,0.0,0.0,0.0,0.0
19480,1724816795606680882,-1.8525323867797852,-0.6053767800331116,0.1442398875951767,-0.006849342957139015,0.0040103173814713955,0.38334161043167114,-0.9235726594924927,0.0,0.0,0.0,0.0,0.0,0.0
19482,1724816795614300132,-1.8526700735092163,-0.605588972568512,0.14377620816230774,-0.006109115667641163,0.006589632946997881,0.3814854025840759,-0.9243312478065491,0.0,0.0,0.0,0.0,0.0,0.0
19484,1724816795623525318,-1.8524824380874634,-0.6055325865745544,0.14399991929531097,-0.007104218006134033,0.005405073054134846,0.38236725330352783,-0.9239673018455505,0.0,0.0,0.0,0.0,0.0,0.0
19486,1724816795633611104,-1.852346420288086,-0.6056533455848694,0.14393465220928192,-0.00722168292850256,0.00614756578579545,0.3822093904018402,-0.9240270853042603,0.0,0.0,0.0,0.0,0.0,0.0
19488,1724816795644812615,-1.852203130722046,-0.6057879328727722,0.14385731518268585,-0.007730665151029825,0.007258085999637842,0.3821393549442291,-0.9240438938140869,0.0,0.0,0.0,0.0,0.0,0.0
19490,1724816795653562504,-1.8520054817199707,-0.6059108972549438,0.14386066794395447,-0.008177214302122593,0.008098726160824299,0.382121205329895,-0.9240406155586243,0.0,0.0,0.0,0.0,0.0,0.0
19492,1724816795663951077,-1.8517374992370605,-0.6060673594474792,0.1437847763299942,-0.00863422267138958,0.009118237532675266,0.38196730613708496,-0.9240905046463013,0.0,0.0,0.0,0.0,0.0,0.0
19494,1724816795683232344,-1.8516595363616943,-0.6064000725746155,0.1436103880405426,-0.008325847797095776,0.010895876213908195,0.38067111372947693,-0.9246088266372681,0.0,0.0,0.0,0.0,0.0,0.0
19496,1724816795683918071,-1.8510937690734863,-0.6065608263015747,0.1437372863292694,-0.010563521645963192,0.01188529934734106,0.38163241744041443,-0.9241774082183838,0.0,0.0,0.0,0.0,0.0,0.0
19498,1724816795695781503,-1.850684642791748,-0.6068058013916016,0.1436946541070938,-0.011082927696406841,0.013279122300446033,0.38143759965896606,-0.9242327809333801,0.0,0.0,0.0,0.0,0.0,0.0
19500,1724816795703512193,-1.8503984212875366,-0.6072645783424377,0.14336024224758148,-0.011110000312328339,0.015768015757203102,0.3801802098751068,-0.924711287021637,0.0,0.0,0.0,0.0,0.0,0.0
19502,1724816795714421702,-1.8499702215194702,-0.6075820922851562,0.1433636099100113,-0.011546099558472633,0.016970163211226463,0.379652738571167,-0.9249014258384705,0.0,0.0,0.0,0.0,0.0,0.0
19504,1724816795723597579,-1.848867416381836,-0.6070133447647095,0.1448802351951599,-0.01355055347084999,0.01097462885081768,0.38608622550964355,-0.9222978353500366,0.0,0.0,0.0,0.0,0.0,0.0
19506,1724816795736934281,-1.8483097553253174,-0.6074580550193787,0.14469240605831146,-0.014492079615592957,0.013852960430085659,0.3858644366264343,-0.9223376512527466,0.0,0.0,0.0,0.0,0.0,0.0
19508,1724816795743410608,-1.848076343536377,-0.6084297895431519,0.1439613252878189,-0.013404623605310917,0.020928991958498955,0.3808067739009857,-0.924320638179779,0.0,0.0,0.0,0.0,0.0,0.0
19510,1724816795753961058,-1.8474379777908325,-0.6087916493415833,0.14429545402526855,-0.013378573581576347,0.02146708033978939,0.38083040714263916,-0.9242989420890808,0.0,0.0,0.0,0.0,0.0,0.0
19512,1724816795763518952,-1.8468711376190186,-0.6091004610061646,0.1446995586156845,-0.013855598866939545,0.021794535219669342,0.38080713152885437,-0.9242937564849854,0.0,0.0,0.0,0.0,0.0,0.0
19514,1724816795774412698,-1.8459796905517578,-0.6090281009674072,0.14554108679294586,-0.014542329125106335,0.01929534412920475,0.38392719626426697,-0.9230472445487976,0.0,0.0,0.0,0.0,0.0,0.0
19516,1724816795785248915,-1.8454068899154663,-0.6094591021537781,0.145579993724823,-0.01592850498855114,0.021191956475377083,0.38382071256637573,-0.923026978969574,0.0,0.0,0.0,0.0,0.0,0.0
19518,1724816795794574453,-1.8447484970092773,-0.6098267436027527,0.14577114582061768,-0.01637246645987034,0.022254131734371185,0.3836328983306885,-0.923072338104248,0.0,0.0,0.0,0.0,0.0,0.0
19520,1724816795804069534,-1.8442344665527344,-0.6103807091712952,0.14559312164783478,-0.0150314811617136,0.025987079367041588,0.3807780146598816,-0.924178957939148,0.0,0.0,0.0,0.0,0.0,0.0
19522,1724816795813223558,-1.8436459302902222,-0.6106755137443542,0.14591404795646667,-0.014473000541329384,0.02704697847366333,0.3801671862602234,-0.9244089126586914,0.0,0.0,0.0,0.0,0.0,0.0
19524,1724816795823479810,-1.8430640697479248,-0.6108971238136292,0.146436408162117,-0.0144418366253376,0.02734813280403614,0.37964150309562683,-0.9246165752410889,0.0,0.0,0.0,0.0,0.0,0.0
19526,1724816795834517980,-1.8424197435379028,-0.6111903190612793,0.1469348967075348,-0.01377588976174593,0.028326787054538727,0.3795003294944763,-0.9246553182601929,0.0,0.0,0.0,0.0,0.0,0.0
19528,1724816795843497523,-1.8418558835983276,-0.6115290522575378,0.14722329378128052,-0.013323826715350151,0.030262133106589317,0.37848445773124695,-0.9250168800354004,0.0,0.0,0.0,0.0,0.0,0.0
19530,1724816795853719726,-1.8413097858428955,-0.6117634177207947,0.14772997796535492,-0.012436690740287304,0.03078821673989296,0.3775941729545593,-0.9253756403923035,0.0,0.0,0.0,0.0,0.0,0.0
19532,1724816795880752969,-1.840691328048706,-0.6120414137840271,0.14816521108150482,-0.012166962958872318,0.03147592768073082,0.37695378065109253,-0.9256171584129333,0.0,0.0,0.0,0.0,0.0,0.0
19534,1724816795881468305,-1.8400378227233887,-0.6122772097587585,0.14860761165618896,-0.011449125595390797,0.0320439487695694,0.37623441219329834,-0.9258994460105896,0.0,0.0,0.0,0.0,0.0,0.0
19536,1724816795884823972,-1.8394341468811035,-0.6125234961509705,0.14899589121341705,-0.010733493603765965,0.03280734643340111,0.37545499205589294,-0.9261976480484009,0.0,0.0,0.0,0.0,0.0,0.0
19538,1724816795895624063,-1.8386749029159546,-0.6124352812767029,0.15000610053539276,-0.010406318120658398,0.030506260693073273,0.37672120332717896,-0.9257658123970032,0.0,0.0,0.0,0.0,0.0,0.0
19540,1724816795903834538,-1.8380659818649292,-0.6125918030738831,0.15061931312084198,-0.00962252076715231,0.03073699213564396,0.3763052523136139,-0.9259358048439026,0.0,0.0,0.0,0.0,0.0,0.0
19542,1724816795913408429,-1.837560772895813,-0.613017201423645,0.1507478654384613,-0.008315875194966793,0.03349858522415161,0.37476569414138794,-0.9264768362045288,0.0,0.0,0.0,0.0,0.0,0.0
19544,1724816795924924244,-1.8369011878967285,-0.6134341955184937,0.15099211037158966,-0.0078011201694607735,0.03603414446115494,0.3733171224594116,-0.9269709587097168,0.0,0.0,0.0,0.0,0.0,0.0
19546,1724816795933803789,-1.8362394571304321,-0.6137412786483765,0.1514514535665512,-0.006718928925693035,0.03709696978330612,0.3727799355983734,-0.9271536469459534,0.0,0.0,0.0,0.0,0.0,0.0
19548,1724816795944321449,-1.8356077671051025,-0.6139957904815674,0.15190351009368896,-0.006085118744522333,0.037913888692855835,0.37282758951187134,-0.9271057844161987,0.0,0.0,0.0,0.0,0.0,0.0
19550,1724816795953692480,-1.835019826889038,-0.6143879294395447,0.1520429253578186,-0.005046928767114878,0.039577633142471313,0.37177330255508423,-0.9274657964706421,0.0,0.0,0.0,0.0,0.0,0.0
19552,1724816795963601847,-1.8343608379364014,-0.6144485473632812,0.15291689336299896,-0.004821618553251028,0.037211425602436066,0.3729311227798462,-0.9271000027656555,0.0,0.0,0.0,0.0,0.0,0.0
19554,1724816795974052696,-1.8338170051574707,-0.614840030670166,0.15325100719928741,-0.004543638788163662,0.037880752235651016,0.37276265025138855,-0.9271420836448669,0.0,0.0,0.0,0.0,0.0,0.0
19556,1724816795984006692,-1.83339262008667,-0.615525484085083,0.15297670662403107,-0.0037556265015155077,0.04236666485667229,0.37048259377479553,-0.9278650879859924,0.0,0.0,0.0,0.0,0.0,0.0
19558,1724816795994003153,-1.8329216241836548,-0.615924060344696,0.1532897800207138,-0.0027452176436781883,0.04334040358662605,0.37001633644104004,-0.9280096888542175,0.0,0.0,0.0,0.0,0.0,0.0
19560,1724816796003623816,-1.8324848413467407,-0.6162703037261963,0.15362641215324402,-0.0016482587670907378,0.04376380518078804,0.36963585019111633,-0.928144097328186,0.0,0.0,0.0,0.0,0.0,0.0
19562,1724816796013456011,-1.8319642543792725,-0.616359531879425,0.15457749366760254,-0.00194938899949193,0.04086589440703392,0.37140411138534546,-0.927569568157196,0.0,0.0,0.0,0.0,0.0,0.0
19564,1724816796023871092,-1.8315232992172241,-0.6168041229248047,0.15490058064460754,-0.0019083261722698808,0.041358545422554016,0.37126386165618896,-0.9276039004325867,0.0,0.0,0.0,0.0,0.0,0.0
19566,1724816796033927861,-1.831109642982483,-0.6172462701797485,0.1550530344247818,-0.0020785066299140453,0.04229636490345001,0.3710835576057434,-0.9276334643363953,0.0,0.0,0.0,0.0,0.0,0.0
19568,1724816796043443388,-1.830824613571167,-0.6178082227706909,0.15493722259998322,-0.0018297182396054268,0.044715289026498795,0.3696109354496002,-0.9281082153320312,0.0,0.0,0.0,0.0,0.0,0.0
19570,1724816796054111516,-1.830462098121643,-0.6182996034622192,0.1548973172903061,-0.001361033646389842,0.04589654132723808,0.36868390440940857,-0.9284201264381409,0.0,0.0,0.0,0.0,0.0,0.0
19572,1724816796063521504,-1.8302074670791626,-0.6189666986465454,0.15449796617031097,-0.000843479239847511,0.04877201095223427,0.36646926403045654,-0.9291505813598633,0.0,0.0,0.0,0.0,0.0,0.0
19574,1724816796073727665,-1.8299860954284668,-0.6195935606956482,0.15423807501792908,-0.00015153562708292156,0.0509297177195549,0.3645380735397339,-0.9297947287559509,0.0,0.0,0.0,0.0,0.0,0.0
19576,1724816796084547965,-1.8297090530395508,-0.6200295090675354,0.15403974056243896,-0.00017388473497703671,0.052199214696884155,0.36373546719551086,-0.930038571357727,0.0,0.0,0.0,0.0,0.0,0.0
19578,1724816796119530949,-1.8294709920883179,-0.6204374432563782,0.15403194725513458,-4.1792653064476326e-05,0.05289001017808914,0.3635236620903015,-0.9300823211669922,0.0,0.0,0.0,0.0,0.0,0.0
19580,1724816796120052406,-1.8291075229644775,-0.6208642721176147,0.1538764089345932,0.00011029255256289616,0.053912512958049774,0.3631504774093628,-0.9301695227622986,0.0,0.0,0.0,0.0,0.0,0.0
19582,1724816796120408938,-1.8288369178771973,-0.6212721467018127,0.15392155945301056,-0.0002237052976852283,0.05412565916776657,0.36270543932914734,-0.930330753326416,0.0,0.0,0.0,0.0,0.0,0.0
19584,1724816796124617349,-1.828476905822754,-0.6216328740119934,0.15400654077529907,-0.0002733432629611343,0.05463360249996185,0.36309346556663513,-0.9301496148109436,0.0,0.0,0.0,0.0,0.0,0.0
19586,1724816796134021337,-1.8281819820404053,-0.6220417022705078,0.1539660394191742,-6.816704626544379e-06,0.05533773824572563,0.3626778721809387,-0.9302701950073242,0.0,0.0,0.0,0.0,0.0,0.0
19588,1724816796144042226,-1.8279064893722534,-0.6225070953369141,0.15401357412338257,-0.0005868441658094525,0.05604581534862518,0.3625114858150482,-0.9302923679351807,0.0,0.0,0.0,0.0,0.0,0.0
19590,1724816796153503789,-1.8275728225708008,-0.6228545904159546,0.15399169921875,-0.0009090576786547899,0.05624673143029213,0.36297130584716797,-0.930100679397583,0.0,0.0,0.0,0.0,0.0,0.0
19592,1724816796163648690,-1.827207088470459,-0.6230359673500061,0.1538563221693039,-0.0008115184027701616,0.05722175911068916,0.36417412757873535,-0.9295710325241089,0.0,0.0,0.0,0.0,0.0,0.0
19594,1724816796174551319,-1.8269060850143433,-0.6233024597167969,0.15377140045166016,-0.0006070884992368519,0.05791158974170685,0.3646746873855591,-0.9293321371078491,0.0,0.0,0.0,0.0,0.0,0.0
19596,1724816796184035368,-1.8267252445220947,-0.623953640460968,0.15370485186576843,0.00019776694534812123,0.058204535394907,0.3628503084182739,-0.930027961730957,0.0,0.0,0.0,0.0,0.0,0.0
19598,1724816796194834343,-1.8263694047927856,-0.6244459748268127,0.15370698273181915,0.00030266892281360924,0.05868919566273689,0.36211004853248596,-0.9302858710289001,0.0,0.0,0.0,0.0,0.0,0.0
19600,1724816796203345330,-1.8260105848312378,-0.6248471736907959,0.1536944955587387,0.0004481982032302767,0.05919916555285454,0.3618896007537842,-0.9303392767906189,0.0,0.0,0.0,0.0,0.0,0.0
19602,1724816796213480552,-1.8256620168685913,-0.6252545118331909,0.15369875729084015,0.0008679493330419064,0.05959317088127136,0.3618764281272888,-0.9303189516067505,0.0,0.0,0.0,0.0,0.0,0.0
19604,1724816796226156137,-1.825287103652954,-0.6257132887840271,0.153721883893013,0.0011076810769736767,0.05991235002875328,0.361849844455719,-0.9303085207939148,0.0,0.0,0.0,0.0,0.0,0.0
19606,1724816796233804495,-1.8249716758728027,-0.6261348724365234,0.153702512383461,0.0017417909111827612,0.06012541800737381,0.3615074157714844,-0.9304270148277283,0.0,0.0,0.0,0.0,0.0,0.0
19608,1724816796243514409,-1.824598789215088,-0.6265271902084351,0.15362584590911865,0.001966408919543028,0.06097164377570152,0.36178797483444214,-0.9302624464035034,0.0,0.0,0.0,0.0,0.0,0.0
19610,1724816796261678112,-1.8242292404174805,-0.6270045638084412,0.15343736112117767,0.001947060925886035,0.061657827347517014,0.3617190420627594,-0.930243968963623,0.0,0.0,0.0,0.0,0.0,0.0
19612,1724816796264396476,-1.823798656463623,-0.6274110674858093,0.153557687997818,0.0017842721426859498,0.06223282590508461,0.36190417408943176,-0.9301339983940125,0.0,0.0,0.0,0.0,0.0,0.0
19614,1724816796274175413,-1.8233011960983276,-0.6277338862419128,0.15351851284503937,0.0020941044203937054,0.06278850883245468,0.3620660603046417,-0.9300330281257629,0.0,0.0,0.0,0.0,0.0,0.0
19616,1724816796286097559,-1.8226418495178223,-0.6276847124099731,0.15371039509773254,0.0008965240558609366,0.06254922598600388,0.36524683237075806,-0.9288065433502197,0.0,0.0,0.0,0.0,0.0,0.0
19618,1724816796293518020,-1.8220562934875488,-0.6276761889457703,0.15416103601455688,-0.00032554069184698164,0.060422345995903015,0.36767157912254333,-0.927990734577179,0.0,0.0,0.0,0.0,0.0,0.0
19620,1724816796314206194,-1.821574330329895,-0.628254771232605,0.15403296053409576,-0.0013744616881012917,0.061296526342630386,0.3674822747707367,-0.9280073046684265,0.0,0.0,0.0,0.0,0.0,0.0
19622,1724816796314981735,-1.8211889266967773,-0.6289069652557373,0.15379199385643005,-0.0009195490856654942,0.06350050866603851,0.3656201958656311,-0.9285950064659119,0.0,0.0,0.0,0.0,0.0,0.0
19624,1724816796329126296,-1.8207720518112183,-0.6292930245399475,0.1537771373987198,-0.0013154725311324,0.06436455994844437,0.36534351110458374,-0.9286439418792725,0.0,0.0,0.0,0.0,0.0,0.0
19626,1724816796336314029,-1.820245623588562,-0.6292935609817505,0.15439951419830322,-0.0020198416896164417,0.06210505962371826,0.3674038052558899,-0.9279835820198059,0.0,0.0,0.0,0.0,0.0,0.0
19628,1724816796346943875,-1.8197697401046753,-0.6296733617782593,0.15410493314266205,-0.002518066903576255,0.06459717452526093,0.3669948875904083,-0.9279739260673523,0.0,0.0,0.0,0.0,0.0,0.0
19630,1724816796353480429,-1.8193228244781494,-0.6299430131912231,0.1542656570672989,-0.002687587635591626,0.06492246687412262,0.3671519458293915,-0.9278886318206787,0.0,0.0,0.0,0.0,0.0,0.0
19632,1724816796363995431,-1.8189514875411987,-0.6306294798851013,0.15393605828285217,-0.001744766952469945,0.06904599070549011,0.3646501898765564,-0.9285795092582703,0.0,0.0,0.0,0.0,0.0,0.0
19634,1724816796374327938,-1.8184514045715332,-0.6309007406234741,0.15404923260211945,-0.0012535043060779572,0.06967688351869583,0.3647465705871582,-0.9284953474998474,0.0,0.0,0.0,0.0,0.0,0.0
19636,1724816796383924553,-1.8179482221603394,-0.6313154697418213,0.15399158000946045,-0.0018028633203357458,0.07046843320131302,0.3636859357357025,-0.9288507103919983,0.0,0.0,0.0,0.0,0.0,0.0
19638,1724816796396878928,-1.8174152374267578,-0.6316746473312378,0.15401345491409302,-0.0020827085245400667,0.07158996164798737,0.36299121379852295,-0.929036021232605,0.0,0.0,0.0,0.0,0.0,0.0
19640,1724816796403683640,-1.8169493675231934,-0.6320002675056458,0.15397275984287262,-0.0025048742536455393,0.07242210954427719,0.36212509870529175,-0.9293084144592285,0.0,0.0,0.0,0.0,0.0,0.0
19642,1724816796414259186,-1.8163329362869263,-0.631922721862793,0.1543206125497818,-0.0030137428548187017,0.07149199396371841,0.36390382051467896,-0.9286839962005615,0.0,0.0,0.0,0.0,0.0,0.0
19644,1724816796424376938,-1.8158881664276123,-0.6324456334114075,0.15395261347293854,-0.0019627760630100965,0.0735408142209053,0.36169740557670593,-0.9293884038925171,0.0,0.0,0.0,0.0,0.0,0.0
19646,1724816796433830746,-1.8152413368225098,-0.6324644088745117,0.15412062406539917,-0.0023144609294831753,0.07308339327573776,0.3628699779510498,-0.9289665818214417,0.0,0.0,0.0,0.0,0.0,0.0
19648,1724816796444404905,-1.8146048784255981,-0.6324067115783691,0.1544284224510193,-0.0025954542215913534,0.07156938314437866,0.3643482029438019,-0.9285050630569458,0.0,0.0,0.0,0.0,0.0,0.0
19650,1724816796453507550,-1.814086675643921,-0.6326974630355835,0.15441328287124634,-0.002602383028715849,0.072113037109375,0.3644595444202423,-0.9284191727638245,0.0,0.0,0.0,0.0,0.0,0.0
19652,1724816796464489735,-1.8135690689086914,-0.6329160332679749,0.1543455868959427,-0.002362256171181798,0.07226826995611191,0.36452966928482056,-0.9283802509307861,0.0,0.0,0.0,0.0,0.0,0.0
19654,1724816796474103762,-1.8130854368209839,-0.6330999732017517,0.15434885025024414,-0.002187231322750449,0.07225089520215988,0.3647271990776062,-0.9283044338226318,0.0,0.0,0.0,0.0,0.0,0.0
19656,1724816796483924007,-1.8126792907714844,-0.633316695690155,0.1543550342321396,-0.0023525033611804247,0.07228586077690125,0.36502718925476074,-0.9281834363937378,0.0,0.0,0.0,0.0,0.0,0.0
19658,1724816796493470418,-1.8124244213104248,-0.6340023875236511,0.15402767062187195,-0.0014509467873722315,0.07524049282073975,0.36227914690971375,-0.92902672290802,0.0,0.0,0.0,0.0,0.0,0.0
19660,1724816796504072392,-1.8121331930160522,-0.6342338919639587,0.154206320643425,8.2057696999982e-05,0.07411771267652512,0.36304813623428345,-0.9288179278373718,0.0,0.0,0.0,0.0,0.0,0.0
19662,1724816796526738532,-1.8118078708648682,-0.6346474885940552,0.1539904624223709,-0.0002466180012561381,0.0750565379858017,0.3621462881565094,-0.9290944337844849,0.0,0.0,0.0,0.0,0.0,0.0
19664,1724816796527153107,-1.8113700151443481,-0.6351994276046753,0.1536039412021637,-0.003003007033839822,0.07738752663135529,0.3608728051185608,-0.9293938875198364,0.0,0.0,0.0,0.0,0.0,0.0
19666,1724816796534925547,-1.810982584953308,-0.6355687379837036,0.15343332290649414,-0.0034615483600646257,0.07793038338422775,0.3607252538204193,-0.9294041991233826,0.0,0.0,0.0,0.0,0.0,0.0
19668,1724816796545115372,-1.8105671405792236,-0.6359771490097046,0.15308013558387756,-0.0036389834713190794,0.07872725278139114,0.36033108830451965,-0.929489254951477,0.0,0.0,0.0,0.0,0.0,0.0
19670,1724816796579093951,-1.810182809829712,-0.6362833380699158,0.15298955142498016,-0.0032231039367616177,0.07882867008447647,0.36045101284980774,-0.9294357299804688,0.0,0.0,0.0,0.0,0.0,0.0
19672,1724816796579346439,-1.8098050355911255,-0.6366110444068909,0.15288543701171875,-0.002704661339521408,0.07926511764526367,0.3603666126728058,-0.9294330477714539,0.0,0.0,0.0,0.0,0.0,0.0
19674,1724816796579683425,-1.8092824220657349,-0.6367796659469604,0.15314359962940216,-0.002799269510433078,0.07919798791408539,0.3615306615829468,-0.9289863109588623,0.0,0.0,0.0,0.0,0.0,0.0
19676,1724816796590837269,-1.8088055849075317,-0.6370809674263,0.1531812846660614,-0.0025236555375158787,0.07912690192461014,0.3619505763053894,-0.928829550743103,0.0,0.0,0.0,0.0,0.0,0.0
19678,1724816796593525151,-1.8084040880203247,-0.6375414133071899,0.15292587876319885,-0.001991311088204384,0.07991898059844971,0.3610294461250305,-0.9291214942932129,0.0,0.0,0.0,0.0,0.0,0.0
19680,1724816796603761723,-1.8079149723052979,-0.6378803849220276,0.15289096534252167,-0.001213997369632125,0.08014847338199615,0.36096617579460144,-0.9291276931762695,0.0,0.0,0.0,0.0,0.0,0.0
19682,1724816796614841480,-1.8074238300323486,-0.6382446885108948,0.15315912663936615,-0.0011255597928538918,0.08023112267255783,0.3613654375076294,-0.9289654493331909,0.0,0.0,0.0,0.0,0.0,0.0
19684,1724816796687616055,-1.8067710399627686,-0.6383723020553589,0.15338903665542603,-0.0019517785403877497,0.07948648929595947,0.3637627363204956,-0.9280920624732971,0.0,0.0,0.0,0.0,0.0,0.0
19686,1724816796688091264,-1.8062419891357422,-0.6387874484062195,0.15348118543624878,-0.0017072288319468498,0.07948038727045059,0.3643879294395447,-0.927847683429718,0.0,0.0,0.0,0.0,0.0,0.0
19688,1724816796688486658,-1.8058297634124756,-0.6396395564079285,0.15313807129859924,-0.0009006011532619596,0.08151331543922424,0.36173972487449646,-0.9287083745002747,0.0,0.0,0.0,0.0,0.0,0.0
19690,1724816796689218875,-1.8051376342773438,-0.6403140425682068,0.15301613509655,-0.0006396591779775918,0.08214665204286575,0.36154717206954956,-0.9287277460098267,0.0,0.0,0.0,0.0,0.0,0.0
19692,1724816796689638048,-1.8044637441635132,-0.6409343481063843,0.15294651687145233,-0.0005561104626394808,0.0826907604932785,0.3608764410018921,-0.9289403557777405,0.0,0.0,0.0,0.0,0.0,0.0
19694,1724816796690038448,-1.8037532567977905,-0.6416043043136597,0.1528346836566925,-0.00041504079126752913,0.08376382291316986,0.35994160175323486,-0.929206907749176,0.0,0.0,0.0,0.0,0.0,0.0
19696,1724816796690437385,-1.8029522895812988,-0.6421276926994324,0.15310820937156677,-0.0004494405584409833,0.08382358402013779,0.3601444959640503,-0.9291228652000427,0.0,0.0,0.0,0.0,0.0,0.0
19698,1724816796694226265,-1.8021243810653687,-0.6427742838859558,0.15310928225517273,2.2346672267303802e-05,0.08464576303958893,0.35929474234580994,-0.9293774366378784,0.0,0.0,0.0,0.0,0.0,0.0
19700,1724816796703936577,-1.8011208772659302,-0.6431158185005188,0.15344727039337158,-0.00026926418649964035,0.08397872000932693,0.3607877194881439,-0.9288594126701355,0.0,0.0,0.0,0.0,0.0,0.0
19702,1724816796714841908,-1.800195574760437,-0.6437264680862427,0.15353107452392578,0.00022549771529156715,0.08416613191366196,0.36041757464408875,-0.928986132144928,0.0,0.0,0.0,0.0,0.0,0.0
19704,1724816796755810762,-1.7992687225341797,-0.6447508335113525,0.15321670472621918,0.0010357825085520744,0.08675921708345413,0.3581317663192749,-0.9296308159828186,0.0,0.0,0.0,0.0,0.0,0.0
19706,1724816796756783663,-1.7981172800064087,-0.6450096368789673,0.15370941162109375,0.00014274237037170678,0.08428701013326645,0.36156851053237915,-0.9285278916358948,0.0,0.0,0.0,0.0,0.0,0.0
19708,1724816796757143033,-1.7971405982971191,-0.6462405920028687,0.15355244278907776,0.0008209781954064965,0.08717658370733261,0.35799214243888855,-0.9296457171440125,0.0,0.0,0.0,0.0,0.0,0.0
19710,1724816796772489849,-1.796067476272583,-0.6470307111740112,0.15360908210277557,0.0009508378570899367,0.0875527411699295,0.35727566480636597,-0.9298858642578125,0.0,0.0,0.0,0.0,0.0,0.0
19712,1724816796772882477,-1.7949024438858032,-0.6473326086997986,0.15432927012443542,0.002811233978718519,0.08417149633169174,0.35992610454559326,-0.9291719198226929,0.0,0.0,0.0,0.0,0.0,0.0
19714,1724816796773686562,-1.79362952709198,-0.6484037637710571,0.15397430956363678,0.0008820893708616495,0.08704265207052231,0.35807448625564575,-0.9296265840530396,0.0,0.0,0.0,0.0,0.0,0.0
19716,1724816796784833929,-1.7925752401351929,-0.649462103843689,0.1538924127817154,0.0022481433115899563,0.08844245970249176,0.3558216392993927,-0.9303568601608276,0.0,0.0,0.0,0.0,0.0,0.0
19718,1724816796795019290,-1.791322946548462,-0.6501991152763367,0.1542454957962036,0.0016252737259492278,0.08874838799238205,0.3558736741542816,-0.9303090572357178,0.0,0.0,0.0,0.0,0.0,0.0
19720,1724816796803581683,-1.7902610301971436,-0.6508710980415344,0.15469294786453247,0.004408812150359154,0.08708158880472183,0.3566133677959442,-0.9301744103431702,0.0,0.0,0.0,0.0,0.0,0.0
19722,1724816796816349234,-1.7888292074203491,-0.6515941023826599,0.1547384411096573,0.0008925199508666992,0.08815507590770721,0.3570380210876465,-0.9299203157424927,0.0,0.0,0.0,0.0,0.0,0.0
19724,1724816796823760786,-1.7876676321029663,-0.6523532271385193,0.1550419181585312,0.0009320370154455304,0.08820769935846329,0.35661205649375916,-0.9300787448883057,0.0,0.0,0.0,0.0,0.0,0.0
19726,1724816796834264586,-1.7865046262741089,-0.6532019972801208,0.1549343466758728,0.0008049189927987754,0.0888700857758522,0.35573750734329224,-0.930350661277771,0.0,0.0,0.0,0.0,0.0,0.0
19728,1724816796844369161,-1.7854551076889038,-0.6539748907089233,0.1553000658750534,0.004375486634671688,0.0879291519522667,0.35554713010787964,-0.9305028319358826,0.0,0.0,0.0,0.0,0.0,0.0
19730,1724816796873467718,-1.7842532396316528,-0.6550799012184143,0.15488795936107635,0.0029548017773777246,0.09095213562250137,0.35342100262641907,-0.9310277700424194,0.0,0.0,0.0,0.0,0.0,0.0
19732,1724816796874196391,-1.7829680442810059,-0.6557010412216187,0.1549585461616516,0.0019348278874531388,0.0926014631986618,0.35311779379844666,-0.9309828877449036,0.0,0.0,0.0,0.0,0.0,0.0
19734,1724816796874493956,-1.7817622423171997,-0.6562033295631409,0.1553366780281067,0.002217911882326007,0.09126712381839752,0.3537757992744446,-0.930864155292511,0.0,0.0,0.0,0.0,0.0,0.0
19736,1724816796884172221,-1.7805979251861572,-0.6569028496742249,0.15529195964336395,0.0027122697792947292,0.09198135137557983,0.3528830111026764,-0.9311313629150391,0.0,0.0,0.0,0.0,0.0,0.0
19738,1724816796895501228,-1.779319405555725,-0.6569617986679077,0.15617747604846954,0.003964095376431942,0.0885445699095726,0.35628169775009155,-0.9301653504371643,0.0,0.0,0.0,0.0,0.0,0.0
19740,1724816796903558736,-1.7781814336776733,-0.657537043094635,0.15639817714691162,0.004038254264742136,0.08886716514825821,0.356035441160202,-0.930228590965271,0.0,0.0,0.0,0.0,0.0,0.0
19742,1724816796913787088,-1.776948094367981,-0.6583977341651917,0.1560082733631134,0.002823165152221918,0.09268387407064438,0.35390686988830566,-0.9306727051734924,0.0,0.0,0.0,0.0,0.0,0.0
19744,1724816796925049209,-1.7758095264434814,-0.6591033339500427,0.15616005659103394,0.0028544110246002674,0.09249939769506454,0.35238802433013916,-0.9312670826911926,0.0,0.0,0.0,0.0,0.0,0.0
19746,1724816796934158385,-1.7748292684555054,-0.6596927642822266,0.15621349215507507,0.006713912356644869,0.09177009761333466,0.3519742786884308,-0.9314759373664856,0.0,0.0,0.0,0.0,0.0,0.0
19748,1724816796944301987,-1.7737325429916382,-0.6599878668785095,0.15666936337947845,0.006800192873924971,0.09086324274539948,0.35292893648147583,-0.9312028884887695,0.0,0.0,0.0,0.0,0.0,0.0
19750,1724816796955035635,-1.772679090499878,-0.6604374647140503,0.1568233221769333,0.005888657178729773,0.09111864119768143,0.3525868058204651,-0.9313138127326965,0.0,0.0,0.0,0.0,0.0,0.0
19752,1724816796988774530,-1.7716115713119507,-0.661106288433075,0.15663713216781616,0.0036554608959704638,0.0934387743473053,0.3506864607334137,-0.9318127632141113,0.0,0.0,0.0,0.0,0.0,0.0
19754,1724816796989107388,-1.7706772089004517,-0.6616110801696777,0.1565675586462021,0.004418750759214163,0.09472285956144333,0.3496834635734558,-0.9320566654205322,0.0,0.0,0.0,0.0,0.0,0.0
19756,1724816796989539194,-1.7697803974151611,-0.6615263223648071,0.15734253823757172,0.00557609461247921,0.09016547352075577,0.35278069972991943,-0.9313350915908813,0.0,0.0,0.0,0.0,0.0,0.0
19758,1724816796999310788,-1.7690719366073608,-0.6615163087844849,0.15794648230075836,0.00803937017917633,0.08682429790496826,0.35467883944511414,-0.930913507938385,0.0,0.0,0.0,0.0,0.0,0.0
19760,1724816797004137958,-1.7683111429214478,-0.6623815894126892,0.15719400346279144,0.010831124149262905,0.08870094269514084,0.35330718755722046,-0.9312297701835632,0.0,0.0,0.0,0.0,0.0,0.0
19762,1724816797013669487,-1.7676645517349243,-0.6627210378646851,0.15747877955436707,0.01135884877294302,0.08883751183748245,0.35261043906211853,-0.931474506855011,0.0,0.0,0.0,0.0,0.0,0.0
19764,1724816797023768387,-1.7669848203659058,-0.662907063961029,0.1577606350183487,0.010450579226016998,0.08853732794523239,0.35299772024154663,-0.931367039680481,0.0,0.0,0.0,0.0,0.0,0.0
19766,1724816797035428090,-1.7664140462875366,-0.6631699204444885,0.1578507423400879,0.01078399270772934,0.08857402950525284,0.35286131501197815,-0.9314114451408386,0.0,0.0,0.0,0.0,0.0,0.0
19768,1724816797084237475,-1.765852928161621,-0.6636362075805664,0.15756730735301971,0.011651971377432346,0.08913416415452957,0.35227304697036743,-0.931570291519165,0.0,0.0,0.0,0.0,0.0,0.0
19770,1724816797084954745,-1.7654081583023071,-0.6638631224632263,0.1576915830373764,0.01241872739046812,0.09072396904230118,0.3512516915798187,-0.9317924976348877,0.0,0.0,0.0,0.0,0.0,0.0
19772,1724816797085562444,-1.7649997472763062,-0.6639462113380432,0.15807147324085236,0.011846347711980343,0.08868075162172318,0.35187575221061707,-0.9317612051963806,0.0,0.0,0.0,0.0,0.0,0.0
19774,1724816797085816604,-1.7646512985229492,-0.6641232371330261,0.15823636949062347,0.011846990324556828,0.08820852637290955,0.35153189301490784,-0.931935727596283,0.0,0.0,0.0,0.0,0.0,0.0
19776,1724816797086225992,-1.7643787860870361,-0.6641767024993896,0.1585136353969574,0.011755523271858692,0.08734685182571411,0.3516401946544647,-0.9319772720336914,0.0,0.0,0.0,0.0,0.0,0.0
19778,1724816797096829224,-1.76410710811615,-0.6641996502876282,0.15879406034946442,0.01164568867534399,0.08662045747041702,0.35173943638801575,-0.9320089221000671,0.0,0.0,0.0,0.0,0.0,0.0
19780,1724816797112965504,-1.7638702392578125,-0.6643392443656921,0.15890340507030487,0.011694739572703838,0.08641491085290909,0.35151979327201843,-0.9321102499961853,0.0,0.0,0.0,0.0,0.0,0.0
19782,1724816797113897979,-1.76366126537323,-0.6643877625465393,0.15900330245494843,0.0117682795971632,0.08620505034923553,0.3512840270996094,-0.9322176575660706,0.0,0.0,0.0,0.0,0.0,0.0
19784,1724816797124029229,-1.763452410697937,-0.664262592792511,0.15935277938842773,0.010199432261288166,0.08386716991662979,0.3522407114505768,-0.9320883750915527,0.0,0.0,0.0,0.0,0.0,0.0
19786,1724816797134188565,-1.7633273601531982,-0.6644406914710999,0.1591850072145462,0.011438858695328236,0.08574023097753525,0.3512274920940399,-0.9322859048843384,0.0,0.0,0.0,0.0,0.0,0.0
19788,1724816797148227565,-1.7631666660308838,-0.6643103957176208,0.1594807505607605,0.010027343407273293,0.0838460773229599,0.352017879486084,-0.9321762919425964,0.0,0.0,0.0,0.0,0.0,0.0
19790,1724816797153265285,-1.7630373239517212,-0.6644310355186462,0.15935415029525757,0.010212980210781097,0.08473415672779083,0.35156765580177307,-0.932263970375061,0.0,0.0,0.0,0.0,0.0,0.0
19792,1724816797192790980,-1.7629157304763794,-0.6644015312194824,0.15948590636253357,0.010019311681389809,0.08499210327863693,0.35145634412765503,-0.9322844743728638,0.0,0.0,0.0,0.0,0.0,0.0
19794,1724816797193182566,-1.762782335281372,-0.66441810131073,0.15955938398838043,0.009872077032923698,0.08591651916503906,0.35106945037841797,-0.9323471784591675,0.0,0.0,0.0,0.0,0.0,0.0
19796,1724816797193457153,-1.7626447677612305,-0.6643800735473633,0.15971697866916656,0.009711853228509426,0.08665525913238525,0.35078832507133484,-0.9323862195014954,0.0,0.0,0.0,0.0,0.0,0.0
19798,1724816797194715350,-1.762557864189148,-0.6640421748161316,0.16036218404769897,0.008329538628458977,0.08631879836320877,0.35102811455726624,-0.9323406219482422,0.0,0.0,0.0,0.0,0.0,0.0
19800,1724816797204188231,-1.762385368347168,-0.6639479398727417,0.1605501025915146,0.00797770731151104,0.08729006350040436,0.35056453943252563,-0.932427704334259,0.0,0.0,0.0,0.0,0.0,0.0
19802,1724816797213971953,-1.7621614933013916,-0.6640716791152954,0.16021256148815155,0.009057503193616867,0.08954089879989624,0.34958532452583313,-0.9325719475746155,0.0,0.0,0.0,0.0,0.0,0.0
19804,1724816797225060906,-1.7619633674621582,-0.6641294956207275,0.16005924344062805,0.009953378699719906,0.09265242516994476,0.3478546440601349,-0.9329060316085815,0.0,0.0,0.0,0.0,0.0,0.0
19806,1724816797234370291,-1.7617199420928955,-0.6638107895851135,0.16035526990890503,0.008701096288859844,0.09210217744112015,0.3483760356903076,-0.932778537273407,0.0,0.0,0.0,0.0,0.0,0.0
19808,1724816797247124580,-1.7615243196487427,-0.6638879776000977,0.16027092933654785,0.009905081242322922,0.09480757266283035,0.34651029109954834,-0.9331902861595154,0.0,0.0,0.0,0.0,0.0,0.0
19810,1724816797254901242,-1.761284589767456,-0.663840115070343,0.1603536605834961,0.009664778597652912,0.09638255089521408,0.34536269307136536,-0.9334567785263062,0.0,0.0,0.0,0.0,0.0,0.0
19812,1724816797283130282,-1.7610564231872559,-0.6637234091758728,0.16056041419506073,0.009437507949769497,0.09752976149320602,0.34454411268234253,-0.9336425065994263,0.0,0.0,0.0,0.0,0.0,0.0
19814,1724816797283442051,-1.7608376741409302,-0.6635233163833618,0.16086967289447784,0.00863125640898943,0.09798462688922882,0.3444100618362427,-0.9336521625518799,0.0,0.0,0.0,0.0,0.0,0.0
19816,1724816797285437129,-1.7605993747711182,-0.6634191870689392,0.16103488206863403,0.008084031753242016,0.09876515716314316,0.3437557816505432,-0.9338158369064331,0.0,0.0,0.0,0.0,0.0,0.0
19818,1724816797293601763,-1.760352373123169,-0.6633394956588745,0.16115045547485352,0.007774664089083672,0.09988398849964142,0.3428134322166443,-0.9340459108352661,0.0,0.0,0.0,0.0,0.0,0.0
19820,1724816797306459337,-1.760083556175232,-0.6633577942848206,0.16117076575756073,0.007756683975458145,0.10177624970674515,0.341325044631958,-0.9343867897987366,0.0,0.0,0.0,0.0,0.0,0.0
19822,1724816797313776099,-1.7598567008972168,-0.6632433533668518,0.1613413393497467,0.00758571969345212,0.102555051445961,0.34082692861557007,-0.9344848394393921,0.0,0.0,0.0,0.0,0.0,0.0
19824,1724816797324613898,-1.7596176862716675,-0.6631820201873779,0.1614772081375122,0.0071885124780237675,0.10369694977998734,0.33999404311180115,-0.9346653819084167,0.0,0.0,0.0,0.0,0.0,0.0
19826,1724816797334519655,-1.7594822645187378,-0.6629189848899841,0.16207121312618256,0.006773076020181179,0.10393129289150238,0.3407619893550873,-0.9343627691268921,0.0,0.0,0.0,0.0,0.0,0.0
19828,1724816797343617847,-1.7592313289642334,-0.6628332734107971,0.16230329871177673,0.0063904812559485435,0.1044716089963913,0.34032705426216125,-0.9344637393951416,0.0,0.0,0.0,0.0,0.0,0.0
19830,1724816797353533790,-1.7590081691741943,-0.6627243161201477,0.16256263852119446,0.005970482714474201,0.10477666556835175,0.34012213349342346,-0.9345069527626038,0.0,0.0,0.0,0.0,0.0,0.0
19832,1724816797364451448,-1.7587575912475586,-0.6627429723739624,0.16266895830631256,0.005710655357688665,0.1054547131061554,0.3393317461013794,-0.9347195625305176,0.0,0.0,0.0,0.0,0.0,0.0
19834,1724816797374610034,-1.758486270904541,-0.6626543998718262,0.16287952661514282,0.005587329156696796,0.1058136522769928,0.33911287784576416,-0.934759259223938,0.0,0.0,0.0,0.0,0.0,0.0
19836,1724816797385620156,-1.7582337856292725,-0.662541925907135,0.16320064663887024,0.005367481615394354,0.10563473403453827,0.33955493569374084,-0.934620201587677,0.0,0.0,0.0,0.0,0.0,0.0
19838,1724816797411548367,-1.7579691410064697,-0.6625645756721497,0.16328223049640656,0.005738816224038601,0.10666158050298691,0.3390918970108032,-0.9346694946289062,0.0,0.0,0.0,0.0,0.0,0.0
19840,1724816797411934442,-1.7577157020568848,-0.662571370601654,0.1633986085653305,0.005417293403297663,0.10699830949306488,0.3388351798057556,-0.9347261190414429,0.0,0.0,0.0,0.0,0.0,0.0
19842,1724816797413780453,-1.7574331760406494,-0.6622769832611084,0.1637953221797943,0.003989390097558498,0.10495318472385406,0.3400314450263977,-0.9345307350158691,0.0,0.0,0.0,0.0,0.0,0.0
19844,1724816797424349842,-1.7571742534637451,-0.6620792746543884,0.1641680896282196,0.003082243725657463,0.10367200523614883,0.34072577953338623,-0.9344242811203003,0.0,0.0,0.0,0.0,0.0,0.0
19846,1724816797433909153,-1.7569364309310913,-0.6619454622268677,0.16448092460632324,0.002373163588345051,0.10287236422300339,0.3413015305995941,-0.9343044757843018,0.0,0.0,0.0,0.0,0.0,0.0
19848,1724816797444284903,-1.756646990776062,-0.6619048118591309,0.16465917229652405,0.001889552571810782,0.10283846408128738,0.34113460779190063,-0.9343702793121338,0.0,0.0,0.0,0.0,0.0,0.0
19850,1724816797454917520,-1.7564111948013306,-0.6619769334793091,0.16462494432926178,0.0030319092329591513,0.10482481867074966,0.3406978249549866,-0.9343059062957764,0.0,0.0,0.0,0.0,0.0,0.0
19852,1724816797471802442,-1.7560573816299438,-0.6621488928794861,0.16437843441963196,0.003979078494012356,0.10631517320871353,0.33984696865081787,-0.9344438910484314,0.0,0.0,0.0,0.0,0.0,0.0
19854,1724816797496998241,-1.7557570934295654,-0.6620538830757141,0.1646084189414978,0.0029586374294012785,0.10473847389221191,0.33985260128974915,-0.9346237182617188,0.0,0.0,0.0,0.0,0.0,0.0
19856,1724816797497245573,-1.7555025815963745,-0.6619107723236084,0.1649402678012848,0.0017371305730193853,0.10457270592451096,0.3398703932762146,-0.9346387386322021,0.0,0.0,0.0,0.0,0.0,0.0
19858,1724816797497485425,-1.7552434206008911,-0.6619047522544861,0.1650065928697586,0.0022565957624465227,0.1049763560295105,0.3393710255622864,-0.9347739219665527,0.0,0.0,0.0,0.0,0.0,0.0
19860,1724816797504027946,-1.7549852132797241,-0.661909282207489,0.16510756313800812,0.0019507869146764278,0.10536598414182663,0.339007705450058,-0.9348626136779785,0.0,0.0,0.0,0.0,0.0,0.0
19862,1724816797513699834,-1.754714012145996,-0.6619329452514648,0.165138840675354,0.002196692395955324,0.10605915635824203,0.3386468291282654,-0.9349144697189331,0.0,0.0,0.0,0.0,0.0,0.0
19864,1724816797524061675,-1.7544556856155396,-0.6619263291358948,0.16526219248771667,0.002061716513708234,0.10616372525691986,0.3384299576282501,-0.9349814653396606,0.0,0.0,0.0,0.0,0.0,0.0
19866,1724816797535151140,-1.754210352897644,-0.6618943214416504,0.16537746787071228,0.0018697301857173443,0.10634560883045197,0.33832404017448425,-0.9349995255470276,0.0,0.0,0.0,0.0,0.0,0.0
19868,1724816797543375508,-1.7539541721343994,-0.6619292497634888,0.1654110550880432,0.002012772485613823,0.10686002671718597,0.33784228563308716,-0.9351146817207336,0.0,0.0,0.0,0.0,0.0,0.0
19870,1724816797553455181,-1.7536900043487549,-0.6619278788566589,0.16546188294887543,0.0020316767040640116,0.10746018588542938,0.33723393082618713,-0.9352654218673706,0.0,0.0,0.0,0.0,0.0,0.0
19872,1724816797572305541,-1.7534383535385132,-0.6619285345077515,0.16547046601772308,0.002006957773119211,0.10814159363508224,0.3366529941558838,-0.9353963136672974,0.0,0.0,0.0,0.0,0.0,0.0
19874,1724816797573765412,-1.7531572580337524,-0.6619459390640259,0.16552846133708954,0.0020603009033948183,0.10883356630802155,0.33614861965179443,-0.9354972839355469,0.0,0.0,0.0,0.0,0.0,0.0
19876,1724816797584232112,-1.7529118061065674,-0.6618868708610535,0.16566336154937744,0.001969481585547328,0.10941911488771439,0.335653156042099,-0.9356070756912231,0.0,0.0,0.0,0.0,0.0,0.0
19878,1724816797593618520,-1.75272536277771,-0.6617701649665833,0.16596482694149017,0.0014860312221571803,0.10953632742166519,0.33543846011161804,-0.9356712698936462,0.0,0.0,0.0,0.0,0.0,0.0
19880,1724816797603792232,-1.7525602579116821,-0.6617366671562195,0.16618666052818298,0.00104955630376935,0.11003599315881729,0.3350413739681244,-0.9357554912567139,0.0,0.0,0.0,0.0,0.0,0.0
19882,1724816797613867332,-1.7524614334106445,-0.6616634726524353,0.1664656102657318,0.0008823524694889784,0.11061789840459824,0.3349040448665619,-0.9357361793518066,0.0,0.0,0.0,0.0,0.0,0.0
19884,1724816797624855686,-1.7523505687713623,-0.6616002321243286,0.16675396263599396,0.00034510204568505287,0.11133494228124619,0.33436155319213867,-0.9358454346656799,0.0,0.0,0.0,0.0,0.0,0.0
19886,1724816797633616927,-1.7523282766342163,-0.6613852977752686,0.16727392375469208,-0.0009178787004202604,0.11113681644201279,0.3346770405769348,-0.9357559084892273,0.0,0.0,0.0,0.0,0.0,0.0
19888,1724816797643517778,-1.7523279190063477,-0.661312997341156,0.16751208901405334,-0.001110173761844635,0.11191599071025848,0.3344693183898926,-0.9357370734214783,0.0,0.0,0.0,0.0,0.0,0.0
19890,1724816797653557994,-1.7523605823516846,-0.6612213850021362,0.16778315603733063,-0.0015305522829294205,0.11250346899032593,0.3342548906803131,-0.9357427358627319,0.0,0.0,0.0,0.0,0.0,0.0
19892,1724816797664219123,-1.7524042129516602,-0.6611338257789612,0.16799598932266235,-0.0019094629678875208,0.11338847130537033,0.33375826478004456,-0.9358124732971191,0.0,0.0,0.0,0.0,0.0,0.0
19894,1724816797674685032,-1.7524645328521729,-0.6610887050628662,0.16809943318367004,-0.002062329789623618,0.1146300733089447,0.33336105942726135,-0.9358024597167969,0.0,0.0,0.0,0.0,0.0,0.0
19896,1724816797684067522,-1.75253164768219,-0.6610148549079895,0.16824418306350708,-0.0023391314316540956,0.1156468391418457,0.33298206329345703,-0.9358115196228027,0.0,0.0,0.0,0.0,0.0,0.0
19898,1724816797698090289,-1.7526166439056396,-0.6609054207801819,0.16848492622375488,-0.0027498856652528048,0.11644488573074341,0.3326798677444458,-0.9358189702033997,0.0,0.0,0.0,0.0,0.0,0.0
19900,1724816797704373678,-1.7527782917022705,-0.6605372428894043,0.16920311748981476,-0.004125357139855623,0.11565712094306946,0.33330315351486206,-0.9356898069381714,0.0,0.0,0.0,0.0,0.0,0.0
19902,1724816797713441728,-1.7528953552246094,-0.6604754328727722,0.16937550902366638,-0.004080972168594599,0.11651220917701721,0.3331894874572754,-0.9356244802474976,0.0,0.0,0.0,0.0,0.0,0.0
19904,1724816797723890030,-1.7529826164245605,-0.6604468822479248,0.1695070117712021,-0.003858972107991576,0.1173342764377594,0.33302754163742065,-0.9355802536010742,0.0,0.0,0.0,0.0,0.0,0.0
19906,1724816797734255670,-1.7530134916305542,-0.6605660915374756,0.16930043697357178,-0.002416294300928712,0.11867670714855194,0.3328043818473816,-0.9354951977729797,0.0,0.0,0.0,0.0,0.0,0.0
19908,1724816797743569531,-1.7531006336212158,-0.6604792475700378,0.16950689256191254,-0.0026693763211369514,0.11905742436647415,0.3327053189277649,-0.9354814291000366,0.0,0.0,0.0,0.0,0.0,0.0
19910,1724816797753748399,-1.7531285285949707,-0.6604574918746948,0.16962948441505432,-0.0022776369005441666,0.11956183612346649,0.3324827551841736,-0.9354972839355469,0.0,0.0,0.0,0.0,0.0,0.0
19912,1724816797763768857,-1.7530697584152222,-0.6605106592178345,0.16952857375144958,-0.0009417602559551597,0.12086902558803558,0.33181479573249817,-0.935568630695343,0.0,0.0,0.0,0.0,0.0,0.0
19914,1724816797774057557,-1.7530096769332886,-0.6604717373847961,0.16974544525146484,-0.0006188747356645763,0.12128479778766632,0.3315376937389374,-0.9356133341789246,0.0,0.0,0.0,0.0,0.0,0.0
19916,1724816797785959160,-1.7529038190841675,-0.6604620814323425,0.16995775699615479,0.00014293754065874964,0.12185799330472946,0.33110836148262024,-0.9356911778450012,0.0,0.0,0.0,0.0,0.0,0.0
19918,1724816797795957630,-1.7527804374694824,-0.6603996753692627,0.17025692760944366,0.0007886880193836987,0.12239861488342285,0.33062583208084106,-0.9357908368110657,0.0,0.0,0.0,0.0,0.0,0.0
19920,1724816797803479872,-1.7526382207870483,-0.660305917263031,0.17060469090938568,0.0013616288779303432,0.12234123796224594,0.3303851783275604,-0.9358827471733093,0.0,0.0,0.0,0.0,0.0,0.0
19922,1724816797814380329,-1.7525397539138794,-0.6600812673568726,0.17116297781467438,0.0016912099672481418,0.12160539627075195,0.33067524433135986,-0.935875654220581,0.0,0.0,0.0,0.0,0.0,0.0
19924,1724816797823739036,-1.7524287700653076,-0.6597276926040649,0.17174716293811798,0.001908389269374311,0.12134328484535217,0.3305894136428833,-0.9359395503997803,0.0,0.0,0.0,0.0,0.0,0.0
19926,1724816797834250070,-1.752264380455017,-0.6595470309257507,0.17214511334896088,0.0025444901548326015,0.12146449089050293,0.33025062084198,-0.9360418915748596,0.0,0.0,0.0,0.0,0.0,0.0
19928,1724816797843663772,-1.7522069215774536,-0.6590457558631897,0.17315669357776642,0.0018242648802697659,0.11997230350971222,0.3307090997695923,-0.9360742568969727,0.0,0.0,0.0,0.0,0.0,0.0
19930,1724816797853653244,-1.7520534992218018,-0.6588822603225708,0.17360959947109222,0.002699760952964425,0.12021844834089279,0.33039969205856323,-0.9361497163772583,0.0,0.0,0.0,0.0,0.0,0.0
19932,1724816797864777977,-1.7518950700759888,-0.6587269306182861,0.174045130610466,0.0036792170722037554,0.12051105499267578,0.33002302050590515,-0.936241626739502,0.0,0.0,0.0,0.0,0.0,0.0
19934,1724816797873832092,-1.751750111579895,-0.6585505604743958,0.17454463243484497,0.004271992016583681,0.12067964673042297,0.32973384857177734,-0.9363192915916443,0.0,0.0,0.0,0.0,0.0,0.0
19936,1724816797883944647,-1.7515933513641357,-0.6584377288818359,0.1748412400484085,0.005023273639380932,0.12118146568536758,0.32920515537261963,-0.9364367723464966,0.0,0.0,0.0,0.0,0.0,0.0
19938,1724816797898162084,-1.7514370679855347,-0.6583249568939209,0.17516736686229706,0.005607139319181442,0.12162429839372635,0.32882899045944214,-0.9365081787109375,0.0,0.0,0.0,0.0,0.0,0.0
19940,1724816797903466122,-1.7513114213943481,-0.6581738591194153,0.17552289366722107,0.006492394953966141,0.12163515388965607,0.3285684883594513,-0.9365924596786499,0.0,0.0,0.0,0.0,0.0,0.0
19942,1724816797913915965,-1.751213788986206,-0.657981276512146,0.1759377270936966,0.007321619428694248,0.1216762587428093,0.3286137878894806,-0.9365651607513428,0.0,0.0,0.0,0.0,0.0,0.0
19944,1724816797924739101,-1.7512493133544922,-0.6574370861053467,0.17690761387348175,0.0064550056122243404,0.11963231861591339,0.3297085464000702,-0.9364500641822815,0.0,0.0,0.0,0.0,0.0,0.0
19946,1724816797934048736,-1.7511996030807495,-0.6572095155715942,0.17731355130672455,0.006957197096198797,0.11940868943929672,0.3298753798007965,-0.9364162683486938,0.0,0.0,0.0,0.0,0.0,0.0
19948,1724816797947116373,-1.75119149684906,-0.6572009325027466,0.1773952692747116,0.008832129649817944,0.12100226432085037,0.3290582299232483,-0.9364833831787109,0.0,0.0,0.0,0.0,0.0,0.0
19950,1724816797956530446,-1.751155138015747,-0.6568526029586792,0.17788012325763702,0.008116081357002258,0.1191810742020607,0.32994839549064636,-0.9364102482795715,0.0,0.0,0.0,0.0,0.0,0.0
19952,1724816797964097904,-1.7511335611343384,-0.6570148468017578,0.17769755423069,0.010107485577464104,0.12214802205562592,0.3283082842826843,-0.9365849494934082,0.0,0.0,0.0,0.0,0.0,0.0
19954,1724816797975259994,-1.7511447668075562,-0.6571885347366333,0.17758893966674805,0.011977019719779491,0.12407907098531723,0.32705333828926086,-0.9367481470108032,0.0,0.0,0.0,0.0,0.0,0.0
19956,1724816797995744307,-1.7511359453201294,-0.6572640538215637,0.177739217877388,0.012913842685520649,0.12516406178474426,0.3259256184101105,-0.9369843602180481,0.0,0.0,0.0,0.0,0.0,0.0
19958,1724816797996444119,-1.751132845878601,-0.6571135520935059,0.1780802607536316,0.013412045314908028,0.12499990314245224,0.3259415626525879,-0.9369937777519226,0.0,0.0,0.0,0.0,0.0,0.0
19960,1724816798004321808,-1.7511287927627563,-0.657060444355011,0.17830686271190643,0.014096306636929512,0.12557724118232727,0.32540464401245117,-0.9370930790901184,0.0,0.0,0.0,0.0,0.0,0.0
19962,1724816798013832556,-1.7510513067245483,-0.6566373705863953,0.17896853387355804,0.012822132557630539,0.12267602980136871,0.3270367681980133,-0.9369275569915771,0.0,0.0,0.0,0.0,0.0,0.0
19964,1724816798023548890,-1.7509883642196655,-0.6564674973487854,0.1793053150177002,0.012591073289513588,0.122146837413311,0.32724258303642273,-0.9369279146194458,0.0,0.0,0.0,0.0,0.0,0.0
19966,1724816798034724941,-1.7509881258010864,-0.6564206480979919,0.1795036941766739,0.01360202208161354,0.1216006949543953,0.32761359214782715,-0.9368551969528198,0.0,0.0,0.0,0.0,0.0,0.0
19968,1724816798043425507,-1.7508809566497803,-0.6562622785568237,0.17966538667678833,0.013727756217122078,0.12098539620637894,0.3279315233230591,-0.9368218183517456,0.0,0.0,0.0,0.0,0.0,0.0
19970,1724816798053478743,-1.750885248184204,-0.6558806896209717,0.1802455633878708,0.013557657599449158,0.11936304718255997,0.3284902274608612,-0.9368366599082947,0.0,0.0,0.0,0.0,0.0,0.0
19972,1724816798063802124,-1.7508559226989746,-0.655824601650238,0.18043307960033417,0.014809851534664631,0.11893525719642639,0.32863086462020874,-0.936822772026062,0.0,0.0,0.0,0.0,0.0,0.0
19974,1724816798073720208,-1.7508230209350586,-0.6556270718574524,0.18086156249046326,0.015122274868190289,0.11842627078294754,0.32888755202293396,-0.9367921352386475,0.0,0.0,0.0,0.0,0.0,0.0
19976,1724816798084589417,-1.750749111175537,-0.6553947329521179,0.18131710588932037,0.014696214348077774,0.11837530881166458,0.32851171493530273,-0.9369372129440308,0.0,0.0,0.0,0.0,0.0,0.0
19978,1724816798093412934,-1.7506539821624756,-0.6552736759185791,0.18157511949539185,0.01523992232978344,0.11834587901830673,0.32843396067619324,-0.9369595050811768,0.0,0.0,0.0,0.0,0.0,0.0
19980,1724816798104668387,-1.7505416870117188,-0.6551905274391174,0.18176038563251495,0.015935448929667473,0.11842894554138184,0.32840049266815186,-0.9369491934776306,0.0,0.0,0.0,0.0,0.0,0.0
19982,1724816798113798200,-1.7504160404205322,-0.6551073789596558,0.18199299275875092,0.016491422429680824,0.11846591532230377,0.32834553718566895,-0.9369542002677917,0.0,0.0,0.0,0.0,0.0,0.0
19984,1724816798163673160,-1.7503161430358887,-0.6549490094184875,0.18228816986083984,0.01656830869615078,0.11845232546329498,0.32805660367012024,-0.9370557069778442,0.0,0.0,0.0,0.0,0.0,0.0
19986,1724816798164186291,-1.7501744031906128,-0.6549440622329712,0.18232731521129608,0.018542654812335968,0.12103844434022903,0.32676613330841064,-0.937139093875885,0.0,0.0,0.0,0.0,0.0,0.0
19988,1724816798164757888,-1.7499843835830688,-0.6549898386001587,0.1821964681148529,0.019970588386058807,0.12423180043697357,0.32495352625846863,-0.9373222589492798,0.0,0.0,0.0,0.0,0.0,0.0
19990,1724816798165180593,-1.7499223947525024,-0.6549067497253418,0.18231599032878876,0.02040529064834118,0.1252254694700241,0.32391080260276794,-0.9375415444374084,0.0,0.0,0.0,0.0,0.0,0.0
19992,1724816798165432915,-1.7499333620071411,-0.6547345519065857,0.18260499835014343,0.020677220076322556,0.12524956464767456,0.32399117946624756,-0.9375045895576477,0.0,0.0,0.0,0.0,0.0,0.0
19994,1724816798174861768,-1.7499135732650757,-0.6546865105628967,0.18274639546871185,0.021343505010008812,0.1259336918592453,0.3234984576702118,-0.9375680685043335,0.0,0.0,0.0,0.0,0.0,0.0
19996,1724816798183906907,-1.749906063079834,-0.6545465588569641,0.18296821415424347,0.02154182828962803,0.12591849267482758,0.32334649562835693,-0.9376180171966553,0.0,0.0,0.0,0.0,0.0,0.0
19998,1724816798194215860,-1.7499110698699951,-0.6544291377067566,0.18314214050769806,0.02179482765495777,0.12601026892662048,0.3232172727584839,-0.937644362449646,0.0,0.0,0.0,0.0,0.0,0.0
20000,1724816798214896329,-1.7498900890350342,-0.6543675661087036,0.18328870832920074,0.02246979810297489,0.1264411360025406,0.3232191205024719,-0.9375698566436768,0.0,0.0,0.0,0.0,0.0,0.0
20002,1724816798215194374,-1.7498632669448853,-0.6542759537696838,0.18345129489898682,0.02257481776177883,0.12640997767448425,0.323041170835495,-0.9376327991485596,0.0,0.0,0.0,0.0,0.0,0.0
20004,1724816798223751843,-1.7498494386672974,-0.6541284322738647,0.1836879998445511,0.022880982607603073,0.1258581280708313,0.323396772146225,-0.9375770688056946,0.0,0.0,0.0,0.0,0.0,0.0
20006,1724816798233867540,-1.7498273849487305,-0.6540665030479431,0.1838066130876541,0.02343324013054371,0.1260291337966919,0.32342809438705444,-0.9375296235084534,0.0,0.0,0.0,0.0,0.0,0.0
20008,1724816798247666954,-1.749748945236206,-0.6541265845298767,0.18363842368125916,0.024411315098404884,0.12620514631271362,0.3231002390384674,-0.9375940561294556,0.0,0.0,0.0,0.0,0.0,0.0
20010,1724816798253929250,-1.7497581243515015,-0.6540818214416504,0.1837947815656662,0.024998018518090248,0.12594261765480042,0.3232184946537018,-0.9375731945037842,0.0,0.0,0.0,0.0,0.0,0.0
20012,1724816798264549225,-1.7498180866241455,-0.6538371443748474,0.184252068400383,0.02454305812716484,0.12384972721338272,0.3249843418598175,-0.937253475189209,0.0,0.0,0.0,0.0,0.0,0.0
20014,1724816798274359939,-1.7499347925186157,-0.6537322402000427,0.18452447652816772,0.024698572233319283,0.12355726957321167,0.3253236711025238,-0.9371702671051025,0.0,0.0,0.0,0.0,0.0,0.0
20016,1724816798284976578,-1.7500276565551758,-0.653694212436676,0.18479517102241516,0.02468900755047798,0.12403691560029984,0.32492291927337646,-0.9372462630271912,0.0,0.0,0.0,0.0,0.0,0.0
20018,1724816798295298524,-1.7501519918441772,-0.6535126566886902,0.18526959419250488,0.024530576542019844,0.12342419475317001,0.3255245089530945,-0.9371225237846375,0.0,0.0,0.0,0.0,0.0,0.0
20020,1724816798303528846,-1.7503166198730469,-0.653536856174469,0.1857004314661026,0.024825841188430786,0.1263597309589386,0.323404461145401,-0.9374575614929199,0.0,0.0,0.0,0.0,0.0,0.0
20022,1724816798314017470,-1.7506134510040283,-0.6530939340591431,0.1866569072008133,0.0236422847956419,0.12574322521686554,0.32453471422195435,-0.9371803402900696,0.0,0.0,0.0,0.0,0.0,0.0
20024,1724816798324193087,-1.7506555318832397,-0.6531978845596313,0.18667688965797424,0.023958833888173103,0.12690886855125427,0.3235034644603729,-0.9373717308044434,0.0,0.0,0.0,0.0,0.0,0.0
20026,1724816798334424740,-1.7508409023284912,-0.6528398394584656,0.1872577667236328,0.02267521433532238,0.12539230287075043,0.32477906346321106,-0.9371665716171265,0.0,0.0,0.0,0.0,0.0,0.0
20028,1724816798343764794,-1.751052737236023,-0.6529585719108582,0.18740136921405792,0.023555072024464607,0.12805011868476868,0.32315945625305176,-0.9373453855514526,0.0,0.0,0.0,0.0,0.0,0.0
20030,1724816798353412313,-1.7513141632080078,-0.6525371074676514,0.18823279440402985,0.022241558879613876,0.12561242282390594,0.3252153694629669,-0.9369962215423584,0.0,0.0,0.0,0.0,0.0,0.0
20032,1724816798364368713,-1.7515312433242798,-0.6523979306221008,0.18879187107086182,0.022011706605553627,0.12540732324123383,0.32538893818855286,-0.9369688630104065,0.0,0.0,0.0,0.0,0.0,0.0
20034,1724816798373671691,-1.7517274618148804,-0.6523280143737793,0.18928247690200806,0.022509144619107246,0.12567928433418274,0.32543256878852844,-0.9369054436683655,0.0,0.0,0.0,0.0,0.0,0.0
20036,1724816798383924414,-1.7519068717956543,-0.6522998213768005,0.18977946043014526,0.02341531775891781,0.125848650932312,0.3257808983325958,-0.9367393851280212,0.0,0.0,0.0,0.0,0.0,0.0
20038,1724816798394393781,-1.7520993947982788,-0.6521182060241699,0.19038954377174377,0.023859690874814987,0.12526457011699677,0.3262670040130615,-0.936637282371521,0.0,0.0,0.0,0.0,0.0,0.0
20040,1724816798403591627,-1.752221703529358,-0.652014970779419,0.19082646071910858,0.0244449432939291,0.12503290176391602,0.32645902037620544,-0.9365862607955933,0.0,0.0,0.0,0.0,0.0,0.0
20042,1724816798415521368,-1.7523295879364014,-0.6517555713653564,0.19140978157520294,0.024522021412849426,0.12448042631149292,0.32681241631507874,-0.9365345239639282,0.0,0.0,0.0,0.0,0.0,0.0
20044,1724816798424542855,-1.7524408102035522,-0.6514436602592468,0.19196751713752747,0.024295469745993614,0.12364573031663895,0.3272312581539154,-0.9365048408508301,0.0,0.0,0.0,0.0,0.0,0.0
20046,1724816798434016820,-1.7524794340133667,-0.6512107849121094,0.19236476719379425,0.024101397022604942,0.12287161499261856,0.32742932438850403,-0.9365424513816833,0.0,0.0,0.0,0.0,0.0,0.0
20048,1724816798447925538,-1.7524391412734985,-0.6510085463523865,0.1926986575126648,0.024121487513184547,0.12269829958677292,0.32741013169288635,-0.9365714192390442,0.0,0.0,0.0,0.0,0.0,0.0
20050,1724816798453455893,-1.752365231513977,-0.6509029865264893,0.19289430975914001,0.024619752541184425,0.1226978674530983,0.3272027373313904,-0.93663090467453,0.0,0.0,0.0,0.0,0.0,0.0
20052,1724816798463714081,-1.7522914409637451,-0.650688111782074,0.1932261884212494,0.024846123531460762,0.12248878180980682,0.32723021507263184,-0.9366427659988403,0.0,0.0,0.0,0.0,0.0,0.0
20054,1724816798475546018,-1.7522003650665283,-0.6504992246627808,0.1935407668352127,0.025086503475904465,0.1223260760307312,0.32704460620880127,-0.936722457408905,0.0,0.0,0.0,0.0,0.0,0.0
20056,1724816798483808301,-1.752095341682434,-0.6503562927246094,0.19377687573432922,0.025424012914299965,0.12278442084789276,0.326570987701416,-0.9368185997009277,0.0,0.0,0.0,0.0,0.0,0.0
20058,1724816798496031310,-1.7520124912261963,-0.650191605091095,0.19402064383029938,0.025776349008083344,0.12272375822067261,0.3265024423599243,-0.9368407726287842,0.0,0.0,0.0,0.0,0.0,0.0
20060,1724816798503900024,-1.7519361972808838,-0.6500552296638489,0.1942293494939804,0.02607979252934456,0.12264048308134079,0.32664957642555237,-0.9367920160293579,0.0,0.0,0.0,0.0,0.0,0.0
20062,1724816798513763840,-1.7518430948257446,-0.6498987078666687,0.19442446529865265,0.026376260444521904,0.12273262441158295,0.32632240653038025,-0.9368856549263,0.0,0.0,0.0,0.0,0.0,0.0
20064,1724816798524444183,-1.7517894506454468,-0.6497963070869446,0.19452722370624542,0.026710357517004013,0.12269841879606247,0.3264482915401459,-0.9368367791175842,0.0,0.0,0.0,0.0,0.0,0.0
20066,1724816798533989875,-1.7516493797302246,-0.6499449610710144,0.19419196248054504,0.02789447456598282,0.1234317496418953,0.326145738363266,-0.9368113875389099,0.0,0.0,0.0,0.0,0.0,0.0
20068,1724816798546138076,-1.751491665840149,-0.6500977873802185,0.193959578871727,0.02989964187145233,0.12647387385368347,0.32476672530174255,-0.9368228316307068,0.0,0.0,0.0,0.0,0.0,0.0
20070,1724816798553669461,-1.7514517307281494,-0.6498777270317078,0.194191575050354,0.029195578768849373,0.12496138364076614,0.3259894847869873,-0.9366233348846436,0.0,0.0,0.0,0.0,0.0,0.0
20072,1724816798571739682,-1.7513178586959839,-0.6500657796859741,0.1939571052789688,0.03102329559624195,0.1288047879934311,0.32368114590644836,-0.9368444681167603,0.0,0.0,0.0,0.0,0.0,0.0
20074,1724816798573530407,-1.751213550567627,-0.6501467227935791,0.19388608634471893,0.03138010948896408,0.13117629289627075,0.3216919004917145,-0.9371885657310486,0.0,0.0,0.0,0.0,0.0,0.0
20076,1724816798584282188,-1.751139521598816,-0.6501453518867493,0.19393879175186157,0.031563665717840195,0.13137537240982056,0.32144486904144287,-0.9372393488883972,0.0,0.0,0.0,0.0,0.0,0.0
20078,1724816798595639466,-1.7510777711868286,-0.6500216722488403,0.1940198838710785,0.03173338249325752,0.1314881443977356,0.3216262757778168,-0.9371554851531982,0.0,0.0,0.0,0.0,0.0,0.0
20080,1724816798603422181,-1.7509825229644775,-0.64998859167099,0.19402123987674713,0.03162017837166786,0.13165391981601715,0.3212492763996124,-0.9372653365135193,0.0,0.0,0.0,0.0,0.0,0.0
20082,1724816798613923774,-1.750880479812622,-0.649968683719635,0.1939721554517746,0.031576719135046005,0.13226047158241272,0.3207002878189087,-0.9373694062232971,0.0,0.0,0.0,0.0,0.0,0.0
20084,1724816798695161395,-1.7507920265197754,-0.6497814059257507,0.19406144320964813,0.03154599666595459,0.13186444342136383,0.3213210105895996,-0.9372137188911438,0.0,0.0,0.0,0.0,0.0,0.0
20086,1724816798695860558,-1.7506550550460815,-0.6497014164924622,0.19406504929065704,0.03138276934623718,0.13187508285045624,0.32121461629867554,-0.9372541308403015,0.0,0.0,0.0,0.0,0.0,0.0
20088,1724816798696370370,-1.7505171298980713,-0.6495592594146729,0.19421158730983734,0.031102847307920456,0.13173046708106995,0.32152923941612244,-0.9371758699417114,0.0,0.0,0.0,0.0,0.0,0.0
20090,1724816798696959645,-1.7503750324249268,-0.6494629383087158,0.19434553384780884,0.030875643715262413,0.1317356526851654,0.32162392139434814,-0.937150239944458,0.0,0.0,0.0,0.0,0.0,0.0
20092,1724816798697436417,-1.7502177953720093,-0.6494108438491821,0.19437116384506226,0.030934615060687065,0.13195739686489105,0.3211563527584076,-0.9372773766517639,0.0,0.0,0.0,0.0,0.0,0.0
20094,1724816798697954798,-1.7500274181365967,-0.649342954158783,0.19441905617713928,0.030866149812936783,0.132191464304924,0.321058452129364,-0.9372801780700684,0.0,0.0,0.0,0.0,0.0,0.0
20096,1724816798698436649,-1.7500934600830078,-0.648781955242157,0.19519749283790588,0.029487015679478645,0.131150484085083,0.32240819931030273,-0.937007486820221,0.0,0.0,0.0,0.0,0.0,0.0
20098,1724816798699088269,-1.7499477863311768,-0.6486484408378601,0.19530853629112244,0.02949567697942257,0.13158291578292847,0.32230305671691895,-0.9369827508926392,0.0,0.0,0.0,0.0,0.0,0.0
20100,1724816798704889064,-1.74971604347229,-0.6487091183662415,0.19507525861263275,0.03000161238014698,0.13213825225830078,0.32145029306411743,-0.9371815323829651,0.0,0.0,0.0,0.0,0.0,0.0
20102,1724816798714057815,-1.7495670318603516,-0.6483979225158691,0.19549153745174408,0.029457852244377136,0.13182199001312256,0.3216683268547058,-0.9371684789657593,0.0,0.0,0.0,0.0,0.0,0.0
20104,1724816798740886712,-1.7494182586669922,-0.6481913328170776,0.19569464027881622,0.02916472591459751,0.13163167238235474,0.32199230790138245,-0.9370930790901184,0.0,0.0,0.0,0.0,0.0,0.0
20106,1724816798741150330,-1.7491862773895264,-0.6481953859329224,0.19549018144607544,0.02980930358171463,0.1323525756597519,0.3213861584663391,-0.937179446220398,0.0,0.0,0.0,0.0,0.0,0.0
20108,1724816798744047910,-1.7489756345748901,-0.6480405926704407,0.19555281102657318,0.029754256829619408,0.13272224366664886,0.3210171163082123,-0.9372553825378418,0.0,0.0,0.0,0.0,0.0,0.0
20110,1724816798754556315,-1.7487354278564453,-0.6479517221450806,0.19554503262043,0.029805228114128113,0.13373614847660065,0.320276141166687,-0.9373630285263062,0.0,0.0,0.0,0.0,0.0,0.0
20112,1724816798763773073,-1.748375654220581,-0.6478853225708008,0.19538089632987976,0.029891178011894226,0.1345001459121704,0.3192504644393921,-0.93760085105896,0.0,0.0,0.0,0.0,0.0,0.0
20114,1724816798773913619,-1.7480885982513428,-0.6476309299468994,0.19552694261074066,0.02985694259405136,0.1345680207014084,0.3192921280860901,-0.937578022480011,0.0,0.0,0.0,0.0,0.0,0.0
20116,1724816798786295172,-1.7478007078170776,-0.6472670435905457,0.19576606154441833,0.029663845896720886,0.13438618183135986,0.31977030634880066,-0.9374472498893738,0.0,0.0,0.0,0.0,0.0,0.0
20118,1724816798793899716,-1.7474850416183472,-0.646885335445404,0.19592534005641937,0.029338672757148743,0.1344071328639984,0.3200072944164276,-0.9373736381530762,0.0,0.0,0.0,0.0,0.0,0.0
20120,1724816798803697409,-1.7471308708190918,-0.6466291546821594,0.19601008296012878,0.029409484937787056,0.13479599356651306,0.31970974802970886,-0.9374170899391174,0.0,0.0,0.0,0.0,0.0,0.0
20122,1724816798813904966,-1.7468457221984863,-0.6462189555168152,0.19631236791610718,0.02843007817864418,0.13517040014266968,0.31957823038101196,-0.9374382495880127,0.0,0.0,0.0,0.0,0.0,0.0
20124,1724816798824125999,-1.7464698553085327,-0.6458711624145508,0.19637486338615417,0.02759668044745922,0.13555064797401428,0.3191472589969635,-0.9375550746917725,0.0,0.0,0.0,0.0,0.0,0.0
20126,1724816798834637952,-1.7461076974868774,-0.6451979875564575,0.1968466341495514,0.02548614889383316,0.13297754526138306,0.3210467994213104,-0.9373348355293274,0.0,0.0,0.0,0.0,0.0,0.0
20128,1724816798844181847,-1.745855689048767,-0.6445966958999634,0.197235569357872,0.024609211832284927,0.13101530075073242,0.3229140043258667,-0.9369930028915405,0.0,0.0,0.0,0.0,0.0,0.0
20130,1724816798853464710,-1.745570421218872,-0.6438016891479492,0.1978510171175003,0.022765332832932472,0.12890362739562988,0.3242490887641907,-0.9368714690208435,0.0,0.0,0.0,0.0,0.0,0.0
20132,1724816798863556542,-1.745307207107544,-0.6429899334907532,0.19861555099487305,0.02071986347436905,0.1269722729921341,0.3253341615200043,-0.9368064999580383,0.0,0.0,0.0,0.0,0.0,0.0
20134,1724816798873589249,-1.7447896003723145,-0.643080472946167,0.19810771942138672,0.022521793842315674,0.13018390536308289,0.32333993911743164,-0.9370145797729492,0.0,0.0,0.0,0.0,0.0,0.0
20136,1724816798888581100,-1.7443031072616577,-0.6429559588432312,0.19791725277900696,0.023492876440286636,0.13200202584266663,0.3225177824497223,-0.9370196461677551,0.0,0.0,0.0,0.0,0.0,0.0
20138,1724816798898050940,-1.7437771558761597,-0.6427321434020996,0.19780804216861725,0.02408217079937458,0.13415268063545227,0.321309894323349,-0.9371142983436584,0.0,0.0,0.0,0.0,0.0,0.0
20140,1724816798903898750,-1.7433147430419922,-0.6423259377479553,0.19795739650726318,0.023665186017751694,0.135587677359581,0.31998783349990845,-0.9373707175254822,0.0,0.0,0.0,0.0,0.0,0.0
20142,1724816798915051481,-1.7429653406143188,-0.6415680646896362,0.19864137470722198,0.021070338785648346,0.13259564340114594,0.32179543375968933,-0.937241792678833,0.0,0.0,0.0,0.0,0.0,0.0
20144,1724816798924574991,-1.742511510848999,-0.6413582563400269,0.1985662430524826,0.020644599571824074,0.13176076114177704,0.3225941061973572,-0.9370944499969482,0.0,0.0,0.0,0.0,0.0,0.0
20146,1724816798934077518,-1.7421550750732422,-0.6405832171440125,0.19915291666984558,0.018384817987680435,0.12941303849220276,0.32403427362442017,-0.9369718432426453,0.0,0.0,0.0,0.0,0.0,0.0
20148,1724816798944834768,-1.7417351007461548,-0.6401717662811279,0.19928258657455444,0.016842525452375412,0.1281716376543045,0.3246608078479767,-0.9369544982910156,0.0,0.0,0.0,0.0,0.0,0.0
20150,1724816798954600172,-1.741303563117981,-0.6397038102149963,0.19931955635547638,0.015647519379854202,0.12739971280097961,0.32526692748069763,-0.936870276927948,0.0,0.0,0.0,0.0,0.0,0.0
20152,1724816798964102733,-1.7408818006515503,-0.6391482353210449,0.19941480457782745,0.013858236372470856,0.12670089304447174,0.32558244466781616,-0.9368836879730225,0.0,0.0,0.0,0.0,0.0,0.0
20154,1724816798973990583,-1.740386724472046,-0.6388999819755554,0.19908234477043152,0.013498169369995594,0.1280326545238495,0.3250787854194641,-0.936882734298706,0.0,0.0,0.0,0.0,0.0,0.0
20156,1724816798984641888,-1.7397780418395996,-0.6387322545051575,0.19850274920463562,0.011680850759148598,0.12717580795288086,0.32548022270202637,-0.9368845224380493,0.0,0.0,0.0,0.0,0.0,0.0
20158,1724816798993428280,-1.7392528057098389,-0.6385417580604553,0.19827239215373993,0.009932167828083038,0.12686914205551147,0.3253031075000763,-0.9370077848434448,0.0,0.0,0.0,0.0,0.0,0.0
20160,1724816799003598537,-1.7387374639511108,-0.6384174227714539,0.197682186961174,0.008691749535501003,0.12634892761707306,0.32586047053337097,-0.9368967413902283,0.0,0.0,0.0,0.0,0.0,0.0
20162,1724816799013662100,-1.7383472919464111,-0.6380563974380493,0.19752717018127441,0.0064711845479905605,0.1251562535762787,0.3268210291862488,-0.9367401003837585,0.0,0.0,0.0,0.0,0.0,0.0
20164,1724816799024399437,-1.7379417419433594,-0.6377624273300171,0.19723482429981232,0.0037774555385112762,0.12442763894796371,0.3276076316833496,-0.9365772008895874,0.0,0.0,0.0,0.0,0.0,0.0
20166,1724816799036202080,-1.737645149230957,-0.6375823616981506,0.196714848279953,0.0006001854781061411,0.12321154773235321,0.32852035760879517,-0.9364256262779236,0.0,0.0,0.0,0.0,0.0,0.0
20168,1724816799043470327,-1.7372465133666992,-0.6380714178085327,0.19546803832054138,-0.0003762527776416391,0.12527965009212494,0.32772567868232727,-0.9364298582077026,0.0,0.0,0.0,0.0,0.0,0.0
20170,1724816799053607329,-1.7372746467590332,-0.6388534307479858,0.19414615631103516,-0.007921401411294937,0.12378192692995071,0.32852834463119507,-0.9363143444061279,0.0,0.0,0.0,0.0,0.0,0.0
20172,1724816799067648171,-1.7372478246688843,-0.6400538086891174,0.1914512664079666,-0.012852206826210022,0.12477143108844757,0.3287481665611267,-0.936051070690155,0.0,0.0,0.0,0.0,0.0,0.0
20174,1724816799073394877,-1.7371267080307007,-0.641527533531189,0.18832406401634216,-0.017371391877532005,0.12627460062503815,0.3295402526855469,-0.9354978203773499,0.0,0.0,0.0,0.0,0.0,0.0
20176,1724816799084751005,-1.7375904321670532,-0.6427116394042969,0.18622711300849915,-0.028215276077389717,0.1219201534986496,0.33292603492736816,-0.9346120357513428,0.0,0.0,0.0,0.0,0.0,0.0
20178,1724816799094978286,-1.7378798723220825,-0.6453003287315369,0.18152549862861633,-0.03428070619702339,0.12557309865951538,0.33289095759391785,-0.9339377880096436,0.0,0.0,0.0,0.0,0.0,0.0
20180,1724816799103621862,-1.7381054162979126,-0.6475152969360352,0.17686434090137482,-0.0440724678337574,0.1260390430688858,0.334126740694046,-0.9330225586891174,0.0,0.0,0.0,0.0,0.0,0.0
20182,1724816799113888971,-1.7380322217941284,-0.6489542722702026,0.1728082299232483,-0.047280341386795044,0.12167473882436752,0.33775684237480164,-0.9321374893188477,0.0,0.0,0.0,0.0,0.0,0.0
20184,1724816799124266883,-1.7379004955291748,-0.6508915424346924,0.16856151819229126,-0.04771214351058006,0.12343616038560867,0.3353448808193207,-0.9327544569969177,0.0,0.0,0.0,0.0,0.0,0.0
20186,1724816799133910439,-1.738606333732605,-0.6521341800689697,0.16567867994308472,-0.056753598153591156,0.11998879164457321,0.33872702717781067,-0.931475043296814,0.0,0.0,0.0,0.0,0.0,0.0
20188,1724816799144552982,-1.7389110326766968,-0.6538994908332825,0.1625438779592514,-0.061014480888843536,0.11989481747150421,0.33977171778678894,-0.9308371543884277,0.0,0.0,0.0,0.0,0.0,0.0
20190,1724816799153412031,-1.7391505241394043,-0.6553093194961548,0.16015927493572235,-0.06513248383998871,0.11795777827501297,0.3416823744773865,-0.9301059246063232,0.0,0.0,0.0,0.0,0.0,0.0
20192,1724816799163918680,-1.7393553256988525,-0.6574416756629944,0.15651234984397888,-0.06835579872131348,0.11969439685344696,0.34038466215133667,-0.9301284551620483,0.0,0.0,0.0,0.0,0.0,0.0
20194,1724816799179804117,-1.7398892641067505,-0.6589338183403015,0.1537739336490631,-0.07246755808591843,0.11824798583984375,0.3423062264919281,-0.9292966723442078,0.0,0.0,0.0,0.0,0.0,0.0
20196,1724816799183763493,-1.7396432161331177,-0.6598379611968994,0.15343166887760162,-0.07616550475358963,0.10811708867549896,0.34727388620376587,-0.9283913373947144,0.0,0.0,0.0,0.0,0.0,0.0
20198,1724816799196014582,-1.7395731210708618,-0.6613718867301941,0.15281467139720917,-0.0801117867231369,0.10240902006626129,0.3493596911430359,-0.9279237389564514,0.0,0.0,0.0,0.0,0.0,0.0
20200,1724816799203496835,-1.7393536567687988,-0.6631297469139099,0.15301600098609924,-0.08430485427379608,0.09776294976472855,0.35249513387680054,-0.926866888999939,0.0,0.0,0.0,0.0,0.0,0.0
20202,1724816799213626344,-1.7392295598983765,-0.6647087335586548,0.1532648801803589,-0.08700958639383316,0.09415251016616821,0.3564879298210144,-0.9254626631736755,0.0,0.0,0.0,0.0,0.0,0.0
20204,1724816799224655660,-1.7389737367630005,-0.6661347150802612,0.15294736623764038,-0.08660180866718292,0.09384265542030334,0.35864681005477905,-0.9246979355812073,0.0,0.0,0.0,0.0,0.0,0.0
20206,1724816799234029910,-1.7385585308074951,-0.6672105193138123,0.15299969911575317,-0.08845662325620651,0.09122049808502197,0.36286115646362305,-0.9231392741203308,0.0,0.0,0.0,0.0,0.0,0.0
20208,1724816799244388348,-1.738071084022522,-0.6679196953773499,0.15311026573181152,-0.08942647278308868,0.08797845989465714,0.36735451221466064,-0.9215819835662842,0.0,0.0,0.0,0.0,0.0,0.0
20210,1724816799254301306,-1.7376266717910767,-0.6690381765365601,0.15235312283039093,-0.08770405501127243,0.09036291390657425,0.36770543456077576,-0.9213768243789673,0.0,0.0,0.0,0.0,0.0,0.0
20212,1724816799266244828,-1.7372797727584839,-0.6698468327522278,0.15235410630702972,-0.08844845741987228,0.08998239785432816,0.36933231353759766,-0.9206920266151428,0.0,0.0,0.0,0.0,0.0,0.0
20214,1724816799273961639,-1.7370496988296509,-0.6704933643341064,0.15231356024742126,-0.0886974185705185,0.09036885201931,0.37064164876937866,-0.9201037883758545,0.0,0.0,0.0,0.0,0.0,0.0
20216,1724816799284348713,-1.736789345741272,-0.6709962487220764,0.15225493907928467,-0.08962346613407135,0.09091583639383316,0.37173476815223694,-0.9195190072059631,0.0,0.0,0.0,0.0,0.0,0.0
20218,1724816799293732899,-1.736590027809143,-0.6713677644729614,0.1523989886045456,-0.08934450894594193,0.08981546759605408,0.3734985888004303,-0.918939471244812,0.0,0.0,0.0,0.0,0.0,0.0
20220,1724816799304035943,-1.7363673448562622,-0.6717407703399658,0.15249516069889069,-0.09039773792028427,0.0894324854016304,0.37508097290992737,-0.9182289838790894,0.0,0.0,0.0,0.0,0.0,0.0
20222,1724816799322739282,-1.7361990213394165,-0.6720939874649048,0.15252703428268433,-0.09053753316402435,0.08927174657583237,0.376402348279953,-0.9176899790763855,0.0,0.0,0.0,0.0,0.0,0.0
20224,1724816799323952222,-1.7360761165618896,-0.6723759174346924,0.15250661969184875,-0.09021154046058655,0.08897808194160461,0.37739115953445435,-0.9173443913459778,0.0,0.0,0.0,0.0,0.0,0.0
20226,1724816799334140982,-1.7359390258789062,-0.6726030111312866,0.15250369906425476,-0.08976197242736816,0.08872552216053009,0.3783631920814514,-0.9170124530792236,0.0,0.0,0.0,0.0,0.0,0.0
20228,1724816799345928725,-1.7358189821243286,-0.6728195548057556,0.1525048315525055,-0.09008922427892685,0.08836749941110611,0.3791485130786896,-0.916690468788147,0.0,0.0,0.0,0.0,0.0,0.0
20230,1724816799353369521,-1.7357043027877808,-0.6730078458786011,0.15248744189739227,-0.09005879610776901,0.08811066299676895,0.37981221079826355,-0.9164435267448425,0.0,0.0,0.0,0.0,0.0,0.0
20232,1724816799367300737,-1.735642910003662,-0.6731616258621216,0.15256482362747192,-0.09021855890750885,0.08759302645921707,0.3808254599571228,-0.9160568118095398,0.0,0.0,0.0,0.0,0.0,0.0
20234,1724816799374291522,-1.735547661781311,-0.6732938885688782,0.15256044268608093,-0.09016745537519455,0.08772030472755432,0.3814336657524109,-0.9157965779304504,0.0,0.0,0.0,0.0,0.0,0.0
20236,1724816799384738263,-1.7354724407196045,-0.6735436916351318,0.15216213464736938,-0.08929295092821121,0.08859115093946457,0.3812445104122162,-0.9158771634101868,0.0,0.0,0.0,0.0,0.0,0.0
20238,1724816799394420717,-1.7353613376617432,-0.673704206943512,0.15205933153629303,-0.08962327986955643,0.08905435353517532,0.3814244568347931,-0.9157251119613647,0.0,0.0,0.0,0.0,0.0,0.0
20240,1724816799403884959,-1.735307216644287,-0.6737419366836548,0.15249459445476532,-0.08986932039260864,0.08769674599170685,0.38324564695358276,-0.915071427822113,0.0,0.0,0.0,0.0,0.0,0.0
20242,1724816799414883021,-1.7352544069290161,-0.6739274859428406,0.15244752168655396,-0.08970800787210464,0.08774051815271378,0.3837706446647644,-0.9148629307746887,0.0,0.0,0.0,0.0,0.0,0.0
20244,1724816799427435912,-1.735153317451477,-0.6741486191749573,0.1524139642715454,-0.09014903753995895,0.08807843923568726,0.3842988908290863,-0.9145653247833252,0.0,0.0,0.0,0.0,0.0,0.0
20246,1724816799434967605,-1.7350963354110718,-0.6742545962333679,0.15266892313957214,-0.09070168435573578,0.08737821877002716,0.38541990518569946,-0.9141060709953308,0.0,0.0,0.0,0.0,0.0,0.0
20248,1724816799444602309,-1.7349729537963867,-0.6744130849838257,0.1527017503976822,-0.09118173271417618,0.08699826896190643,0.38611412048339844,-0.9138014912605286,0.0,0.0,0.0,0.0,0.0,0.0
20250,1724816799454073741,-1.734856367111206,-0.6745795607566833,0.1527625322341919,-0.09196637570858002,0.08677663654088974,0.3870464563369751,-0.9133493900299072,0.0,0.0,0.0,0.0,0.0,0.0
20252,1724816799464056495,-1.734766960144043,-0.6747889518737793,0.15275001525878906,-0.09223346412181854,0.08671272546052933,0.38768085837364197,-0.913059413433075,0.0,0.0,0.0,0.0,0.0,0.0
20254,1724816799474454081,-1.7346842288970947,-0.6750119924545288,0.15269137918949127,-0.09181621670722961,0.08690786361694336,0.3884275555610657,-0.9127655029296875,0.0,0.0,0.0,0.0,0.0,0.0
20256,1724816799484372848,-1.7345761060714722,-0.675215482711792,0.1526867300271988,-0.09181556850671768,0.08687134832143784,0.3892739415168762,-0.9124084115028381,0.0,0.0,0.0,0.0,0.0,0.0
20258,1724816799494221753,-1.7344739437103271,-0.6754523515701294,0.15257211029529572,-0.09150364249944687,0.08721388876438141,0.3898477554321289,-0.9121620655059814,0.0,0.0,0.0,0.0,0.0,0.0
20260,1724816799503961582,-1.734364628791809,-0.6756744384765625,0.15264207124710083,-0.09173104912042618,0.08732921630144119,0.39080363512039185,-0.911719024181366,0.0,0.0,0.0,0.0,0.0,0.0
20262,1724816799513724736,-1.7342413663864136,-0.6758980751037598,0.1526598334312439,-0.09154193848371506,0.08740739524364471,0.39178457856178284,-0.9113094210624695,0.0,0.0,0.0,0.0,0.0,0.0
20264,1724816799523935533,-1.7341463565826416,-0.6761075258255005,0.15264979004859924,-0.09130290895700455,0.08746745437383652,0.3929458260536194,-0.9108275771141052,0.0,0.0,0.0,0.0,0.0,0.0
20266,1724816799535831106,-1.7339991331100464,-0.6763014197349548,0.15271501243114471,-0.09151353687047958,0.08705202490091324,0.39438679814338684,-0.9102233052253723,0.0,0.0,0.0,0.0,0.0,0.0
20268,1724816799545571820,-1.7337920665740967,-0.6766820549964905,0.15234188735485077,-0.0911443680524826,0.08785418421030045,0.39505112171173096,-0.9098950028419495,0.0,0.0,0.0,0.0,0.0,0.0
20270,1724816799553637524,-1.7336280345916748,-0.6769952178001404,0.15223608911037445,-0.09049351513385773,0.08809922635555267,0.3964189291000366,-0.9093412756919861,0.0,0.0,0.0,0.0,0.0,0.0
20272,1724816799564479623,-1.7334961891174316,-0.677241861820221,0.1522037535905838,-0.08992887288331985,0.08769578486680984,0.3982588052749634,-0.9086320996284485,0.0,0.0,0.0,0.0,0.0,0.0
20274,1724816799573609578,-1.7333484888076782,-0.6775935888290405,0.15204927325248718,-0.08878935873508453,0.08781596273183823,0.39962729811668396,-0.9081315994262695,0.0,0.0,0.0,0.0,0.0,0.0
20276,1724816799583972894,-1.733192801475525,-0.6779082417488098,0.15194931626319885,-0.08871819078922272,0.08822479844093323,0.40099087357521057,-0.9074976444244385,0.0,0.0,0.0,0.0,0.0,0.0
20278,1724816799594014840,-1.7330173254013062,-0.6782386898994446,0.15184985101222992,-0.08823899179697037,0.08863074332475662,0.4022189676761627,-0.9069611430168152,0.0,0.0,0.0,0.0,0.0,0.0
20280,1724816799605362417,-1.732816457748413,-0.6785315275192261,0.15183226764202118,-0.08860740810632706,0.08934911340475082,0.4032019078731537,-0.9064180254936218,0.0,0.0,0.0,0.0,0.0,0.0
20282,1724816799614519154,-1.7326326370239258,-0.6788177490234375,0.15180037915706635,-0.08829429745674133,0.0897497683763504,0.4046041965484619,-0.9057838916778564,0.0,0.0,0.0,0.0,0.0,0.0
20284,1724816799623657819,-1.7325239181518555,-0.678966224193573,0.15196947753429413,-0.08722779154777527,0.08936616033315659,0.40639784932136536,-0.905121922492981,0.0,0.0,0.0,0.0,0.0,0.0
20286,1724816799635593449,-1.7323734760284424,-0.6791049242019653,0.15196162462234497,-0.08608061820268631,0.08902564644813538,0.4079653322696686,-0.9045600891113281,0.0,0.0,0.0,0.0,0.0,0.0
20288,1724816799645164840,-1.7322365045547485,-0.6792305111885071,0.1519472748041153,-0.08505406230688095,0.08882986009120941,0.40954509377479553,-0.9039623141288757,0.0,0.0,0.0,0.0,0.0,0.0
20290,1724816799653734184,-1.7320727109909058,-0.6793578267097473,0.15204493701457977,-0.08494613319635391,0.08880572021007538,0.4112571179866791,-0.9031972885131836,0.0,0.0,0.0,0.0,0.0,0.0
20292,1724816799663955328,-1.7319045066833496,-0.679551899433136,0.151931032538414,-0.0848638042807579,0.0893707126379013,0.4121142327785492,-0.9027584791183472,0.0,0.0,0.0,0.0,0.0,0.0
20294,1724816799675322889,-1.7317843437194824,-0.6796078085899353,0.15202546119689941,-0.08454617857933044,0.08876873552799225,0.413665771484375,-0.9021378755569458,0.0,0.0,0.0,0.0,0.0,0.0
20296,1724816799683588371,-1.7316728830337524,-0.6797294616699219,0.1519809514284134,-0.08396834135055542,0.08890481293201447,0.41448286175727844,-0.9018033146858215,0.0,0.0,0.0,0.0,0.0,0.0
20298,1724816799699140825,-1.7315670251846313,-0.6799134016036987,0.15164241194725037,-0.08343690633773804,0.08955717086791992,0.41471219062805176,-0.9016826748847961,0.0,0.0,0.0,0.0,0.0,0.0
20300,1724816799703561637,-1.7314850091934204,-0.6800165772438049,0.1515526920557022,-0.08277103304862976,0.09003734588623047,0.41509804129600525,-0.9015185832977295,0.0,0.0,0.0,0.0,0.0,0.0
20302,1724816799713599067,-1.7314329147338867,-0.6800872087478638,0.15154896676540375,-0.08258600533008575,0.08981914073228836,0.4155734181404114,-0.9013383388519287,0.0,0.0,0.0,0.0,0.0,0.0
20304,1724816799724361401,-1.7313752174377441,-0.6801416277885437,0.15151037275791168,-0.08226844668388367,0.08985605090856552,0.41588038206100464,-0.9012221097946167,0.0,0.0,0.0,0.0,0.0,0.0
20306,1724816799736922882,-1.7313674688339233,-0.6801624298095703,0.1514417678117752,-0.08141278475522995,0.08971540629863739,0.416062593460083,-0.9012297987937927,0.0,0.0,0.0,0.0,0.0,0.0
20308,1724816799746832136,-1.7312792539596558,-0.6801618337631226,0.15146009624004364,-0.08207982033491135,0.08975299447774887,0.4161229431629181,-0.9011375904083252,0.0,0.0,0.0,0.0,0.0,0.0
20310,1724816799753785749,-1.7312707901000977,-0.6801429390907288,0.15142092108726501,-0.08158239722251892,0.08965372294187546,0.41625097393989563,-0.9011335372924805,0.0,0.0,0.0,0.0,0.0,0.0
20312,1724816799763587080,-1.7312263250350952,-0.6801135540008545,0.15138952434062958,-0.08153724670410156,0.08956186473369598,0.41624587774276733,-0.9011491537094116,0.0,0.0,0.0,0.0,0.0,0.0
20314,1724816799773543534,-1.7312054634094238,-0.680033802986145,0.15134955942630768,-0.08121702075004578,0.08958547562360764,0.41620802879333496,-0.9011932015419006,0.0,0.0,0.0,0.0,0.0,0.0
20316,1724816799784538709,-1.731205940246582,-0.6799617409706116,0.15129470825195312,-0.08076842129230499,0.08952584117650986,0.4161243438720703,-0.901278018951416,0.0,0.0,0.0,0.0,0.0,0.0
20318,1724816799793772315,-1.7311965227127075,-0.6798490285873413,0.15123145282268524,-0.08016014844179153,0.08940812200307846,0.41623395681381226,-0.9012935161590576,0.0,0.0,0.0,0.0,0.0,0.0
20320,1724816799803625520,-1.7311640977859497,-0.6797378659248352,0.15116845071315765,-0.08003304153680801,0.08969080448150635,0.41601553559303284,-0.9013774394989014,0.0,0.0,0.0,0.0,0.0,0.0
20322,1724816799814732934,-1.7311463356018066,-0.6795631647109985,0.15118011832237244,-0.07977842539548874,0.0895223543047905,0.416086882352829,-0.9013838768005371,0.0,0.0,0.0,0.0,0.0,0.0
20324,1724816799824083316,-1.73114013671875,-0.6794527769088745,0.1511414796113968,-0.07927165180444717,0.0896013155579567,0.41591739654541016,-0.9014989137649536,0.0,0.0,0.0,0.0,0.0,0.0
20326,1724816799834592516,-1.731141448020935,-0.6793223023414612,0.15110890567302704,-0.07893425226211548,0.0895381048321724,0.4157673418521881,-0.9016040563583374,0.0,0.0,0.0,0.0,0.0,0.0
20328,1724816799843702468,-1.7311532497406006,-0.6792511940002441,0.15102487802505493,-0.07861581444740295,0.08989456295967102,0.41539132595062256,-0.9017696976661682,0.0,0.0,0.0,0.0,0.0,0.0
20330,1724816799853746298,-1.7311757802963257,-0.6791638731956482,0.15107911825180054,-0.07852612435817719,0.08980816602706909,0.4154611825942993,-0.9017539024353027,0.0,0.0,0.0,0.0,0.0,0.0
20332,1724816799864257868,-1.7311811447143555,-0.679114818572998,0.15113717317581177,-0.0784369707107544,0.08978499472141266,0.41558849811553955,-0.9017053246498108,0.0,0.0,0.0,0.0,0.0,0.0
20334,1724816799874026457,-1.7311664819717407,-0.6790980696678162,0.151126429438591,-0.07849754393100739,0.08993469923734665,0.41557517647743225,-0.9016912579536438,0.0,0.0,0.0,0.0,0.0,0.0
