seq,stamp,px,py,pz,ox,oy,oz,ow,lx,ly,lz,ax,ay,az,timestamp,wx,wy,wz,aa_x,aa_y,aa_z,roll,pitch,yaw,vx,vy,vz,jx,jy,jz,fw
412,1724816386440037127,-2.105059862136841,-1.1710821390151978,0.1388811618089676,-0.0379809141159057,-0.0243897717446088,0.3766763508319855,-0.9252445697784424,0.0,0.0,0.0,1.469172154189314,0.1148612997617788,0.7990547806403264,0.0,0.0,0.0,0.0,-67.73083844118193,0.4424629601452192,-11.424202738014518,0.0520744326809366,0.0738130404639464,-0.771318109759117,-0.0151133154515006,-0.0026863263013505,-0.0007944318635244,-95.66741911598696,-20.799549733124348,-72.18846653125625,0.0
414,1724816386445495415,-2.10514235496521,-1.1710968017578125,0.1388768255710601,-0.0370457023382186,-0.0247823689132928,0.376808762550354,-0.9252181649208068,0.0,0.0,0.0,0.9469918284375516,0.001331367048063,0.4050293400343687,0.005458288,-0.369694422693442,0.0024150902658051,-0.0623565887144717,-31.091490731415856,1.247080586164795,-4.175079371924031,0.0500314447210773,0.0738435779481374,-0.7716583141078394,-0.0070941507123549,-0.0020593802471964,0.0035670392569873,-102.76112914519663,-15.80906083632089,-79.84578400265035,-4.519934009466697e-06
416,1724816386456605141,-2.1050398349761963,-1.1711055040359497,0.1390150785446167,-0.0377082303166389,-0.0247107781469821,0.376533567905426,-0.9253053069114684,0.0,0.0,0.0,-0.3550632943858797,-0.0614551032444771,-0.6551871993310363,0.016568014,0.1133980688642569,0.0344642998779513,0.0551808555925075,-18.647577916100403,-2.498136139070309,-17.07943222377331,0.0513381028148838,0.0741949109880875,-0.7710248726857093,-0.008381178974389,-0.0046117945947798,-0.0008431302748252,6.842757982804822,27.40315209147963,1.9667470940464329,0.0001402371783281
418,1724816386462382584,-2.1051411628723145,-1.171143651008606,0.138970285654068,-0.0372195579111576,-0.0249317623674869,0.3768585622310638,-0.9251869320869446,0.0,0.0,0.0,0.0571519085239272,0.1961767442200256,-0.3511945839528048,0.022345457,-0.181008996299511,0.0038586207594719,-0.1265956128129249,-28.068471166571808,-4.943420558767235,-16.505910306971263,0.0502381078190876,0.0742543168746726,-0.7717563163984773,-0.0111512553408203,-0.0044612230678353,-0.0054042588077072,77.48634540867897,37.693537181034685,59.778049999207994,-4.310109224361778e-05
420,1724816386472958537,-2.105135440826416,-1.1711493730545044,0.138958603143692,-0.0369653217494487,-0.0247998610138893,0.3769188225269317,-0.9251760244369508,0.0,0.0,0.0,0.995460901025318,0.4612544264071845,0.4196495474308914,0.03292141,-0.0347201706960126,-0.0415689059276284,-0.0115908088953825,5.162364301011307,-2.440894934617874,5.096766654073272,0.0498601874190958,0.0738213558533972,-0.7719010112801898,-0.0001579817914745,0.000906939899103,-0.0006334676600996,14.270486877505013,-6.88376222045288,23.009295853863996,-1.103473160983966e-05
422,1724816386486765871,-2.1051502227783203,-1.17111074924469,0.1389583498239517,-0.0360839664936065,-0.024855712428689,0.377198576927185,-0.9250953197479248,0.0,0.0,0.0,-0.1495488595950713,-0.2096867792885828,-0.1617414069871525,0.046728744,-0.1197246414374605,-0.0418425080035827,-0.0453618683479615,51.96930959178373,15.2175683113117,19.302911911856416,0.0481589321801821,0.0732750021686752,-0.772556684488026,0.0127935613404588,0.0064405321742242,0.0045938831454357,-82.32255371752163,-44.07889830759707,-33.08927442041273,-3.832596882366659e-06
424,1724816386492517925,-2.105043411254883,-1.1710649728775024,0.1389958262443542,-0.0370289236307144,-0.0247166771441698,0.3768992722034454,-0.9251837730407716,0.0,0.0,0.0,-0.6216226589655586,-0.4524137207407002,-0.3304628169261248,0.052480798,0.3184908064378657,0.0822026804331752,0.1177855363324824,41.88377490280414,12.235777108872588,15.668099995961072,0.0500424480941634,0.0737140251898397,-0.7718549986602331,0.0093272397618946,0.003771577435252,0.0023687513275101,-41.98644407483063,-17.17963398242862,-6.975512798602598,3.5242175169331174e-05
426,1724816386504719719,-2.1051688194274902,-1.1711273193359375,0.138917401432991,-0.0366741083562374,-0.0247987508773803,0.3770035207271576,-0.9251531958580016,0.0,0.0,0.0,-0.0964142122717812,-0.0144631298894004,0.1630991713867274,0.064682592,-0.0582691278705751,-0.0099822660219415,-0.0196335910962395,6.745212665828294,-3.5513004585629937,3.3263957040676506,0.0493133539461441,0.0736042647888701,-0.7721009332297576,0.0012505557836277,-0.0014487795744315,-0.000204211679204,10.29866457241913,22.883608709809828,10.280840107508809,-7.500741903069809e-05
428,1724816386513234873,-2.1050896644592285,-1.171117901802063,0.1389526426792144,-0.03753512352705,-0.0243616085499525,0.3766537010669708,-0.9252727627754213,0.0,0.0,0.0,-0.2033024143398463,0.1030915061878443,0.0713654043770926,0.073197746,0.2227358501721509,-0.0164303914043659,0.0953823809249487,3.937554988031706,1.5834835681173518,1.019145123584409,0.0512692069406158,0.0734237060064781,-0.7712946273639943,0.0037900665053172,0.0008844837015047,0.0034068601689796,-16.080569527957046,-0.1364993240092742,-17.741369839346874,3.560347932580567e-05
430,1724816386522798155,-2.1051125526428223,-1.171111822128296,0.138977363705635,-0.037345714867115,-0.024565564468503,0.3767716884613037,-0.9252270460128784,0.0,0.0,0.0,-0.3949762133806518,-0.0479551885123231,-0.173143547318235,0.082761028,-0.0517573524663046,0.0238534105582764,-0.0289983544071602,-17.79050784469375,1.193020032779307,-7.935520782171529,0.0507546928093261,0.0736656733892895,-0.7715607377222039,-0.0035408883317131,3.460708532543322e-05,0.0003010871394648,4.556441569202956,-6.481324997329543,-8.319390092914528,2.36932175081223e-05
432,1724816386536778524,-2.1051855087280273,-1.1711236238479614,0.1389348953962326,-0.0367827676236629,-0.0246420726180076,0.376998633146286,-0.925154983997345,0.0,0.0,0.0,0.1714720004555763,0.0517714193207405,0.0630580568999732,0.096741397,-0.077453447475613,-0.021175455622905,-0.0363098650827815,5.948560612246634,0.3368243686457384,-0.060228190617398,0.04963341223458,0.0733954566650656,-0.7720838204063355,-0.0014682455847747,0.0002003510075354,0.0009791591562917,2.457878282137049,-4.019393558801567,-4.861891699070952,-4.258241570537297e-05
434,1724816386547023467,-2.1051723957061768,-1.1711137294769287,0.1389750838279724,-0.0369946882128715,-0.0246099475771188,0.3771607577800751,-0.9250813126564026,0.0,0.0,0.0,-0.089082408825449,-0.0731371092930149,-0.1500952916345344,0.10698634,0.0419476045179059,0.0089849504444178,-0.0334527185468118,-10.32962315674202,-1.4476355185495868,2.0978544555504355,0.0500383141145121,0.0735044662471074,-0.7724224514154648,0.0004627880243788,0.0010304187269696,0.0017344683021711,-10.46211530007993,-8.086585160273504,-10.180275475307456,3.9399974848807174e-05
436,1724816386554438086,-2.105173349380493,-1.1711057424545288,0.1389762014150619,-0.0364351421594619,-0.0247376356273889,0.3771781623363495,-0.9250930547714232,0.0,0.0,0.0,-0.0863207471672271,-0.1110643715923156,-0.1685597624554486,0.114400959,-0.152614878807887,-0.0253148093868011,-0.0081369368851214,-9.61006694561526,-2.012133592717767,2.301396884937341,0.0489016219304546,0.0733199846021104,-0.7724922267323694,-0.0016872188425907,-0.0003391171401574,-0.0005794994613497,21.607841499103763,3.606457614853347,5.0449978929354256,4.083496432945046e-07
438,1724816386562669973,-2.105201482772827,-1.1711214780807495,0.138964757323265,-0.0361036732792854,-0.0247928239405155,0.3771702945232391,-0.9251077771186828,0.0,0.0,0.0,0.2856277404413457,-0.0016671162765619,-0.0581632241462608,0.122632846,-0.0797354063195715,-0.0179900499342638,0.0006367572186931,10.769405077009152,1.8506147257157288,1.9315649852482384,0.0482451052891681,0.0731718122174466,-0.7724941823180548,-0.0005366151805503,-0.0005803443023637,-0.0006553822518675,15.457512180535616,8.315554226354584,10.712632672745723,-1.0579103048819652e-05
440,1724816386572397201,-2.1051735877990723,-1.171111822128296,0.138966828584671,-0.0363391675055027,-0.0247511062771081,0.3770418465137481,-0.925152063369751,0.0,0.0,0.0,0.0943057852999352,0.0220492109289762,0.0150272324020407,0.132360074,0.047044999523031,0.0110550622524341,0.0293765991037735,12.26992238476497,1.355996496217164,2.1077919951564588,0.0487240430487032,0.0732653759648774,-0.7722028126309535,0.0039182233525281,-0.0002788968993669,-0.0017837336893311,-26.72460442043475,6.452487775200498,15.570515139045137,1.7468873219318644e-06
442,1724816386582839367,-2.105120897293091,-1.1711289882659912,0.1389258205890655,-0.0371630080044269,-0.0244487039744853,0.3768595457077026,-0.925201654434204,0.0,0.0,0.0,-0.2638511664568052,0.1344266157974405,0.2678125436721125,0.14280224,0.1666094592664843,0.0069432825581489,0.0418943512394314,-8.270339848746204,-1.704361201363129,-2.676174919456161,0.0504961512774708,0.0733160957647267,-0.7717611019689806,0.000826362042261,-0.0001488792033725,-0.0001580553704032,-10.13355941172519,-0.782549173982273,-1.602010916908981,-3.8441084926312944e-05
444,1724816386592679306,-2.105151891708374,-1.171116590499878,0.1389592140913009,-0.0366754047572612,-0.0245333891361951,0.3769445121288299,-0.9251843094825744,0.0,0.0,0.0,-0.1394911013272163,0.0196812466957197,0.0127257682212884,0.152642179,-0.0976274005562788,-0.0219799396506724,-0.0203692536669665,-7.341973480623253,0.4156263168142552,-1.670105659116954,0.0495200333378742,0.0731101110775146,-0.7719727297612401,-0.0014709487058723,0.0023048805325558,0.0035169092344293,7.855759387677187,-16.764088825655573,-24.798023099684997,3.164277126691899e-05
446,1724816386602935360,-2.105149030685425,-1.171081781387329,0.1389966011047363,-0.0368811450898647,-0.024548266083002,0.3768872320652008,-0.9251989722251892,0.0,0.0,0.0,-0.1100462089971079,-0.2068009787249878,-0.2295717980400685,0.162898233,0.0356466352430249,0.0181468720435649,0.0122900183778856,1.30318768351438,0.7299683999212334,-1.4987993277277316,0.0498955278530038,0.073289720051069,-0.7718370991741752,-0.001896986075323,5.144156104819331e-05,-0.00020889222474,11.07588335631545,0.191792192500821,-4.075761018514996,3.4271023365689616e-05
448,1724816386612519643,-2.105186700820923,-1.171111226081848,0.1389600783586502,-0.0366190448403358,-0.0246433280408382,0.3770763278007507,-0.9251298308372498,0.0,0.0,0.0,0.0695955441824447,-0.0054602573944289,-0.0935435255618795,0.172482516,-0.0565781568962307,-0.0033612901353155,-0.0440199411953719,-4.788966205504564,-1.4618401596204462,-2.334581244473738,0.0493222160193039,0.0732784690914879,-0.7722612497383547,-0.0035652760605273,-0.0018149066876134,-0.0012116296392603,18.794164415302568,17.735802469794614,5.462104498327627,-3.4515509792503856e-05
450,1724816386625948729,-2.1052277088165283,-1.1711119413375854,0.1389927119016647,-0.0364106632769107,-0.0246698930859565,0.3771277368068695,-0.9251163601875304,0.0,0.0,0.0,0.3229397734927288,0.1711564183209052,-0.1844723863978935,0.185911602,-0.029940515512968,-0.0082731209080856,-0.0087492879362022,11.884481983590431,1.3961596626906128,4.860891166451706,0.048911130519115,0.0731732669239789,-0.7723843462581313,0.0019541118479367,0.0016731171448611,-0.0022593575160847,-54.76428329364171,-3.4838102372530804,-69.31334561320381,3.182317729571646e-05
452,1724816386633746014,-2.105189800262451,-1.171091079711914,0.1389538645744323,-0.0368179120123386,-0.0245443824678659,0.3769949376583099,-0.9251577854156494,0.0,0.0,0.0,-0.4374171650487286,0.0686775625215655,-1.0080767919997178,0.193708887,0.1075506518811842,0.0105898955519577,0.0392685338791782,13.008839025689468,1.6929496351874491,4.4493089917452275,0.0497724674497092,0.0732406478733601,-0.7720737285949305,0.0040734779225566,0.0026066428972058,-0.0041796875572104,107.14962620530876,-14.298806133414782,99.99810364766287,-3.983320779357857e-05
454,1724816386660054927,-2.1051526069641113,-1.1710286140441897,0.1389151364564895,-0.0372513383626937,-0.0242336262017488,0.3769558370113373,-0.925164520740509,0.0,0.0,0.0,20.54954555908705,-0.4101182940027482,19.875951202347498,0.2200178,0.0392972237032349,-0.0093371207881432,0.0046214779238485,39.461652961975474,276.1223045420141,-1221.4192893618192,0.0508143209538889,0.0729891913166671,-0.7719643030704118,-0.0703918751246419,-0.0001179185146611,-0.0983250315215684,2258.6443834862876,32.55676950774034,3468.8915908838244,-4.339877193194982e-05
456,1724816386660715416,-2.1052002906799316,-1.171028733253479,0.1388485878705978,-0.0372870527207851,-0.0242897905409336,0.3772054314613342,-0.9250599145889282,0.0,0.0,0.0,22.06558001119206,-0.3877732904680341,22.211473418775658,0.220678289,0.0660585694847157,0.1776297523737875,-0.8223438620034772,64.89567658672225,178.19476693313692,-807.1290594470184,0.0508186892425711,0.0731339570634601,-0.7725022805862279,-0.0564314473991771,-0.0003938803785388,-0.0848082711069899,1549.6205894753202,43.93468023454694,2788.0106883476865,-6.707613118663807e-05
458,1724816386662610873,-2.1052215099334717,-1.1710306406021118,0.1387745887041092,-0.0375509299337863,-0.0241240877658128,0.3771552145481109,-0.9250741004943848,0.0,0.0,0.0,20.946549489869223,-0.2495376081132861,23.427036288628393,0.222573746,0.3216717762483538,-0.0551014441359535,0.0679442945842107,108.36542432628592,-102.3897885837322,394.4884598572189,0.0514374340401466,0.0730230760231768,-0.7723787339835553,-0.0095533364340525,-0.0009654777177701,-0.0332061535312386,-821.7305259101588,65.93864750386253,194.1144318326093,-7.388317176505466e-05
460,1724816386672625300,-2.1052303314208984,-1.1710381507873535,0.1387507319450378,-0.0375774502754211,-0.0241000689566135,0.3769740462303161,-0.9251473546028136,0.0,0.0,0.0,0.4763564633660366,0.0408871736262444,1.7101890411200675,0.232588173,0.0052865371184047,-0.0014341395486806,0.0392961065617892,-19.052780023410783,0.683598001040608,-3.3609203890699213,0.0515190513730327,0.0729884652139231,-0.7719852410349775,-6.48131699847454e-05,-0.0007118530261394,0.0004991273530583,-1102.1309957588203,15.694238363267262,-1226.5933666393748,-2.324647621651336e-05
462,1724816386683848383,-2.1052207946777344,-1.1710456609725952,0.1387925744056701,-0.0372017845511436,-0.0239356625825166,0.3770027458667755,-0.925155222415924,0.0,0.0,0.0,-0.0456024073017923,0.0496621499884932,-0.2083263338749438,0.243811256,-0.0508190492931663,-0.0525674494587612,-0.0047154652455937,-6.307759742505441,0.6022330335130303,-2.1119023510832946,0.050942666559649,0.072401995557749,-0.7720686700168417,-0.0006443025726525,-5.7249593439223645e-05,-0.0011293093152158,-14.674107449694224,2.1628761464360577,-57.6395486876112,4.248606016123739e-05
464,1724816386692883732,-2.1052374839782715,-1.17104172706604,0.1387470364570617,-0.0366938784718513,-0.0240971390157938,0.3770360350608825,-0.92515766620636,0.0,0.0,0.0,0.0533712176163092,0.0792500412147536,0.095062988192395,0.252846605,-0.1173309708213465,-0.0096040855007317,-0.0106339303754215,-2.268806652903235,3.0133780617242483,-0.4123671254678198,0.0498752597141595,0.0723201597539426,-0.7721691580752992,-0.001012464104896,0.0003284399614393,-0.0034715446303827,2.9176205078389685,-0.6618317849677535,24.21848040117788,-4.59833524247314e-05
466,1724816386707818710,-2.105232000350952,-1.1710394620895386,0.13873390853405,-0.036494392901659,-0.0241194181144237,0.3771081566810608,-0.925135612487793,0.0,0.0,0.0,-0.1014475489113305,-0.0278141963247623,0.2257081477628888,0.267781583,-0.0254983256616346,-0.0075951313738038,-0.0108019515620533,17.536248632323108,3.381848451358497,2.5394880427140483,0.0494823732767247,0.0722148820468097,-0.7723363961700642,0.0021081034838061,0.0024146674369518,0.006694572841118,-20.694150956276616,-20.05749462888625,-50.74627325850979,-1.3178039023346943e-05
468,1724816386715205999,-2.105210065841675,-1.171013355255127,0.1388110369443893,-0.0370343960821628,-0.0240141600370407,0.3770580589771271,-0.925137221813202,0.0,0.0,0.0,-0.2920593485042263,-0.2230800753719802,-0.3665583608893813,0.275168872,0.1456563548161993,0.0292532422681972,0.0172783146502767,1.7785741174837386,3.945058563636751,0.5407508605060307,0.0505683889365664,0.0724243193330819,-0.7721976320283526,0.0002245196882597,0.0015971494450468,0.006699445089259,2.6798638553759475,-11.6723930747064,-52.401040827576864,7.492818218722991e-05
470,1724816386722943007,-2.1052305698394775,-1.1710166931152344,0.1388325542211532,-0.0370590053498744,-0.0242188517004251,0.3770671784877777,-0.9251272678375244,0.0,0.0,0.0,-0.0405231690516591,-0.1937826569817121,-0.5469356806741352,0.28290588,-0.0139139199175947,0.0513243104578326,-0.004957907950731,-13.018887811356658,0.4139576824939191,-1.7135986216645345,0.0504594162760654,0.0728228576276208,-0.7722160495242897,-0.0023356400645511,-0.0010397500342165,0.0008877095347368,23.763465897348823,10.034419363502582,0.2376301257750593,2.1376997682898444e-05
472,1724816386736217316,-2.1052544116973877,-1.1710443496704102,0.1388012170791626,-0.0369789786636829,-0.0242608543485403,0.3770725131034851,-0.9251271486282348,0.0,0.0,0.0,0.0757037784631843,0.0817075613883965,-0.0074119665525907,0.296180189,-0.0135207148665656,0.0012787934779683,-0.0012768844195279,12.006159794775243,-6.450394519772203,4.796357180567576,0.050278761031115,0.072840658287941,-0.7722321055060025,0.003739612011401,-0.0002634451116421,-0.0017213424463697,-41.18321385544855,4.265232125317931,21.645225818957176,-2.922160438832887e-05
474,1724816386742457808,-2.105214834213257,-1.171040654182434,0.1387923508882522,-0.0372057184576988,-0.0240072291344404,0.3769642412662506,-0.9251688718795776,0.0,0.0,0.0,-0.3278091546498445,0.0599515507582407,0.0719263034109655,0.302420681,0.0965400117462403,-0.0468381938331545,0.041912595928215,7.831467305753195,-2.951998239350631,2.340218392302532,0.0508991700962788,0.072535522742813,-0.7719851095025314,0.0030914408354618,0.00031458938669,-0.0012127126639969,-36.52519424390428,-4.759846408138879,10.79891821602811,-8.504796708292848e-06
476,1724816386752874618,-2.105239152908325,-1.1710422039031982,0.1387833356857299,-0.03725091740489,-0.0240196641534566,0.3770285546779632,-0.9251405000686646,0.0,0.0,0.0,-0.2190684281994918,-0.0117759456280065,0.1511263833123311,0.312837491,0.0076278019652512,0.0051515159103986,-0.0133579237923522,-11.63054048137486,1.0409168029504163,-3.944735943998405,0.0509687219478658,0.0725961966844105,-0.7721216739097746,-0.0042172280867163,0.000370941153001,-0.0006300205662181,31.678917466944633,-7.167636958941796,-1.0075396990448389,-9.24260089825858e-06
478,1724816386763305996,-2.1053028106689453,-1.1710329055786133,0.1387792229652404,-0.0364915877580642,-0.0241927895694971,0.3772094249725342,-0.9250924587249756,0.0,0.0,0.0,0.3332581522921851,-0.0894889110275238,0.0506698712319061,0.323268869,-0.1460259242283127,-0.0252521330853366,-0.0402883141258931,2.3495521404774644,-0.6425599543913155,0.2827391971422642,0.0494140311630942,0.0723541901032306,-0.7725556809393427,-0.0014616694119524,6.858118739927477e-05,0.0019407739446855,13.0307827986306,3.972919866654077,-11.316904342532368,-5.991347805031737e-06
480,1724816386772868264,-2.105276107788086,-1.1710394620895386,0.1388182491064071,-0.0365851148962974,-0.0240970235317945,0.3772696554660797,-0.9250667691230774,0.0,0.0,0.0,0.1079598227766777,0.0486289391372397,-0.0723301104000291,0.332831137,0.0261527286826744,-0.0114804405098159,-0.0124764957812574,10.396354058033731,1.3143166945518072,3.4563952800999127,0.0496550925811841,0.0722504618456637,-0.7726806862342593,0.0023307140866393,-0.0013174815623173,0.0007091841261566,-19.8520089571711,9.20451916424986,-5.648472789843947,3.989270871168267e-05
482,1724816386783493375,-2.1052567958831787,-1.1710609197616575,0.1387859731912613,-0.0368209183216095,-0.0240022093057632,0.3771244883537292,-0.9251191020011902,0.0,0.0,0.0,-0.0591791590280677,0.084569644657628,-0.0471697605902651,0.343456248,0.0467744277699805,0.0009979897946804,0.0307166350623477,-6.843766626402856,-1.3155105193676948,-2.400667520863599,0.0501757084098766,0.0722447728157358,-0.7723533849082994,7.010246889649352e-05,0.0014846312509462,0.0006073197876919,-0.899492946002515,-15.33603162532038,-7.456834415740697,-2.9979584432807916e-05
484,1724816386792474450,-2.105269432067871,-1.1710209846496582,0.1388190984725952,-0.0364282131195068,-0.0240231584757566,0.377286434173584,-0.9250679612159728,0.0,0.0,0.0,0.0453313510278649,-0.1952655959127958,-0.1887246822518022,0.352437323,-0.0813776570835666,-0.0297188862267405,-0.0399290227572112,3.4367986474182723,2.3787138752274632,0.732029102588966,0.0494180038484123,0.0719960313245001,-0.7727256558643428,0.0007045163650616,0.0008841096836746,-0.0001016209895938,-3.7781608021290047,-8.171063000865068,-3.228061105763578,2.9369417542183445e-05
486,1724816386802599024,-2.105238199234009,-1.1710526943206787,0.1387748122215271,-0.0372800678014755,-0.0239975992590188,0.3769867718219757,-0.9251569509506226,0.0,0.0,0.0,-0.1688615568121829,-0.0156251926251481,-0.0783552998538261,0.362561897,0.1555079841311184,0.0605511999588724,0.06561816367528,4.526265263201416,0.165555433735052,2.185993587624068,0.0510427409396361,0.0725749698271116,-0.7720296684343613,0.0008746242384205,-0.0025583904008641,-0.0032654559287683,-6.024915960185579,20.177414379537566,19.032054371510142,-4.084214069511568e-05
488,1724816386812675229,-2.1052515506744385,-1.1710727214813232,0.1387530267238617,-0.0372875444591045,-0.0238550975918769,0.3769695460796356,-0.9251672625541688,0.0,0.0,0.0,-0.0778368745442067,0.2120989557469713,0.1949529523445057,0.372638102,0.0118775931036459,-0.0255300648889251,0.0050248574817402,-16.089320630985927,-4.317171707267025,-6.493408499453044,0.0511651293394959,0.0723154608762019,-0.7719920268323013,-0.002688700856936,0.0005371628247772,-0.0017070547697182,19.194926361652275,0.2121583038687988,12.46445921350307,-2.0172155165622724e-05
490,1724816386822518379,-2.1052911281585693,-1.1710431575775146,0.138740599155426,-0.0364819020032882,-0.02404654212296,0.3772443234920501,-0.9250824451446532,0.0,0.0,0.0,0.2088074858793622,-0.0010845306891082,0.1766826840447795,0.382481252,-0.1641355274499338,-0.027391009081181,-0.0635052442951407,-0.4566868583964507,3.1696940307998216,-0.3623776026537844,0.0495033889455391,0.0720776421066325,-0.7726315902666429,-0.0008029029080205,0.0017103054509348,0.0005993180831076,10.651556564194497,-5.19942283607826,-0.529097616275374,-1.558340729535703e-05
492,1724816386834718244,-2.105252265930176,-1.1710418462753296,0.1387760639190673,-0.0371585600078105,-0.0241738874465227,0.3770643472671509,-0.9251255989074708,0.0,0.0,0.0,0.0594784647037514,0.1843515761721058,0.1902937673570918,0.394681117,0.0937751366418479,0.062066013136203,0.0318688516392236,13.08844838500464,4.031831771990177,5.0044361059108455,0.0506783680690364,0.0728144264601362,-0.7722042875784754,0.0020049416872574,-0.0001214818391979,0.0018834120484896,456.16841338522414,15.188932912165733,219.37007513974,3.5860526806690006e-05
494,1724816386861582819,-2.1052682399749756,-1.1710586547851562,0.1387661099433899,-0.0366480015218257,-0.0240214131772518,0.3770680427551269,-0.9251484870910645,0.0,0.0,0.0,40.023820787691406,0.591750037316892,18.994816951050787,0.421545692,-0.0309403198777164,-0.0248849548018197,-0.0001090604717108,464.8241183972812,463.62568328088736,-221.7689123004344,0.0498445236237687,0.0721469017862744,-0.7722409702669565,-0.0064938037680803,0.0246189903461981,0.0120262111861677,-1637.9766317278045,-2280.16585664501,-2021.4555561942216,-8.739987826097493e-06
496,1724816386862404432,-2.105273723602295,-1.1710377931594849,0.1387763023376464,-0.036840982735157,-0.0241078194230794,0.3771374523639679,-0.9251102209091188,0.0,0.0,0.0,38.59949843759145,-1.339340506431025,17.26557920589429,0.422367305,0.3627618831275383,0.3677671612274101,-0.1878599382107026,239.8255785044385,-652.0463256066722,645.6234753432472,0.0501324962627694,0.072456390886651,-0.7723803127756594,0.0274039479540988,0.0250969082242136,0.0281004107885962,-4795.6255778651175,-2317.9230225046595,-3522.4313799020747,8.259306977426399e-06
498,1724816386862974310,-2.1052446365356445,-1.1710236072540283,0.1387985199689865,-0.0369028970599174,-0.0239400584250688,0.3770064115524292,-0.9251655340194702,0.0,0.0,0.0,34.65623027066611,-2.6474503741243804,14.697827626399995,0.422937183,0.404822198741418,-0.4504578503649524,0.5255894736182507,68.17417921983774,-1360.8070141056648,1185.8582710205906,0.0503839346304406,0.0721849637958333,-0.7720933333186143,0.0483502926139998,0.0235743201908515,0.0370311038969209,-6744.352190501613,-2171.624410122329,-4355.870331039716,2.1386045434491494e-05
500,1724816386873641233,-2.1052660942077637,-1.1710354089736938,0.1388030797243118,-0.0369485318660736,-0.0239537358283996,0.3770937621593475,-0.9251277446746826,0.0,0.0,0.0,-2.3157417100274853,-1.0944897880468374,-1.8322297097736284,0.433604106,0.0076027540448204,0.0051635631632873,-0.0177132303385575,-22.67998119128917,19.61734385044525,-25.29324747751424,0.0504515806357161,0.0722494935092757,-0.7722797314937895,-0.0011876472912746,0.0001916704444226,-0.00054158383334,-1579.9522290199748,123.21281914419546,-663.7166101592371,5.20902015031628e-06
502,1724816386883903251,-2.1052701473236084,-1.1710206270217896,0.1387879550457,-0.0365174375474453,-0.0240135882049798,0.3772023916244507,-0.9250990152359008,0.0,0.0,0.0,0.0911199984078325,-0.0509619547082989,0.1031162410991368,0.443866124,-0.0814116054949206,-0.0215391175817251,-0.0241409830074394,0.3068545903974364,-0.0325610717836846,0.4990283827379433,0.0495974520022142,0.0720411216389617,-0.7725388715896669,-0.0019654468983247,-0.0002041544783253,-0.0026582270000368,116.45048478395992,47.044931177945266,90.21197571773102,-1.6401841920193e-05
504,1724816386893044728,-2.1053009033203125,-1.171035885810852,0.1387540102005005,-0.0364915840327739,-0.0240209009498357,0.3772459626197815,-0.92508202791214,0.0,0.0,0.0,0.1940057530159497,-0.0658791978266565,0.1266406601753916,0.453007601,-0.0054715045145977,-0.0009123621936497,-0.0104147332825472,6.432362858759601,2.0031786930166464,2.7421897074811215,0.0495405378574048,0.0720375021095849,-0.772634556631325,0.0002267539502867,-0.0007709183232265,0.0008037480656115,-8.193116006448125,-0.5727952637159794,-16.978583547027064,-3.302860491153865e-05
506,1724816386903638622,-2.1052544116973877,-1.1710330247879028,0.1388179808855056,-0.0367245785892009,-0.0240193996578454,0.3770817518234253,-0.9251399040222168,0.0,0.0,0.0,-0.1315551026743037,-0.0589456075473593,-0.2932694578076617,0.463601495,0.0396547201407716,0.0172003822678229,0.0338673407609039,-1.1625391376849343,-0.2466195696696395,-1.6410419406772774,0.0499871891092327,0.0722016628732623,-0.7722663331968842,0.0017197106973583,-0.0015164711410307,-0.0009493166316225,-27.823544270477015,-2.743459642384061,-22.44995124484824,6.425664434237664e-05
508,1724816386912318587,-2.1052584648132324,-1.1710588932037354,0.138760045170784,-0.0366880558431148,-0.0240421965718269,0.3771680295467376,-0.9251055121421814,0.0,0.0,0.0,-0.3523852795315791,-0.1069243184768586,-0.3659032124492155,0.47228146,-0.0089976362001537,0.001146509926843,-0.0217747367715429,-4.315300163938584,-1.420296949916236,-4.25162683598961,0.0498954637136935,0.0722210268966239,-0.772454995863585,-0.0013600187222593,-0.0019468281969992,-0.0044037086279669,-0.8100368928366706,2.0570972436134767,7.51206859716014,-5.555578655682702e-05
510,1724816386931536176,-2.1053225994110107,-1.17105233669281,0.138772040605545,-0.0363274738192558,-0.0241104699671268,0.3772656321525574,-0.925078272819519,0.0,0.0,0.0,0.6800632413029726,0.255319079753695,0.4541259036349139,0.491499049,-0.0370474174467013,-0.007885055071902,-0.0116289834625261,-16.275372225928557,-1.483533231750553,-27.434531247657223,0.0491668365646404,0.0720807599296491,-0.7726864445270075,-0.0080288909572345,-0.0064415241470783,-0.0100709773301872,60.776944934125794,48.95527360890618,55.33950067836946,1.028689609760796e-05
512,1724816386934200719,-2.1053457260131836,-1.171072006225586,0.1387412548065185,-0.0362124256789684,-0.0241431854665279,0.3773805797100067,-0.9250349402427672,0.0,0.0,0.0,0.8446116271238087,0.3968848282662336,0.6062607511330209,0.494163592,-0.0858874229402673,-0.0122124486537158,-0.0950599904375776,-7.558655975089426,-0.2495639938193833,-20.031923861250306,0.0489195966273789,0.0720606618190636,-0.7729415546111834,-0.0058373855582019,-0.0055804830118262,-0.0085842174815087,36.1745031557308,38.70848101551455,38.0620374501858,-2.9393868770002388e-05
514,1724816386942581014,-2.1053197383880615,-1.1710712909698486,0.1387475878000259,-0.0367725044488906,-0.0240100119262933,0.3772576153278351,-0.9250664710998536,0.0,0.0,0.0,0.4735442500156027,0.341179483485664,0.4235528206851908,0.502543887,0.1346585003460164,0.0219238717166091,0.0343639706207028,8.975246101463595,0.437842566524573,7.851358352652836,0.0500695189517767,0.0722299181550352,-0.7726440677020406,0.0018243084572731,-0.0003109839225174,-0.0022310197206243,-52.81413228045115,-14.273913732564406,-22.54816222668053,6.6803228226379185e-06
516,1724816386952884855,-2.1053171157836914,-1.1710795164108276,0.1386867612600326,-0.0367721579968929,-0.0238984283059835,0.3771713674068451,-0.9251046180725098,0.0,0.0,0.0,-0.1787805306282254,0.0974810241016193,0.1817682028100161,0.512847728,0.0074344520742325,-0.0196232307422304,0.0190746706405508,-7.910145115395442,-1.5006554237692742,-1.0853364134666017,0.0501595797987255,0.0720181419024738,-0.7724575128980417,0.0011203609097023,-0.0004393150539776,-0.0021052896721314,-38.23922916548793,-20.3459917424759,-25.918066022599653,-5.9841432716996e-05
518,1724816386968733329,-2.105278253555298,-1.1710777282714844,0.138745978474617,-0.0367574580013752,-0.0240584276616573,0.3770792186260223,-0.9251385927200316,0.0,0.0,0.0,-0.1736970685755495,-0.144401067040685,-0.2887795606989059,0.528696202,-0.0097672169120277,0.0183043861840311,0.0115880807927266,-18.93796290423956,-3.812830453916625,-10.61379654269608,0.0500190902509783,0.0722986758277549,-0.7722590139240674,-0.0044057318369254,0.0037854855091836,0.0049089253330301,43.65622372831386,-23.90798569685416,-21.74142273634413,5.9487232964468214e-05
520,1724816386974577952,-2.105318784713745,-1.1710476875305176,0.1387771964073181,-0.0363035649061203,-0.0241944007575511,0.3772653341293335,-0.9250770807266236,0.0,0.0,0.0,0.1748618721165104,-0.3027693233393652,-0.3987168147675418,0.534540825,-0.1589317145882149,-0.0173564474793756,-0.0723042388831815,-8.59179495752283,-3.012337691807148,-6.314925892879514,0.0490592783230939,0.0722182834738625,-0.772687215987668,-0.0050437631581985,0.0020557035076578,0.001644754067386,44.6941440877242,-5.080229199804613,6.65473205723872,2.7828863330964727e-05
522,1724816386983715040,-2.1053378582000732,-1.1710729598999023,0.1387394219636917,-0.0363191664218902,-0.0241861548274755,0.3773300945758819,-0.9250503182411194,0.0,0.0,0.0,0.369780169155755,-0.0347020942068341,0.0258337997161306,0.543677913,0.0043956941325493,-0.000754232122404,-0.0151751054368206,9.50460520833452,-0.4302658230678072,6.299714800883455,0.0490894031589691,0.0722182083860491,-0.7728264678042086,0.0006110990619987,-0.0008079748613454,0.0002839113219934,-4.2466646938097945,22.431028927726143,24.64832232009676,-3.580186033736217e-05
524,1724816386992329204,-2.1053106784820557,-1.171064019203186,0.1387777477502823,-0.0363592393696308,-0.0240597631782293,0.3771782219409942,-0.92511385679245,0.0,0.0,0.0,0.1254648087208701,0.1024268293210287,0.0609853131645743,0.552292077,0.0182908019263469,-0.0227111468822506,0.0394755629633984,0.5994932818745329,-0.975873435603796,1.80155911882066,0.0492707921945935,0.0720060747457218,-0.7724954351668737,0.0017733747045696,0.0011565501662644,0.0019257839642863,-19.485243360313984,4.671390113295608,-0.9779862076888464,3.788079828285406e-05
526,1724816387003108197,-2.1053102016448975,-1.171049952507019,0.1387644708156585,-0.0363897681236267,-0.0239778086543083,0.3771938979625702,-0.9251084923744202,0.0,0.0,0.0,0.0351627019911422,0.0010733819133092,-0.0177867967586727,0.56307107,0.0110819707352403,-0.0120128821216159,-0.0023770546450086,3.992132744468015,3.1807057972532498,0.530999690856867,0.0493879493918941,0.071878022180863,-0.7725276230044104,0.0029981462303538,0.0005661180827729,0.0008348983650146,-8.743522849973367,-1.5496373656016793,1.9231522687013225,-1.4419982968334586e-05
528,1724816387013395341,-2.105250358581543,-1.1710513830184937,0.1387933492660522,-0.0369432307779789,-0.0239799190312623,0.3769771456718445,-0.9251748919487,0.0,0.0,0.0,-0.0583756977502433,0.0622330009682995,0.0926252819444924,0.573358214,0.0979092876273339,0.0421906241279488,0.0464188942301054,-4.402891857524652,-1.066628337048393,-2.2977578932875105,0.0504311614849704,0.0722876855960461,-0.7720278034707426,0.0025895400133038,0.0011254765169894,0.0014708989342544,-15.307211627274134,-2.3162370902304317,-0.1236593371819048,2.9878532960789895e-05
530,1724816387022484522,-2.105252742767334,-1.1710309982299805,0.1387959867715835,-0.0367180928587913,-0.0239853467792272,0.3771056234836578,-0.9251312017440796,0.0,0.0,0.0,-0.2474123617173762,-0.025165398868365,0.0043143616886959,0.582447395,-0.0452500928645926,-0.0183842596826491,-0.0310113665713979,-4.639653938678785,-1.4745882333950606,-2.8088043605707353,0.0499988905386864,0.0721349260917944,-0.7723182643374996,0.0019091346454729,0.0017542328811757,0.0025601370876362,-19.459073132622255,-8.337204418662788,-14.746113716911864,8.339113397623577e-07
532,1724816387034842891,-2.1051926612854004,-1.1710175275802612,0.1388657689094543,-0.0373213067650795,-0.0240717474371194,0.376933753490448,-0.9251748919487,0.0,0.0,0.0,-0.4653964499089918,-0.1067173646798481,-0.2624458343162898,0.594805764,0.0841119487030935,0.0506005467798796,0.0302263094038098,-16.4965169706687,-8.099933442717024,-4.545907197159229,0.0510677439643972,0.0727406036459959,-0.771912582282917,-0.0040479674563869,-0.000142034000035,0.0006722474558564,48.33524102609341,12.312691411059324,27.082933461107913,6.931785826822011e-05
534,1724816387043109621,-2.1052753925323486,-1.1710255146026611,0.1388438194990158,-0.0364019311964511,-0.024042822420597,0.3771567940711975,-0.9251214265823364,0.0,0.0,0.0,0.2989973923911209,0.0996450535700742,0.2305656449098445,0.603072494,-0.2013652323109868,-0.0920174105421909,-0.0598920984460096,-26.41819723144075,-13.255151731705958,-8.363287575600932,0.0493644978890867,0.0720057384361876,-0.7724467169870636,-0.0078032958187392,-0.0007658732041671,-0.002103846558623,324.19425579243864,-252.56255447346217,-1925.178720443791,-2.2591698492834293e-05
536,1724816387077175244,-2.105231761932373,-1.1710234880447388,0.1388495415449142,-0.0371156930923461,-0.0240684356540441,0.3769802451133728,-0.9251644015312196,0.0,0.0,0.0,43.87237535088525,-47.46252676006835,-343.97636754548813,0.637138117,0.0378591116319142,0.0175126099060577,0.0114934634850232,-1818.6977280325495,-369.10663722091937,-767.5794642781436,0.0506846759826772,0.0725819978751487,-0.7720247975552946,0.1081243901326161,0.0272100266361121,0.0852579090377503,-27106.49663154877,-2520.7217748735857,7210.026448106975,6.2458190627446575e-06
538,1724816387077500722,-2.105196237564087,-1.1710145473480225,0.1388775557279586,-0.0370241031050682,-0.02408860437572,0.3770149052143097,-0.925153374671936,0.0,0.0,0.0,34.961534629728334,-48.28646325821164,-341.57581936263574,0.637463595,-0.5597645399879426,-0.1037813121059419,-0.2407302702793996,4882.246506571677,594.6541824013234,1848.3715517241685,0.0504966677400562,0.0725522183101059,-0.7721049067189394,0.1225297329651766,0.0116118674150129,-0.0277764902589012,-30278.022869144632,904.4400257902452,32056.819859125884,2.7721607581441404e-05
540,1724816387077789835,-2.105157375335694,-1.1710152626037598,0.1388402879238128,-0.0373893752694129,-0.0239853076636791,0.3768927752971649,-0.9251911044120787,0.0,0.0,0.0,25.46293114827603,-47.14259946186618,-325.96933018082467,0.637752708,2.5771122472576073,0.3165588717338219,0.9673514796776154,10514.27822316417,1409.0811425039728,4049.430105891477,0.0512623916954636,0.0726293942508784,-0.77182015795501,0.1302498663660287,-0.0024414996135062,-0.125063710620252,-31963.41278865424,3990.400725349658,53425.81188075728,-3.642880307878579e-05
542,1724816387087090964,-2.1051933765411377,-1.1710282564163208,0.1388261616230011,-0.0370371825993061,-0.0241945032030344,0.3769398927688598,-0.9251806139945984,0.0,0.0,0.0,-5.255400000835358,0.1289140090329757,4.946497726575686,0.647053837,-0.0866921543865295,0.0127504741151702,-0.0137221122957656,-84.69662594969222,-13.84139010943391,-35.650191689614374,0.0504472123246308,0.072754320702323,-0.7719418990134858,-0.0039278939322286,-0.0022625222869692,-0.0051442442765434,-618.5910472469019,1902.3324354762665,12752.103122699667,-1.3550020760284912e-05
544,1724816387092627213,-2.105215311050415,-1.1710436344146729,0.1387857347726822,-0.0373158417642116,-0.0240740031003952,0.3768986761569977,-0.9251893758773804,0.0,0.0,0.0,0.1647026191026859,0.1816017756489499,0.3269411342013762,0.652590086,0.1090664896574284,-0.0018539792660986,0.0190166727646077,18.480989375772385,-2.4107548422545357,1.4873377890404331,0.0510586584025411,0.0727387320681779,-0.7718370281625523,-0.002803292486817,-0.0011874213320197,-0.0039453501133159,626.6455864856672,0.2109057840676481,-544.0759314152854,-3.928662282231596e-05
546,1724816387102591765,-2.105222463607788,-1.1710269451141355,0.1388066262006759,-0.0372256822884082,-0.0239998027682304,0.3771115243434906,-0.9251081943511964,0.0,0.0,0.0,0.089117641643042,0.0168014276503122,0.112770860207258,0.662554638,-0.0094926730871291,-0.0218009983815982,-0.0455462006141824,-9.62469929817106,-0.2049731557624398,-1.8002644419846874,0.0509302784807072,0.0725449103747808,-0.7723025809752294,-0.0018513725775335,0.0003963356495191,0.0012922672618653,-0.0540219251821003,-12.469664712328475,-24.276519791822317,1.9241089788038232e-05
548,1724816387112570560,-2.105252265930176,-1.1710357666015625,0.1388114839792251,-0.0368303246796131,-0.0241315476596355,0.3771799802780151,-0.92509263753891,0.0,0.0,0.0,0.1638399328793476,-0.0669690824145781,-0.157293265799152,0.672533433,-0.0828174220512976,-0.0058906091073206,-0.0167532447114937,1.9015192424531748,0.4349173076606177,3.2885285187185502,0.0500915110063311,0.0724946386651349,-0.7724729011038478,-0.0010261712465933,-0.0008563964578911,-0.0017080906840476,-1.2389203020675357,3.0117900265937463,-1.058794509020145,5.098047556538622e-06
550,1724816387123688460,-2.1052393913269043,-1.171044945716858,0.1387653052806854,-0.0370733551681041,-0.0239362679421901,0.3770626783370971,-0.925135850906372,0.0,0.0,0.0,0.0419637247979467,0.1078101955291576,0.1530601387294764,0.683651333,0.0528983127826845,-0.0154180431341002,0.0248016794919623,6.5613777012446075,0.4791747092994201,2.0883789773337194,0.050698979564706,0.0723095537557459,-0.7722054810192972,0.0018005239532641,-0.000875439131228,-0.0016808068328817,-14.476888237921475,10.703949464174787,14.03282564071093,-4.499325289466516e-05
552,1724816387138497777,-2.1052000522613525,-1.1710588932037354,0.1387891918420791,-0.037392932921648,-0.0239453911781311,0.3769056797027588,-0.9251867532730104,0.0,0.0,0.0,-0.2417619345313491,0.167369429507344,0.0870366399155016,0.69846065,0.038701004547503,0.018035015359384,0.0231948195367825,-17.91502824287779,10.07624534634217,-13.136207179192882,0.051297997728125,0.0725587859229167,-0.7718479092260266,-0.001765605937237,0.0028816478475448,0.0035568215938432,25.896907053609713,7.594076055326468,10.852340901077064,2.5643340035286313e-05
554,1724816387143277082,-2.105215311050415,-1.1710392236709597,0.1388091892004013,-0.0372984372079372,-0.0241895392537117,0.3770264387130737,-0.9251350164413452,0.0,0.0,0.0,-0.0484995241868935,0.2091737727246441,0.1625181892035961,0.703239955,-0.0730737064593398,0.0782498372710063,-0.059680933453165,-20.56655449504619,10.906173271643516,-15.210507523975211,0.0509293880990829,0.0729468509339687,-0.7721143736261085,-0.0029225388107798,0.0035484057364634,0.0035615415647554,-347.19561610254675,157.0011140362228,-127.9223928418198,1.7948316061559898e-05
556,1724816387180829360,-2.105245351791382,-1.171073317527771,0.1387592256069183,-0.0369864180684089,-0.0240808706730604,0.3770700693130493,-0.9251325726509094,0.0,0.0,0.0,-127.4608066007312,49.84854398780894,-47.04580037177371,0.740792233,-0.0131306202057658,-0.0117031948454916,-0.0023849418894058,-2577.782803537173,-1238.3994281825894,1587.9480969617405,0.0504281623278958,0.072512467211855,-0.772226346986,0.0523711701061984,0.0319584136041157,0.0573254143377539,3959.788984666113,-26597.486606092138,-16994.66703811215,-4.731715883562878e-05
558,1724816387181136380,-2.105229139328003,-1.1710634231567385,0.1387769728899002,-0.0368501804769039,-0.0240689404308795,0.3769998550415039,-0.9251669645309448,0.0,0.0,0.0,-126.2266158669731,41.61250229157751,-52.30300637051399,0.741099253,-0.811036085729445,-0.395019124008694,0.4891290167643392,3677.1142293100625,-70.75555787505238,-591.956460920797,0.0501896031737327,0.0723837940616662,-0.7720821235014241,0.0129145134169448,0.0473861411137477,0.0427597276276969,22165.215858002422,-33634.47288684621,-10152.589890900184,1.7095876991939957e-05
560,1724816387181397440,-2.1052346229553223,-1.1710476875305176,0.1387847959995269,-0.0370284393429756,-0.0239754244685173,0.3770237863063812,-0.9251524806022644,0.0,0.0,0.0,-116.412266731357,31.320485911349007,-53.406075169481014,0.741360313,1.5420551126448292,-0.1520537116225004,-0.1521816638137211,8443.630521746634,876.7472414613834,-2304.3782312160406,0.0505891468518713,0.0723461446589467,-0.7721238554068764,-0.0195302446884113,0.0563321684214237,0.0280264899292026,37110.93901578795,-37635.29571569033,-3226.4084158947085,6.33992142426933e-06
562,1724816387185438831,-2.1052212715148926,-1.1710667610168457,0.1387766748666763,-0.0370560064911842,-0.0239970609545707,0.3769177794456482,-0.9251940846443176,0.0,0.0,0.0,3.3312783499334557,-8.873893513738961,-3.948175014744861,0.745401704,0.0065642019907768,0.0164984350110408,0.05622717148469,-242.38516854122173,26.38762264492687,27.753870038255823,0.0506323805571788,0.0724012503226881,-0.7718930300946958,0.0022886539389048,-0.0015020229389506,0.0017678318226881,18713.146140073364,-5875.063959342815,8008.119965848802,-6.216714772524017e-06
564,1724816387192548500,-2.105217695236206,-1.171037197113037,0.1388364881277084,-0.037081342190504,-0.0240389965474605,0.3770622014999389,-0.9251331686973572,0.0,0.0,0.0,-0.1572904418727125,0.2692628065769105,0.083991256306441,0.752511373,0.0037574675150781,0.0125063873204406,-0.0443128131744358,-2.1321194425105734,-0.2494552243302262,-6.943046207735501,0.050636587886242,0.0725060032409316,-0.7722040399825592,0.0001128360120219,0.0034050608542415,0.0055822381040826,-289.94412942231014,744.7147997603201,312.0484172246445,5.707436710292059e-05
566,1724816387202954352,-2.105222463607788,-1.1710132360458374,0.1388514637947082,-0.0368931666016578,-0.0241989735513925,0.3770870566368103,-0.9251262545585632,0.0,0.0,0.0,-0.1171642631900244,-0.2254940918149832,-0.5539531807816964,0.762917225,-0.04488914160546,0.0146630334335914,-0.0069301555093044,1.1756223143856244,-1.7038022970261248,3.58510096208924,0.0501647874456421,0.072662005605894,-0.7722683693949773,0.000741528116066,-0.0002039714300678,-0.0004357122748084,-1.6919829334470755,-10.410191428276825,-6.751063966654153,1.2763617565316414e-05
568,1724816387212438808,-2.1052050590515137,-1.1710368394851685,0.1388311237096786,-0.0369379147887229,-0.024085097014904,0.3769736588001251,-0.9251736998558044,0.0,0.0,0.0,-0.1811731566868574,-0.0032029644815154,-0.1463725267489277,0.772401681,0.0168369323777668,-0.018017002502933,0.0270089185175237,-0.8939955313274597,-2.8909739047111778,-1.0764038806430904,0.0503424559692388,0.072478478216548,-0.7720205183234753,-0.0019048397666949,-0.0012937786582085,-0.0054789827104482,13.112945661966355,15.297195112177716,43.72258398913095,-1.7928178528105214e-05
570,1724816387223234312,-2.105271577835083,-1.1710361242294312,0.1387310028076172,-0.0364278405904769,-0.0240520909428596,0.3771799504756927,-0.9251106977462769,0.0,0.0,0.0,0.2044447123259914,0.0619127424052893,0.3348388850372282,0.783197185,-0.083769890109509,-0.0424108886397486,-0.0418084749999458,1.5619179722984728,1.9955674718482936,-1.069961393589817,0.0494038342949533,0.072043700658079,-0.772495359784786,-0.0026583554478634,4.420831224649646e-05,-0.0023238297475272,13.11546902739769,1.2053411123896272,10.08090054974,-0.0001009328107925
572,1724816387234695228,-2.105259418487549,-1.171035885810852,0.1387889385223388,-0.0368516333401203,-0.02407699637115,0.3771268427371979,-0.925114929676056,0.0,0.0,0.0,0.0797201492881593,0.0170025690640877,0.0306716618392733,0.794658101,0.0665269452971885,0.0322346346379213,0.0104725637746486,-5.54217730215525,-4.628548745453972,3.0049424999920156,0.0501762987692818,0.0724067094460722,-0.7723567523118512,0.0030215857620135,-9.130546629876336e-07,0.0020317360118902,-25.64649469124845,0.6488946957058048,-20.76568727295822,5.789429885992383e-05
574,1724816387242389837,-2.1052260398864746,-1.1710360050201416,0.1387889534235,-0.0365075580775737,-0.023961666971445,0.3770377933979034,-0.9251678586006165,0.0,0.0,0.0,-0.1938897714835285,0.0455909461230317,-0.0992845987712042,0.80235271,-0.0724948877502641,-0.0609376572219728,0.0255523235479868,-5.549852900362718,-3.181155222027482,-0.8354500791526891,0.0496309839687933,0.0719285935762839,-0.772183316174236,0.0014866089021126,0.0002380886089596,0.0004629265660431,-13.317784770218466,0.4474130582022043,-3.5576368772119467,5.860675566813354e-07
576,1724816387252702789,-2.105250120162964,-1.171030044555664,0.138800099492073,-0.0367690548300743,-0.0240230578929185,0.3771410584449768,-0.9251137971878052,0.0,0.0,0.0,-0.0238161342505183,0.0050344020994657,0.0482990000863243,0.812665662,0.043291144147804,0.0296552360113911,-0.0217000976630461,3.195516111440005,3.3947779663066746,-1.0919469112215987,0.0500624014134891,0.0722451944401017,-0.7723921053909313,-0.0004355962881277,0.0009091037698283,0.0008848138507282,12.034659308603445,-4.881280963665924,3.5837576462738165,1.0187088853482312e-05
578,1724816387262993312,-2.1052350997924805,-1.171017289161682,0.1388071924448013,-0.0367573909461498,-0.0240787491202354,0.3771247565746307,-0.9251195192337036,0.0,0.0,0.0,0.0542657277980817,-0.0549378937822584,-0.0249660803048557,0.822956185,-0.0062962559547697,0.009248069620762,0.0028980427280937,-4.232344395556204,-1.625189572978922,0.2651250560634898,0.0500001169274967,0.0723387595428287,-0.7723575491642689,0.0009886290799556,0.0003445047238272,0.0014577226438108,2.982099460932928,-5.167958171593946,-12.574218526278996,6.219162565514111e-06
580,1724816387272365313,-2.10522985458374,-1.1710216999053955,0.1388274133205413,-0.0365732237696647,-0.0241406299173831,0.3771759271621704,-0.925104320049286,0.0,0.0,0.0,0.0429026408897665,-0.0977389621770693,-0.1893688183784147,0.832328186,-0.040956594909899,-0.0029282515519623,-0.0127571454503418,2.6015369734017617,0.7533055591989882,0.6678720987719583,0.0496075185274708,0.0723172988073899,-0.7724786121557274,0.0007790682799253,-0.0001709875728934,0.0005354446989329,-1.9575469572334216,-0.4726586224633962,-4.63357210457788,2.0611569008735233e-05
582,1724816387283212886,-2.1052186489105225,-1.1710197925567627,0.138812854886055,-0.0369727611541748,-0.0241557564586401,0.3770588040351867,-0.925135850906372,0.0,0.0,0.0,0.0123129736054909,-0.0514609494480499,-0.0775617127220651,0.843175759,0.0663609790047945,0.0310137406187884,0.0238460066164611,8.780324028685335,-0.4618258878549908,2.253577054647595,0.0503473578498715,0.0726403886591982,-0.772202814281719,0.0020638645065673,-0.0017677824933883,-0.0026608054305867,-8.237191959977032,6.908969001278601,13.533983141617076,-1.4478468410427524e-05
584,1724816387292884132,-2.105189800262451,-1.1710536479949951,0.1387757509946823,-0.0376027300953865,-0.023871237412095,0.3769150674343109,-0.9251763224601746,0.0,0.0,0.0,-0.1140609628419547,0.0381445396601048,0.0811524399415283,0.852847005,0.1416816100987948,-0.0044144708253384,0.0359773434165648,-2.1161354556696805,-3.0510796414929953,-1.160523726843626,0.0517427043174202,0.0725799850636116,-0.7718564668106159,0.0012678602703033,-0.0014399402127835,-0.0015390739292016,-5.116315400294019,5.992785758426314,11.613093847196357,-3.3535344921553806e-05
586,1724816387305251557,-2.105201244354248,-1.1710388660430908,0.1387930512428283,-0.0372893214225769,-0.0237852036952972,0.3770113289356231,-0.925152063369751,0.0,0.0,0.0,-0.0515949066864563,0.0605066912785421,0.1488974962141617,0.86521443,-0.0411275249273988,-0.0324668084919234,-0.0165675277893674,5.251158716206595,6.873465666545965,2.836425060843805,0.0512177326916114,0.0721895380434051,-0.7720824266475228,-0.0006449885457868,-0.0009010408199685,-0.0010863326395078,8.23789468645947,6.5318198839726875,8.223730688100856,1.576566985672217e-05
588,1724816387312797546,-2.1052048206329346,-1.1710553169250488,0.1387734115123748,-0.0376968532800674,-0.0238655060529708,0.376880019903183,-0.9251869320869446,0.0,0.0,0.0,0.0252418912377222,0.1315443994890813,0.2235969145166896,0.872760419,0.0907318039759694,0.0614904379655441,0.0374571263024528,-0.1185520157948047,3.707691977078306,0.320655998272672,0.051924600926189,0.072638350753092,-0.7717753664809216,-0.0005597537813173,-0.0003664971515178,0.0005542501940567,3.626904612276864,1.0018011278167038,-6.435191455120797,-1.817441573444117e-05
590,1724816387322417464,-2.1052112579345703,-1.1710366010665894,0.1388174593448639,-0.0371121801435947,-0.0240572411566972,0.3770601153373718,-0.9251322746276855,0.0,0.0,0.0,-0.0202639925886408,0.0380161376541559,-0.0386317739914575,0.882380337,-0.1261621132775317,-0.0100718975265541,-0.0433273083876032,-3.9618892042893488,-3.16671990968649,-2.1478980586946492,0.0506803015519264,0.0725629682062498,-0.772197772245562,-0.0001458909577678,0.001643441458718,0.0027810943031223,-10.587735993520688,-12.177380955578702,-22.80043992959994,4.214442134254618e-05
592,1724816387333445808,-2.105206251144409,-1.1710222959518433,0.1388254016637802,-0.0374646559357643,-0.0239654202014207,0.3770056664943695,-0.9251426458358764,0.0,0.0,0.0,-0.2110835645787226,-0.1273190322010562,-0.2337142731424115,0.893408681,0.0651075019521519,0.0090184430680154,0.0120000286355727,-5.03774497902323,-1.2173958802932066,0.0695858650784131,0.0514083125749812,0.0726555454912885,-0.772060173047114,-0.0011694854354402,-9.822756955202294e-05,-0.0010599997764311,6.986724835684896,-2.2608930626481207,4.064684496732782,6.741348617709546e-06
594,1724816387343105750,-2.105231285095215,-1.1710350513458252,0.138800099492073,-0.0366381108760833,-0.0241618603467941,0.3771209120750427,-0.9251235723495485,0.0,0.0,0.0,0.0619282521322982,-0.0414383591026339,-0.0103828828158253,0.903068623,-0.1729316057961109,-0.0276890994142656,-0.0291880584747514,-8.61631997842673,-2.48785228996235,-1.8848273840176013,0.0497163522358026,0.0724026496349805,-0.7723559405664159,-0.0042092509854967,-0.0010691411245389,-0.0023481781762848,30.377307227499287,9.871266695651304,18.20822737581649,-2.4534929964069154e-05
596,1724816387353580524,-2.1052937507629395,-1.1710433959960938,0.1387785822153091,-0.0361653640866279,-0.0241381544619798,0.3772242367267608,-0.9251007437705994,0.0,0.0,0.0,0.4041470736542152,0.0731020329920929,0.1245622142130065,0.913543397,-0.0811619042020718,-0.0388452509571052,-0.0219099922335029,21.27940596119757,5.39869896454963,4.799401822259049,0.0488481768099744,0.072007564497545,-0.7726059592037086,0.0007170480454874,-0.0008322513667877,-0.0010602048425685,-10.236366756526095,7.472744391478968,3.73560219523695,-2.181095965736356e-05
598,1724816387362427962,-2.1052374839782715,-1.171051025390625,0.1387766301631927,-0.0370874628424644,-0.0240292828530073,0.3770266771316528,-0.925147533416748,0.0,0.0,0.0,-0.0070601132892082,0.1133444129014337,0.0892559518791097,0.922390835,0.200655232811927,0.0572224844980181,0.0512256453231728,8.632961188848993,3.150593438757317,1.94146580168784,0.0506580383732491,0.0724906610809092,-0.7721267819334032,0.0037983494812436,0.0001917979921586,5.382832473355137e-05,-36.30452115871048,-2.874024736010143,-6.83984236884144,-3.544984402602763e-07
600,1724816387374142345,-2.1052327156066895,-1.171032428741455,0.1387815177440643,-0.0367116630077362,-0.0240256730467081,0.3771547079086303,-0.925110399723053,0.0,0.0,0.0,-0.2745581419679498,-0.0354485575747106,-0.035061865947454,0.934105218,-0.0583651080290169,-0.0254187022914792,-0.0241317144289199,-8.49899725050839,-1.5933565045460278,-2.2965279883527754,0.0499527770766555,0.0722074840627679,-0.7724248261840487,-0.0017956535303795,0.001482319292819,0.0005307983948235,24.91328004855346,-5.749615424376986,0.6803364282684452,3.3484911525598908e-06
602,1724816387383430834,-2.1052656173706055,-1.171019434928894,0.1387872844934463,-0.0365508012473583,-0.0240931529551744,0.3772150576114654,-0.9250905513763428,0.0,0.0,0.0,0.3085130844623839,-0.0376516869935914,0.054428109555083,0.943393707,-0.0370537435240956,3.859999407806514e-06,-0.0149988112897257,0.2405846625223122,1.43726075955175,0.4259052488562977,0.0495985519017588,0.0722144707016792,-0.7725645167780608,-0.0028509818722142,8.061295297068227e-05,-0.0003529792971574,32.43454683806983,4.3082858060812175,6.600733385330562,4.07036341041108e-06
604,1724816387396250632,-2.105289936065674,-1.17104172706604,0.1387655287981033,-0.0361198410391807,-0.0242406073957681,0.3773202300071716,-0.9250606298446656,0.0,0.0,0.0,0.1875102770092053,0.0980056851245009,0.0853697369571263,0.956213505,-0.070308699299964,-0.0045678100851611,-0.0194002448389886,24.10515044868398,0.6065074519348647,7.392286135630675,0.0486790269206852,0.0721681851917635,-0.7728163204167696,0.0085731094840184,0.0016018410269964,0.002991317966309,-73.6866467459966,-10.630143070814558,-29.209980053985444,-2.0203655550057712e-05
606,1724816387404426837,-2.1051652431488037,-1.171011209487915,0.1388144344091415,-0.0371421985328197,-0.0238387268036603,0.3770377933979034,-0.9251457452774048,0.0,0.0,0.0,-0.7499950098901615,-0.0995210279617139,-0.3183617890523555,0.96438971,0.2660059412849026,0.0054134079646722,0.0813788773750696,-1.0119094499462244,2.372391652027296,-0.2549286916332769,0.0509021520826258,0.0721792760214057,-0.7721478318348913,0.0064371312368791,0.0022954387258522,0.0027741532956788,-54.574001381681335,-19.150008623376948,-28.76291779350151,4.807684148962764e-05
608,1724816387412352021,-2.105181932449341,-1.171004056930542,0.138811782002449,-0.0369488559663295,-0.024060733616352,0.3770900666713714,-0.9251264333724976,0.0,0.0,0.0,-0.7209108860458324,-0.2128120399050239,-0.3879443697956142,0.972314894,-0.0657679611361844,0.033061700641652,-0.0172858008818165,-22.976584644988463,0.2377304200348917,-6.811557049891467,0.0503719784174167,0.0724478940173446,-0.77227170914474,-0.0032612446621982,9.054608162273324e-05,-0.0019905013985308,38.12767234967195,-1.341947103100927,12.693898544803062,-3.538783300256322e-06
610,1724816387423261401,-2.105234861373902,-1.1710152626037598,0.138765200972557,-0.0367553383111953,-0.0240631680935621,0.3771233856678009,-0.9251205325126648,0.0,0.0,0.0,0.2125007722074818,-0.0329314894847192,0.0730163605912603,0.983224274,-0.0328023417911714,-0.013164910570832,-0.0069290038216944,1.8891443319276255,-2.3352750966736333,0.495983019547048,0.0500081322740552,0.0723082509535137,-0.7723546734569926,-0.0035747971643047,-0.0012489514202158,-0.0030201535100671,51.04112120762585,14.022674628234688,25.284948753931783,-4.632500362964246e-05
612,1724816387436793177,-2.10526180267334,-1.171035885810852,0.1387453079223632,-0.0365570001304149,-0.0240517221391201,0.3771713078022003,-0.9251092076301576,0.0,0.0,0.0,0.3237863181600496,0.1154305444561471,0.1303553273142692,0.99675605,-0.0262494410292395,-0.0128402562121376,-0.0078269953011023,18.296602375695397,0.2894372266497473,3.1117940533368795,0.0496446564225033,0.0721399976177417,-0.772469479759802,0.0033498579215063,-0.000186439310795,0.0007775971971675,-34.108253730896735,-4.554649445606995,-18.45639458391237,-1.850373687341977e-05
614,1724816387442737068,-2.1052279472351074,-1.171033501625061,0.1387557983398437,-0.0369013585150241,-0.023876380175352,0.377129465341568,-0.9251170754432678,0.0,0.0,0.0,0.0105261083970686,0.0478409458001531,-0.038598127463521,1.002699941,0.1290094529768447,-0.0104268273109625,0.0189669518961382,14.292074805083466,2.18312697294931,2.5861660007612097,0.0504193780570094,0.0720724529978955,-0.7723596189303723,0.0047837025539934,0.0005960368250299,0.0011600025864932,-45.47024394760497,-9.47951530747469,-18.403642812782454,1.0797490727880826e-05
616,1724816387453437575,-2.105194330215454,-1.1710233688354492,0.1387565582990646,-0.0372654236853122,-0.0239988192915916,0.3770793974399566,-0.925119698047638,0.0,0.0,0.0,-0.3367016962954993,-0.0171526029970231,-0.0424841695401553,1.013400448,0.054078800050462,0.0471669567515136,0.0096223703766736,-7.093715127499671,-3.637058882122882,-1.7008588384664165,0.0510073498761278,0.0725712917268396,-0.7722308338075968,0.0004521460678006,-0.0005063861824226,-0.0012358981988702,-0.4980526849893727,4.471168568649366,5.0386854354807085,4.228662414468906e-07
618,1724816387462930642,-2.105212688446045,-1.171040415763855,0.1387338191270828,-0.0370889455080032,-0.0237482711672782,0.3771482408046722,-0.9251052141189576,0.0,0.0,0.0,-0.0723373420691292,0.1141015328240191,0.0508421063697303,1.022893515,-0.0140302376776976,-0.0633201408647407,-0.0134937275292921,-6.988100052260936,-2.440006549395464,-4.335255620409323,0.050862683945746,0.0719774936542503,-0.7723898115282727,-0.0021706772493814,5.399208737344452e-05,-0.0001112969385461,23.181109164385656,4.404890792437118,-6.836645132102737,-2.1468854311366975e-05
620,1724816387472436431,-2.1052355766296387,-1.1710222959518433,0.1387545019388198,-0.0367366336286067,-0.0239067301154136,0.377459168434143,-0.924988329410553,0.0,0.0,0.0,0.1035940308813571,0.0662954035157291,-0.1727969814845879,1.032399304,-0.0786823578591878,0.0010438324391614,-0.0727909080937823,-0.2786763106390524,3.1816442589469016,-1.3277354823866472,0.0500649361767113,0.0720223007374091,-0.7730821046521725,-0.0009169878722872,0.0016628145813157,-0.0002716781046574,8.080328929619853,-3.7935430288157783,-12.064633641337768,1.86673553631215e-05
622,1724816387485194411,-2.105221748352051,-1.1710052490234375,0.1387091279029846,-0.0368617996573448,-0.0237201694399118,0.3775016665458679,-0.9249708652496338,0.0,0.0,0.0,0.0281346058423847,0.0390547144633184,-0.1304556344520336,1.045157284,0.02944881848499,-0.0198252558823548,-0.0056523592875036,13.111181704032909,-4.676447665323984,-0.7078298356999739,0.0504345466819453,0.0717733193279107,-0.7731671223224622,-7.979202044339218e-05,0.0007457936488322,-0.0051460971323553,0.8860184208848585,10.120492154753848,17.62548438784436,-4.644548042878909e-05
624,1724816387492523011,-2.10522723197937,-1.1710022687911987,0.1386647224426269,-0.037257757037878,-0.0232976377010345,0.3776451647281647,-0.9249071478843688,0.0,0.0,0.0,0.0632573904798429,0.1648175569585183,0.0589425301557382,1.052485884,0.1450503546161541,-0.0668976862208376,-0.0359734718641126,9.981197502306042,-2.3287665630311674,-2.4019488766824604,0.051476905221142,0.0712971153651701,-0.7734561076795236,-3.141594886812982e-05,0.0014990140641941,-0.0050429188059899,5.555596288548852,8.376457374792336,3.3076205981711215,-4.457382500760759e-05
626,1724816387502922632,-2.1052169799804688,-1.1709705591201782,0.1386272758245468,-0.037978857755661,-0.0228360667824745,0.3778407275676727,-0.924809455871582,0.0,0.0,0.0,0.1322939665819765,0.1222978575321244,-0.239236640939291,1.062885505,0.1633631016466789,-0.0306934804871786,-0.0353423156429693,-1.1830843743012238,1.3951807276479886,0.1614478573793916,0.0531484720528452,0.0709975701621395,-0.7738408166035169,0.0014625459925099,0.0041286023622859,-0.0037678613536318,12.08418921633842,-11.410537818245114,-26.89055217538121,-3.993544203379194e-05
628,1724816387515810921,-2.1051905155181885,-1.1709001064300537,0.1385760456323623,-0.0384645760059356,-0.0223233252763748,0.3780553936958313,-0.9247141480445862,0.0,0.0,0.0,0.3750217938917663,-0.1417144296976968,-0.5573537642498192,1.075773794,0.101092281047584,-0.0460325454567798,-0.0316521786165908,19.821446116008552,-11.564144182536118,-0.4552788114872208,0.0544202649296061,0.0704270752405906,-0.7742811396808805,0.0029861179719432,0.0036195000341905,-0.0126307478711282,-30.084913922644205,-12.046377009543114,33.41446355153292,-5.690561441824621e-05
630,1724816387522478255,-2.1051673889160156,-1.1708823442459106,0.1384619772434234,-0.0392426513135433,-0.0214370656758546,0.3782140016555786,-0.9246375560760498,0.0,0.0,0.0,0.0057108203771996,-0.1929269224291286,-0.1341840662982204,1.082441128,0.3182799007976649,-0.1589157600907349,-0.0372455326951826,19.11989989220405,-8.117758037034813,0.0165481399346808,0.0565208690008667,0.0693829271381672,-0.7745885691047568,0.0063722772952985,0.0023220960634304,-0.0158973352064499,122.7834897962402,-49.28878909191454,122.2403535141857,-0.0001149589430771
632,1724816387533357978,-2.105046510696411,-1.170863151550293,0.1383105218410492,-0.0404990166425704,-0.0203937701880931,0.3783764541149139,-0.9245405793190002,0.0,0.0,0.0,4.504779998367129,-1.4678564299929429,2.239151294849274,1.093320851,0.2874263724927831,-0.0907727888923473,-0.0218779734033986,-22.928659080739575,7.317287760378248,-8.237705557076092,0.059627644221634,0.0684108332780154,-0.7748843043764178,-0.0024807172235341,0.0002526498318928,-0.0110413320004214,208.43115844752623,-75.62599505669222,-44.8530608045095,-0.0001517124194608
634,1724816387542704803,-2.1051788330078125,-1.170872926712036,0.1382304430007934,-0.040076371282339,-0.0205230247229337,0.3791325092315674,-0.9242462515830994,0.0,0.0,0.0,4.806042168105472,-1.8410125217983149,-0.2919156499022275,1.102667676,-0.0882269349416307,-0.0139159611477576,-0.1763645589836161,55.22745303389524,28.667283823720965,44.054465173845074,0.0586897400570086,0.0683784404634288,-0.7765412959937362,0.0823316809771625,-0.0237265158469526,0.0242837655774819,-417.0405711551241,106.22899509509227,-336.0126246608436,-7.98766667429255e-05
636,1724816387552352743,-2.103423595428467,-1.1713277101516724,0.1387918889522552,-0.0472311228513717,-0.0198854152113199,0.3753690719604492,-0.9254576563835144,0.0,0.0,0.0,-3.691730993724932,0.6393734359785077,-4.183238638413094,1.112315616,1.394848016886881,0.4662661527579571,0.8519986549323253,25.620692843054194,-58.69180860466236,42.93721572307891,0.072746240916849,0.0723274691943125,-0.768022572484828,0.0861972754402558,-0.0342736217452142,-0.0190775448158149,-424.44636381427995,183.90433565392547,-17.799961741158366,0.0006074099673394
638,1724816387562471681,-2.103567361831665,-1.17153799533844,0.1377787739038467,-0.046242207288742,-0.0131919421255588,0.3728335797786712,-0.926651418209076,0.0,0.0,0.0,-3.1435741349278867,1.7235789468519471,-0.2717309796306625,1.122434554,0.2946003375460628,-1.278734693076417,0.6109469539143367,-64.09350221820078,-47.060672608032014,-39.081296663249894,0.0760694301161517,0.0589641206039156,-0.7628082665997942,0.0054085657293541,-0.0094161863215447,-0.0581055739339273,234.0034500185825,19.786921388816403,295.2593036538889,-0.0009868971562209
640,1724816387574089432,-2.103242874145508,-1.171495795249939,0.1376641392707824,-0.0466898754239082,-0.0120661649852991,0.3731364905834198,-0.9265223145484924,0.0,0.0,0.0,1.973721867999034,0.7882111530184377,1.9407885562506992,1.134052305,0.1453854284903643,-0.1529730507095084,-0.0466291409994431,-8.240232754027138,41.27969908801097,-28.438182118270273,0.0777191166198361,0.0572337764548901,-0.763485973259318,0.0334504768040204,0.0008314594194871,-0.0134410658576769,112.67864851500292,6.902987282892639,50.89327931549941,-0.0001221835267079
642,1724816387584281598,-2.1028525829315186,-1.1715123653411863,0.1374951899051666,-0.0467323437333107,-0.0108073074370622,0.3735968172550201,-0.926350235939026,0.0,0.0,0.0,0.1911919896220175,1.640189168918761,1.211715811640806,1.144244471,0.1025615615801206,-0.2295742434742322,-0.084657846021885,6.970060047901459,6.0647539688261345,-1.123271194907146,0.0787058711708794,0.0549684907060629,-0.7645306972361933,0.0496327964636691,0.0080258168079154,-0.0106823329715357,-130.72256117787333,19.818354163974504,-41.21219720595545,-0.0001724170431471
644,1724816387592601455,-2.102362632751465,-1.1713800430297852,0.1374463438987732,-0.0475049242377281,-0.0101198814809322,0.3739180862903595,-0.9261890053749084,0.0,0.0,0.0,-0.5964235524730226,1.3719604755640369,1.0747574241585478,1.152564328,0.2364240196039857,-0.0868848505073335,-0.0762917754910689,-2.635183667860028,16.425694896378886,-11.109715460308283,0.0806351282597802,0.0542984242258388,-0.7652219043451636,0.0417389675213115,0.0280173691384959,0.0057900621508411,-75.84838554966892,-140.57739872219508,-212.83089500095065,-6.948232280321357e-05
646,1724816387603421851,-2.1021523475646973,-1.1709064245224,0.1376730948686599,-0.0473693162202835,-0.0107307629659771,0.3757325112819671,-0.925454556941986,0.0,0.0,0.0,-1.1523092712037415,-1.6737237654134889,-3.9915585103346025,1.163384724,-0.0555925323994545,0.0806484039957209,-0.366995116731675,-0.368339535563404,-5.943684423845237,2.903956218387248,0.0798199485826154,0.0554865184266802,-0.7691161798087134,0.0402441499185357,0.0283550478451246,0.0046819197157041,-5.713481837724345,-178.0655774182922,-300.4293957552784,0.0001770281006234
648,1724816387612435993,-2.101633310317993,-1.1707665920257568,0.1375930905342102,-0.0477250292897224,-0.0099588232114911,0.3762567937374115,-0.9252318143844604,0.0,0.0,0.0,-0.8609289052263207,-2.502279523595224,-5.439670686579606,1.172398866,0.1409820828176869,-0.1338312403845195,-0.1172619373111323,-1.7604980467242903,-50.86543154502209,41.37044117933698,0.0810275133294448,0.0543689548026599,-0.7702683521035772,0.0222413219746755,0.0004648407756278,-0.0605037361947227,135.1732417111902,61.39727848658913,191.43633292264028,-0.0001020965482884
650,1724816387625447374,-2.1020076274871826,-1.1710431575775146,0.1358362138271331,-0.042620874941349,-0.0026926582213491,0.3725435137748718,-0.9270316958427428,0.0,0.0,0.0,2.8294745363645424,1.1760096992696056,3.663749547154774,1.185410247,-0.3245560699025325,-1.3040995530877524,0.6776850128111083,85.6314748062205,23.22217675178596,17.114330560835043,0.0771440891718821,0.0367568963501936,-0.7628112748179113,0.0323794852504022,-0.0209791338616156,-0.0976289657789308,-3.9135947860829106,194.76285987143504,432.6590965241312,-0.0017180405989346
652,1724816387633531272,-2.1014387607574463,-1.1712113618850708,0.1352348178625106,-0.0454641655087471,0.0009351673070341,0.3704136610031128,-0.927753210067749,0.0,0.0,0.0,1.353660965063781,2.308801104276968,5.820362053968884,1.193494145,0.9774633012554756,-0.5480094864429016,0.5951370438859531,47.275061186847566,80.53542138823884,-49.8465695529691,0.0851983159151823,0.0319513232102056,-0.7583726222756916,0.0655502502541196,0.0027116125827291,-0.0352798896292458,-40.22769617427724,200.19297510103735,433.568650125231,-0.0006049828863458
654,1724816387642872363,-2.1008784770965576,-1.1709321737289429,0.1353274583816528,-0.0464031510055065,0.0009246316039934,0.3716912567615509,-0.9271955490112304,0.0,0.0,0.0,2.514219767673443,4.827136636160915,11.670662747158133,1.202835236,0.190856307743388,0.0640142048496137,-0.2982983347638957,-55.87212984347664,27.350925423968835,-38.22403388722061,0.0868928895769838,0.0327865361179098,-0.7610987303973378,0.0485157237434066,0.0175666605640785,-0.0013374048245617,117.76301086132798,116.18014957221384,279.2887371272669,4.8121452493423504e-05
656,1724816387653615781,-2.100498914718628,-1.1708956956863403,0.1351740211248397,-0.0458808429539203,0.0013730723876506,0.3717170059680938,-0.9272106289863586,0.0,0.0,0.0,3.69933695286607,4.179641548163406,10.383446528427625,1.213578654,-0.0592593063168461,-0.1137646390768219,0.000562679985601,44.8954327166481,272.44671314370936,-170.1584086931599,0.0862530286307712,0.031568367567625,-0.7611983947350455,0.129126453687661,0.1094219481709615,0.2233525888637597,-406.32176005414726,-547.9994371806131,-1247.1787619713784,-0.0001697701944479
658,1724816387662444584,-2.0986783504486084,-1.1691603660583496,0.1388700902462005,-0.0564912669360637,-0.0158195495605468,0.3827456533908844,-0.921989381313324,0.0,0.0,0.0,-3.636373585039816,-4.197215443998462,-8.807125018529415,1.222407457,0.8317594247443196,4.388382899425621,-2.938130238936151,24.251007057900345,90.14191832204028,-61.33636403498782,0.0924328598743121,0.0724779255321124,-0.7836090888118048,0.1341881509020339,0.1146151268484274,0.2386211952434056,-516.5439686354673,-586.5617935789572,-1333.5155299193991,0.0034432273381965
660,1724816387673005159,-2.0981709957122803,-1.1689850091934204,0.1391160935163498,-0.0571349449455738,-0.0158071815967559,0.3835040330886841,-0.9216346740722656,0.0,0.0,0.0,-5.120621655525914,-5.815712808584463,-12.2774314877374,1.232968032,0.119355842042561,0.0374470723178864,-0.1560709156461326,-37.73404399678034,-236.5541377200477,150.7355534378806,0.0935763933712449,0.0730247417624529,-0.7852176280834096,0.0426090061724551,0.0098404754288026,0.0125150365672377,-92.90749740206506,-499.82565403648186,-1052.3356709249456,0.0002162293869249
662,1724816387686041025,-2.097702980041504,-1.1689655780792236,0.1391057819128036,-0.0572120659053325,-0.0142042180523276,0.3836253881454468,-0.9216054677963256,0.0,0.0,0.0,-5.565181721844571,-17.908103739220852,-37.64126029990713,1.246003898,0.1057708502345101,-0.22311406550132,-0.0046397307128733,2.0440372400350375,-7.653875290694184,6.320643950179246,0.0949312623301571,0.0701348555848242,-0.7855524102841377,0.0330004108822663,9.205019534874737e-05,-0.000570177960812,198.3004856555807,157.81443972027853,358.5011045674018,-2.0791514644135577e-05
664,1724816387700579642,-2.0972702503204346,-1.1689869165420532,0.1391010731458664,-0.0580802746117115,-0.0127858510240912,0.3836906254291534,-0.9215447306632996,0.0,0.0,0.0,1.0861606317471093,1.9862636049407456,4.932485501504175,1.260542515,0.1855292060018712,-0.134397589933393,0.001383431460865,-516.1777085536894,-4668.7830089905865,3627.127993426367,0.0976169712024113,0.0681880099905079,-0.7857205647025483,-0.1261952362863212,-0.5385142591095473,-1.1418841305170062,2035.6334052942616,4900.90798096961,10761.16313104516,-1.1271034370714258e-05
666,1724816387703592340,-2.097747802734375,-1.1709445714950562,0.1349482536315918,-0.0460561029613018,0.0111588044092059,0.3666369915008545,-0.9291564226150512,0.0,0.0,0.0,8.204129352676567,18.95654929807545,42.24260421319312,1.263555213,-1.695229052352959,-17.118526450755667,13.192954771081958,-465.5625910912438,-4075.19136001692,3159.15103787614,0.0939150710605957,0.0130355616656513,-0.7510574009230608,-0.1154089726266676,-0.5081623243876052,-1.0749363718252618,1923.2009472373577,4523.933976808726,9939.622596582483,-0.0039566064211333
668,1724816387714456403,-2.0973129272460938,-1.1709163188934326,0.1351603269577026,-0.0430023148655891,0.010960167273879,0.3680368065834045,-0.9287516474723816,0.0,0.0,0.0,11.88146691155077,24.658344813481943,54.45313716648698,1.274419276,-0.5352053722813905,-0.184839418595024,-0.262171628286169,188.35926008022585,871.4620607612942,-674.4431350478243,0.0880638230136844,0.011294562587592,-0.754076565825565,0.154869327274838,0.0457464687334265,0.1683385476149972,-845.7881115917784,-1397.238227771333,-3230.773262017585,0.0001865907499492
670,1724816387723475465,-2.0950562953948975,-1.1701806783676147,0.1377928406000137,-0.0547308810055255,0.002898464910686,0.3762922585010528,-0.9248785376548768,0.0,0.0,0.0,-4.613873924212529,-2.3347147270626945,-7.290829630015086,1.283438338,1.7744624630635917,2.529400486436696,-2.1217129781516557,76.30136276272123,130.54536847037153,-78.25314871275879,0.1036722266896331,0.0358358272785673,-0.7709457742418774,0.164717423627934,0.0710205384659019,0.2103155398642675,-1018.2678892918884,-1799.958114352688,-3982.189859724855,0.0024387788480699
672,1724816387734386993,-2.0943875312805176,-1.1695449352264404,0.1390109211206436,-0.0594255290925502,-0.0056065106764435,0.3822469413280487,-0.9221304059028624,0.0,0.0,0.0,-5.022951810746463,-6.227009041687193,-12.937970426560211,1.294349866,0.2336558212622668,1.7043916699230317,-1.286813566059122,-47.217607480097215,-272.7566958482556,187.02203731206075,0.1056707376726085,0.0557992726085562,-0.7829796476787851,0.0390503105399773,-0.0222688872103304,-0.0269266488193338,380.97197049418503,251.3213517777452,736.9240504110356,0.0011135336746017
674,1724816387742534645,-2.0942046642303467,-1.1702163219451904,0.1379485577344894,-0.0583507530391216,0.0017204468604177,0.3792439699172973,-0.9234535098075868,0.0,0.0,0.0,0.6269428267549868,-0.480127083754187,0.6982103879065091,1.302497518,0.4207742521268141,-1.717354893843932,0.9092843561308828,2.1628577037195633,-174.79685735830458,111.88670252564168,0.1093835020811338,0.0410924007720434,-0.7771087480048559,0.0376334092867693,-0.0588739405203924,-0.0787761372771003,430.41354994751975,566.2571461822299,1199.5365853523406,-0.000992319093302
676,1724816387752507949,-2.0936439037323,-1.1705162525177002,0.1377929896116256,-0.0583328530192375,0.0042592738755047,0.3789140880107879,-0.9235817790031432,0.0,0.0,0.0,1.7085725316517286,3.4693740936235895,6.873767095310903,1.312470822,0.1883804885693234,-0.4676098621851394,0.1005582879110916,-29.972606186541555,89.30297843465608,-53.86008367603652,0.1112809958687552,0.0363467064271059,-0.7766250243901173,0.0536628519994906,-0.0146766315319908,0.0143997646815154,122.6538519316785,130.2363435972276,213.05177725568217,-0.0001523552291698
678,1724816387763540617,-2.093083143234253,-1.170490264892578,0.1383179724216461,-0.0573602579534053,0.0033413155470043,0.3797157406806946,-0.92331725358963,0.0,0.0,0.0,3.2350930343945827,1.6626115007995692,4.267330933673817,1.32350349,-0.2237142203924692,0.0782023423824993,-0.1613442522390645,15.402506304901348,56.17932393356183,-28.731962465433327,0.1087510662896224,0.0373997152087693,-0.7783008058485961,0.0737497459008125,0.0118567506608542,0.0601055834576431,-32.43513886960257,-185.0946565183232,-298.5628056038359,0.0004909423462208
680,1724816387772513079,-2.092254161834717,-1.1703145503997805,0.1389486342668533,-0.0596822649240493,0.0011195363476872,0.3814332485198974,-0.9224671125411988,0.0,0.0,0.0,1.6977557370060596,-0.1537866964315181,1.133771745160954,1.332475952,0.2994340101619607,0.6312096686336289,-0.4555755031292566,25.630199144171144,25.36781683486789,-0.4698282352467284,0.1112985114086827,0.0434778260031501,-0.7817446462843743,0.1130974705275065,0.0213574026803513,0.0993029573584003,-329.615499829824,-187.6239856218271,-550.6858731999298,0.000567514207534
682,1724816387783204454,-2.0907812118530273,-1.170063614845276,0.1403799504041671,-0.0613554678857326,-0.0007473182049579,0.3815313279628753,-0.9223171472549438,0.0,0.0,0.0,-3.8426585324979143,-1.9709766730766916,-7.320132026269461,1.343167327,0.157179927310025,0.440412140614774,-0.048818440356495,-7.570923785630916,-40.03447561372035,26.07639602667574,0.1129793649590086,0.0482152740084908,-0.7817363853126436,0.0970094806412902,0.0042644873833737,0.0702137536990425,-207.25760251561763,-48.337242491767384,-239.11323842340724,0.0013250644302152
684,1724816387793485250,-2.090186834335327,-1.1702096462249756,0.1404724419116974,-0.0616270899772644,0.000454633438494,0.3811130225658417,-0.92247211933136,0.0,0.0,0.0,-2.8993270585387596,-1.265483756964974,-4.325212370134302,1.353448123,0.1360367286288372,-0.1905297534822427,0.1009428134124084,-8.227606390608127,-67.58190416549894,10.4126726573794,0.1144161154912255,0.0461513813343654,-0.7809265909856612,0.0343914974615415,-0.0196784752683782,-0.0505118527568804,246.2695525981808,108.12735991632802,642.6028234747498,7.992317053134019e-05
686,1724816387802815380,-2.090064287185669,-1.170439600944519,0.1394972801208496,-0.0601031146943569,0.0042736856266856,0.380659818649292,-0.9227499961853028,0.0,0.0,0.0,0.7067180711503604,0.0778617482932466,4.644865310305504,1.362778253,0.0070196478549567,-0.8736684315459209,0.1629174273131712,-6.106632642970701,-23.05142765994867,20.560054342169853,0.1145059620505316,0.0378796527558175,-0.780347006517,0.0343635501183854,-0.0224812482689955,-0.0280589448209784,860.0560056391706,159.55292962599754,1208.9599988341663,-0.0009498964077536
688,1724816387813156402,-2.089465618133545,-1.1706472635269165,0.140083447098732,-0.0591882281005382,0.0070659765042364,0.3782703280448913,-0.9237740635871888,0.0,0.0,0.0,15.02827200431759,1.90629844288217,19.984030198455,1.373119275,0.0323688759678099,-0.537056122983275,0.535045583336278,1.9243519302632397,28.43072335387312,28.232782718659397,0.1150099347665866,0.0317288926940031,-0.7754834891978315,0.0498060762720253,-0.0173406510522786,0.045628663147211,-2042.994596370947,-12452.8746376836,-11409.237405605494,0.0005689770691531
690,1724816387864227717,-2.088961601257324,-1.1708415746688845,0.1396254003047943,-0.0579294152557849,0.0100096724927425,0.3779504895210266,-0.9239574670791626,0.0,0.0,0.0,-953.9224642544395,-3819.619831513026,-3814.5475777072024,1.42419059,-0.0022690297236119,-0.124345925015975,0.0214586808100119,125083.71689570662,166378.3815316646,-101760.91127671748,0.1149043088913737,0.0252945756460225,-0.7751229762198774,4.231190779673852,0.4354517969159133,4.3094359481586935,-11957395.669525797,719686.6761252321,-10441079.318545751,-0.0004669434007703
692,1724816387864412379,-2.088177442550659,-1.1707608699798584,0.1404240727424621,-0.0609955042600631,0.0080978097394108,0.3793689310550689,-0.923197329044342,0.0,0.0,0.0,-3169.9702870988503,-3686.190557665097,-5749.539489963518,1.424375252,23.179458506673384,30.710503358954085,-18.837853239701243,37452.57072618464,43270.53701646345,-16853.194148237013,0.1191056200044572,0.0313329724884777,-0.777917014071515,4.0543459539781,-0.2724431006249688,3.602431265519357,-8938406.214237401,3420721.8463910753,-5896549.590533134,0.0007360165042388
694,1724816387864655742,-2.087252378463745,-1.171054720878601,0.141069009900093,-0.0615175887942314,0.0081414673477411,0.3788577318191528,-0.9233721494674684,0.0,0.0,0.0,-4363.140471911064,-1988.3477801556403,-5714.980308254392,1.424618615,4.043554048659368,1.5643674834866257,4.410648971820026,-51511.40355540306,-86507.41816931727,62016.278700316216,0.120124623815463,0.0315828701785923,-0.776805233767264,2.573353754198024,-1.122291756534878,1.587127998363087,1990195.4284760184,6535454.350125389,6145220.86280701,0.0006145127103338
696,1724816387865085537,-2.087078332901001,-1.171472430229187,0.1409443020820617,-0.0611569955945014,0.0104767652228474,0.3778728246688843,-0.923776149749756,0.0,0.0,0.0,1724.3684425038891,485.71893102302465,1482.9213218499572,1.42504841,2.4893235348604765,-10.372778986098275,5.626366593958212,-9800.633471985326,788.6379974898518,-3061.4587051870258,0.1212490339737928,0.0268659934483316,-0.774940707462037,2.005468902750181,-0.83545413892125,1.0786298292073295,9325273.035658477,1745272.392375849,9710937.157917855,-9.1270742712506e-05
698,1724816387865321597,-2.086397409439087,-1.1716519594192505,0.1413763910531997,-0.0607944279909133,0.0111856255680322,0.3774688243865967,-0.9239568710327148,0.0,0.0,0.0,3298.3680804321043,377.6537313981498,2862.99901352924,1.42528447,-0.626044213624751,-6.483367846734242,4.1400134847641725,-12850.513616522234,16043.465967715418,-6132.188990755777,0.1211216931738897,0.0252286075018073,-0.7741552675798119,2.8074031747535377,-0.7443485890433585,1.7743489207158474,6480034.851204444,-446648.6844433378,5681887.0846282,0.000402113273058
700,1724816387873977169,-2.0865774154663086,-1.1729612350463867,0.1389389485120773,-0.0453308299183845,0.0291529521346092,0.3658926784992218,-0.9290951490402222,0.0,0.0,0.0,-203.04416643532096,46.648270079756045,-137.29114872713936,1.433940042,-1.7765398502728746,-5.008755284823063,3.2119616475254205,-44.00251320933583,222.2869434642619,-138.54606392662367,0.1057874963285684,-0.0210008389130207,-0.751440178644681,0.0019203794088156,-0.1061165324025772,-0.1719387684771587,-251709.2524561086,-25386.39511268627,-216492.91167887737,-0.002325206681392
702,1724816387889004782,-2.085955858230591,-1.1733779907226562,0.139216348528862,-0.0435767658054828,0.0311248023062944,0.3638406693935394,-0.9299206137657166,0.0,0.0,0.0,1.4738480525128033,0.559138421859565,4.721013639692469,1.448967655,-0.117890152657342,-0.3136561523488802,0.312633145021149,-13.853432531196638,-152.14735531131743,206.82638477985876,0.1039172792144141,-0.0261801818019871,-0.7472600299281803,0.1097105171368753,-0.1118542444862384,0.0496149649786232,2393.1564674963984,-103.07573327604008,1656.1508241608062,0.0002444564928902
704,1724816387893040863,-2.085438966751098,-1.1739206314086914,0.1394503712654113,-0.0418472401797771,0.0337231047451496,0.361016035079956,-0.9310097098350524,0.0,0.0,0.0,-1.025687403501384,3.3559735312353385,2.956743042502997,1.453003736,-0.3084658273682206,-1.4313391789011642,1.5807412574254989,-29.734352263129463,-174.845276308005,197.3241473573247,0.1025032555355289,-0.0325837918844337,-0.7415066968789646,0.1094814113444684,-0.108577525967572,0.0578053957086659,-88.74790245350147,365.8364805550236,-19.13133434942148,0.0002136656265037
706,1724816387903853928,-2.0847935676574707,-1.1743452548980713,0.1400702893733978,-0.0404534004628658,0.0353927537798881,0.3594646453857422,-0.9316094517707824,0.0,0.0,0.0,13.38432164159764,-2.164692388751557,14.858842277458136,1.463816801,-0.1234965485870396,-0.3648385382367925,0.3288152122831931,24.685369394726017,109.02341233076814,-113.50739273008168,0.1010589211943921,-0.036869666086267,-0.7383685598081409,0.0703215821544702,0.0014120820274357,0.1166441278890513,-13.20754928973588,36.51923120192072,-97.63903046808592,0.0005762062295616
708,1724816387924375379,-2.0829362869262695,-1.172731876373291,0.1447740495204925,-0.0560108087956905,0.0153153873980045,0.3763743042945862,-0.9246463179588318,0.0,0.0,0.0,-39.30294311003093,19.891312353152557,-33.81641432856338,1.484338252,0.6782686377763787,2.277237108958328,-1.912049567766738,-5363.453814313558,-6115.158967670721,5480.660063245388,0.1153758398378426,0.0138398670704427,-0.7723336202421601,1.0073039412734488,-0.5234770964755171,0.7883427284340883,-8182.959607760778,4340.19994431367,-5950.820962905491,0.0043926159701628
710,1724816387925353985,-2.0819077491760254,-1.1732722520828247,0.145571619272232,-0.0530643910169601,0.0163379404693841,0.37483811378479,-0.9254263043403624,0.0,0.0,0.0,-47.572895355239595,24.29104473235326,-39.80693911545746,1.485316858,-4.822557729527417,-3.998477032601535,3.71221775577934,-5070.960613532977,-5794.349766484842,5190.181065377257,0.110693478030946,0.0095421375427189,-0.7691651513606172,0.9648769613565876,-0.5018894525251127,0.7521442050318363,-7631.736971200712,4044.001590364264,-5517.595553934926,0.000767087916561
712,1724816387935219101,-2.080956220626831,-1.173221230506897,0.14674012362957,-0.0531217716634273,0.0143357533961534,0.3769589066505432,-0.9245942831039428,0.0,0.0,0.0,-41.41181579577637,19.243353329823208,-34.18270905900215,1.495181974,-0.1394597192243997,0.3544312994886717,-0.4828515131992263,195.7257673015904,124.59167085720888,-133.4273715291382,0.1092674502319281,0.0135403524098505,-0.773516158881963,0.0760540186084028,-0.0403412073686837,0.079293435605912,2998.553494502133,-1910.6887178056936,1988.7987950490665,0.0010936359398091
714,1724816387943164545,-2.080482482910156,-1.1738330125808716,0.1471195816993713,-0.0507238693535327,0.016355587169528,0.3759301006793976,-0.9251141548156738,0.0,0.0,0.0,-2.3948418757419714,-4.89068703276556,-9.302188041583705,1.503127418,-0.3696609614297655,-0.6819839505842425,0.3244302712566164,4.6741227481543,-72.53509090401386,42.76932198974853,0.1063515169170937,0.0078757696432629,-0.7715363307432164,0.0585746802855453,-0.0636978644911963,0.0254166668480939,2782.9087614083624,-1624.187705017566,1940.6337461255296,0.0003947923721504
716,1724816387952868859,-2.0799264907836914,-1.1742935180664062,0.1471014320850372,-0.0497786067426204,0.0196418929845094,0.3759049475193023,-0.925111711025238,0.0,0.0,0.0,-0.6072858773254142,-3.901337567500956,-4.583511281445865,1.512831732,0.0744989924533725,-0.6995496639952291,0.0421473010670704,-21.97323128468551,-168.57992997404637,147.65741771388917,0.1070730512929436,0.0010821588682027,-0.7718526138441733,0.0330240587484809,-0.1342836254897292,-0.094739094300162,340.88823538993825,557.8723881144526,1148.4635201872588,-2.344594951774253e-05
718,1724816387962885488,-2.0798466205596924,-1.1765363216400146,0.1451922953128814,-0.0377693362534046,0.0379306152462959,0.3613627851009369,-0.9308876395225524,0.0,0.0,0.0,4.427241274685642,6.400448283545758,13.766893097595638,1.522848361,-0.8459887380650204,-4.112384831946688,3.3485510493769057,-6.380698787321733,12.363790744079427,9.510659380886592,0.0979799737567997,-0.0433349787044308,-0.7426960478979632,0.0478840581656072,-0.1384955782267738,-0.0600251429559461,168.2944470302014,521.42204676137,803.8529915151141,-0.0018097903808205
720,1724816387973453672,-2.078895568847656,-1.177047610282898,0.1460138261318206,-0.037906028330326,0.0382026359438896,0.361980676651001,-0.93063086271286,0.0,0.0,0.0,2.4780757508761213,6.257310521262346,10.798274130620191,1.533416545,0.0400834059536205,-0.0448331201579856,-0.1254497391418477,47.738590417323536,304.4751948511868,-234.033813268854,0.0984630431539929,-0.0436764896721408,-0.7440631952691468,0.1274946292978853,0.0051998148811094,0.200326107100647,-416.4250115835267,-391.2577810344207,-1021.8701563448352,0.0007449802773437
722,1724816387984092765,-2.0771374702453613,-1.176418423652649,0.149458110332489,-0.0435184016823768,0.0266350824385881,0.3693630397319793,-0.927883505821228,0.0,0.0,0.0,-4.437009727339775,-1.95081014666036,-8.009625590824609,1.544055638,0.1612792873263729,2.333262931807822,-1.6011952327852153,-34.39803015003591,-113.93131528801028,37.37806607134613,0.1006207469248361,-0.017281189210658,-0.7585540683069101,0.0997180068449949,-0.0068394500998465,0.1670079133267545,-188.5059213269299,-282.64522947117194,-661.4499082224537,0.0032444982504912
724,1724816387992363393,-2.0767340660095215,-1.1768991947174072,0.1498316824436187,-0.0407439284026622,0.0289560593664646,0.3701602220535278,-0.9276222586631776,0.0,0.0,0.0,-3.0291252938878888,-1.1453704002143497,-6.366965785873049,1.552326266,-0.4176149280202792,-0.7786674804122541,-0.1599113975248833,-11.083608303750488,-124.19224832585286,60.18942066457414,0.097206659443385,-0.0235591865160433,-0.7605065730218251,0.0512797125380899,-0.0282408874716253,0.0694008525773979,225.9507525352344,17.927951690777547,293.2148423319958,0.000363901425847
726,1724816388003014747,-2.076153516769409,-1.1767899990081787,0.1509032994508743,-0.0449287705123424,0.0225564558058977,0.3751610815525055,-0.9255954027175904,0.0,0.0,0.0,0.141939612705825,-2.0443636103120415,-1.9461505718499683,1.56297762,0.2724256284956962,1.3562655736565004,-1.0836352930213866,15.541093787941184,19.745511115791665,11.051160598547314,0.1002674984309068,-0.008045338106723,-0.7705697292246748,0.05780185624414,-0.0206564248049829,0.0761336776167569,98.4235950337262,-64.18753277625902,129.63662780977373,0.001015153805535
728,1724816388013419238,-2.0755186080932617,-1.177319049835205,0.1514466851949691,-0.0440700948238372,0.0237556658685207,0.3751119971275329,-0.9256266355514526,0.0,0.0,0.0,-0.859478358084282,-2.5067577843833004,-3.498075364935905,1.573382111,-0.0663531561065081,-0.2747304439894212,0.0250655944150235,-37.95357309525974,-120.97469783157044,84.58970846400018,0.0995773809672459,-0.0109155283410391,-0.7705954586612273,0.0544979236702687,-0.0699415408218442,0.0296812105362604,830.167889663172,213.15969183436383,1037.0344900514865,0.0005254820376973
730,1724816388022429291,-2.07507848739624,-1.178098201751709,0.1515382081270218,-0.0402908734977245,0.0276429411023855,0.3728010952472687,-0.9266238808631896,0.0,0.0,0.0,13.848744445703556,1.4237582235132544,15.100937649421136,1.582392164,-0.4503938050670571,-1.0855130073049262,0.6158013765866355,-32.40930748374948,-69.10214177226949,50.89669938626798,0.0954458545182608,-0.0211898408925606,-0.7660248694515811,0.0425255712103247,-0.0751268117292243,0.0057051082424741,6601.756424870502,-1734.5756572431842,9022.79582810058,9.743687754214308e-05
732,1724816388061657855,-2.0744900703430176,-1.1791069507598877,0.1510014981031417,-0.038969449698925,0.0320622697472572,0.3710155785083771,-0.9272544980049132,0.0,0.0,0.0,1121.567915204716,-437.3870378936575,1557.5432425351446,1.621620728,0.0227903590314979,-0.2293385787783399,0.1072781487831719,-24907.92875918,-14329.907421951544,-7382.575082996629,0.0962537960597645,-0.0305479727279683,-0.7626957847574242,3.1780505941296724,0.3221900369730974,3.631766233545477,-2804379.9406052744,-304210.64503866085,-2971747.4853846654,-0.0005370764482302
734,1724816388062000569,-2.0733914375305176,-1.1789954900741575,0.1522570699453354,-0.0372887030243873,0.0323234871029853,0.3714852631092071,-0.9271264672279358,0.0,0.0,0.0,151.98660619808015,-542.5216198397233,530.0684437772252,1.621963442,-8.588117620314723,-5.183368497167154,-2.4448987884355997,-17280.11324562235,1861.540924401893,-2210.6099200851727,0.0933419974127141,-0.0322370968429761,-0.7636985460876925,3.565546353728678,0.1709514856220266,4.169944740630655,-3119586.950349034,-176962.79159312206,-3415775.403012555,0.001148142107539
736,1724816388062325762,-2.072120904922486,-1.1789875030517578,0.1537693440914154,-0.035547561943531,0.0315332375466823,0.3717771172523498,-0.9271051287651062,0.0,0.0,0.0,-952.107915311052,-560.014175505459,-709.6134114689822,1.622288635,-11.78661351020839,0.4568390514759532,-1.5480053685341617,-7204.091806369838,14564.661482499065,2427.439805110188,0.0895247589603661,-0.0320431955005555,-0.7641865844950874,3.3129818143043224,-0.0367074983786466,4.021324132211456,-2900538.355601692,-2659.6852242349887,-3286472.994779261,0.0013972363908801
738,1724816388063980121,-2.0716395378112793,-1.1795638799667358,0.1551276892423629,-0.0347183421254158,0.030156522989273,0.3720243275165558,-0.927083134651184,0.0,0.0,0.0,-1587.4659166744282,-134.0780558890346,-1722.4618587345035,1.623942994,-1.5566372456515112,1.158869272840397,-0.3145117505986181,5332.658742940307,359.75320704224004,639.5111483742551,0.0869603669075254,-0.0300876112976186,-0.7645360161918435,0.2612447435712894,-0.3020143059617446,0.7215043484144767,-307830.3283697712,223214.5517892759,-502310.6940015665,0.001337420213718
740,1724816388074057774,-2.070831537246704,-1.1797599792480469,0.1562865227460861,-0.0360434204339981,0.026157459244132,0.3736729323863983,-0.926490843296051,0.0,0.0,0.0,-10.587099729460562,12.934237786252677,-36.75323657770908,1.634020647,-0.0572442939353752,0.8187080153293844,-0.3825377161492868,82.64855528278086,-51.129933021338026,10.74656541850868,0.0864641835080896,-0.0215340559744478,-0.7676631661335227,0.0524136204549421,-0.0392777762661538,0.0706721619097914,89065.65829197988,7792.406036495029,95918.37806994074,0.001102572091538
742,1724816388087228093,-2.0706191062927246,-1.180618405342102,0.1564544886350631,-0.0350014567375183,0.0268463995307683,0.3733605742454529,-0.9266370534896852,0.0,0.0,0.0,2.2189643023854195,-1.4026825160076817,-1.620433232252683,1.647190966,-0.1070636036725428,-0.1537650764676142,0.0601532334250453,-6.57855114962314,-32.213804613941434,-0.6025734692606406,0.0850402218714112,-0.023619605254383,-0.7670471955752602,0.0874241983902948,-0.0950441346717241,0.0656062475080645,93.7242530258,93.8282019841823,734.6835961633226,0.0001896659266255
744,1724816388092498084,-2.0700080394744873,-1.1811822652816772,0.1569116860628128,-0.0344101190567016,0.0272753965109586,0.3734296858310699,-0.926618754863739,0.0,0.0,0.0,0.8601105510907532,1.5851810369646246,-1.8246249641048309,1.652460957,-0.1476282467925515,-0.2357563541035478,-0.0151736633591433,-15.893380195860855,-39.80396096378732,7.432939792178544,0.0842666891984695,-0.0248508257576356,-0.7672318905784149,0.0981916876242934,-0.0964652239392336,0.0544606231102431,-221.46113132495557,448.91126884413904,61.71403093932422,0.0004333133629916
746,1724816388102483165,-2.069363594055176,-1.1819462776184082,0.1568445116281509,-0.0301752537488937,0.0315467566251754,0.3714978396892547,-0.9274069666862488,0.0,0.0,0.0,-0.6628116964225876,3.834295351252904,0.6921790344804264,1.662446038,-0.4613850495857882,-1.091903604249012,0.4700837580126816,-1.411023715065733,33.67744355422372,-14.143441019832355,0.0795442158922676,-0.0361011217816705,-0.7634440504955122,0.0843979040376297,-0.0455457777567218,0.0417336792591811,-79.2247760074943,-21.697866092508733,128.16741457904254,-9.42219797181966e-05
748,1724816388112670740,-2.0682973861694336,-1.1820883750915527,0.1577733904123306,-0.0303855519741773,0.0288600847125053,0.3729873895645141,-0.9268895387649536,0.0,0.0,0.0,-0.7080790228535938,1.046453464119696,0.7101698794716618,1.672633613,-0.1638147882837673,0.492461231889259,-0.3261517132653851,18.32558183843577,68.9514691929052,-33.69212500795593,0.0779730173554322,-0.0308382534129576,-0.7663633075916193,0.0851150018973214,-0.0196349126250225,0.0692283095108106,48.478394540227086,-374.70002903848257,-55.252630583083686,0.0008493511572574
750,1724816388126191401,-2.0674972534179688,-1.1824558973312378,0.1583155393600464,-0.0293602924793958,0.0293888729065656,0.3729337751865387,-0.9269276261329652,0.0,0.0,0.0,0.897021955795045,-5.832983294081335,-1.060037378338927,1.686154274,-0.1113378942504991,-0.1286636505043445,0.016205910505187,1.4167789214691728,-19.559732930929034,12.177708549836606,0.0764649939320868,-0.0325895954621636,-0.7662791135004084,0.0615722815500845,-0.0323473601099806,0.0431451132974256,131.3471050281234,-121.0365625459983,-20.365365580808284,0.0004911102884896
752,1724816388138524470,-2.066710948944092,-1.1829129457473757,0.1588819324970245,-0.0284937378019094,0.0295306295156478,0.3728629648685455,-0.9269786477088928,0.0,0.0,0.0,2.6590469594265933,-2.963374960395601,-0.0674199715526659,1.698487343,-0.1215893003907185,-0.073134618182791,0.0185343631299819,60.979062956922554,-299.7017487983541,230.4858358689231,0.0749601443738579,-0.033506275980989,-0.7661193194704917,0.1023152108487011,-0.1593284600427296,0.0398487777105494,-398.80698486928793,639.85032070807,-691.260967986209,0.000518807873298
754,1724816388142697166,-2.0662295818328857,-1.1837503910064695,0.159039631485939,-0.0274748969823122,0.0331697762012481,0.3704250454902649,-0.9278632998466492,0.0,0.0,0.0,0.2302262476237768,0.2813603559423852,-4.041364486024647,1.702660039,0.2201193595188991,-1.7531636678440097,1.3054069262290724,46.29914255241919,-236.30102388163385,180.9785613099509,0.0756962054273461,-0.0412109201082219,-0.7612348002370339,0.1125007165965499,-0.1613418018606225,0.0398496046143428,-611.4136103338446,593.9394155943248,-776.521697659214,0.0001398043416718
756,1724816388152725903,-2.0651702880859375,-1.184419870376587,0.1594888418912887,-0.0264479052275419,0.0333848781883716,0.3702411949634552,-0.9279587864875792,0.0,0.0,0.0,-6.6086437067598185,1.8107332522327404,-7.590413983204197,1.712688776,-0.1734523499669348,-0.1140303434541748,0.0490458153200325,-20.90126005493924,-98.44787683591314,45.20072121777246,0.0739397556627062,-0.0423880663364397,-0.7608294159246609,0.0615230072638013,-0.140108497647347,-0.0980950020100088,-66.41591569477264,227.33632381994832,525.1736697892542,0.0003775131464136
758,1724816388162308640,-2.0649845600128174,-1.1864341497421265,0.1572404652833938,-0.0190713703632354,0.048636183142662,0.3615589737892151,-0.9308845400810242,0.0,0.0,0.0,-1.60911552372212,4.674490281738355,5.491378128675404,1.722271513,-0.2057834056363457,-3.455458921700287,2.043175705937656,-84.81944561372318,27.166183620184192,-64.2563422761303,0.0709448143116094,-0.0768340674316526,-0.7436675396627773,-0.0157740565344255,-0.1255633238710913,-0.1143860821494877,580.4738614343999,191.0162492160763,992.997307477275,-0.0022548046001746
760,1724816388173571296,-2.0656275749206543,-1.1867280006408691,0.1575438231229782,-0.0116726364940404,0.0342502258718013,0.3738800883293152,-0.9267709255218506,0.0,0.0,0.0,5.706259969982658,5.398497680413249,11.749063959585309,1.733534169,-2.239176734038548,1.825774585118184,-2.285670989894772,165.301158616548,76.99335832426993,4.062183015916666,0.0473353374297097,-0.0547832929094118,-0.7682035123743586,0.0515770404070394,-0.0311314824909061,0.042654831343297,-14.80060004380784,-179.93607565555692,-120.39508480464907,0.0003478290756972
762,1724816388183696207,-2.0641162395477295,-1.1870890855789185,0.1581187844276428,-0.021742520853877,0.0437236651778221,0.3673884570598602,-0.9287849068641664,0.0,0.0,0.0,-0.4903520004771216,1.3537462971557768,4.376974900089873,1.74365908,2.582390647724553,-0.9619887210182116,1.2908610932852975,38.61811163963924,83.9372505669162,3.0020898919822088,0.0727343388886999,-0.0652902350123536,-0.7557191470987942,0.1068604709497833,-0.0036511486278385,0.1416390254625792,-458.0372019558936,-313.87876250100254,-808.4152921742768,0.0004283070374131
764,1724816388192356649,-2.063504934310913,-1.186883568763733,0.1599740087985992,-0.0245368722826242,0.0333251282572746,0.3723336458206177,-0.9271758198738098,0.0,0.0,0.0,-3.3165101468551264,-0.7304281820458085,-3.219114569583711,1.752319522,-0.3247379691702043,2.426375132954929,-1.2776360285889818,-196.64038604886895,169.6813678325086,-143.7597553717022,0.0704410601922445,-0.0435384539238587,-0.7652666991783741,0.0585337872879634,-0.0020045563710766,0.1395484547368912,-421.5192354570783,-642.785594988256,-254.90298724085235,0.0017956727150039
766,1724816388205770843,-2.0629701614379883,-1.1874451637268066,0.1602945029735565,-0.0243329107761383,0.0325204394757747,0.3725258708000183,-0.9271325469017028,0.0,0.0,0.0,-10.94863557408108,-17.70807687620931,6.289179122532502,1.765733716,-0.073663020449603,0.0989977589855714,-0.0309054481904597,6.383242028156791,-118.46404091399192,71.35989403204488,0.0694666846237309,-0.0421847487561317,-0.7655877210816566,0.0610780845206733,-0.030929332950663,0.0344976148923366,487.32909182168726,75.09267545294443,-621.5602587199044,0.0002892259585051
768,1724816388223748292,-2.061361074447632,-1.1877377033233645,0.1611701995134353,-0.0196242202073335,0.0376942157745361,0.3666380047798157,-0.929392635822296,0.0,0.0,0.0,23.261484659034295,15.944414178288524,-36.937869831209014,1.783711165,-0.2560689572927616,-0.7046736662091159,0.7320054737535195,9258.50953145689,37122.328074298006,-28338.217793466072,0.0642613004686862,-0.0557042868536537,-0.7532892230367066,-0.4041061101916057,-0.7239653667024868,0.4877667092094953,5014.607029870596,7659.013037723114,-5002.400939220461,0.0007392226216129
770,1724816388224404594,-2.061638116836548,-1.18822979927063,0.1615008413791656,-0.024648992344737,0.030812693759799,0.3720420897006988,-0.9273768663406372,0.0,0.0,0.0,26.627135398396913,21.10969593911779,-40.28319985130971,1.784367467,6.042382564671657,24.549291370056014,-18.54641240837747,8902.491648321175,35679.46347097364,-27240.911930722632,0.0687509494802374,-0.0388187821116944,-0.7643761276111709,-0.3876622376465288,-0.712195344780131,0.4620351970820613,4728.998928671464,7440.685066102367,-4665.764070347657,0.0003617415733974
772,1724816388233495827,-2.0608222484588623,-1.1899687051773071,0.1604423075914383,-0.0161291752010583,0.0457143522799015,0.3620440065860748,-0.9308996796607972,0.0,0.0,0.0,19.346170088500084,34.653991185595025,-28.36316925946459,1.7934587,-0.4698599351791965,-3.6593922768213454,2.4666522573637115,-334.3363757789026,-1332.1044861077812,996.0782301455924,0.0633437539783562,-0.0734981640938384,-0.744163502493231,0.0523526767200479,-0.1203363132832606,-0.0397416525775717,-1712.00883520197,-1083.1104172832058,2067.1229208732966,-0.0011378683847958
774,1724816388242473729,-2.0606837272644043,-1.190420150756836,0.1607654690742492,-0.0159571319818496,0.0452220030128955,0.363107830286026,-0.9305122494697572,0.0,0.0,0.0,-4.102151777350794,2.1183780216546806,-3.1023575453504737,1.802436602,-0.0848283175444705,0.0804577371132352,-0.2518753854506514,-24.443659948536013,139.65851243268833,-115.42833582127253,0.062744032416726,-0.072634787427466,-0.746380712204469,-0.0315493449701307,-0.079169270369185,-0.0565062454100804,-1034.4360351614796,-1996.216047508683,1683.8470657999633,0.0003069926052651
776,1724816388252939728,-2.06158709526062,-1.1916011571884155,0.1590454876422882,-0.0066123413853347,0.0520210601389408,0.3594864904880523,-0.9316757321357728,0.0,0.0,0.0,4.316243683243711,1.0857547236344065,0.7361541578075308,1.812902601,-1.1621351855591393,-1.8363027485235124,0.826152249462686,2.016502377958312,-21.9411047294428,23.29207975926916,0.0499562332648944,-0.0923104676118667,-0.7388046446799922,-0.0105109887414869,-0.0870975346649771,-0.1040439317626091,496.44990945493134,14.532512047535988,405.9450528966854,-0.0016482808684584
778,1724816388263645780,-2.0608694553375244,-1.192251682281494,0.1585919260978698,-0.0060114995576441,0.0535702295601367,0.3584839403629303,-0.9319782257080078,0.0,0.0,0.0,6.259187846848421,2.481030965857832,5.511360459763053,1.823608653,0.0088303808482293,-0.3057995299619076,0.2025572153829922,98.79006856953602,129.41291885941746,-52.819261217698326,0.0498619726255449,-0.0956884812313735,-0.7367931632823567,0.0609542471542379,-0.0552864969050821,-0.0383571652999834,1481.786087556702,1698.3556421542853,4757.898692796075,-0.0005433729964968
780,1724816388363569843,-2.060446262359619,-1.192669153213501,0.1584969311952591,-0.0063734110444784,0.054003432393074,0.3590801954269409,-0.9317212700843812,0.0,0.0,0.0,1367.0329017960762,1634.5840188609736,4502.3325808472955,1.923532716,0.0092508858822773,-0.0058313423573981,-0.0133019948132753,936.6563022498776,-177.1016692338688,-133.76805672942783,0.0509169467809906,-0.0962034888795492,-0.7381563155846109,0.2983938155196028,-0.264625597718009,-0.0697140439200723,-1646232.31956216,-3177487.828925214,-6342643.910160042,-0.0001501897344939
782,1724816388365209256,-2.0599491596221924,-1.1931099891662598,0.1583807915449142,-0.0074943332001566,0.0546941645443439,0.359192281961441,-0.9316293597221376,0.0,0.0,0.0,-1376.467050129745,-3660.535603833242,-6067.6899385203815,1.925172129,1.5700106993780325,-0.3010184000499799,-0.2361429646469474,87985.63948604863,335904.83362335264,-210739.919980544,0.0535307293889648,-0.0966760887525217,-0.7385705232787934,2.5762307359354963,2.4591547334925963,7.432576986192544,-1183095.4865563023,-3514283.666624272,-8448094.92645949,-0.0001799327915572
784,1724816388365536583,-2.05895733833313,-1.192126750946045,0.1613040566444397,-0.0214696563780307,0.0366257019340992,0.3712377548217773,-0.9275667667388916,0.0,0.0,0.0,-1731.6783205601537,-4829.442091176213,-8963.731023561279,1.925499456,36.058121807468595,131.61435237468052,-82.98092071487227,27998.53990801155,107717.20789616338,-64756.00989036319,0.0671640671644417,-0.0520283436152783,-0.76315325933885,1.9449126803995112,0.9131479493617009,4.750832105048403,5821365.233480113,4344152.13653094,5753506.215587771,0.002817103601372
786,1724816388366010301,-2.0587799549102783,-1.1931275129318235,0.16068896651268,-0.0187787767499685,0.0407265573740005,0.3680125474929809,-0.9287386536598206,0.0,0.0,0.0,5760.999677007826,2654.9741243414123,3771.994128820128,1.925973174,-3.717877205991518,-19.80337694032431,15.254827200210643,-26291.709764899675,-62965.42777699872,27346.963305795703,0.0650270551084106,-0.0618664628618064,-0.7565514790694687,1.2596647265518186,-1.4475336009377315,-0.0239408979737163,-5152710.902470963,292800.3962342781,5757391.057011796,-0.0006235773044546
788,1724816388366243912,-2.0583837032318115,-1.193389058113098,0.1608301997184753,-0.0182131417095661,0.0411265604197979,0.3679405748844147,-0.9287608861923218,0.0,0.0,0.0,2141.509074910106,936.9674790035268,2683.048389849983,1.926206785,-3.215664409548085,-4.943278101839674,0.9038404041347616,39307.525321736335,126486.86455551558,-82018.81258489039,0.0642673391972203,-0.0630325044884959,-0.7564152105300734,3.4358323696615116,0.0526561737265183,2.452966326172657,-28104727.941334985,-17938304.066786427,-26982309.15345013,0.0001060127976355
790,1724816388366474753,-2.0571937561035156,-1.1931095123291016,0.1618180721998214,-0.0214964691549539,0.0375493429601192,0.3702220916748047,-0.9279351234436036,0.0,0.0,0.0,-7222.84634424851,-5618.2184096870105,-8637.068408397117,1.926437626,14.333948086077092,38.5974300540128,-22.725594757136935,11971.153617364089,-6259.323715444012,8599.507772092795,0.0678479690748017,-0.0537957163670242,-0.7610694900728585,2.2938003411609316,-0.9821516718843668,1.2658210405998602,-14000737.625826528,-7905361.361059982,-17900273.767433174,0.0008789298568772
792,1724816388366704041,-2.057319402694702,-1.1938341856002808,0.1614219695329666,-0.0214355494827032,0.0384342707693576,0.3697484135627746,-0.9280891418457032,0.0,0.0,0.0,-4382.871277972299,-2763.951392952009,-5649.776953207291,1.926666914,2.490891551051766,-7.220122358451299,4.517235000202214,-33495.891379884655,-113461.05085384332,64699.97464797734,0.0683687277843416,-0.0555178533442608,-0.7601474173414514,0.1194354789386125,-2.528934215090885,-1.510382314404751,16717652.962371584,13229813.523644224,18658645.92707211,-0.0003753762295761
794,1724816388367053385,-2.056922435760498,-1.1943814754486084,0.1610099077224731,-0.0214628633111715,0.0386012718081474,0.3700216114521026,-0.9279727339744568,0.0,0.0,0.0,3762.8813676867494,2273.725104567305,3865.190738379949,1.927016258,0.4528095047387002,-0.8886530442866154,-1.6835191011059552,-9944.19778058838,-499.2114295263091,6303.192169837568,0.0685607906220139,-0.0557873415788145,-0.7607564028241476,1.302971209702264,-1.3749987008909557,-0.0466695034133977,9351628.501644729,3600337.057225129,6949499.121185762,-0.0004390323569357
796,1724816388367294651,-2.0565803050994873,-1.1946812868118286,0.1611874103546142,-0.0209668464958667,0.038954097777605,0.3696139752864837,-0.9281317591667176,0.0,0.0,0.0,3692.0907622017385,1339.4778056560694,2161.5278962127536,1.927257524,-2.6312427607001174,-4.112160079141568,3.845030302175077,-1744.5804887336417,5261.407166804561,1281.7741330845138,0.0678775977561695,-0.0568403936299208,-0.759897141055375,2.2733108896886733,-0.9979535309203128,0.8317667984674415,-895511.3431704585,-2595262.884083208,-6661227.904676319,0.0001498012478741
798,1724816388367595051,-2.055577516555786,-1.1948895454406738,0.161473199725151,-0.0213712453842163,0.0383778885006904,0.3701324462890625,-0.9279398918151855,0.0,0.0,0.0,3197.877752061299,1037.4971502631604,310.15048698964443,1.927557924,0.9732805152428,4.433587809985207,-3.8612552831186697,11713.37490722215,27765.38981692695,-25038.465954082432,0.0682299120696179,-0.0554327492402898,-0.7609654786210366,3.25906964623447,-0.6790948078372825,0.9277467436011702,-1612542.4976386784,-983459.188776173,-6018042.99336591,0.0001997420605196
800,1724816388380005656,-2.0556912422180176,-1.1960489749908447,0.1608785390853881,-0.0182582009583711,0.0434355251491069,0.3662682771682739,-0.9293156862258912,0.0,0.0,0.0,-79.02840402394759,10.973891347295623,-33.229839693837505,1.939968529,-0.1446869787410115,-0.9201871080638492,0.6965821396258761,21.735060969945707,-23.787276465447903,22.322692774583945,0.0659508382702739,-0.0674068644377089,-0.7530906823800455,0.0778636979177918,-0.0829317498367459,-0.0205048585927229,-65914.91175906092,-25621.69030198916,-4783.368888892486,-0.0005788634436889
802,1724816388385031054,-2.0551228523254395,-1.196444392204285,0.1608312726020813,-0.01850151643157,0.0441082417964935,0.3660073280334472,-0.9293819665908812,0.0,0.0,0.0,-7.1061371784625935,-1.608081554072521,-10.699102956050996,1.944993927,0.1920786993948466,-0.210293397426715,0.1068550509938626,-76.94540362360502,62.96365550224356,-125.5965326333294,0.0668844150164397,-0.0684969780205669,-0.7526239013072394,0.041508876247704,-0.1032033005379844,-0.0996367345267881,9061.465732753311,-1407.9563891142648,3400.2535487073246,-0.0001005174057778
804,1724816388393276496,-2.0557491779327393,-1.197627067565918,0.1587890088558197,-0.0083999661728739,0.0432950481772422,0.3704623579978943,-0.9277999401092528,0.0,0.0,0.0,-3.420161880614964,1.6064160098483526,2.684238526096239,1.953239369,-2.3899427389670707,-0.7503974076277494,-1.0403181512347637,-94.42193819620472,-20.12601351346536,-34.410500785971095,0.0478150189769838,-0.0741825633682717,-0.7615651450688954,-0.0153516013642516,-0.0836454544470797,-0.1195721247626915,352.3135977228778,220.15911757638116,1011.1024188204158,-0.0019996072065611
806,1724816388406134180,-2.0547313690185547,-1.1975038051605225,0.1598202139139175,-0.0126521736383438,0.0457811020314693,0.3665634393692016,-0.9291799068450928,0.0,0.0,0.0,-0.7893138490115892,1.0348431088161094,3.4138019720895105,1.966097053,0.7813847969369168,-0.099361798252791,0.6168179965088882,-25.92775750610653,129.12921043890128,-114.77903992488817,0.0572716384739727,-0.0758748926709745,-0.7536901146435654,0.0103629195224357,-0.0783396918508003,0.0172351051808075,224.92603825130868,223.03722766053968,-281.3949872041575,0.0009317574658504
808,1724816388412841129,-2.0549025535583496,-1.198336839675903,0.1597155183553695,-0.0130078978836536,0.0420676544308662,0.3697008490562439,-0.928106963634491,0.0,0.0,0.0,0.7903200073766925,3.4665713732943533,0.3435152104903419,1.972804002,-0.3461309493980847,1.0413202258423826,-1.0054611794651211,-64.64024855937573,42.12191357886039,-83.43779974578754,0.0554086459437448,-0.0685221134227862,-0.7600463576670781,-0.0046892731353835,-0.0692222930237704,0.0148497332508599,363.90110853632353,85.2319247788678,-422.2148210488557,-9.507336049110264e-05
810,1724816388422968028,-2.054631471633911,-1.1981971263885498,0.1603316515684127,-0.0147035121917724,0.0454894043505191,0.3669155240058899,-0.9290250539779664,0.0,0.0,0.0,6.438519285316603,0.0890307750831249,-3.388440821801427,1.982930901,0.5814148958762513,-0.4886050009442642,0.5722734297021433,35.470798415219036,-78.50565774806245,77.54377070449186,0.0609047191010118,-0.0737986682494368,-0.7545343647494884,0.0497152589053939,-0.0018964430647443,0.029019320765327,11.63939631911883,-253.03776559502097,-125.4234903801928,0.000588326569057
812,1724816388436639147,-2.053528308868408,-1.1985126733779907,0.1601410806179046,-0.0142810055986046,0.0469981096684932,0.3657326698303222,-0.9294228553771972,0.0,0.0,0.0,-3.4810934405312945,-1.884887377360448,-0.616608407241527,1.99660202,0.0305763479855285,-0.2225364884913195,0.1881723820044055,-15.462521638553856,-202.77618381496032,69.21918088239954,0.0611427823685871,-0.0769922171815085,-0.7521453551629605,0.1574152746288177,-0.1217340307758263,-0.1056640043269254,-754.0682214586468,600.473185914963,797.8663277495751,-0.0003000209562306
814,1724816388442450642,-2.0524239540100098,-1.1994638442993164,0.1593004167079925,-0.012100514024496,0.0523001663386821,0.3635625541210174,-0.93002188205719,0.0,0.0,0.0,-7.933713071300203,3.4448782870496197,5.490375664336614,2.002413515,0.0020556739270896,-1.9499922476144176,0.830848671172096,-12.05594365573906,-101.87278909307452,24.454093163274035,0.060812096166071,-0.0885978746077853,-0.748002362777479,0.109123320611431,-0.1156893935867557,-0.0864328990095124,-260.0650150159347,588.1908635896655,614.5281477567737,-0.0009677312294391
816,1724816388453080898,-2.0528371334075928,-1.199760675430298,0.1595137268304824,-0.012432605959475,0.0479627512395381,0.3664687573909759,-0.9291101694107056,0.0,0.0,0.0,-0.8571602810115966,3.301836952760864,3.538937423443896,2.013043771,-0.2650983509918209,0.7660733418579612,-0.5840218013233852,16.013390477646734,53.31709822937732,1.475337351227612,0.0584769235793075,-0.080098658503723,-0.7537345058652128,0.0320974268119869,-0.032309781555881,0.0143443267937755,423.9795856998787,-199.7777724733742,-341.2765725377814,0.0002492753936017
818,1724816388462523776,-2.051938772201538,-1.2001025676727295,0.1596011817455291,-0.0125825805589556,0.0502659752964973,0.3639881908893585,-0.9299611449241638,0.0,0.0,0.0,1.118852324773731,-0.1475305215768543,-1.00652522916022,2.022486649,0.2312425373890788,-0.4264235661853187,0.5587316460656958,14.955197957702891,-53.88864061224669,41.96859536533063,0.0602459813715521,-0.0844312639815881,-0.7486896351325124,0.077593027672421,-0.0392279338755727,-0.0020742034385863,102.10032704675596,-158.73120007131757,-60.75129884243634,-9.741556604967846e-06
820,1724816388472742642,-2.051339864730835,-1.200536847114563,0.1594546288251876,-0.0120740160346031,0.051052700728178,0.3634684979915619,-0.9301282167434692,0.0,0.0,0.0,0.9771682605047872,0.514647292909268,3.024063754130376,2.032705515,-0.0318167994361983,-0.1764967773649124,0.1134311575161423,-14.180514132310982,24.55146811701128,-37.201380464101824,0.0598310899150107,-0.0863011530460955,-0.7476368942734516,0.0481191693074976,-0.0342651148458372,-0.0042626733710688,157.04052984134304,22.668622346591327,302.13136193501566,-0.0002142445683761
822,1724816388483938638,-2.0509297847747803,-1.200819492340088,0.1595305353403091,-0.0120869325473904,0.050419982522726,0.3646462559700012,-0.9297015070915222,0.0,0.0,0.0,4.8318156164706645,0.2516436974928155,5.274584565108773,2.043901511,-0.0487557782632135,0.0995353790346183,-0.224876878686393,48.26766080952399,51.70755478654733,-22.592096907802645,0.0594953534101249,-0.0850386147513879,-0.7500927231483531,0.106425970530438,-0.0281474609165854,0.069316593348109,183.41794823682088,-166.9765989201905,-142.58384588578014,2.93973299936738e-05
824,1724816388492518738,-2.049557685852051,-1.201080083847046,0.1605364829301834,-0.0160574093461036,0.0486080050468444,0.3659253120422363,-0.9292352795600892,0.0,0.0,0.0,5.347775366861805,-2.124507871868641,1.7919270227254005,2.052481611,0.6927128441556256,0.7210756612984943,-0.3685833736448259,77.19539833453778,64.5571984874231,-14.65791514879656,0.0656661353160369,-0.0786660315826432,-0.7528714345217579,0.145411012969931,-0.0279265674440998,0.1060425161002455,-1082.4652622841295,2519.0704827350874,-873.695424436257,0.00085910658993
826,1724816388572357261,-2.048724412918091,-1.201493263244629,0.160682663321495,-0.0164934359490871,0.0479752346873283,0.3653658330440521,-0.9294806122779846,0.0,0.0,0.0,-929.9164485937812,2276.1596052759674,-415.4901076100395,2.132320134,0.0049319640132146,0.0192502215994589,0.0144868922144879,4921.608490007299,-42147.511710552615,8469.0579249119,0.065961867952083,-0.0772085108709429,-0.7516123862089987,1.1697512170030675,-1.7949752790668754,-1.5995597537385038,791852.183582468,-3451651.4929719027,4650268.253314739,5.925393463699715e-05
828,1724816388572663053,-2.048365354537964,-1.2020442485809326,0.1601916551589965,-0.0159679632633924,0.04990229383111,0.3650150299072265,-0.929526150226593,0.0,0.0,0.0,-686.8332296204411,1216.596114693834,1011.97734664103,2.132625926,1.5156948601524776,-12.91847553611914,2.6141705924973366,8254.463399417784,-31607.45524201224,-4547.598072050671,0.066382778414642,-0.0812030929686806,-0.7510742660853327,0.8842860394679519,-1.0962520671994298,-1.72707491544557,2399471.0794133926,-2614961.440993681,6378218.7349676285,-0.0005295244279451
830,1724816388573018555,-2.048170804977417,-1.202142357826233,0.1595275104045868,-0.0156881585717201,0.0535272993147373,0.3657431304454803,-0.9290429353713988,0.0,0.0,0.0,829.3290449909387,638.2791954628981,3986.227092520571,2.132981428,5.819814106316018,-19.732154091839135,-4.395600164216716,-16729.443348326517,33263.46248841068,-474.366791488158,0.0686241941221052,-0.0880965548278729,-0.7531138563675429,0.7420723646218903,-1.1052979348437475,-0.7767288468643869,2416971.9207597487,-1532032.9713996153,279093.99621100817,-0.0006825757568817
832,1724816388573265552,-2.0479540824890137,-1.2025576829910278,0.1595229655504226,-0.0152082443237304,0.0536666400730609,0.3659083843231201,-0.9289777874946594,0.0,0.0,0.0,1109.2006456649997,276.127939449525,2667.314698776075,2.133228425,-3.2609429270906167,-2.5187237534855,-1.2103857329026946,-18035.23288649264,96681.189991178,-18961.85793553906,0.067848942982016,-0.0886968374019242,-0.7534558559512105,1.1578848999897673,-0.8337434581064826,0.4331764520362924,-1770425.3694998182,-2954225.915613427,-6256922.454239503,-3.311408046139496e-05
834,1724816388573604964,-2.0474302768707275,-1.2024452686309814,0.1598806083202362,-0.0179737079888582,0.0468057133257389,0.3693391978740692,-0.9279412031173706,0.0,0.0,0.0,-845.9188692797475,-1420.585696778639,115.88598988021464,2.133567837,-0.6468357722714928,42.88444863530818,-22.50480413176592,392.4691385777623,-81663.18088267132,61522.99223321044,0.0681689292147987,-0.0736556910213187,-0.760109430890941,1.2665181774964367,-1.1240113763551562,0.2978782122776806,132488.19963967218,145976.26988404547,666144.9574573496,0.0003035262004396
836,1724816388573889912,-2.047135591506958,-1.203113675117493,0.1597846746444702,-0.0158266611397266,0.0509684868156909,0.3661575615406036,-0.9290212392807008,0.0,0.0,0.0,601.5306452123759,-148.19517210751155,2263.352536269956,2.133852785,-2.2835837493744267,-31.92203444979881,24.75248587003177,-4626.234265847825,-70685.81523515271,38632.10849624286,0.0670134243614681,-0.0832074913643429,-0.7536668594522904,0.7465448612892942,-1.664056078418071,0.4539829603799035,7374082.250758152,3297372.5418577977,4136775.4108582865,-0.0001320024988551
838,1724816388574186069,-2.0470030307769775,-1.2033966779708862,0.1601624935865402,-0.0157295502722263,0.0499299839138984,0.3665754497051239,-0.9289144277572632,0.0,0.0,0.0,3491.6443842341246,468.8354236254727,2442.0763380655644,2.134148942,-3.309612173697655,6.193847035723655,-2.963450244293507,25614.7126466564,60637.544211233995,-19925.623131138786,0.0660953953667047,-0.0813188248400606,-0.7544230602280417,1.6715339782149383,-1.170192770786343,1.6523385595883724,4981611.412726374,-1132944.1153624973,-2674858.567356452,0.0003598334296938
840,1724816388574446904,-2.04628586769104,-1.2037512063980105,0.1606799960136413,-0.0171949565410614,0.0496562123298645,0.3654349148273468,-0.9293524622917176,0.0,0.0,0.0,3693.597622600387,-565.5664745988105,991.2615205692838,2.134409777,10.0518403280405,6.374171367137647,8.760772093134142,49674.971112277264,640.7131284387681,43593.179523172425,0.0685241624078296,-0.0798136829558,-0.7520235683176825,2.6668937219644997,-1.323284920569738,1.9207739659205911,737975.4422372595,-3846154.516081108,-5401464.862894507,0.0004379043382058
842,1724816388582999780,-2.046640396118164,-1.204995036125183,0.1593700498342514,-0.0132864462211728,0.0590901784598827,0.3599389493465423,-0.9310079216957092,0.0,0.0,0.0,-169.7313243685412,74.69745886603498,-130.05418778899244,2.142962653,0.013927524704326,-2.342856147265015,1.41916009878013,-674.1737751866754,-582.4160064055094,-413.02145548546537,0.0676710185102605,-0.1006319901449828,-0.7412332850207077,-0.084601201797696,-0.1687791732116679,-0.223833038333197,-231441.61136736823,36813.88201581277,-62387.78258354173,-0.0012800752268207
844,1724816388592698507,-2.047935485839844,-1.2068887948989868,0.1564218699932098,-0.0023995949886739,0.0718193650245666,0.3499340713024139,-0.9340142011642456,0.0,0.0,0.0,7.994779028928695,13.316208030896,20.610224841798107,2.15266138,-1.031633830509584,-3.187841962847768,2.311464055634444,-17.872813808807493,87.01156848302013,-56.74108882231033,0.0552615738387479,-0.1328718423983742,-0.7206159847450596,-0.0593690729878915,-0.1073513276747704,-0.1578038917915227,9600.681646136964,-3572.4931976830085,7987.950458224997,-0.0028285065883619
846,1724816388603620037,-2.0476717948913574,-1.2069801092147827,0.1564961075782776,-0.0016539997886866,0.0720760002732276,0.3506840467453003,-0.9337146282196044,0.0,0.0,0.0,5.55675270558969,8.197495590629462,15.04019333868968,2.16358291,-0.1208136578043175,-0.0959434999713074,-0.1375548114349685,163.00835545439742,469.715281658446,-346.652438714371,0.0541510134964863,-0.133835957599388,-0.7221871803987225,0.094274272016662,0.1239576745810637,0.2370377225745255,-583.6985884038907,-1087.4044603270106,-1753.744950466004,3.3333934999406825e-05
