seq,stamp,px,py,pz,ox,oy,oz,ow,lx,ly,lz,ax,ay,az
3224,1724820312185838587,-2.1229360103607178,0.18699771165847778,0.17319081723690033,-0.03295097127556801,-0.04006730392575264,0.23108753561973572,-0.9715490341186523,0.0,0.0,0.0,0.0,0.0,0.0
3226,1724820312194957579,-2.1229748725891113,0.18713349103927612,0.17283207178115845,-0.03231538087129593,-0.041351206600666046,0.2299472540616989,-0.97178715467453,0.0,0.0,0.0,0.0,0.0,0.0
3228,1724820312206314912,-2.1228933334350586,0.18724596500396729,0.17251135408878326,-0.03173590824007988,-0.04239332303404808,0.2290804535150528,-0.9719659686088562,0.0,0.0,0.0,0.0,0.0,0.0
3230,1724820312216123122,-2.122936248779297,0.1875862181186676,0.1724379062652588,-0.031857144087553024,-0.04444361478090286,0.22894372045993805,-0.97190260887146,0.0,0.0,0.0,0.0,0.0,0.0
3232,1724820312225464008,-2.122760772705078,0.18771564960479736,0.17220592498779297,-0.03128610923886299,-0.0449468195438385,0.22853399813175201,-0.9719945192337036,0.0,0.0,0.0,0.0,0.0,0.0
3234,1724820312236286751,-2.122589349746704,0.18781040608882904,0.17191854119300842,-0.030188681557774544,-0.04505794122815132,0.2280847579240799,-0.9721295833587646,0.0,0.0,0.0,0.0,0.0,0.0
3236,1724820312245354235,-2.1219797134399414,0.1881299912929535,0.1721159815788269,-0.032167498022317886,-0.04614173248410225,0.22982211410999298,-0.9716059565544128,0.0,0.0,0.0,0.0,0.0,0.0
3238,1724820312255769752,-2.121450185775757,0.18812212347984314,0.1717168241739273,-0.031262002885341644,-0.04471615329384804,0.23009078204631805,-0.971638560295105,0.0,0.0,0.0,0.0,0.0,0.0
3240,1724820312266858671,-2.1212332248687744,0.18847227096557617,0.17183129489421844,-0.03142136335372925,-0.04631849378347397,0.2308696210384369,-0.9713734984397888,0.0,0.0,0.0,0.0,0.0,0.0
3242,1724820312276711227,-2.121047258377075,0.1886395663022995,0.1717844307422638,-0.030052294954657555,-0.04652174934744835,0.23078633844852448,-0.9714269638061523,0.0,0.0,0.0,0.0,0.0,0.0
3244,1724820312285730258,-2.120927095413208,0.18874971568584442,0.17177017033100128,-0.029190318658947945,-0.04702968895435333,0.2307858020067215,-0.9714288711547852,0.0,0.0,0.0,0.0,0.0,0.0
3246,1724820312303155622,-2.1208689212799072,0.1887982040643692,0.17170050740242004,-0.028726376593112946,-0.047024454921483994,0.230641171336174,-0.9714772701263428,0.0,0.0,0.0,0.0,0.0,0.0
3248,1724820312307573633,-2.120798110961914,0.18854239583015442,0.1714203953742981,-0.028661519289016724,-0.046068478375673294,0.23013029992580414,-0.9716461300849915,0.0,0.0,0.0,0.0,0.0,0.0
3250,1724820312318717575,-2.120990514755249,0.18858802318572998,0.17154626548290253,-0.029897620901465416,-0.047332704067230225,0.2309681624174118,-0.97134929895401,0.0,0.0,0.0,0.0,0.0,0.0
3252,1724820312326161339,-2.1210901737213135,0.1885487139225006,0.1716030091047287,-0.02988140471279621,-0.04749700054526329,0.23102782666683197,-0.971327543258667,0.0,0.0,0.0,0.0,0.0,0.0
3254,1724820312335525029,-2.1210134029388428,0.1882820427417755,0.17133185267448425,-0.02950812317430973,-0.04575463756918907,0.23065514862537384,-0.97151118516922,0.0,0.0,0.0,0.0,0.0,0.0
3256,1724820312345425240,-2.1211397647857666,0.18853554129600525,0.17158807814121246,-0.029801156371831894,-0.04759766533970833,0.2311277538537979,-0.9713013768196106,0.0,0.0,0.0,0.0,0.0,0.0
3258,1724820312357873136,-2.1210217475891113,0.18829551339149475,0.1713201105594635,-0.029424529522657394,-0.04616435989737511,0.23054952919483185,-0.9715194702148438,0.0,0.0,0.0,0.0,0.0,0.0
3260,1724820312365653466,-2.121107578277588,0.18853555619716644,0.17153026163578033,-0.029689490795135498,-0.047399722039699554,0.2310597151517868,-0.9713307023048401,0.0,0.0,0.0,0.0,0.0,0.0
3262,1724820312375528746,-2.1212539672851562,0.188595250248909,0.171279639005661,-0.02716030739247799,-0.046689122915267944,0.22908392548561096,-0.9719069600105286,0.0,0.0,0.0,0.0,0.0,0.0
3264,1724820312386525954,-2.121157169342041,0.18869158625602722,0.17150115966796875,-0.029438946396112442,-0.047606661915779114,0.23017650842666626,-0.9715378284454346,0.0,0.0,0.0,0.0,0.0,0.0
3266,1724820312394931907,-2.1211557388305664,0.18866510689258575,0.17148680984973907,-0.029763473197817802,-0.0476391464471817,0.2302916944026947,-0.9714990854263306,0.0,0.0,0.0,0.0,0.0,0.0
3268,1724820312406599913,-2.121054172515869,0.18848326802253723,0.1711639165878296,-0.029179390519857407,-0.046000756323337555,0.23014701902866364,-0.9716299772262573,0.0,0.0,0.0,0.0,0.0,0.0
3270,1724820312418796161,-2.1210291385650635,0.18832500278949738,0.1711646467447281,-0.02943260408937931,-0.04600551724433899,0.23035846650600433,-0.9715721011161804,0.0,0.0,0.0,0.0,0.0,0.0
3272,1724820312425277051,-2.121131658554077,0.1885228157043457,0.17142225801944733,-0.029702652245759964,-0.04774995148181915,0.23105894029140472,-0.9713132977485657,0.0,0.0,0.0,0.0,0.0,0.0
3274,1724820312435739109,-2.1211392879486084,0.1885070651769638,0.17150463163852692,-0.029953261837363243,-0.04776402935385704,0.23110640048980713,-0.971293568611145,0.0,0.0,0.0,0.0,0.0,0.0
3276,1724820312445165268,-2.1211233139038086,0.18851658701896667,0.17149095237255096,-0.029856620356440544,-0.04804208502173424,0.2311970591545105,-0.9712613224983215,0.0,0.0,0.0,0.0,0.0,0.0
3278,1724820312456454423,-2.1210904121398926,0.1885192096233368,0.17154285311698914,-0.02970958687365055,-0.04809822142124176,0.23108641803264618,-0.9712893962860107,0.0,0.0,0.0,0.0,0.0,0.0
3280,1724820312465449695,-2.1209652423858643,0.18828774988651276,0.17125125229358673,-0.029419394209980965,-0.04635816439986229,0.23066750168800354,-0.9714823961257935,0.0,0.0,0.0,0.0,0.0,0.0
3282,1724820312475663507,-2.1209681034088135,0.18825945258140564,0.1711059808731079,-0.029712818562984467,-0.04573742300271988,0.23072123527526855,-0.9714900851249695,0.0,0.0,0.0,0.0,0.0,0.0
3284,1724820312485565897,-2.1211233139038086,0.18850493431091309,0.17141978442668915,-0.03018367476761341,-0.047531768679618835,0.23128540813922882,-0.9712553024291992,0.0,0.0,0.0,0.0,0.0,0.0
3286,1724820312495102550,-2.121135711669922,0.18852464854717255,0.17143449187278748,-0.03015190362930298,-0.047689542174339294,0.23116590082645416,-0.9712769389152527,0.0,0.0,0.0,0.0,0.0,0.0
3288,1724820312505918297,-2.121128797531128,0.18852216005325317,0.1714525669813156,-0.029860403388738632,-0.047801848500967026,0.23111897706985474,-0.9712916612625122,0.0,0.0,0.0,0.0,0.0,0.0
3290,1724820312515342066,-2.1211178302764893,0.1885158121585846,0.17148654162883759,-0.03003201074898243,-0.04775713384151459,0.23119080066680908,-0.9712713956832886,0.0,0.0,0.0,0.0,0.0,0.0
3292,1724820312525564984,-2.1209633350372314,0.18828223645687103,0.17122696340084076,-0.02920118160545826,-0.045975908637046814,0.2306736707687378,-0.9715057015419006,0.0,0.0,0.0,0.0,0.0,0.0
3294,1724820312535432743,-2.120955467224121,0.18824879825115204,0.17124350368976593,-0.02965681627392769,-0.04600004106760025,0.23069429397583008,-0.9714857935905457,0.0,0.0,0.0,0.0,0.0,0.0
3296,1724820312547406078,-2.1210849285125732,0.18849383294582367,0.1715385764837265,-0.03001725673675537,-0.04747343435883522,0.23131707310676575,-0.9712557792663574,0.0,0.0,0.0,0.0,0.0,0.0
3298,1724820312555751535,-2.1211512088775635,0.18828929960727692,0.17106454074382782,-0.027290206402540207,-0.04538395628333092,0.22943875193595886,-0.9718814492225647,0.0,0.0,0.0,0.0,0.0,0.0
3300,1724820312565147222,-2.1211118698120117,0.18851402401924133,0.1715039759874344,-0.02980857342481613,-0.04761824011802673,0.23098023235797882,-0.971335232257843,0.0,0.0,0.0,0.0,0.0,0.0
3302,1724820312577096891,-2.1211254596710205,0.1885124295949936,0.17148727178573608,-0.02964925952255726,-0.04752121493220329,0.23104910552501678,-0.9713284373283386,0.0,0.0,0.0,0.0,0.0,0.0
3304,1724820312584825054,-2.121124029159546,0.18851064145565033,0.17153838276863098,-0.02992396242916584,-0.04781878739595413,0.23112031817436218,-0.9712885022163391,0.0,0.0,0.0,0.0,0.0,0.0
3306,1724820312595254169,-2.1211111545562744,0.1885165572166443,0.1715315580368042,-0.029861580580472946,-0.04767737537622452,0.23111160099506378,-0.971299409866333,0.0,0.0,0.0,0.0,0.0,0.0
3308,1724820312606303047,-2.120964527130127,0.18827953934669495,0.17123132944107056,-0.029505986720323563,-0.04606688767671585,0.2305796891450882,-0.9715144634246826,0.0,0.0,0.0,0.0,0.0,0.0
3310,1724820312614921678,-2.1211442947387695,0.18829217553138733,0.1709938943386078,-0.027363188564777374,-0.04547446593642235,0.22936439514160156,-0.9718927145004272,0.0,0.0,0.0,0.0,0.0,0.0
3312,1724820312625882691,-2.1212973594665527,0.18856312334537506,0.17111733555793762,-0.026627067476511,-0.04649242386221886,0.22870907187461853,-0.972019374370575,0.0,0.0,0.0,0.0,0.0,0.0
3314,1724820312636290832,-2.121403217315674,0.1885497272014618,0.17100989818572998,-0.025874421000480652,-0.04630112648010254,0.22796715795993805,-0.9722230434417725,0.0,0.0,0.0,0.0,0.0,0.0
3316,1724820312645467967,-2.121366024017334,0.18842823803424835,0.17078165709972382,-0.02580772154033184,-0.04517601057887077,0.2277906835079193,-0.9723191857337952,0.0,0.0,0.0,0.0,0.0,0.0
3318,1724820312657458187,-2.1214544773101807,0.18855778872966766,0.17090167105197906,-0.02592870220541954,-0.04617595300078392,0.22776496410369873,-0.9722750186920166,0.0,0.0,0.0,0.0,0.0,0.0
3320,1724820312664864928,-2.1214678287506104,0.1885565221309662,0.17086783051490784,-0.02593829296529293,-0.046423908323049545,0.22777782380580902,-0.9722599387168884,0.0,0.0,0.0,0.0,0.0,0.0
3322,1724820312677102918,-2.121458053588867,0.1885526180267334,0.17087632417678833,-0.025713808834552765,-0.04675072059035301,0.22766391932964325,-0.9722769260406494,0.0,0.0,0.0,0.0,0.0,0.0
3324,1724820312686327142,-2.1212422847747803,0.18869337439537048,0.17121480405330658,-0.029383916407823563,-0.04806448519229889,0.2298940122127533,-0.971583902835846,0.0,0.0,0.0,0.0,0.0,0.0
3326,1724820312696223806,-2.1212949752807617,0.18846262991428375,0.17066560685634613,-0.026765553280711174,-0.045809727162122726,0.22841311991214752,-0.9721176028251648,0.0,0.0,0.0,0.0,0.0,0.0
3328,1724820312707328790,-2.121453285217285,0.18861430883407593,0.170596644282341,-0.02594008482992649,-0.04614170640707016,0.22790786623954773,-0.9722428917884827,0.0,0.0,0.0,0.0,0.0,0.0
3330,1724820312716100085,-2.121514081954956,0.18859854340553284,0.17058441042900085,-0.025379488244652748,-0.046218886971473694,0.22749842703342438,-0.9723498225212097,0.0,0.0,0.0,0.0,0.0,0.0
3332,1724820312726290493,-2.12150239944458,0.18859931826591492,0.1706387996673584,-0.025615209713578224,-0.046607378870248795,0.2277531921863556,-0.9722654223442078,0.0,0.0,0.0,0.0,0.0,0.0
3334,1724820312735496822,-2.1215453147888184,0.18859674036502838,0.1706233024597168,-0.025296345353126526,-0.04666254296898842,0.2274678349494934,-0.9723380208015442,0.0,0.0,0.0,0.0,0.0,0.0
3336,1724820312757175965,-2.121523141860962,0.18856798112392426,0.17068102955818176,-0.02541636861860752,-0.046808578073978424,0.22758179903030396,-0.972301185131073,0.0,0.0,0.0,0.0,0.0,0.0
3338,1724820312765680514,-2.1214911937713623,0.18858113884925842,0.17072172462940216,-0.025958852842450142,-0.046908773481845856,0.22793012857437134,-0.9722003936767578,0.0,0.0,0.0,0.0,0.0,0.0
3340,1724820312777729182,-2.121483564376831,0.18859514594078064,0.17069558799266815,-0.02583932690322399,-0.04681004583835602,0.2278565913438797,-0.972225546836853,0.0,0.0,0.0,0.0,0.0,0.0
3342,1724820312785284553,-2.121506929397583,0.1886007934808731,0.17065775394439697,-0.025381416082382202,-0.046866998076438904,0.2276964783668518,-0.9722723960876465,0.0,0.0,0.0,0.0,0.0,0.0
3344,1724820312795287453,-2.1215555667877197,0.18858453631401062,0.1706119030714035,-0.02517123706638813,-0.04666311293840408,0.22751034796237946,-0.9723312258720398,0.0,0.0,0.0,0.0,0.0,0.0
3346,1724820312810011763,-2.1213057041168213,0.1887178272008896,0.1710141897201538,-0.029475565999746323,-0.04832158237695694,0.22988425195217133,-0.9715706706047058,0.0,0.0,0.0,0.0,0.0,0.0
3348,1724820312815847375,-2.121454954147339,0.18857941031455994,0.17072391510009766,-0.02699594385921955,-0.04717373847961426,0.22846800088882446,-0.9720331430435181,0.0,0.0,0.0,0.0,0.0,0.0
3350,1724820312832245288,-2.1214723587036133,0.18858569860458374,0.17069175839424133,-0.02639089524745941,-0.04698861762881279,0.22803956270217896,-0.972159206867218,0.0,0.0,0.0,0.0,0.0,0.0
3352,1724820312835189198,-2.1215109825134277,0.18855734169483185,0.17068591713905334,-0.025605781003832817,-0.04672488570213318,0.22782845795154572,-0.9722424745559692,0.0,0.0,0.0,0.0,0.0,0.0
3354,1724820312846354692,-2.1215224266052246,0.18858249485492706,0.17069131135940552,-0.025613149628043175,-0.04698796197772026,0.2277168333530426,-0.9722557663917542,0.0,0.0,0.0,0.0,0.0,0.0
3356,1724820312856105346,-2.121532678604126,0.1885554939508438,0.1706944704055786,-0.02564822882413864,-0.04685616120696068,0.22773323953151703,-0.9722573161125183,0.0,0.0,0.0,0.0,0.0,0.0
3358,1724820312865334957,-2.1213061809539795,0.18867763876914978,0.17106208205223083,-0.029151324182748795,-0.04813726618885994,0.22997964918613434,-0.9715670347213745,0.0,0.0,0.0,0.0,0.0,0.0
3360,1724820312879357721,-2.1214423179626465,0.18860545754432678,0.17071858048439026,-0.026396801695227623,-0.047011181712150574,0.22869503498077393,-0.9720039367675781,0.0,0.0,0.0,0.0,0.0,0.0
3362,1724820312889622603,-2.121495246887207,0.18856856226921082,0.17067931592464447,-0.026318654417991638,-0.04714099317789078,0.22827602922916412,-0.9720983505249023,0.0,0.0,0.0,0.0,0.0,0.0
3364,1724820312895354851,-2.1215178966522217,0.18857398629188538,0.17065086960792542,-0.026190882548689842,-0.0469171516597271,0.22813589870929718,-0.9721455574035645,0.0,0.0,0.0,0.0,0.0,0.0
3366,1724820312908739689,-2.121565818786621,0.18856796622276306,0.17058420181274414,-0.025670479983091354,-0.046921730041503906,0.22764189541339874,-0.9722750186920166,0.0,0.0,0.0,0.0,0.0,0.0
3368,1724820312915200330,-2.121572494506836,0.188580721616745,0.1706271767616272,-0.02555759809911251,-0.04692878946661949,0.22764648497104645,-0.972276508808136,0.0,0.0,0.0,0.0,0.0,0.0
3370,1724820312925672754,-2.1215803623199463,0.1885707676410675,0.17061547935009003,-0.02546544559299946,-0.04685342311859131,0.22766761481761932,-0.9722775816917419,0.0,0.0,0.0,0.0,0.0,0.0
3372,1724820312935520519,-2.121562957763672,0.1885613650083542,0.17061907052993774,-0.02552412822842598,-0.04686012491583824,0.22759906947612762,-0.9722918272018433,0.0,0.0,0.0,0.0,0.0,0.0
3374,1724820312944906304,-2.121582269668579,0.18853774666786194,0.17060475051403046,-0.02544248476624489,-0.04677378013730049,0.22759929299354553,-0.9722980260848999,0.0,0.0,0.0,0.0,0.0,0.0
3376,1724820312956943033,-2.121584177017212,0.18856634199619293,0.1706075817346573,-0.025418488308787346,-0.046850237995386124,0.22757560014724731,-0.9723005890846252,0.0,0.0,0.0,0.0,0.0,0.0
3378,1724820312965167458,-2.121342420578003,0.1886690855026245,0.1710204780101776,-0.029346482828259468,-0.04843074828386307,0.23004844784736633,-0.9715302586555481,0.0,0.0,0.0,0.0,0.0,0.0
3380,1724820312975090188,-2.1215009689331055,0.18857964873313904,0.1707017868757248,-0.026825912296772003,-0.047444261610507965,0.2286992222070694,-0.9719702005386353,0.0,0.0,0.0,0.0,0.0,0.0
3382,1724820312985485566,-2.121319532394409,0.18866729736328125,0.17100994288921356,-0.029471369460225105,-0.048406850546598434,0.23009125888347626,-0.9715175032615662,0.0,0.0,0.0,0.0,0.0,0.0
3384,1724820312999451247,-2.121286392211914,0.18851974606513977,0.1710197925567627,-0.029599253088235855,-0.0483267679810524,0.23064565658569336,-0.9713861346244812,0.0,0.0,0.0,0.0,0.0,0.0
3386,1724820313006401062,-2.1211514472961426,0.18828454613685608,0.17077961564064026,-0.02934475615620613,-0.046772923320531845,0.23043687641620636,-0.9715194702148438,0.0,0.0,0.0,0.0,0.0,0.0
3388,1724820313015441916,-2.1213088035583496,0.18828627467155457,0.17056214809417725,-0.027345167472958565,-0.045981090515851974,0.22934702038764954,-0.9718734622001648,0.0,0.0,0.0,0.0,0.0,0.0
3390,1724820313025882791,-2.121291160583496,0.18850356340408325,0.17104150354862213,-0.02983989380300045,-0.04847514256834984,0.2307639718055725,-0.9713432788848877,0.0,0.0,0.0,0.0,0.0,0.0
3392,1724820313035436311,-2.1212713718414307,0.18850985169410706,0.17107178270816803,-0.02993943728506565,-0.048644840717315674,0.23082378506660461,-0.9713175296783447,0.0,0.0,0.0,0.0,0.0,0.0
3394,1724820313045848322,-2.121262788772583,0.18849235773086548,0.17105914652347565,-0.029903264716267586,-0.04863067343831062,0.2308429777622223,-0.9713147282600403,0.0,0.0,0.0,0.0,0.0,0.0
3396,1724820313055569618,-2.1212663650512695,0.18847711384296417,0.17108458280563354,-0.030176090076565742,-0.048864927142858505,0.23092244565486908,-0.9712756872177124,0.0,0.0,0.0,0.0,0.0,0.0
3398,1724820313065475620,-2.121333599090576,0.18827593326568604,0.1706296056509018,-0.027587370947003365,-0.04660644382238388,0.2292829155921936,-0.9718519449234009,0.0,0.0,0.0,0.0,0.0,0.0
3400,1724820313081672576,-2.1212961673736572,0.1885124146938324,0.17101775109767914,-0.029796045273542404,-0.04811306670308113,0.23069629073143005,-0.9713786840438843,0.0,0.0,0.0,0.0,0.0,0.0
3402,1724820313108010324,-2.1214404106140137,0.18855836987495422,0.17078621685504913,-0.027305377647280693,-0.04740620031952858,0.22907458245754242,-0.9718704223632812,0.0,0.0,0.0,0.0,0.0,0.0
3404,1724820313108408031,-2.121546745300293,0.18854016065597534,0.17068293690681458,-0.02666083164513111,-0.04715679585933685,0.2282649576663971,-0.9720907807350159,0.0,0.0,0.0,0.0,0.0,0.0
3406,1724820313108779581,-2.121570110321045,0.18853898346424103,0.17066137492656708,-0.02651871368288994,-0.04736897721886635,0.2281775325536728,-0.9721049070358276,0.0,0.0,0.0,0.0,0.0,0.0
3408,1724820313114903374,-2.1213581562042236,0.18863818049430847,0.17102685570716858,-0.029615938663482666,-0.04860773682594299,0.23010700941085815,-0.9714993834495544,0.0,0.0,0.0,0.0,0.0,0.0
3410,1724820313126636814,-2.121288776397705,0.1885385513305664,0.1710677295923233,-0.0306017454713583,-0.04889939725399017,0.23087091743946075,-0.971272885799408,0.0,0.0,0.0,0.0,0.0,0.0
3412,1724820313135637931,-2.1213536262512207,0.18831641972064972,0.17058393359184265,-0.028014834970235825,-0.046657316386699677,0.22960805892944336,-0.9717605113983154,0.0,0.0,0.0,0.0,0.0,0.0
3414,1724820313146869190,-2.121187448501587,0.18852916359901428,0.17106741666793823,-0.031191080808639526,-0.04861722141504288,0.23151443898677826,-0.9711151123046875,0.0,0.0,0.0,0.0,0.0,0.0
3416,1724820313158700374,-2.121109962463379,0.18849393725395203,0.17119836807250977,-0.03169279173016548,-0.04932659491896629,0.23186954855918884,-0.970978319644928,0.0,0.0,0.0,0.0,0.0,0.0
3418,1724820313164932316,-2.1210756301879883,0.18848827481269836,0.17121168971061707,-0.03168069198727608,-0.04938754811882973,0.2320493906736374,-0.9709327220916748,0.0,0.0,0.0,0.0,0.0,0.0
3420,1724820313178328829,-2.121058225631714,0.18849582970142365,0.17116780579090118,-0.03177230432629585,-0.0495079942047596,0.2323032170534134,-0.9708629250526428,0.0,0.0,0.0,0.0,0.0,0.0
3422,1724820313186234726,-2.120920419692993,0.18826605379581451,0.17091716825962067,-0.03176494315266609,-0.04778318107128143,0.2323264479637146,-0.9709440469741821,0.0,0.0,0.0,0.0,0.0,0.0
3424,1724820313194723934,-2.120879650115967,0.18823903799057007,0.17081405222415924,-0.032210737466812134,-0.04719129204750061,0.23237021267414093,-0.9709477424621582,0.0,0.0,0.0,0.0,0.0,0.0
3426,1724820313206484401,-2.1209001541137695,0.1882164478302002,0.17084023356437683,-0.03233051300048828,-0.04721151664853096,0.2323085218667984,-0.9709576368331909,0.0,0.0,0.0,0.0,0.0,0.0
3428,1724820313215395239,-2.12095046043396,0.1882643699645996,0.17077948153018951,-0.03192330524325371,-0.047129228711128235,0.2320774793624878,-0.9710303544998169,0.0,0.0,0.0,0.0,0.0,0.0
3430,1724820313226072657,-2.120999336242676,0.18828226625919342,0.17080017924308777,-0.03169650956988335,-0.047153040766716,0.23164741694927216,-0.9711393117904663,0.0,0.0,0.0,0.0,0.0,0.0
3432,1724820313235348055,-2.121060609817505,0.18828673660755157,0.17075054347515106,-0.0314280241727829,-0.047410085797309875,0.23130501806735992,-0.9712170958518982,0.0,0.0,0.0,0.0,0.0,0.0
3434,1724820313245022218,-2.121093273162842,0.18830829858779907,0.17072422802448273,-0.031334664672613144,-0.04732847586274147,0.23108568787574768,-0.9712763428688049,0.0,0.0,0.0,0.0,0.0,0.0
3436,1724820313256323263,-2.1211612224578857,0.1883130818605423,0.17066703736782074,-0.030886273831129074,-0.04723476618528366,0.23095174133777618,-0.9713270664215088,0.0,0.0,0.0,0.0,0.0,0.0
3438,1724820313265418405,-2.121623992919922,0.18837565183639526,0.1702236533164978,-0.026016611605882645,-0.04599098861217499,0.22750018537044525,-0.972343385219574,0.0,0.0,0.0,0.0,0.0,0.0
3440,1724820313275243431,-2.12192702293396,0.18838174641132355,0.17016643285751343,-0.02458612434566021,-0.046445392072200775,0.22624678909778595,-0.972651481628418,0.0,0.0,0.0,0.0,0.0,0.0
3442,1724820313285769206,-2.121917724609375,0.18840181827545166,0.17014816403388977,-0.024403473362326622,-0.046582091599702835,0.22603978216648102,-0.9726975560188293,0.0,0.0,0.0,0.0,0.0,0.0
3444,1724820313295478797,-2.121974229812622,0.18834824860095978,0.1701023429632187,-0.02422572486102581,-0.04681634530425072,0.22590211033821106,-0.9727228283882141,0.0,0.0,0.0,0.0,0.0,0.0
3446,1724820313305257329,-2.121943235397339,0.18839187920093536,0.17016078531742096,-0.02462216466665268,-0.04710463061928749,0.2261921465396881,-0.9726314544677734,0.0,0.0,0.0,0.0,0.0,0.0
3448,1724820313314913264,-2.121966600418091,0.18840977549552917,0.17009244859218597,-0.024485183879733086,-0.047118350863456726,0.22603990137577057,-0.9726697206497192,0.0,0.0,0.0,0.0,0.0,0.0
3450,1724820313327075373,-2.121976613998413,0.1884053647518158,0.17008627951145172,-0.024395953863859177,-0.047054748982191086,0.22614248096942902,-0.9726511836051941,0.0,0.0,0.0,0.0,0.0,0.0
3452,1724820313335741598,-2.122004270553589,0.18838372826576233,0.17002902925014496,-0.02423224225640297,-0.047049324959516525,0.22598637640476227,-0.9726918339729309,0.0,0.0,0.0,0.0,0.0,0.0
3454,1724820313345462324,-2.121994733810425,0.18838943541049957,0.1700552999973297,-0.024316616356372833,-0.04720224067568779,0.22601516544818878,-0.9726756811141968,0.0,0.0,0.0,0.0,0.0,0.0
3456,1724820313356785198,-2.1220457553863525,0.18837247788906097,0.1699979305267334,-0.024072542786598206,-0.04725933447480202,0.22602470219135284,-0.972676694393158,0.0,0.0,0.0,0.0,0.0,0.0
3458,1724820313365454470,-2.122004270553589,0.18840181827545166,0.1700485497713089,-0.024843696504831314,-0.04752584174275398,0.22640490531921387,-0.972555935382843,0.0,0.0,0.0,0.0,0.0,0.0
3460,1724820313375910938,-2.121976852416992,0.1884293258190155,0.16998493671417236,-0.024874132126569748,-0.04739993065595627,0.2265051007270813,-0.9725378751754761,0.0,0.0,0.0,0.0,0.0,0.0
3462,1724820313386325065,-2.121957778930664,0.18845489621162415,0.17000502347946167,-0.02506916970014572,-0.04742768779397011,0.2267593890428543,-0.9724722504615784,0.0,0.0,0.0,0.0,0.0,0.0
3464,1724820313395501880,-2.1219654083251953,0.1884821057319641,0.16999991238117218,-0.025322264060378075,-0.04772079735994339,0.22691765427589417,-0.9724145531654358,0.0,0.0,0.0,0.0,0.0,0.0
3466,1724820313407386999,-2.1219747066497803,0.18849413096904755,0.16993741691112518,-0.025518421083688736,-0.047675129026174545,0.2271466702222824,-0.9723581671714783,0.0,0.0,0.0,0.0,0.0,0.0
3468,1724820313415846614,-2.121955633163452,0.18852677941322327,0.1698990911245346,-0.02558237686753273,-0.04810154065489769,0.227252796292305,-0.9723106026649475,0.0,0.0,0.0,0.0,0.0,0.0
3470,1724820313427326105,-2.121924638748169,0.18856632709503174,0.16989552974700928,-0.025955358520150185,-0.04850570112466812,0.2274320125579834,-0.9722388386726379,0.0,0.0,0.0,0.0,0.0,0.0
3472,1724820313436155816,-2.1219286918640137,0.18856504559516907,0.1698656529188156,-0.025758564472198486,-0.04844195395708084,0.22747980058193207,-0.9722360372543335,0.0,0.0,0.0,0.0,0.0,0.0
3474,1724820313445252302,-2.1219286918640137,0.1885465830564499,0.16979053616523743,-0.025846177712082863,-0.04830506443977356,0.2273331880569458,-0.9722747802734375,0.0,0.0,0.0,0.0,0.0,0.0
3476,1724820313457053713,-2.1219353675842285,0.18855373561382294,0.16980338096618652,-0.025858858600258827,-0.04856356978416443,0.22737561166286469,-0.9722517132759094,0.0,0.0,0.0,0.0,0.0,0.0
3478,1724820313465902311,-2.121938705444336,0.18857616186141968,0.16979070007801056,-0.02592046558856964,-0.04841482266783714,0.2274537831544876,-0.9722391963005066,0.0,0.0,0.0,0.0,0.0,0.0
3480,1724820313475739798,-2.121914863586426,0.18857799470424652,0.16977661848068237,-0.026111429557204247,-0.048599936068058014,0.2274920791387558,-0.9722158312797546,0.0,0.0,0.0,0.0,0.0,0.0
3482,1724820313485979319,-2.1219522953033447,0.18858811259269714,0.16974666714668274,-0.025842012837529182,-0.04844161123037338,0.2273595631122589,-0.9722619652748108,0.0,0.0,0.0,0.0,0.0,0.0
3484,1724820313523720327,-2.1219406127929688,0.18860754370689392,0.16983236372470856,-0.026160044595599174,-0.04864524304866791,0.22761687636375427,-0.9721830487251282,0.0,0.0,0.0,0.0,0.0,0.0
3486,1724820313524221980,-2.1219470500946045,0.1886005997657776,0.1698053926229477,-0.026182852685451508,-0.048717282712459564,0.22760720551013947,-0.9721811413764954,0.0,0.0,0.0,0.0,0.0,0.0
3488,1724820313524565817,-2.1219542026519775,0.18859048187732697,0.16981004178524017,-0.026285162195563316,-0.04882040619850159,0.2276591807603836,-0.9721609950065613,0.0,0.0,0.0,0.0,0.0,0.0
3490,1724820313529954540,-2.121936321258545,0.18859319388866425,0.16979753971099854,-0.02598302997648716,-0.04871812090277672,0.22750568389892578,-0.9722102284431458,0.0,0.0,0.0,0.0,0.0,0.0
3492,1724820313535243218,-2.1219403743743896,0.18859417736530304,0.16977593302726746,-0.026234637945890427,-0.04842696338891983,0.2276245504617691,-0.9721901416778564,0.0,0.0,0.0,0.0,0.0,0.0
3494,1724820313548624172,-2.1219193935394287,0.1885983943939209,0.16976934671401978,-0.026217186823487282,-0.04853985086083412,0.22754789888858795,-0.9722028970718384,0.0,0.0,0.0,0.0,0.0,0.0
3496,1724820313555772900,-2.1219141483306885,0.18858441710472107,0.1697659194469452,-0.02620546706020832,-0.04848950728774071,0.2275678515434265,-0.9722011089324951,0.0,0.0,0.0,0.0,0.0,0.0
3498,1724820313565057762,-2.1219420433044434,0.1886037439107895,0.16978174448013306,-0.026409955695271492,-0.04874804988503456,0.22758200764656067,-0.9721793532371521,0.0,0.0,0.0,0.0,0.0,0.0
3500,1724820313576684908,-2.1219592094421387,0.1885901391506195,0.1697620153427124,-0.026090793311595917,-0.04867924749851227,0.22755183279514313,-0.972198486328125,0.0,0.0,0.0,0.0,0.0,0.0
3502,1724820313602548129,-2.121929883956909,0.18861110508441925,0.16975679993629456,-0.02626347541809082,-0.048581261187791824,0.2275780588388443,-0.9721925258636475,0.0,0.0,0.0,0.0,0.0,0.0
3504,1724820313602946319,-2.121969223022461,0.1885978877544403,0.1697736382484436,-0.026411324739456177,-0.048723772168159485,0.2276119589805603,-0.9721735119819641,0.0,0.0,0.0,0.0,0.0,0.0
3506,1724820313606717208,-2.121964693069458,0.18859751522541046,0.1696954369544983,-0.026340782642364502,-0.048656314611434937,0.2274869680404663,-0.9722080826759338,0.0,0.0,0.0,0.0,0.0,0.0
3508,1724820313615627699,-2.121987819671631,0.1886046677827835,0.16966208815574646,-0.026161719113588333,-0.04857668653130531,0.2274019867181778,-0.972236692905426,0.0,0.0,0.0,0.0,0.0,0.0
3510,1724820313625501469,-2.1219968795776367,0.1886015087366104,0.16962866485118866,-0.025967927649617195,-0.04860439896583557,0.22730350494384766,-0.972263514995575,0.0,0.0,0.0,0.0,0.0,0.0
3512,1724820313635998971,-2.121955394744873,0.18862932920455933,0.16967742145061493,-0.026773428544402122,-0.04914900287985802,0.22746361792087555,-0.9721768498420715,0.0,0.0,0.0,0.0,0.0,0.0
3514,1724820313645007859,-2.121962785720825,0.1886337399482727,0.16963544487953186,-0.026630885899066925,-0.049134958535432816,0.22751711308956146,-0.9721689820289612,0.0,0.0,0.0,0.0,0.0,0.0
3516,1724820313655615860,-2.12198543548584,0.18865786492824554,0.16961511969566345,-0.026399588212370872,-0.04867584630846977,0.22747384011745453,-0.972208559513092,0.0,0.0,0.0,0.0,0.0,0.0
3518,1724820313665227034,-2.121967077255249,0.1886398196220398,0.16959907114505768,-0.02628765068948269,-0.04848865792155266,0.22737520933151245,-0.9722440242767334,0.0,0.0,0.0,0.0,0.0,0.0
3520,1724820313683924208,-2.1219661235809326,0.18862928450107574,0.16961514949798584,-0.026417797431349754,-0.04870989918708801,0.22733286023139954,-0.9722393155097961,0.0,0.0,0.0,0.0,0.0,0.0
3522,1724820313685393259,-2.121973991394043,0.1886371672153473,0.16958573460578918,-0.026026155799627304,-0.048632197082042694,0.22727178037166595,-0.9722680449485779,0.0,0.0,0.0,0.0,0.0,0.0
3524,1724820313695338494,-2.121962547302246,0.18861278891563416,0.16959165036678314,-0.026230987161397934,-0.048501137644052505,0.2273709774017334,-0.9722459316253662,0.0,0.0,0.0,0.0,0.0,0.0
3526,1724820313705433769,-2.121968984603882,0.18860484659671783,0.16957688331604004,-0.026104561984539032,-0.04857853800058365,0.22726783156394958,-0.972269594669342,0.0,0.0,0.0,0.0,0.0,0.0
3528,1724820313715713796,-2.1219863891601562,0.1886109709739685,0.16953060030937195,-0.026220301166176796,-0.04844607785344124,0.22729793190956116,-0.9722660183906555,0.0,0.0,0.0,0.0,0.0,0.0
3530,1724820313725525530,-2.1219639778137207,0.18862810730934143,0.16955852508544922,-0.026431791484355927,-0.04862569272518158,0.22750607132911682,-0.9722026586532593,0.0,0.0,0.0,0.0,0.0,0.0
3532,1724820313735341818,-2.121915102005005,0.1886359602212906,0.16960206627845764,-0.026413694024086,-0.04855520278215408,0.22747088968753815,-0.972214937210083,0.0,0.0,0.0,0.0,0.0,0.0
3534,1724820313755417383,-2.121932029724121,0.18866389989852905,0.16959883272647858,-0.02627561055123806,-0.04848198592662811,0.22748565673828125,-0.9722188115119934,0.0,0.0,0.0,0.0,0.0,0.0
3536,1724820313755683496,-2.1219749450683594,0.188648521900177,0.16958364844322205,-0.026401007547974586,-0.04862857982516289,0.22740930318832397,-0.9722260236740112,0.0,0.0,0.0,0.0,0.0,0.0
3538,1724820313765051185,-2.121929168701172,0.18865340948104858,0.16961237788200378,-0.02627030946314335,-0.04847513511776924,0.22737638652324677,-0.972244918346405,0.0,0.0,0.0,0.0,0.0,0.0
3540,1724820313775270549,-2.121941566467285,0.18864738941192627,0.1696387380361557,-0.0264824777841568,-0.048476025462150574,0.22749008238315582,-0.9722124934196472,0.0,0.0,0.0,0.0,0.0,0.0
3542,1724820313785219078,-2.1219232082366943,0.18866461515426636,0.16964034736156464,-0.02636198326945305,-0.04858342185616493,0.22757583856582642,-0.972190260887146,0.0,0.0,0.0,0.0,0.0,0.0
3544,1724820313798606759,-2.1219277381896973,0.18867415189743042,0.16964870691299438,-0.026661593466997147,-0.048844896256923676,0.22752460837364197,-0.9721810221672058,0.0,0.0,0.0,0.0,0.0,0.0
3546,1724820313805061987,-2.1219146251678467,0.18867264688014984,0.16967007517814636,-0.026418987661600113,-0.048617105931043625,0.2274976223707199,-0.972205400466919,0.0,0.0,0.0,0.0,0.0,0.0
3548,1724820313818233625,-2.12188720703125,0.1886715292930603,0.16967718303203583,-0.026703624054789543,-0.048810478299856186,0.22752629220485687,-0.9721811413764954,0.0,0.0,0.0,0.0,0.0,0.0
3550,1724820313829622388,-2.121884346008301,0.18865790963172913,0.16965624690055847,-0.02627081237733364,-0.048606179654598236,0.2273690551519394,-0.9722399711608887,0.0,0.0,0.0,0.0,0.0,0.0
3552,1724820313835556325,-2.121912717819214,0.1886771023273468,0.1696540266275406,-0.026284893974661827,-0.04843753203749657,0.22743554413318634,-0.9722325205802917,0.0,0.0,0.0,0.0,0.0,0.0
3554,1724820313845904339,-2.121890068054199,0.18865112960338593,0.1696760207414627,-0.025966670364141464,-0.04822460189461708,0.22734375298023224,-0.9722731113433838,0.0,0.0,0.0,0.0,0.0,0.0
3556,1724820313857167898,-2.12192440032959,0.18863898515701294,0.16967521607875824,-0.026082340627908707,-0.04830985888838768,0.227272629737854,-0.9722824692726135,0.0,0.0,0.0,0.0,0.0,0.0
3558,1724820313865169253,-2.121943712234497,0.18863090872764587,0.16966775059700012,-0.026158301159739494,-0.048402056097984314,0.22710323333740234,-0.9723153710365295,0.0,0.0,0.0,0.0,0.0,0.0
3560,1724820313876498309,-2.1219403743743896,0.18863961100578308,0.16969433426856995,-0.026084383949637413,-0.04833346605300903,0.22716619074344635,-0.9723060131072998,0.0,0.0,0.0,0.0,0.0,0.0
3562,1724820313886523125,-2.1219382286071777,0.1886264681816101,0.16970999538898468,-0.026155492290854454,-0.04846668988466263,0.22727183997631073,-0.9722728729248047,0.0,0.0,0.0,0.0,0.0,0.0
3564,1724820313895395080,-2.121880531311035,0.18864184617996216,0.16972754895687103,-0.02624720148742199,-0.048283763229846954,0.22739140689373016,-0.9722514748573303,0.0,0.0,0.0,0.0,0.0,0.0
3566,1724820313906928103,-2.121891736984253,0.1886235922574997,0.16974958777427673,-0.026637788861989975,-0.04852607846260071,0.22738157212734222,-0.9722310900688171,0.0,0.0,0.0,0.0,0.0,0.0
3568,1724820313915769921,-2.1219165325164795,0.18862400949001312,0.16969643533229828,-0.025953691452741623,-0.04828418046236038,0.22696632146835327,-0.9723586440086365,0.0,0.0,0.0,0.0,0.0,0.0
3570,1724820313925307895,-2.1219234466552734,0.18862852454185486,0.16975252330303192,-0.02611427940428257,-0.048313356935977936,0.2271888554096222,-0.9723009467124939,0.0,0.0,0.0,0.0,0.0,0.0
3572,1724820313936469876,-2.1219263076782227,0.18861877918243408,0.16976472735404968,-0.026040002703666687,-0.04816169664263725,0.2270595133304596,-0.9723407030105591,0.0,0.0,0.0,0.0,0.0,0.0
3574,1724820313945471507,-2.121959924697876,0.18860609829425812,0.16973020136356354,-0.025884119793772697,-0.04800143092870712,0.22702427208423615,-0.9723610281944275,0.0,0.0,0.0,0.0,0.0,0.0
3576,1724820313956541934,-2.121986150741577,0.18864953517913818,0.16975024342536926,-0.025834400206804276,-0.048093754798173904,0.22706322371959686,-0.9723486304283142,0.0,0.0,0.0,0.0,0.0,0.0
3578,1724820313966102277,-2.121979236602783,0.18862690031528473,0.16977445781230927,-0.025914395228028297,-0.048296160995960236,0.22704659402370453,-0.9723404049873352,0.0,0.0,0.0,0.0,0.0,0.0
3580,1724820313976674483,-2.1219472885131836,0.1886245459318161,0.16972246766090393,-0.02600187063217163,-0.048347897827625275,0.2269812375307083,-0.9723507761955261,0.0,0.0,0.0,0.0,0.0,0.0
3582,1724820313985478409,-2.121948480606079,0.18864300847053528,0.16972345113754272,-0.02606714330613613,-0.04844057559967041,0.22701334953308105,-0.9723368883132935,0.0,0.0,0.0,0.0,0.0,0.0
3584,1724820313994867783,-2.121994972229004,0.18860994279384613,0.16970917582511902,-0.025759994983673096,-0.04828239604830742,0.22673799097537994,-0.9724172353744507,0.0,0.0,0.0,0.0,0.0,0.0
3586,1724820314005339244,-2.121987819671631,0.18859483301639557,0.1697366088628769,-0.025671256706118584,-0.04831772670149803,0.2266869843006134,-0.972429633140564,0.0,0.0,0.0,0.0,0.0,0.0
3588,1724820314014994853,-2.121971845626831,0.18857480585575104,0.16976895928382874,-0.025737278163433075,-0.048190657049417496,0.22669030725955963,-0.9724335074424744,0.0,0.0,0.0,0.0,0.0,0.0
3590,1724820314027613600,-2.1220223903656006,0.18856516480445862,0.1697370409965515,-0.025600166991353035,-0.048016421496868134,0.22663547098636627,-0.9724584221839905,0.0,0.0,0.0,0.0,0.0,0.0
3592,1724820314035410573,-2.1220107078552246,0.18854880332946777,0.16968141496181488,-0.025316063314676285,-0.04781806096434593,0.22631245851516724,-0.9725508689880371,0.0,0.0,0.0,0.0,0.0,0.0
3594,1724820314048049226,-2.1220197677612305,0.18854153156280518,0.16966211795806885,-0.025315377861261368,-0.047799818217754364,0.22636856138706207,-0.9725387692451477,0.0,0.0,0.0,0.0,0.0,0.0
3596,1724820314055310899,-2.1220359802246094,0.18854060769081116,0.1696653515100479,-0.025061387568712234,-0.04783623293042183,0.22628621757030487,-0.9725626707077026,0.0,0.0,0.0,0.0,0.0,0.0
3598,1724820314064912839,-2.122072696685791,0.18855464458465576,0.16965200006961823,-0.025262759998440742,-0.048144061118364334,0.22627441585063934,-0.9725450873374939,0.0,0.0,0.0,0.0,0.0,0.0
3600,1724820314075196447,-2.1220853328704834,0.18855124711990356,0.16966305673122406,-0.02516288310289383,-0.04788297414779663,0.22627416253089905,-0.9725606441497803,0.0,0.0,0.0,0.0,0.0,0.0
3602,1724820314085446380,-2.1220529079437256,0.1885480433702469,0.16971710324287415,-0.02536742202937603,-0.04813709482550621,0.22627201676368713,-0.9725431799888611,0.0,0.0,0.0,0.0,0.0,0.0
3604,1724820314095108453,-2.1221096515655518,0.18850314617156982,0.16966694593429565,-0.02480251155793667,-0.04777809605002403,0.2259114384651184,-0.9726593494415283,0.0,0.0,0.0,0.0,0.0,0.0
3606,1724820314106087887,-2.122075319290161,0.18853384256362915,0.16967785358428955,-0.024953430518507957,-0.047788552939891815,0.22626517713069916,-0.9725727438926697,0.0,0.0,0.0,0.0,0.0,0.0
3608,1724820314114852928,-2.1221072673797607,0.18849948048591614,0.16964533925056458,-0.024498477578163147,-0.04776865243911743,0.22573761641979218,-0.9727078080177307,0.0,0.0,0.0,0.0,0.0,0.0
3610,1724820314125500539,-2.1221258640289307,0.18850183486938477,0.16962571442127228,-0.024387512356042862,-0.04760994389653206,0.2257310152053833,-0.9727199077606201,0.0,0.0,0.0,0.0,0.0,0.0
3612,1724820314135623481,-2.1221530437469482,0.18853071331977844,0.16956405341625214,-0.02418048493564129,-0.04746468737721443,0.22559580206871033,-0.9727635383605957,0.0,0.0,0.0,0.0,0.0,0.0
3614,1724820314146747979,-2.12223744392395,0.18855546414852142,0.16946619749069214,-0.024516208097338676,-0.04720153287053108,0.22572095692157745,-0.9727389812469482,0.0,0.0,0.0,0.0,0.0,0.0
3616,1724820314155821602,-2.122345209121704,0.18859168887138367,0.1693865954875946,-0.023748822510242462,-0.0466805025935173,0.2256200611591339,-0.9728065133094788,0.0,0.0,0.0,0.0,0.0,0.0
3618,1724820314165456654,-2.122549295425415,0.18861262500286102,0.16916555166244507,-0.02228345163166523,-0.0459759496152401,0.22455035150051117,-0.9731221795082092,0.0,0.0,0.0,0.0,0.0,0.0
3620,1724820314174912758,-2.1226112842559814,0.18862426280975342,0.1690763235092163,-0.02203577756881714,-0.04580805078148842,0.2244391292333603,-0.9731614589691162,0.0,0.0,0.0,0.0,0.0,0.0
3622,1724820314186109621,-2.1227104663848877,0.18861514329910278,0.16896653175354004,-0.02151448279619217,-0.045430075377225876,0.22405244410037994,-0.9732798933982849,0.0,0.0,0.0,0.0,0.0,0.0
3624,1724820314194635172,-2.1227266788482666,0.1886678785085678,0.16899363696575165,-0.021720029413700104,-0.045723140239715576,0.2242598831653595,-0.9732138514518738,0.0,0.0,0.0,0.0,0.0,0.0
3626,1724820314205643679,-2.12273907661438,0.18873101472854614,0.1689463108778,-0.02161777764558792,-0.04527194797992706,0.22450239956378937,-0.9731813073158264,0.0,0.0,0.0,0.0,0.0,0.0
3628,1724820314215479461,-2.1228106021881104,0.18867287039756775,0.1688966155052185,-0.021478725597262383,-0.04509697109460831,0.22415995597839355,-0.9732714295387268,0.0,0.0,0.0,0.0,0.0,0.0
3630,1724820314226577357,-2.1228249073028564,0.188720241189003,0.16890257596969604,-0.02157449722290039,-0.04501337930560112,0.22439749538898468,-0.9732185006141663,0.0,0.0,0.0,0.0,0.0,0.0
3632,1724820314235354277,-2.1229124069213867,0.18871872127056122,0.16884230077266693,-0.02107858844101429,-0.044481661170721054,0.2239285111427307,-0.9733617901802063,0.0,0.0,0.0,0.0,0.0,0.0
3634,1724820314244770318,-2.1229519844055176,0.18878033757209778,0.16889363527297974,-0.02136969193816185,-0.04466366767883301,0.2242574393749237,-0.9732713103294373,0.0,0.0,0.0,0.0,0.0,0.0
3636,1724820314255528148,-2.122990608215332,0.18884864449501038,0.1688762754201889,-0.021379690617322922,-0.0443301685154438,0.2242378145456314,-0.9732908606529236,0.0,0.0,0.0,0.0,0.0,0.0
3638,1724820314265473340,-2.1231086254119873,0.1888616532087326,0.16880686581134796,-0.020605040714144707,-0.043916501104831696,0.22387121617794037,-0.9734107851982117,0.0,0.0,0.0,0.0,0.0,0.0
3640,1724820314275618014,-2.123168706893921,0.1889076828956604,0.16876369714736938,-0.020720642060041428,-0.043657589703798294,0.223733589053154,-0.973451554775238,0.0,0.0,0.0,0.0,0.0,0.0
3642,1724820314285294434,-2.1231930255889893,0.1889626383781433,0.1687380075454712,-0.02054554410278797,-0.04333816468715668,0.2238442450761795,-0.9734441041946411,0.0,0.0,0.0,0.0,0.0,0.0
3644,1724820314297311752,-2.123279571533203,0.18897083401679993,0.16868732869625092,-0.020252501592040062,-0.04336084425449371,0.22348877787590027,-0.9735310077667236,0.0,0.0,0.0,0.0,0.0,0.0
3646,1724820314305386242,-2.1232452392578125,0.18899253010749817,0.1687605232000351,-0.020594391971826553,-0.043606966733932495,0.2237945795059204,-0.973442554473877,0.0,0.0,0.0,0.0,0.0,0.0
3648,1724820314346211394,-2.1232357025146484,0.18904556334018707,0.1687774807214737,-0.020968155935406685,-0.0436684787273407,0.22410763800144196,-0.9733597636222839,0.0,0.0,0.0,0.0,0.0,0.0
3650,1724820314346467180,-2.123243808746338,0.18907572329044342,0.16877828538417816,-0.020822135731577873,-0.04333890601992607,0.2243509590625763,-0.9733215570449829,0.0,0.0,0.0,0.0,0.0,0.0
3652,1724820314346731091,-2.1232473850250244,0.1890280544757843,0.16879341006278992,-0.020676642656326294,-0.04326775670051575,0.2239311784505844,-0.97342449426651,0.0,0.0,0.0,0.0,0.0,0.0
3654,1724820314347062518,-2.123260021209717,0.18903031945228577,0.16880838572978973,-0.021012842655181885,-0.04356846585869789,0.2240820974111557,-0.9733691215515137,0.0,0.0,0.0,0.0,0.0,0.0
3656,1724820314357187518,-2.1232857704162598,0.1890127956867218,0.16879218816757202,-0.020632516592741013,-0.043393705040216446,0.22389693558216095,-0.9734276533126831,0.0,0.0,0.0,0.0,0.0,0.0
3658,1724820314365774231,-2.1232926845550537,0.1889815628528595,0.16878384351730347,-0.020256586372852325,-0.04314476251602173,0.2238682508468628,-0.9734532833099365,0.0,0.0,0.0,0.0,0.0,0.0
3660,1724820314377165577,-2.123286247253418,0.18903258442878723,0.16873222589492798,-0.020347055047750473,-0.043033018708229065,0.2240414321422577,-0.9734164476394653,0.0,0.0,0.0,0.0,0.0,0.0
3662,1724820314386726768,-2.123300552368164,0.18901772797107697,0.16871848702430725,-0.02059970609843731,-0.04310096055269241,0.22400739789009094,-0.9734159708023071,0.0,0.0,0.0,0.0,0.0,0.0
3664,1724820314395973757,-2.123281717300415,0.1890076994895935,0.16876712441444397,-0.020627373829483986,-0.04320245608687401,0.22397340834140778,-0.9734187126159668,0.0,0.0,0.0,0.0,0.0,0.0
3666,1724820314408533425,-2.12329363822937,0.1889740377664566,0.1687721461057663,-0.02029051072895527,-0.043167565017938614,0.22374355792999268,-0.9734802842140198,0.0,0.0,0.0,0.0,0.0,0.0
3668,1724820314415548173,-2.123232364654541,0.18903067708015442,0.16885700821876526,-0.02060088887810707,-0.04346257075667381,0.2242625653743744,-0.9733411073684692,0.0,0.0,0.0,0.0,0.0,0.0
3670,1724820314425977359,-2.1232221126556396,0.18898886442184448,0.16886326670646667,-0.020427405834197998,-0.04348166286945343,0.22404435276985168,-0.9733942151069641,0.0,0.0,0.0,0.0,0.0,0.0
3672,1724820314436008685,-2.1231205463409424,0.1889740228652954,0.1689346879720688,-0.020696690306067467,-0.043706316500902176,0.22416791319847107,-0.973349928855896,0.0,0.0,0.0,0.0,0.0,0.0
3674,1724820314448991485,-2.1230814456939697,0.18898987770080566,0.16899456083774567,-0.02109547331929207,-0.04394932836294174,0.22476431727409363,-0.9731929302215576,0.0,0.0,0.0,0.0,0.0,0.0
3676,1724820314455801074,-2.123119354248047,0.18888351321220398,0.16892807185649872,-0.020707277581095695,-0.043566856533288956,0.2242710292339325,-0.9733322858810425,0.0,0.0,0.0,0.0,0.0,0.0
3678,1724820314465767355,-2.123037576675415,0.1888682246208191,0.16897690296173096,-0.02073713205754757,-0.04355132579803467,0.22443141043186188,-0.9732953906059265,0.0,0.0,0.0,0.0,0.0,0.0
3680,1724820314475301246,-2.122952461242676,0.18883635103702545,0.1691160947084427,-0.021152392029762268,-0.043876271694898605,0.22469322383403778,-0.9732113480567932,0.0,0.0,0.0,0.0,0.0,0.0
3682,1724820314485638135,-2.12282395362854,0.18877384066581726,0.1692506968975067,-0.021469663828611374,-0.044228486716747284,0.2250581681728363,-0.9731042385101318,0.0,0.0,0.0,0.0,0.0,0.0
3684,1724820314495451506,-2.122732400894165,0.18870308995246887,0.169355109333992,-0.021192727610468864,-0.04423053190112114,0.22504860162734985,-0.9731123447418213,0.0,0.0,0.0,0.0,0.0,0.0
3686,1724820314505582094,-2.1226744651794434,0.18860328197479248,0.1694323718547821,-0.021090637892484665,-0.044471561908721924,0.22512046992778778,-0.973086953163147,0.0,0.0,0.0,0.0,0.0,0.0
3688,1724820314515251872,-2.1225249767303467,0.18853597342967987,0.16950666904449463,-0.020975172519683838,-0.04473879560828209,0.22531938552856445,-0.973031222820282,0.0,0.0,0.0,0.0,0.0,0.0
3690,1724820314526568025,-2.1222145557403564,0.1883002519607544,0.1692846268415451,-0.022314423695206642,-0.044165242463350296,0.22603878378868103,-0.9728606939315796,0.0,0.0,0.0,0.0,0.0,0.0
3692,1724820314535328041,-2.12229323387146,0.18770325183868408,0.1679571121931076,-0.024281039834022522,-0.0388348326086998,0.22496341168880463,-0.973290205001831,0.0,0.0,0.0,0.0,0.0,0.0
3694,1724820314547088636,-2.1218199729919434,0.18743112683296204,0.16749249398708344,-0.028301814571022987,-0.03702165558934212,0.22632364928722382,-0.9729368090629578,0.0,0.0,0.0,0.0,0.0,0.0
3696,1724820314555650784,-2.121450662612915,0.18727493286132812,0.16748082637786865,-0.029242796823382378,-0.03720323368906975,0.22701719403266907,-0.9727404117584229,0.0,0.0,0.0,0.0,0.0,0.0
3698,1724820314636285726,-2.121143341064453,0.18721038103103638,0.16762812435626984,-0.029853764921426773,-0.037783339619636536,0.2281283736228943,-0.9724395871162415,0.0,0.0,0.0,0.0,0.0,0.0
3700,1724820314636651750,-2.1208302974700928,0.1871573030948639,0.16788780689239502,-0.029778622090816498,-0.038841281086206436,0.22910131514072418,-0.972171425819397,0.0,0.0,0.0,0.0,0.0,0.0
3702,1724820314636901208,-2.1205904483795166,0.18707792460918427,0.1679423749446869,-0.03039570339024067,-0.038988858461380005,0.23026302456855774,-0.9718718528747559,0.0,0.0,0.0,0.0,0.0,0.0
3704,1724820314637151147,-2.1203677654266357,0.18682387471199036,0.16779707372188568,-0.03072117455303669,-0.03840461000800133,0.23044192790985107,-0.9718424677848816,0.0,0.0,0.0,0.0,0.0,0.0
3706,1724820314637397809,-2.120164155960083,0.18677961826324463,0.1679006665945053,-0.03181681036949158,-0.038409944623708725,0.23202849924564362,-0.9714294075965881,0.0,0.0,0.0,0.0,0.0,0.0
3708,1724820314637645983,-2.119946002960205,0.18662488460540771,0.16796733438968658,-0.0320318229496479,-0.03892609849572182,0.23311419785022736,-0.9711418747901917,0.0,0.0,0.0,0.0,0.0,0.0
3710,1724820314637889791,-2.119805097579956,0.1865118145942688,0.16799864172935486,-0.03208187595009804,-0.039410851895809174,0.23415927588939667,-0.9708691835403442,0.0,0.0,0.0,0.0,0.0,0.0
3712,1724820314638139499,-2.1197092533111572,0.18650346994400024,0.16802243888378143,-0.03095127083361149,-0.039642881602048874,0.23497460782527924,-0.9706994891166687,0.0,0.0,0.0,0.0,0.0,0.0
3714,1724820314645174650,-2.119584798812866,0.186407208442688,0.1680365800857544,-0.030675681307911873,-0.04094187915325165,0.2359195500612259,-0.970425009727478,0.0,0.0,0.0,0.0,0.0,0.0
3716,1724820314656031403,-2.1193857192993164,0.18631665408611298,0.16780908405780792,-0.031217413023114204,-0.040536846965551376,0.2367306649684906,-0.9702272415161133,0.0,0.0,0.0,0.0,0.0,0.0
3718,1724820314664961205,-2.1192374229431152,0.18631088733673096,0.1679525524377823,-0.03076294995844364,-0.04206341505050659,0.23811189830303192,-0.9698387384414673,0.0,0.0,0.0,0.0,0.0,0.0
3720,1724820314675121789,-2.1190037727355957,0.18611106276512146,0.16759265959262848,-0.03163166344165802,-0.04071545600891113,0.23851463198661804,-0.969769299030304,0.0,0.0,0.0,0.0,0.0,0.0
3722,1724820314689686238,-2.1187946796417236,0.18605361878871918,0.16755220293998718,-0.03224062919616699,-0.0404578372836113,0.2398427277803421,-0.9694324731826782,0.0,0.0,0.0,0.0,0.0,0.0
3724,1724820314695420880,-2.118630886077881,0.18581627309322357,0.1674041897058487,-0.032239507883787155,-0.040194470435380936,0.24000152945518494,-0.9694041609764099,0.0,0.0,0.0,0.0,0.0,0.0
3726,1724820314706077528,-2.118486166000366,0.185746967792511,0.16751615703105927,-0.03162321075797081,-0.040589265525341034,0.2408996820449829,-0.9691851735115051,0.0,0.0,0.0,0.0,0.0,0.0
3728,1724820314716157351,-2.118269205093384,0.18548592925071716,0.1673528105020523,-0.03210965916514397,-0.03986305743455887,0.24120600521564484,-0.9691230654716492,0.0,0.0,0.0,0.0,0.0,0.0
3730,1724820314724904904,-2.1181178092956543,0.1852836012840271,0.16733838617801666,-0.032264113426208496,-0.04034331068396568,0.2418101578950882,-0.9689475297927856,0.0,0.0,0.0,0.0,0.0,0.0
3732,1724820314736341764,-2.1179709434509277,0.18526002764701843,0.16730646789073944,-0.03256666660308838,-0.0403515100479126,0.24316059052944183,-0.9685990810394287,0.0,0.0,0.0,0.0,0.0,0.0
3734,1724820314746061697,-2.117785930633545,0.18515998125076294,0.16719359159469604,-0.03285558521747589,-0.0405302457511425,0.24401018023490906,-0.9683681130409241,0.0,0.0,0.0,0.0,0.0,0.0
3736,1724820314755495872,-2.11759352684021,0.1851295381784439,0.1672615110874176,-0.03263451159000397,-0.04155423119664192,0.24474360048770905,-0.9681471586227417,0.0,0.0,0.0,0.0,0.0,0.0
3738,1724820314765267300,-2.1173548698425293,0.18519507348537445,0.16729195415973663,-0.032483797520399094,-0.042367223650217056,0.24605244398117065,-0.967785120010376,0.0,0.0,0.0,0.0,0.0,0.0
3740,1724820314775384465,-2.11708664894104,0.18515948951244354,0.16721321642398834,-0.03247952461242676,-0.042719896882772446,0.24677303433418274,-0.9675862789154053,0.0,0.0,0.0,0.0,0.0,0.0
3742,1724820314786179303,-2.116726875305176,0.18517689406871796,0.16709962487220764,-0.032949142158031464,-0.04313848912715912,0.24780403077602386,-0.9672882556915283,0.0,0.0,0.0,0.0,0.0,0.0
3744,1724820314796031353,-2.1163108348846436,0.18518227338790894,0.1668582260608673,-0.03418978303670883,-0.043311357498168945,0.24906158447265625,-0.9669144749641418,0.0,0.0,0.0,0.0,0.0,0.0
3746,1724820314805416576,-2.1159071922302246,0.18528899550437927,0.16678915917873383,-0.03475607559084892,-0.043619610369205475,0.2507351040840149,-0.9664478302001953,0.0,0.0,0.0,0.0,0.0,0.0
3748,1724820314815096637,-2.1154699325561523,0.18535351753234863,0.16693821549415588,-0.03477919474244118,-0.04478820040822029,0.25206080079078674,-0.9660485982894897,0.0,0.0,0.0,0.0,0.0,0.0
3750,1724820314827945489,-2.114942789077759,0.18534353375434875,0.16689938306808472,-0.035250402987003326,-0.044758349657058716,0.25346606969833374,-0.9656651616096497,0.0,0.0,0.0,0.0,0.0,0.0
3752,1724820314835443770,-2.1142983436584473,0.18551142513751984,0.1671765148639679,-0.038668565452098846,-0.04634297639131546,0.25785377621650696,-0.9642969369888306,0.0,0.0,0.0,0.0,0.0,0.0
3754,1724820314846208975,-2.113783121109009,0.18542522192001343,0.16715757548809052,-0.040005601942539215,-0.04633605480194092,0.25989508628845215,-0.9636945128440857,0.0,0.0,0.0,0.0,0.0,0.0
3756,1724820314856231648,-2.1134073734283447,0.18521250784397125,0.1668418049812317,-0.038577064871788025,-0.04442397505044937,0.2591962218284607,-0.9640309810638428,0.0,0.0,0.0,0.0,0.0,0.0
3758,1724820314864815262,-2.112900733947754,0.18507182598114014,0.16695263981819153,-0.03746282681822777,-0.04409341886639595,0.2601368725299835,-0.9638367295265198,0.0,0.0,0.0,0.0,0.0,0.0
3760,1724820314876661079,-2.1123454570770264,0.18481720983982086,0.16669921576976776,-0.03709951043128967,-0.042483724653720856,0.26122233271598816,-0.9636294841766357,0.0,0.0,0.0,0.0,0.0,0.0
3762,1724820314886690937,-2.1116933822631836,0.18459835648536682,0.16663923859596252,-0.03678935393691063,-0.042069610208272934,0.26266661286354065,-0.9632667899131775,0.0,0.0,0.0,0.0,0.0,0.0
3764,1724820314898166371,-2.111020803451538,0.1843443661928177,0.16658268868923187,-0.03702569007873535,-0.042696692049503326,0.26381462812423706,-0.962916374206543,0.0,0.0,0.0,0.0,0.0,0.0
3766,1724820314914752236,-2.110381841659546,0.18405583500862122,0.1665946990251541,-0.036902256309986115,-0.04380977153778076,0.2648335099220276,-0.9625913500785828,0.0,0.0,0.0,0.0,0.0,0.0
3768,1724820314919876267,-2.109758138656616,0.18367666006088257,0.16623535752296448,-0.03608131408691406,-0.043439723551273346,0.2653001844882965,-0.9625108242034912,0.0,0.0,0.0,0.0,0.0,0.0
3770,1724820314926791882,-2.1090521812438965,0.1833619326353073,0.16573728621006012,-0.03454649820923805,-0.04358390346169472,0.2656958997249603,-0.9624513983726501,0.0,0.0,0.0,0.0,0.0,0.0
3772,1724820314935533275,-2.107947587966919,0.1823824942111969,0.1657811403274536,-0.035842157900333405,-0.04667215049266815,0.26614874601364136,-0.962134063243866,0.0,0.0,0.0,0.0,0.0,0.0
3774,1724820314944896484,-2.1067326068878174,0.1811639368534088,0.16510991752147675,-0.039477087557315826,-0.045841239392757416,0.26661503314971924,-0.9619025588035583,0.0,0.0,0.0,0.0,0.0,0.0
3776,1724820314955785126,-2.105733871459961,0.18021944165229797,0.16384142637252808,-0.037679869681596756,-0.038214754313230515,0.26588743925094604,-0.9625090956687927,0.0,0.0,0.0,0.0,0.0,0.0
3778,1724820314965037890,-2.1044938564300537,0.1788923740386963,0.16359883546829224,-0.03603137284517288,-0.03878866136074066,0.2659152150154114,-0.9625415205955505,0.0,0.0,0.0,0.0,0.0,0.0
3780,1724820314975273943,-2.1031365394592285,0.17765089869499207,0.1629565954208374,-0.03610723838210106,-0.03862426057457924,0.26572293043136597,-0.9625985026359558,0.0,0.0,0.0,0.0,0.0,0.0
3782,1724820314985246789,-2.101999282836914,0.17665565013885498,0.16202907264232635,-0.03717738017439842,-0.0383065901696682,0.26558664441108704,-0.9626080989837646,0.0,0.0,0.0,0.0,0.0,0.0
3784,1724820314995750216,-2.1001460552215576,0.17516979575157166,0.1612987220287323,-0.04299117997288704,-0.03504486009478569,0.26688724756240845,-0.9621304273605347,0.0,0.0,0.0,0.0,0.0,0.0
3786,1724820315005226709,-2.0988359451293945,0.17405322194099426,0.16123192012310028,-0.04027332365512848,-0.037271853536367416,0.26750630140304565,-0.9619923233985901,0.0,0.0,0.0,0.0,0.0,0.0
3788,1724820315015086367,-2.0973446369171143,0.1726325899362564,0.16051706671714783,-0.03911904618144035,-0.036720193922519684,0.26628732681274414,-0.9623992443084717,0.0,0.0,0.0,0.0,0.0,0.0
3790,1724820315029692526,-2.0956640243530273,0.1712331473827362,0.15956981480121613,-0.040495019406080246,-0.035157181322574615,0.2662374973297119,-0.962414562702179,0.0,0.0,0.0,0.0,0.0,0.0
3792,1724820315035274501,-2.094083547592163,0.16999532282352448,0.1588325947523117,-0.04125033691525459,-0.03397374600172043,0.26590317487716675,-0.9625174403190613,0.0,0.0,0.0,0.0,0.0,0.0
3794,1724820315046186688,-2.092533588409424,0.16872771084308624,0.1583038866519928,-0.042372774332761765,-0.03486095741391182,0.26597681641578674,-0.9624165892601013,0.0,0.0,0.0,0.0,0.0,0.0
3796,1724820315055371697,-2.0905799865722656,0.16717006266117096,0.1570035219192505,-0.039328500628471375,-0.0323101282119751,0.2643301784992218,-0.9630882143974304,0.0,0.0,0.0,0.0,0.0,0.0
3798,1724820315065676469,-2.0890822410583496,0.1658426821231842,0.15672482550144196,-0.04168727248907089,-0.03376219421625137,0.2645133435726166,-0.9628888964653015,0.0,0.0,0.0,0.0,0.0,0.0
3800,1724820315078393281,-2.0875394344329834,0.16506515443325043,0.15720313787460327,-0.040811099112033844,-0.03893674537539482,0.26679202914237976,-0.9621021151542664,0.0,0.0,0.0,0.0,0.0,0.0
3802,1724820315085108328,-2.085878849029541,0.16388794779777527,0.15667293965816498,-0.04206492006778717,-0.040008943527936935,0.26631832122802734,-0.9621353149414062,0.0,0.0,0.0,0.0,0.0,0.0
3804,1724820315098048760,-2.084040641784668,0.16260376572608948,0.15508830547332764,-0.039347175508737564,-0.03666223585605621,0.26438310742378235,-0.9629170894622803,0.0,0.0,0.0,0.0,0.0,0.0
3806,1724820315107726289,-2.0825064182281494,0.16129152476787567,0.15515653789043427,-0.04134754091501236,-0.038674816489219666,0.2657277286052704,-0.9623842239379883,0.0,0.0,0.0,0.0,0.0,0.0
3808,1724820315115311737,-2.0808112621307373,0.15998585522174835,0.1544581651687622,-0.04210389405488968,-0.037234969437122345,0.2659541368484497,-0.9623457193374634,0.0,0.0,0.0,0.0,0.0,0.0
3810,1724820315142628651,-2.079195022583008,0.15890519320964813,0.1539008766412735,-0.04576537013053894,-0.03836531192064285,0.26549553871154785,-0.9622607827186584,0.0,0.0,0.0,0.0,0.0,0.0
3812,1724820315193224685,-2.0775768756866455,0.15767155587673187,0.15254166722297668,-0.042369890958070755,-0.036421529948711395,0.26396629214286804,-0.9629123210906982,0.0,0.0,0.0,0.0,0.0,0.0
3814,1724820315193498166,-2.076293468475342,0.15672779083251953,0.15233582258224487,-0.04464370757341385,-0.03880542144179344,0.2653573155403137,-0.9623339176177979,0.0,0.0,0.0,0.0,0.0,0.0
3816,1724820315193742418,-2.0748672485351562,0.1554136425256729,0.15204593539237976,-0.045518193393945694,-0.03980183228850365,0.26604047417640686,-0.9620636701583862,0.0,0.0,0.0,0.0,0.0,0.0
3818,1724820315193976092,-2.0733964443206787,0.1542414426803589,0.15123829245567322,-0.048269327729940414,-0.0395357608795166,0.2664026618003845,-0.9618402719497681,0.0,0.0,0.0,0.0,0.0,0.0
3820,1724820315194222396,-2.0721616744995117,0.15300609171390533,0.15110661089420319,-0.04633548855781555,-0.037217702716588974,0.26694455742836,-0.9618776440620422,0.0,0.0,0.0,0.0,0.0,0.0
3822,1724820315194452212,-2.0709409713745117,0.15193000435829163,0.15040042996406555,-0.04315299168229103,-0.03576522320508957,0.26658907532691956,-0.9621792435646057,0.0,0.0,0.0,0.0,0.0,0.0
3824,1724820315194920963,-2.0699331760406494,0.15112148225307465,0.1506359726190567,-0.04443554952740669,-0.036229778081178665,0.2686270475387573,-0.9615365266799927,0.0,0.0,0.0,0.0,0.0,0.0
3826,1724820315205605112,-2.0688726902008057,0.15021786093711853,0.15042856335639954,-0.045832935720682144,-0.038428883999586105,0.26931318640708923,-0.9611935615539551,0.0,0.0,0.0,0.0,0.0,0.0
3828,1724820315215297122,-2.0677649974823,0.1492946296930313,0.1512582004070282,-0.04414753243327141,-0.042321596294641495,0.2709342837333679,-0.9606532454490662,0.0,0.0,0.0,0.0,0.0,0.0
3830,1724820315225618385,-2.0665760040283203,0.14807356894016266,0.15073233842849731,-0.04664234817028046,-0.037800878286361694,0.27027183771133423,-0.9609103798866272,0.0,0.0,0.0,0.0,0.0,0.0
3832,1724820315236191809,-2.0655694007873535,0.1472293883562088,0.15056496858596802,-0.045421674847602844,-0.036975353956222534,0.2707405686378479,-0.9608690142631531,0.0,0.0,0.0,0.0,0.0,0.0
3834,1724820315247024283,-2.0646331310272217,0.14624375104904175,0.14931519329547882,-0.03531743213534355,-0.03712499141693115,0.2700512707233429,-0.961481511592865,0.0,0.0,0.0,0.0,0.0,0.0
3836,1724820315259035033,-2.063788890838623,0.14573249220848083,0.14959511160850525,-0.03392371907830238,-0.03837301582098007,0.2708493769168854,-0.9612582325935364,0.0,0.0,0.0,0.0,0.0,0.0
3838,1724820315265603103,-2.0630452632904053,0.14510180056095123,0.15089008212089539,-0.03735208511352539,-0.04192196950316429,0.27343618869781494,-0.9602500796318054,0.0,0.0,0.0,0.0,0.0,0.0
3840,1724820315275190696,-2.062223196029663,0.14384642243385315,0.15036137402057648,-0.037274107336997986,-0.041643254458904266,0.27374598383903503,-0.9601768255233765,0.0,0.0,0.0,0.0,0.0,0.0
3842,1724820315285256187,-2.061521291732788,0.14340928196907043,0.14959684014320374,-0.034443553537130356,-0.03979120030999184,0.2729565501213074,-0.9605858325958252,0.0,0.0,0.0,0.0,0.0,0.0
3844,1724820315295883531,-2.060715436935425,0.14263054728507996,0.14977215230464935,-0.0351015068590641,-0.04032709449529648,0.27297836542129517,-0.9605333805084229,0.0,0.0,0.0,0.0,0.0,0.0
3846,1724820315305405398,-2.0600833892822266,0.14245636761188507,0.15005256235599518,-0.03579174354672432,-0.04242275282740593,0.27328795194625854,-0.9603296518325806,0.0,0.0,0.0,0.0,0.0,0.0
3848,1724820315314817782,-2.0594229698181152,0.14209067821502686,0.15023280680179596,-0.03519660234451294,-0.043104078620672226,0.2733840048313141,-0.9602940082550049,0.0,0.0,0.0,0.0,0.0,0.0
3850,1724820315328623597,-2.058711051940918,0.1415102630853653,0.15033458173274994,-0.035252269357442856,-0.04211582615971565,0.27259331941604614,-0.9605605602264404,0.0,0.0,0.0,0.0,0.0,0.0
3852,1724820315335401103,-2.058096170425415,0.1412314623594284,0.1504455804824829,-0.034990161657333374,-0.042679302394390106,0.27280092239379883,-0.9604862928390503,0.0,0.0,0.0,0.0,0.0,0.0
3854,1724820315346617932,-2.057539463043213,0.14119355380535126,0.15121261775493622,-0.03588121384382248,-0.045154932886362076,0.27427080273628235,-0.9599214792251587,0.0,0.0,0.0,0.0,0.0,0.0
3856,1724820315355568164,-2.0569205284118652,0.14068779349327087,0.15029367804527283,-0.03196205198764801,-0.04320945590734482,0.27410653233528137,-0.960196316242218,0.0,0.0,0.0,0.0,0.0,0.0
3858,1724820315366698164,-2.0562779903411865,0.14046916365623474,0.15006005764007568,-0.03330599516630173,-0.041820939630270004,0.27347779273986816,-0.9603914022445679,0.0,0.0,0.0,0.0,0.0,0.0
3860,1724820315376442069,-2.0557637214660645,0.14058706164360046,0.15063346922397614,-0.033966366201639175,-0.04555398225784302,0.2754057049751282,-0.9596472382545471,0.0,0.0,0.0,0.0,0.0,0.0
3862,1724820315385859479,-2.0550386905670166,0.14006400108337402,0.1497170478105545,-0.03348587453365326,-0.04258302226662636,0.2747419476509094,-0.9599907398223877,0.0,0.0,0.0,0.0,0.0,0.0
3864,1724820315396009798,-2.0544018745422363,0.1405169665813446,0.15159927308559418,-0.03635428845882416,-0.046536218374967575,0.2767675220966339,-0.9591207504272461,0.0,0.0,0.0,0.0,0.0,0.0
3866,1724820315406485013,-2.053895950317383,0.140499085187912,0.15173006057739258,-0.03651592135429382,-0.04795956239104271,0.2771960496902466,-0.9589207172393799,0.0,0.0,0.0,0.0,0.0,0.0
3868,1724820315415905854,-2.053365707397461,0.1402868926525116,0.15148501098155975,-0.03421521559357643,-0.04545174539089203,0.27727532386779785,-0.9591047167778015,0.0,0.0,0.0,0.0,0.0,0.0
3870,1724820315425383569,-2.0526978969573975,0.14023829996585846,0.1514487862586975,-0.03454488888382912,-0.04614739865064621,0.27740713953971863,-0.9590216279029846,0.0,0.0,0.0,0.0,0.0,0.0
3872,1724820315437360507,-2.0520896911621094,0.14020419120788574,0.15170738101005554,-0.03506004065275192,-0.04692837968468666,0.27820882201194763,-0.9587327837944031,0.0,0.0,0.0,0.0,0.0,0.0
3874,1724820315445412943,-2.0514395236968994,0.140157550573349,0.15065382421016693,-0.031261760741472244,-0.04567714035511017,0.276839941740036,-0.959320604801178,0.0,0.0,0.0,0.0,0.0,0.0
3876,1724820315456089942,-2.0508837699890137,0.1402345597743988,0.15078286826610565,-0.03067919984459877,-0.04687892645597458,0.27779442071914673,-0.9590054750442505,0.0,0.0,0.0,0.0,0.0,0.0
3878,1724820315472954361,-2.050335645675659,0.14021943509578705,0.15061381459236145,-0.030445437878370285,-0.04704740643501282,0.2777974605560303,-0.959003746509552,0.0,0.0,0.0,0.0,0.0,0.0
3880,1724820315476642069,-2.0497806072235107,0.1402011215686798,0.15069866180419922,-0.031107939779758453,-0.047545965760946274,0.2779451310634613,-0.9589151740074158,0.0,0.0,0.0,0.0,0.0,0.0
3882,1724820315485812679,-2.049401044845581,0.14019246399402618,0.151152566075325,-0.03318135812878609,-0.04850175231695175,0.2785561978816986,-0.9586203694343567,0.0,0.0,0.0,0.0,0.0,0.0
3884,1724820315496796481,-2.049034833908081,0.14013279974460602,0.15155033767223358,-0.034055598080158234,-0.04910477623343468,0.2791687548160553,-0.9583808779716492,0.0,0.0,0.0,0.0,0.0,0.0
3886,1724820315504885214,-2.048624038696289,0.1399548351764679,0.15185220539569855,-0.0362408272922039,-0.049541011452674866,0.27947089076042175,-0.9581902027130127,0.0,0.0,0.0,0.0,0.0,0.0
3888,1724820315515143352,-2.0481889247894287,0.13979296386241913,0.15184564888477325,-0.03851517289876938,-0.04937741532921791,0.2795584201812744,-0.9580843448638916,0.0,0.0,0.0,0.0,0.0,0.0
3890,1724820315525628701,-2.0478262901306152,0.13966277241706848,0.15198463201522827,-0.039305299520492554,-0.04928869754076004,0.2797238230705261,-0.9580085277557373,0.0,0.0,0.0,0.0,0.0,0.0
3892,1724820315535274075,-2.0474867820739746,0.13950850069522858,0.1520482748746872,-0.03992295265197754,-0.04923752322793007,0.2797904908657074,-0.957966148853302,0.0,0.0,0.0,0.0,0.0,0.0
3894,1724820315566769359,-2.047090768814087,0.13937129080295563,0.15209493041038513,-0.04132252186536789,-0.04917418584227562,0.2801686227321625,-0.9577995538711548,0.0,0.0,0.0,0.0,0.0,0.0
3896,1724820315567031661,-2.046630620956421,0.13923443853855133,0.1524326205253601,-0.04351218789815903,-0.050750985741615295,0.2813858985900879,-0.9572633504867554,0.0,0.0,0.0,0.0,0.0,0.0
3898,1724820315567286302,-2.0462872982025146,0.13907919824123383,0.15261095762252808,-0.04463554173707962,-0.05164404958486557,0.28155866265296936,-0.9571130275726318,0.0,0.0,0.0,0.0,0.0,0.0
3900,1724820315575632979,-2.045926332473755,0.1390593945980072,0.15288245677947998,-0.044734060764312744,-0.05270915478467941,0.2821025550365448,-0.9568901658058167,0.0,0.0,0.0,0.0,0.0,0.0
3902,1724820315584906699,-2.0456573963165283,0.1390622854232788,0.15250825881958008,-0.04386790469288826,-0.051289983093738556,0.28142669796943665,-0.9572063088417053,0.0,0.0,0.0,0.0,0.0,0.0
3904,1724820315595781347,-2.0453450679779053,0.13901931047439575,0.15238255262374878,-0.04329146444797516,-0.04987107589840889,0.28157109022140503,-0.9572650790214539,0.0,0.0,0.0,0.0,0.0,0.0
3906,1724820315606139750,-2.0450448989868164,0.13903437554836273,0.1524127572774887,-0.04302820935845375,-0.04934993013739586,0.2820350229740143,-0.9571674466133118,0.0,0.0,0.0,0.0,0.0,0.0
3908,1724820315615131687,-2.0447990894317627,0.13915616273880005,0.15258748829364777,-0.04289831221103668,-0.050629403442144394,0.28323492407798767,-0.9567520022392273,0.0,0.0,0.0,0.0,0.0,0.0
3910,1724820315625895892,-2.0445003509521484,0.13929523527622223,0.1529548317193985,-0.04286674037575722,-0.05265023931860924,0.28418079018592834,-0.95636385679245,0.0,0.0,0.0,0.0,0.0,0.0
3912,1724820315635448130,-2.044259548187256,0.1394089162349701,0.15316514670848846,-0.042686060070991516,-0.053899135440588,0.2849839925765991,-0.9560632109642029,0.0,0.0,0.0,0.0,0.0,0.0
3914,1724820315652336299,-2.044036865234375,0.139492928981781,0.15323211252689362,-0.042054977267980576,-0.05402747914195061,0.2853781580924988,-0.9559664130210876,0.0,0.0,0.0,0.0,0.0,0.0
3916,1724820315655808381,-2.043790578842163,0.13958147168159485,0.15329529345035553,-0.04194558784365654,-0.05408412590622902,0.28580448031425476,-0.9558405876159668,0.0,0.0,0.0,0.0,0.0,0.0
3918,1724820315664920380,-2.0434823036193848,0.13963516056537628,0.1533689945936203,-0.04167969152331352,-0.05390118062496185,0.2859770357608795,-0.9558109641075134,0.0,0.0,0.0,0.0,0.0,0.0
3920,1724820315676425056,-2.0432183742523193,0.13969247043132782,0.15314725041389465,-0.041724447160959244,-0.05274462327361107,0.2859170138835907,-0.9558915495872498,0.0,0.0,0.0,0.0,0.0,0.0
3922,1724820315685194880,-2.042942762374878,0.1397947371006012,0.1530553251504898,-0.0416119210422039,-0.05221603810787201,0.2861559987068176,-0.9558538794517517,0.0,0.0,0.0,0.0,0.0,0.0
3924,1724820315696365565,-2.04266619682312,0.13993258774280548,0.15296527743339539,-0.041550058871507645,-0.05197853595018387,0.2862662076950073,-0.9558365345001221,0.0,0.0,0.0,0.0,0.0,0.0
3926,1724820315705185133,-2.0423507690429688,0.14008662104606628,0.15286776423454285,-0.04141181334853172,-0.05134442076086998,0.2865440547466278,-0.955793559551239,0.0,0.0,0.0,0.0,0.0,0.0
3928,1724820315719587786,-2.0420002937316895,0.14027880132198334,0.15282854437828064,-0.04139724001288414,-0.05135630443692207,0.287265419960022,-0.9555770754814148,0.0,0.0,0.0,0.0,0.0,0.0
3930,1724820315725342678,-2.0416340827941895,0.14050985872745514,0.15299354493618011,-0.041975148022174835,-0.05219973996281624,0.2881655991077423,-0.9552350044250488,0.0,0.0,0.0,0.0,0.0,0.0
3932,1724820315735295661,-2.0412333011627197,0.14073634147644043,0.15300454199314117,-0.042317189276218414,-0.05279631167650223,0.2885783314704895,-0.9550625085830688,0.0,0.0,0.0,0.0,0.0,0.0
3934,1724820315745206462,-2.0407633781433105,0.1410035490989685,0.15310516953468323,-0.04303004592657089,-0.053281817585229874,0.2894410789012909,-0.9547426104545593,0.0,0.0,0.0,0.0,0.0,0.0
3936,1724820315759587882,-2.040318250656128,0.14124459028244019,0.1530798077583313,-0.04267062246799469,-0.05252089723944664,0.28992918133735657,-0.954652726650238,0.0,0.0,0.0,0.0,0.0,0.0
3938,1724820315765106690,-2.039893627166748,0.14147815108299255,0.15297237038612366,-0.04336487874388695,-0.05201348662376404,0.290355920791626,-0.9545195698738098,0.0,0.0,0.0,0.0,0.0,0.0
3940,1724820315775416090,-2.0395021438598633,0.1416894793510437,0.1527288407087326,-0.04353339970111847,-0.05101471021771431,0.2904380261898041,-0.9545408487319946,0.0,0.0,0.0,0.0,0.0,0.0
3942,1724820315785680975,-2.0390591621398926,0.14198525249958038,0.15279093384742737,-0.04362310469150543,-0.051623035222291946,0.2914237976074219,-0.9542034864425659,0.0,0.0,0.0,0.0,0.0,0.0
3944,1724820315795881427,-2.038623809814453,0.14226000010967255,0.15281137824058533,-0.043832506984472275,-0.052089449018239975,0.29200515151023865,-0.9539908170700073,0.0,0.0,0.0,0.0,0.0,0.0
3946,1724820315805303004,-2.038257598876953,0.1425626277923584,0.15278644859790802,-0.04365476593375206,-0.052315544337034225,0.2926492691040039,-0.9537891745567322,0.0,0.0,0.0,0.0,0.0,0.0
3948,1724820315815508477,-2.037899971008301,0.14278030395507812,0.1526612490415573,-0.04313139617443085,-0.051108598709106445,0.293119341135025,-0.9537340998649597,0.0,0.0,0.0,0.0,0.0,0.0
3950,1724820315830793034,-2.037490129470825,0.14301398396492004,0.15259437263011932,-0.043533243238925934,-0.0507616326212883,0.2937092185020447,-0.9535529017448425,0.0,0.0,0.0,0.0,0.0,0.0
3952,1724820315835238081,-2.0370497703552246,0.1433228999376297,0.15262632071971893,-0.044333990663290024,-0.051412783563137054,0.29444998502731323,-0.9532525539398193,0.0,0.0,0.0,0.0,0.0,0.0
3954,1724820315845866554,-2.036588668823242,0.1435118019580841,0.15291181206703186,-0.04514475539326668,-0.05242734029889107,0.29605552554130554,-0.9526618123054504,0.0,0.0,0.0,0.0,0.0,0.0
3956,1724820315855823250,-2.0362064838409424,0.14375442266464233,0.15299749374389648,-0.04538831114768982,-0.052960287779569626,0.2970137298107147,-0.9523224234580994,0.0,0.0,0.0,0.0,0.0,0.0
3958,1724820315864748318,-2.035862684249878,0.14406542479991913,0.15283359587192535,-0.04466598480939865,-0.05276699736714363,0.29712119698524475,-0.9523338675498962,0.0,0.0,0.0,0.0,0.0,0.0
3960,1724820315875379901,-2.0355186462402344,0.14432542026042938,0.15267854928970337,-0.04429731145501137,-0.05209551379084587,0.2974294126033783,-0.9522917866706848,0.0,0.0,0.0,0.0,0.0,0.0
3962,1724820315885177500,-2.0351154804229736,0.14479009807109833,0.15251106023788452,-0.039582476019859314,-0.05331422761082649,0.2981069087982178,-0.95222008228302,0.0,0.0,0.0,0.0,0.0,0.0
3964,1724820315896493817,-2.034757614135742,0.1450875848531723,0.15241165459156036,-0.03663364052772522,-0.05370050668716431,0.2988829016685486,-0.9520732164382935,0.0,0.0,0.0,0.0,0.0,0.0
3966,1724820315905786518,-2.034339666366577,0.14516808092594147,0.1525798738002777,-0.03881613910198212,-0.05369516834616661,0.29968857765197754,-0.9517337083816528,0.0,0.0,0.0,0.0,0.0,0.0
3968,1724820315915908727,-2.033911943435669,0.14522963762283325,0.15265223383903503,-0.041585773229599,-0.05341629311442375,0.30024024844169617,-0.9514583945274353,0.0,0.0,0.0,0.0,0.0,0.0
3970,1724820315925166060,-2.033578872680664,0.14532457292079926,0.1528530865907669,-0.043280359357595444,-0.05382872372865677,0.3011173605918884,-0.9510823488235474,0.0,0.0,0.0,0.0,0.0,0.0
3972,1724820315936179961,-2.033271074295044,0.14540162682533264,0.1527540534734726,-0.04375201836228371,-0.05291140824556351,0.3014577329158783,-0.9510045051574707,0.0,0.0,0.0,0.0,0.0,0.0
3974,1724820315945102837,-2.032952070236206,0.1454925835132599,0.1527179628610611,-0.044009823352098465,-0.05250604823231697,0.3021485209465027,-0.9507958292961121,0.0,0.0,0.0,0.0,0.0,0.0
3976,1724820315978732984,-2.032628059387207,0.14556719362735748,0.15283040702342987,-0.044018231332302094,-0.05293174833059311,0.3030339777469635,-0.9504899382591248,0.0,0.0,0.0,0.0,0.0,0.0
3978,1724820315979239219,-2.032299757003784,0.14565150439739227,0.15284138917922974,-0.0443071648478508,-0.052966367453336716,0.30368149280548096,-0.9502678513526917,0.0,0.0,0.0,0.0,0.0,0.0
3980,1724820315979674505,-2.0319437980651855,0.14576102793216705,0.15282604098320007,-0.044781848788261414,-0.052975695580244064,0.30430540442466736,-0.9500454664230347,0.0,0.0,0.0,0.0,0.0,0.0
3982,1724820315985825119,-2.031681776046753,0.1458759903907776,0.15290814638137817,-0.04415521025657654,-0.053394660353660583,0.30538100004196167,-0.9497061371803284,0.0,0.0,0.0,0.0,0.0,0.0
3984,1724820315995062449,-2.0312962532043457,0.14598448574543,0.15297703444957733,-0.04394635558128357,-0.05301342159509659,0.30593985319137573,-0.949557363986969,0.0,0.0,0.0,0.0,0.0,0.0
3986,1724820316005728147,-2.0310089588165283,0.1460396647453308,0.1529652327299118,-0.04439259320497513,-0.053501322865486145,0.3066410720348358,-0.9492830038070679,0.0,0.0,0.0,0.0,0.0,0.0
3988,1724820316015227084,-2.0306148529052734,0.14625120162963867,0.15312428772449493,-0.04430717974901199,-0.05478719621896744,0.307635098695755,-0.9488918781280518,0.0,0.0,0.0,0.0,0.0,0.0
3990,1724820316028867407,-2.030229330062866,0.14641287922859192,0.15326441824436188,-0.04422635957598686,-0.056416433304548264,0.3085370361804962,-0.9485073089599609,0.0,0.0,0.0,0.0,0.0,0.0
3992,1724820316035311058,-2.0298819541931152,0.14654463529586792,0.1531449258327484,-0.043841756880283356,-0.05639573186635971,0.3094751834869385,-0.9482207298278809,0.0,0.0,0.0,0.0,0.0,0.0
3994,1724820316045372053,-2.0295279026031494,0.14662718772888184,0.15295502543449402,-0.04359789565205574,-0.055300429463386536,0.3097705841064453,-0.9482000470161438,0.0,0.0,0.0,0.0,0.0,0.0
3996,1724820316055693390,-2.0292205810546875,0.1466248482465744,0.15270262956619263,-0.043408043682575226,-0.05423317104578018,0.3099139630794525,-0.9482235908508301,0.0,0.0,0.0,0.0,0.0,0.0
3998,1724820316065033154,-2.028867483139038,0.14667661488056183,0.15263450145721436,-0.04330180585384369,-0.054428309202194214,0.3107951879501343,-0.9479287266731262,0.0,0.0,0.0,0.0,0.0,0.0
4000,1724820316075620879,-2.028557062149048,0.14669552445411682,0.15251977741718292,-0.04339222237467766,-0.05421031638979912,0.3114908039569855,-0.9477087259292603,0.0,0.0,0.0,0.0,0.0,0.0
4002,1724820316085338193,-2.028301477432251,0.14616188406944275,0.14948061108589172,-0.047865577042102814,-0.03941458463668823,0.3091202676296234,-0.9489994645118713,0.0,0.0,0.0,0.0,0.0,0.0
4004,1724820316097439856,-2.0279898643493652,0.14619667828083038,0.14947667717933655,-0.04767899215221405,-0.03964062035083771,0.3099217414855957,-0.9487380385398865,0.0,0.0,0.0,0.0,0.0,0.0
4006,1724820316106277779,-2.027601480484009,0.14649859070777893,0.15064936876296997,-0.04669828340411186,-0.04600401222705841,0.31222936511039734,-0.9477424621582031,0.0,0.0,0.0,0.0,0.0,0.0
4008,1724820316115527339,-2.027245044708252,0.1464950144290924,0.1519455462694168,-0.045028503984212875,-0.0532497763633728,0.31368201971054077,-0.9469638466835022,0.0,0.0,0.0,0.0,0.0,0.0
4010,1724820316127003051,-2.026974678039551,0.14626680314540863,0.15179207921028137,-0.04484404996037483,-0.05228009447455406,0.31343981623649597,-0.9471068978309631,0.0,0.0,0.0,0.0,0.0,0.0
4012,1724820316136065490,-2.0266952514648438,0.14614151418209076,0.15178795158863068,-0.04524749517440796,-0.052247270941734314,0.3138251304626465,-0.9469618201255798,0.0,0.0,0.0,0.0,0.0,0.0
4014,1724820316145179268,-2.0264546871185303,0.14602132141590118,0.15174415707588196,-0.04523874446749687,-0.05244804546236992,0.3142293393611908,-0.9468171000480652,0.0,0.0,0.0,0.0,0.0,0.0
4016,1724820316155850279,-2.026238441467285,0.14590108394622803,0.15163959562778473,-0.04533730447292328,-0.052048664540052414,0.31460678577423096,-0.9467090368270874,0.0,0.0,0.0,0.0,0.0,0.0
4018,1724820316165347767,-2.0260426998138428,0.1457529217004776,0.15156811475753784,-0.045145999640226364,-0.05136663094162941,0.3148267865180969,-0.946682333946228,0.0,0.0,0.0,0.0,0.0,0.0
4020,1724820316174943906,-2.025891065597534,0.1455555558204651,0.15132033824920654,-0.04440395534038544,-0.050137076526880264,0.31485676765441895,-0.9467734098434448,0.0,0.0,0.0,0.0,0.0,0.0
4022,1724820316186152553,-2.0256690979003906,0.14538435637950897,0.15112805366516113,-0.044271714985370636,-0.049278732389211655,0.3147927224636078,-0.9468459486961365,0.0,0.0,0.0,0.0,0.0,0.0
4024,1724820316198679860,-2.025472640991211,0.1451914757490158,0.15101292729377747,-0.04330415651202202,-0.04832812771201134,0.3150891661643982,-0.9468411207199097,0.0,0.0,0.0,0.0,0.0,0.0
4026,1724820316205318388,-2.025217294692993,0.14506535232067108,0.15102532505989075,-0.04306936264038086,-0.04850563779473305,0.315595805644989,-0.9466739892959595,0.0,0.0,0.0,0.0,0.0,0.0
4028,1724820316215609395,-2.024951219558716,0.14498379826545715,0.15109758079051971,-0.043317265808582306,-0.04892649129033089,0.31651902198791504,-0.9463326930999756,0.0,0.0,0.0,0.0,0.0,0.0
4030,1724820316224916669,-2.0246388912200928,0.14493624866008759,0.151393324136734,-0.043686628341674805,-0.0503767691552639,0.3177826404571533,-0.9458159804344177,0.0,0.0,0.0,0.0,0.0,0.0
4032,1724820316235560109,-2.024381637573242,0.14493395388126373,0.15168894827365875,-0.04315592348575592,-0.05169699341058731,0.3189321756362915,-0.9453821182250977,0.0,0.0,0.0,0.0,0.0,0.0
4034,1724820316247003422,-2.0241799354553223,0.14482226967811584,0.15147006511688232,-0.04255305603146553,-0.05038592591881752,0.3195503354072571,-0.9452714323997498,0.0,0.0,0.0,0.0,0.0,0.0
4036,1724820316255414454,-2.0238521099090576,0.1447543501853943,0.1515178233385086,-0.042612992227077484,-0.05064133554697037,0.32035645842552185,-0.9449822306632996,0.0,0.0,0.0,0.0,0.0,0.0
4038,1724820316265992765,-2.0235280990600586,0.1446821391582489,0.15158109366893768,-0.04209625720977783,-0.050839655101299286,0.3209599256515503,-0.9447898864746094,0.0,0.0,0.0,0.0,0.0,0.0
4040,1724820316277349173,-2.023221731185913,0.1445712298154831,0.15158087015151978,-0.04164351522922516,-0.05065698176622391,0.3216629922389984,-0.944580614566803,0.0,0.0,0.0,0.0,0.0,0.0
4042,1724820316285611676,-2.0228946208953857,0.1444999873638153,0.15168243646621704,-0.041808877140283585,-0.050772178918123245,0.32251226902008057,-0.9442775845527649,0.0,0.0,0.0,0.0,0.0,0.0
4044,1724820316296366218,-2.022573709487915,0.14434859156608582,0.1515805572271347,-0.04187721014022827,-0.049870725721120834,0.3228001594543457,-0.9442242383956909,0.0,0.0,0.0,0.0,0.0,0.0
4046,1724820316305081168,-2.0222082138061523,0.14428260922431946,0.15162697434425354,-0.04173734784126282,-0.0500042587518692,0.3233645558357239,-0.944030225276947,0.0,0.0,0.0,0.0,0.0,0.0
4048,1724820316315361067,-2.021879196166992,0.14420291781425476,0.1516580581665039,-0.04179801791906357,-0.05030602216720581,0.32395946979522705,-0.9438074827194214,0.0,0.0,0.0,0.0,0.0,0.0
4050,1724820316325493470,-2.0215108394622803,0.14414475858211517,0.15172970294952393,-0.04167152941226959,-0.050174959003925323,0.32454752922058105,-0.9436180591583252,0.0,0.0,0.0,0.0,0.0,0.0
4052,1724820316335430748,-2.0211329460144043,0.14396581053733826,0.1515001505613327,-0.04217316582798958,-0.048506464809179306,0.32433152198791504,-0.943757176399231,0.0,0.0,0.0,0.0,0.0,0.0
4054,1724820316346191183,-2.020751953125,0.14391383528709412,0.15131765604019165,-0.04245951026678085,-0.04741835966706276,0.32442507147789,-0.9437675476074219,0.0,0.0,0.0,0.0,0.0,0.0
4056,1724820316356299812,-2.0204060077667236,0.1438879370689392,0.1513502597808838,-0.042852990329265594,-0.04742588847875595,0.3250454366207123,-0.9435358047485352,0.0,0.0,0.0,0.0,0.0,0.0
4058,1724820316365662923,-2.020078420639038,0.1439068466424942,0.151450514793396,-0.04244682937860489,-0.04711468145251274,0.3256681263446808,-0.943355143070221,0.0,0.0,0.0,0.0,0.0,0.0
4060,1724820316376676653,-2.019742012023926,0.14393016695976257,0.15154652297496796,-0.042509377002716064,-0.04719299450516701,0.32623568177223206,-0.9431521892547607,0.0,0.0,0.0,0.0,0.0,0.0
4062,1724820316386355884,-2.019378900527954,0.1439378261566162,0.1516033113002777,-0.04313430190086365,-0.047311753034591675,0.3267876207828522,-0.942926824092865,0.0,0.0,0.0,0.0,0.0,0.0
4064,1724820316396582693,-2.0189566612243652,0.14407376945018768,0.1519981324672699,-0.04308503866195679,-0.04861215874552727,0.32787662744522095,-0.9424847960472107,0.0,0.0,0.0,0.0,0.0,0.0
4066,1724820316407280769,-2.018563985824585,0.14416815340518951,0.15222902595996857,-0.04369377717375755,-0.049103524535894394,0.3284282386302948,-0.9422391057014465,0.0,0.0,0.0,0.0,0.0,0.0
4068,1724820316415318848,-2.01816725730896,0.14423717558383942,0.15214911103248596,-0.04427200183272362,-0.047795265913009644,0.3283759653568268,-0.942297637462616,0.0,0.0,0.0,0.0,0.0,0.0
4070,1724820316425905131,-2.0178070068359375,0.1443893164396286,0.15224091708660126,-0.044172775000333786,-0.047602564096450806,0.32872274518013,-0.9421911835670471,0.0,0.0,0.0,0.0,0.0,0.0
4072,1724820316439246809,-2.0174901485443115,0.14429819583892822,0.15103431046009064,-0.04512380436062813,-0.03900573030114174,0.3274608850479126,-0.9429802894592285,0.0,0.0,0.0,0.0,0.0,0.0
4074,1724820316445569315,-2.017183303833008,0.1448700726032257,0.15148435533046722,-0.03553120419383049,-0.041269782930612564,0.3284091651439667,-0.9429644346237183,0.0,0.0,0.0,0.0,0.0,0.0
4076,1724820316455527344,-2.016768217086792,0.14508435130119324,0.15184849500656128,-0.03665987774729729,-0.04058772325515747,0.3291053771972656,-0.9427080750465393,0.0,0.0,0.0,0.0,0.0,0.0
4078,1724820316466756558,-2.016282320022583,0.1458059549331665,0.1528538465499878,-0.03626761585474014,-0.0493694506585598,0.33090564608573914,-0.9416733980178833,0.0,0.0,0.0,0.0,0.0,0.0
4080,1724820316476882816,-2.0159201622009277,0.14598417282104492,0.15338659286499023,-0.03757190704345703,-0.0506112314760685,0.331427663564682,-0.9413727521896362,0.0,0.0,0.0,0.0,0.0,0.0
4082,1724820316485344111,-2.0154786109924316,0.14619971811771393,0.15353433787822723,-0.03874921798706055,-0.04938088357448578,0.3308621942996979,-0.9415892362594604,0.0,0.0,0.0,0.0,0.0,0.0
4084,1724820316496730189,-2.015063524246216,0.1464899182319641,0.15363460779190063,-0.03945600613951683,-0.04836724326014519,0.33061498403549194,-0.9416993856430054,0.0,0.0,0.0,0.0,0.0,0.0
4086,1724820316517691250,-2.014631986618042,0.14686419069766998,0.15377195179462433,-0.04094866290688515,-0.04794454574584961,0.3306487202644348,-0.9416453838348389,0.0,0.0,0.0,0.0,0.0,0.0
4088,1724820316517930069,-2.014180898666382,0.14727236330509186,0.15402698516845703,-0.04240550100803375,-0.04795551300048828,0.3308812081813812,-0.9414986968040466,0.0,0.0,0.0,0.0,0.0,0.0
4090,1724820316525096565,-2.0137438774108887,0.14774540066719055,0.15434503555297852,-0.04345395788550377,-0.048374198377132416,0.33112382888793945,-0.9413440823554993,0.0,0.0,0.0,0.0,0.0,0.0
4092,1724820316536667404,-2.013370990753174,0.1481224149465561,0.15436138212680817,-0.0437125489115715,-0.04731367155909538,0.3310963213443756,-0.9413957595825195,0.0,0.0,0.0,0.0,0.0,0.0
4094,1724820316546130742,-2.0128636360168457,0.14870335161685944,0.15469563007354736,-0.04513794183731079,-0.04740656912326813,0.3310777246952057,-0.9413303732872009,0.0,0.0,0.0,0.0,0.0,0.0
4096,1724820316555321307,-2.012338876724243,0.14917205274105072,0.15480823814868927,-0.04734755679965019,-0.04651251435279846,0.3308233320713043,-0.94135582447052,0.0,0.0,0.0,0.0,0.0,0.0
4098,1724820316565940970,-2.011821746826172,0.149660125374794,0.15505018830299377,-0.04928119108080864,-0.04621171951293945,0.33071550726890564,-0.9413092732429504,0.0,0.0,0.0,0.0,0.0,0.0
4100,1724820316581896346,-2.011359453201294,0.15033656358718872,0.1554948091506958,-0.05026790127158165,-0.04696657136082649,0.3314417004585266,-0.9409642219543457,0.0,0.0,0.0,0.0,0.0,0.0
4102,1724820316584857542,-2.0108914375305176,0.15096120536327362,0.15588435530662537,-0.05041908100247383,-0.046393390744924545,0.3316147029399872,-0.9409236311912537,0.0,0.0,0.0,0.0,0.0,0.0
4104,1724820316595610838,-2.0103397369384766,0.15165996551513672,0.15603291988372803,-0.0511242114007473,-0.045107532292604446,0.33109551668167114,-0.9411309361457825,0.0,0.0,0.0,0.0,0.0,0.0
4106,1724820316606035657,-2.0097811222076416,0.1524207890033722,0.15629325807094574,-0.05144461244344711,-0.04504416510462761,0.3309021294116974,-0.9411845207214355,0.0,0.0,0.0,0.0,0.0,0.0
4108,1724820316643670902,-2.0092952251434326,0.1533336341381073,0.15678487718105316,-0.050903573632240295,-0.0468902513384819,0.3312280476093292,-0.9410091638565063,0.0,0.0,0.0,0.0,0.0,0.0
4110,1724820316644035883,-2.0087642669677734,0.1540207862854004,0.15703046321868896,-0.05199960246682167,-0.046297237277030945,0.3311334550380707,-0.9410118460655212,0.0,0.0,0.0,0.0,0.0,0.0
4112,1724820316644343772,-2.0082802772521973,0.15468597412109375,0.1573096066713333,-0.053163737058639526,-0.04533815011382103,0.3313363492488861,-0.9409220814704895,0.0,0.0,0.0,0.0,0.0,0.0
4114,1724820316645196051,-2.007737398147583,0.15557782351970673,0.15771719813346863,-0.05293900892138481,-0.04576193913817406,0.3312877118587494,-0.9409313201904297,0.0,0.0,0.0,0.0,0.0,0.0
4116,1724820316655137373,-2.0071566104888916,0.15634143352508545,0.15799742937088013,-0.05262114107608795,-0.04513757303357124,0.3308197855949402,-0.9411439299583435,0.0,0.0,0.0,0.0,0.0,0.0
4118,1724820316664969322,-2.006592035293579,0.15721052885055542,0.1582709550857544,-0.05198456719517708,-0.044676754623651505,0.3305351138114929,-0.9413012862205505,0.0,0.0,0.0,0.0,0.0,0.0
4120,1724820316677430513,-2.005985975265503,0.15812785923480988,0.15858790278434753,-0.05225896090269089,-0.044359903782606125,0.33008038997650146,-0.9414606094360352,0.0,0.0,0.0,0.0,0.0,0.0
4122,1724820316685164412,-2.005354881286621,0.1588248461484909,0.15919221937656403,-0.056103143841028214,-0.044800519943237305,0.3304462432861328,-0.9410901665687561,0.0,0.0,0.0,0.0,0.0,0.0
4124,1724820316695307768,-2.0049033164978027,0.15977586805820465,0.15913903713226318,-0.0537298284471035,-0.044030822813510895,0.32977843284606934,-0.9414991736412048,0.0,0.0,0.0,0.0,0.0,0.0
4126,1724820316705424735,-2.004194498062134,0.160615012049675,0.1594313532114029,-0.05578480660915375,-0.04312114790081978,0.3290008306503296,-0.9416937828063965,0.0,0.0,0.0,0.0,0.0,0.0
4128,1724820316716540189,-2.0035905838012695,0.1616031676530838,0.15993835031986237,-0.05649491772055626,-0.04379550367593765,0.3292788863182068,-0.9415230751037598,0.0,0.0,0.0,0.0,0.0,0.0
4130,1724820316724818905,-2.0030713081359863,0.16252371668815613,0.16028396785259247,-0.05603167414665222,-0.0437951385974884,0.3291597068309784,-0.9415925145149231,0.0,0.0,0.0,0.0,0.0,0.0
4132,1724820316735645784,-2.002547025680542,0.1637009084224701,0.15983884036540985,-0.04775642231106758,-0.04296129196882248,0.32851627469062805,-0.9423113465309143,0.0,0.0,0.0,0.0,0.0,0.0
4134,1724820316763978071,-2.0017881393432617,0.16441582143306732,0.16106663644313812,-0.05483590066432953,-0.04450315237045288,0.3297954499721527,-0.9414072632789612,0.0,0.0,0.0,0.0,0.0,0.0
4136,1724820316764373910,-2.0012366771698,0.165231853723526,0.16158175468444824,-0.05564546585083008,-0.044519755989313126,0.32952526211738586,-0.9414534568786621,0.0,0.0,0.0,0.0,0.0,0.0
4138,1724820316765416454,-2.000638246536255,0.1661345362663269,0.1617136150598526,-0.05502094700932503,-0.04336871951818466,0.3285044729709625,-0.9419006109237671,0.0,0.0,0.0,0.0,0.0,0.0
4140,1724820316774909816,-2.000044822692871,0.16706351935863495,0.16185376048088074,-0.05419987812638283,-0.042300209403038025,0.3280128240585327,-0.942168116569519,0.0,0.0,0.0,0.0,0.0,0.0
4142,1724820316786594756,-1.999464511871338,0.16804586350917816,0.16241146624088287,-0.05236201733350754,-0.04275652393698692,0.32808688282966614,-0.9422256946563721,0.0,0.0,0.0,0.0,0.0,0.0
4144,1724820316795385259,-1.9989111423492432,0.16899894177913666,0.16276207566261292,-0.051592979580163956,-0.04238376393914223,0.32764682173728943,-0.9424379467964172,0.0,0.0,0.0,0.0,0.0,0.0
4146,1724820316857407550,-1.9982577562332153,0.1697883903980255,0.16297975182533264,-0.0540417917072773,-0.04179999977350235,0.3265399634838104,-0.9427109956741333,0.0,0.0,0.0,0.0,0.0,0.0
4148,1724820316857912325,-1.997727870941162,0.17065486311912537,0.16318660974502563,-0.05402180179953575,-0.041797298938035965,0.3262912929058075,-0.942798376083374,0.0,0.0,0.0,0.0,0.0,0.0
4150,1724820316858384201,-1.9972591400146484,0.17151540517807007,0.16337823867797852,-0.05152987688779831,-0.04260041192173958,0.3267667293548584,-0.9427372217178345,0.0,0.0,0.0,0.0,0.0,0.0
4152,1724820316858780021,-1.9964332580566406,0.1725129336118698,0.1639380156993866,-0.05521666631102562,-0.04165685549378395,0.3259028494358063,-0.9428696632385254,0.0,0.0,0.0,0.0,0.0,0.0
4154,1724820316859280495,-1.995835781097412,0.17334292829036713,0.1642218679189682,-0.05559898912906647,-0.04104180261492729,0.32566162943840027,-0.9429575800895691,0.0,0.0,0.0,0.0,0.0,0.0
4156,1724820316859719197,-1.9954140186309814,0.17440533638000488,0.16359774768352509,-0.0452415868639946,-0.039783377200365067,0.32537218928337097,-0.9436649680137634,0.0,0.0,0.0,0.0,0.0,0.0
4158,1724820316865231207,-1.994670033454895,0.17520497739315033,0.1641921103000641,-0.04807662591338158,-0.03989497199654579,0.32498040795326233,-0.9436550736427307,0.0,0.0,0.0,0.0,0.0,0.0
4160,1724820316876800540,-1.9939513206481934,0.17597106099128723,0.16468104720115662,-0.050929706543684006,-0.04024185985326767,0.32474589347839355,-0.9435713887214661,0.0,0.0,0.0,0.0,0.0,0.0
4162,1724820316886423519,-1.9934066534042358,0.1767369508743286,0.1650450974702835,-0.0507194921374321,-0.04118447005748749,0.32513830065727234,-0.943406879901886,0.0,0.0,0.0,0.0,0.0,0.0
4164,1724820316896265120,-1.992789626121521,0.1774492710828781,0.16509519517421722,-0.05021660774946213,-0.04058731719851494,0.3252074122428894,-0.9434358477592468,0.0,0.0,0.0,0.0,0.0,0.0
4166,1724820316906409561,-1.9920449256896973,0.17810383439064026,0.16543692350387573,-0.05223540961742401,-0.03935166448354721,0.32451748847961426,-0.9436161518096924,0.0,0.0,0.0,0.0,0.0,0.0
4168,1724820316917578817,-1.9913513660430908,0.17878252267837524,0.16547442972660065,-0.05380847677588463,-0.03793221339583397,0.3239619731903076,-0.9437766671180725,0.0,0.0,0.0,0.0,0.0,0.0
4170,1724820316925126040,-1.9907662868499756,0.1796003133058548,0.16561783850193024,-0.052367743104696274,-0.03826740384101868,0.32400697469711304,-0.9438287615776062,0.0,0.0,0.0,0.0,0.0,0.0
4172,1724820316936361013,-1.9901387691497803,0.18023677170276642,0.16557560861110687,-0.051644474267959595,-0.037286654114723206,0.32347360253334045,-0.9440907835960388,0.0,0.0,0.0,0.0,0.0,0.0
4174,1724820316961841916,-1.98942232131958,0.18087776005268097,0.1655769646167755,-0.053530193865299225,-0.03599479794502258,0.32251015305519104,-0.9443655014038086,0.0,0.0,0.0,0.0,0.0,0.0
4176,1724820316962527037,-1.9887983798980713,0.18145877122879028,0.16542576253414154,-0.05393823981285095,-0.034735504537820816,0.32227516174316406,-0.944469690322876,0.0,0.0,0.0,0.0,0.0,0.0
4178,1724820316967426469,-1.9881103038787842,0.18220630288124084,0.16569784283638,-0.053445253521203995,-0.034878477454185486,0.3224284052848816,-0.9444400072097778,0.0,0.0,0.0,0.0,0.0,0.0
4180,1724820316975377315,-1.9873838424682617,0.18288210034370422,0.16585762798786163,-0.05410372093319893,-0.034582898020744324,0.32210347056388855,-0.944524347782135,0.0,0.0,0.0,0.0,0.0,0.0
4182,1724820316985611439,-1.986726999282837,0.18352867662906647,0.1659850925207138,-0.05482012405991554,-0.034390270709991455,0.321577787399292,-0.9446691274642944,0.0,0.0,0.0,0.0,0.0,0.0
4184,1724820316996103570,-1.9861398935317993,0.1842631995677948,0.16588042676448822,-0.052077699452638626,-0.03355216979980469,0.32107821106910706,-0.9450244307518005,0.0,0.0,0.0,0.0,0.0,0.0
4186,1724820317005421080,-1.9855811595916748,0.18494996428489685,0.1659766584634781,-0.05069265514612198,-0.033318351954221725,0.32117190957069397,-0.9450761079788208,0.0,0.0,0.0,0.0,0.0,0.0
4188,1724820317015802912,-1.9848662614822388,0.18563541769981384,0.16633199155330658,-0.05276354402303696,-0.032772451639175415,0.32069188356399536,-0.945144772529602,0.0,0.0,0.0,0.0,0.0,0.0
4190,1724820317025304751,-1.984285593032837,0.18625280261039734,0.1664777547121048,-0.052894242107868195,-0.0319339819252491,0.32024332880973816,-0.9453182816505432,0.0,0.0,0.0,0.0,0.0,0.0
4192,1724820317035546559,-1.9838045835494995,0.186904639005661,0.16669754683971405,-0.050612300634384155,-0.03304244577884674,0.32051992416381836,-0.945311427116394,0.0,0.0,0.0,0.0,0.0,0.0
4194,1724820317046144354,-1.9831923246383667,0.1874658167362213,0.16677401959896088,-0.049937233328819275,-0.031101295724511147,0.3193122148513794,-0.9458217024803162,0.0,0.0,0.0,0.0,0.0,0.0
4196,1724820317055601230,-1.9825537204742432,0.18822571635246277,0.16733399033546448,-0.051005009561777115,-0.03214019909501076,0.3188928961753845,-0.9458714723587036,0.0,0.0,0.0,0.0,0.0,0.0
4198,1724820317069166547,-1.9821250438690186,0.18894614279270172,0.16683299839496613,-0.04309821128845215,-0.030588198453187943,0.31739214062690735,-0.9468206167221069,0.0,0.0,0.0,0.0,0.0,0.0
4200,1724820317076173901,-1.9815819263458252,0.18935254216194153,0.16711537539958954,-0.045159414410591125,-0.0297378022223711,0.31656450033187866,-0.947028636932373,0.0,0.0,0.0,0.0,0.0,0.0
4202,1724820317085406353,-1.9810993671417236,0.18976615369319916,0.16718533635139465,-0.04562828689813614,-0.028842447325587273,0.31564268469810486,-0.9473415613174438,0.0,0.0,0.0,0.0,0.0,0.0
4204,1724820317095523897,-1.9806333780288696,0.1902131587266922,0.16743682324886322,-0.046011000871658325,-0.02871023491024971,0.315215528011322,-0.947469174861908,0.0,0.0,0.0,0.0,0.0,0.0
4206,1724820317105693092,-1.9801585674285889,0.19066835939884186,0.1679667979478836,-0.04759438335895538,-0.029659366235136986,0.314924955368042,-0.9474583864212036,0.0,0.0,0.0,0.0,0.0,0.0
4208,1724820317115986871,-1.9796394109725952,0.19102247059345245,0.16836225986480713,-0.049837492406368256,-0.02952895127236843,0.3142731189727783,-0.947563648223877,0.0,0.0,0.0,0.0,0.0,0.0
4210,1724820317125657656,-1.9792052507400513,0.19142720103263855,0.16876709461212158,-0.05019451677799225,-0.03043433465063572,0.31415271759033203,-0.9475560188293457,0.0,0.0,0.0,0.0,0.0,0.0
4212,1724820317136064486,-1.9788042306900024,0.1916884481906891,0.16866394877433777,-0.04893937706947327,-0.029728025197982788,0.31346404552459717,-0.9478721618652344,0.0,0.0,0.0,0.0,0.0,0.0
4214,1724820317146050094,-1.978318452835083,0.1920860856771469,0.1689218133687973,-0.04951062053442001,-0.02946222387254238,0.3126310110092163,-0.9481258392333984,0.0,0.0,0.0,0.0,0.0,0.0
4216,1724820317156498377,-1.977828860282898,0.19240492582321167,0.1690988838672638,-0.049989111721515656,-0.028964867815375328,0.31210964918136597,-0.9482877850532532,0.0,0.0,0.0,0.0,0.0,0.0
4218,1724820317165056838,-1.977354884147644,0.1926860809326172,0.16945840418338776,-0.05092642828822136,-0.029531968757510185,0.31186458468437195,-0.9483010172843933,0.0,0.0,0.0,0.0,0.0,0.0
4220,1724820317175281814,-1.9769963026046753,0.1927814781665802,0.16937142610549927,-0.04980712756514549,-0.02813115157186985,0.31097662448883057,-0.9486945867538452,0.0,0.0,0.0,0.0,0.0,0.0
4222,1724820317185749958,-1.976576328277588,0.19308191537857056,0.16950416564941406,-0.04995669424533844,-0.028222160413861275,0.3101638853549957,-0.9489501118659973,0.0,0.0,0.0,0.0,0.0,0.0
4224,1724820317196437888,-1.9761698246002197,0.19338735938072205,0.1696464866399765,-0.05016471445560455,-0.027888396754860878,0.30940014123916626,-0.9491982460021973,0.0,0.0,0.0,0.0,0.0,0.0
4226,1724820317205312555,-1.9757252931594849,0.19372621178627014,0.17004232108592987,-0.05083782598376274,-0.028313955292105675,0.30920830368995667,-0.9492123126983643,0.0,0.0,0.0,0.0,0.0,0.0
4228,1724820317216629279,-1.9753100872039795,0.193912535905838,0.16998620331287384,-0.049940887838602066,-0.027549289166927338,0.3086303174495697,-0.9494705200195312,0.0,0.0,0.0,0.0,0.0,0.0
4230,1724820317224983724,-1.9748557806015015,0.19395354390144348,0.16958937048912048,-0.04870758205652237,-0.02607109770178795,0.3079308867454529,-0.9498034119606018,0.0,0.0,0.0,0.0,0.0,0.0
4232,1724820317235939270,-1.974399447441101,0.194234237074852,0.16965311765670776,-0.04817979037761688,-0.025946365669369698,0.3075363039970398,-0.9499615430831909,0.0,0.0,0.0,0.0,0.0,0.0
4234,1724820317245320718,-1.9739629030227661,0.1943899393081665,0.16955679655075073,-0.048229388892650604,-0.02571900747716427,0.30681711435317993,-0.9501977562904358,0.0,0.0,0.0,0.0,0.0,0.0
4236,1724820317256069494,-1.9735190868377686,0.19456170499324799,0.1694529503583908,-0.04804399237036705,-0.02470364421606064,0.30612385272979736,-0.9504576325416565,0.0,0.0,0.0,0.0,0.0,0.0
4238,1724820317265394940,-1.9731043577194214,0.1947418451309204,0.16932374238967896,-0.04775501415133476,-0.02416701428592205,0.3057228922843933,-0.9506151080131531,0.0,0.0,0.0,0.0,0.0,0.0
4240,1724820317275016931,-1.9726629257202148,0.19517095386981964,0.16971996426582336,-0.04878294840455055,-0.024642301723361015,0.305594801902771,-0.9505918622016907,0.0,0.0,0.0,0.0,0.0,0.0
4242,1724820317296890520,-1.9722797870635986,0.1953425407409668,0.16919565200805664,-0.0469631552696228,-0.022921521216630936,0.3050301671028137,-0.9509077668190002,0.0,0.0,0.0,0.0,0.0,0.0
4244,1724820317297271725,-1.9718570709228516,0.1955026239156723,0.16891685128211975,-0.04603233188390732,-0.022042639553546906,0.30452290177345276,-0.9511367082595825,0.0,0.0,0.0,0.0,0.0,0.0
4246,1724820317305210240,-1.9714313745498657,0.19569355249404907,0.1689184457063675,-0.04604734480381012,-0.02221532166004181,0.30421385169029236,-0.9512308239936829,0.0,0.0,0.0,0.0,0.0,0.0
4248,1724820317315372729,-1.9709808826446533,0.195966899394989,0.16920851171016693,-0.046922359615564346,-0.022869637235999107,0.30395129323005676,-0.951256513595581,0.0,0.0,0.0,0.0,0.0,0.0
4250,1724820317327594028,-1.970550775527954,0.19626274704933167,0.16971759498119354,-0.04828369617462158,-0.02417035400867462,0.30409497022628784,-0.951110303401947,0.0,0.0,0.0,0.0,0.0,0.0
4252,1724820317335467580,-1.970162272453308,0.19645953178405762,0.16968698799610138,-0.04808035492897034,-0.023395707830786705,0.30377236008644104,-0.9512430429458618,0.0,0.0,0.0,0.0,0.0,0.0
4254,1724820317346154140,-1.9697600603103638,0.1966594159603119,0.1697324812412262,-0.04755561798810959,-0.02273409441113472,0.3037606477737427,-0.951289176940918,0.0,0.0,0.0,0.0,0.0,0.0
4256,1724820317357037536,-1.9693732261657715,0.19689218699932098,0.1698816567659378,-0.04776983708143234,-0.022657502442598343,0.3036688268184662,-0.9513095617294312,0.0,0.0,0.0,0.0,0.0,0.0
4258,1724820317365427126,-1.9689953327178955,0.19712147116661072,0.16986724734306335,-0.04759126901626587,-0.022539714351296425,0.30340543389320374,-0.95140540599823,0.0,0.0,0.0,0.0,0.0,0.0
4260,1724820317376024861,-1.968671441078186,0.1972023844718933,0.16982199251651764,-0.04727591946721077,-0.022493334487080574,0.3032310903072357,-0.9514778256416321,0.0,0.0,0.0,0.0,0.0,0.0
4262,1724820317387502798,-1.9682801961898804,0.19744320213794708,0.16985756158828735,-0.047370441257953644,-0.022591382265090942,0.30295225977897644,-0.9515596032142639,0.0,0.0,0.0,0.0,0.0,0.0
4264,1724820317395313803,-1.967881441116333,0.1975966840982437,0.16964493691921234,-0.04639023169875145,-0.022012770175933838,0.30252569913864136,-0.9517570734024048,0.0,0.0,0.0,0.0,0.0,0.0
4266,1724820317405912146,-1.9674643278121948,0.197744220495224,0.16935411095619202,-0.04531368613243103,-0.02071310393512249,0.30150720477104187,-0.9521613121032715,0.0,0.0,0.0,0.0,0.0,0.0
4268,1724820317418240560,-1.9670789241790771,0.19814273715019226,0.16983562707901,-0.046052347868680954,-0.021201103925704956,0.3008449077606201,-0.9523245692253113,0.0,0.0,0.0,0.0,0.0,0.0
4270,1724820317425381284,-1.9667158126831055,0.19832926988601685,0.16982650756835938,-0.04573233053088188,-0.020923491567373276,0.30018293857574463,-0.9525550007820129,0.0,0.0,0.0,0.0,0.0,0.0
4272,1724820317436198326,-1.9663643836975098,0.19854016602039337,0.1699097454547882,-0.045986250042915344,-0.02093411609530449,0.2999650239944458,-0.9526111483573914,0.0,0.0,0.0,0.0,0.0,0.0
4274,1724820317444929878,-1.965999960899353,0.19867663085460663,0.1697605699300766,-0.04539138078689575,-0.02052866853773594,0.29922181367874146,-0.9528822302818298,0.0,0.0,0.0,0.0,0.0,0.0
4276,1724820317455295358,-1.9656213521957397,0.19868524372577667,0.16929203271865845,-0.04331006482243538,-0.01860012672841549,0.29841750860214233,-0.9532708525657654,0.0,0.0,0.0,0.0,0.0,0.0
4278,1724820317468145330,-1.9651875495910645,0.19879139959812164,0.16916164755821228,-0.042959533631801605,-0.018087413161993027,0.2980923056602478,-0.9533983469009399,0.0,0.0,0.0,0.0,0.0,0.0
4280,1724820317474852259,-1.964755654335022,0.19895078241825104,0.16860069334506989,-0.040884263813495636,-0.0165194533765316,0.2974172532558441,-0.9537287950515747,0.0,0.0,0.0,0.0,0.0,0.0
4282,1724820317485866776,-1.964315414428711,0.19929659366607666,0.1691197007894516,-0.0424511656165123,-0.01803707145154476,0.29764673113822937,-0.9535612463951111,0.0,0.0,0.0,0.0,0.0,0.0
4284,1724820317496408573,-1.9639254808425903,0.19944554567337036,0.16906605660915375,-0.04207085072994232,-0.017804143950343132,0.2976195812225342,-0.9535909295082092,0.0,0.0,0.0,0.0,0.0,0.0
4286,1724820317504935075,-1.9635326862335205,0.19941659271717072,0.16887924075126648,-0.040915317833423615,-0.01674625277519226,0.2974656820297241,-0.9537083506584167,0.0,0.0,0.0,0.0,0.0,0.0
4288,1724820317515475190,-1.9630844593048096,0.19934144616127014,0.16855770349502563,-0.04036131128668785,-0.016159484162926674,0.29728636145591736,-0.9537980556488037,0.0,0.0,0.0,0.0,0.0,0.0
4290,1724820317528518014,-1.9626734256744385,0.19944453239440918,0.1686142385005951,-0.04102819412946701,-0.016802674159407616,0.29769882559776306,-0.9536298513412476,0.0,0.0,0.0,0.0,0.0,0.0
4292,1724820317565498971,-1.962269902229309,0.19965478777885437,0.1688903272151947,-0.04141434654593468,-0.017185697332024574,0.2977202534675598,-0.9535996317863464,0.0,0.0,0.0,0.0,0.0,0.0
4294,1724820317565880275,-1.9618816375732422,0.19969922304153442,0.16898906230926514,-0.04206102713942528,-0.01768863946199417,0.29795607924461365,-0.9534884095191956,0.0,0.0,0.0,0.0,0.0,0.0
4296,1724820317566130726,-1.9615774154663086,0.1996248960494995,0.16875046491622925,-0.041372936218976974,-0.017529873177409172,0.2979889214038849,-0.9535111784934998,0.0,0.0,0.0,0.0,0.0,0.0
4298,1724820317566378162,-1.9612704515457153,0.19950412213802338,0.16843824088573456,-0.04004549980163574,-0.016946908086538315,0.29801052808761597,-0.953571617603302,0.0,0.0,0.0,0.0,0.0,0.0
4300,1724820317575401051,-1.960978388786316,0.19937047362327576,0.16815732419490814,-0.03922455385327339,-0.016481975093483925,0.29803410172462463,-0.9536065459251404,0.0,0.0,0.0,0.0,0.0,0.0
4302,1724820317585052131,-1.960710048675537,0.19919711351394653,0.16753749549388885,-0.03744327276945114,-0.015626108273863792,0.2981257438659668,-0.9536639451980591,0.0,0.0,0.0,0.0,0.0,0.0
4304,1724820317595165908,-1.9604487419128418,0.19896598160266876,0.1671878844499588,-0.03660108149051666,-0.015161885879933834,0.29798850417137146,-0.9537469744682312,0.0,0.0,0.0,0.0,0.0,0.0
4306,1724820317606145568,-1.9602242708206177,0.19867482781410217,0.16673152148723602,-0.0355985201895237,-0.01430562511086464,0.2976698875427246,-0.9538977146148682,0.0,0.0,0.0,0.0,0.0,0.0
4308,1724820317615492488,-1.9599699974060059,0.19845205545425415,0.1669818013906479,-0.03699273243546486,-0.014892231673002243,0.29758933186531067,-0.9538607597351074,0.0,0.0,0.0,0.0,0.0,0.0
4310,1724820317626995994,-1.9598042964935303,0.19814901053905487,0.16691751778125763,-0.03690009564161301,-0.014857112430036068,0.29769057035446167,-0.953833281993866,0.0,0.0,0.0,0.0,0.0,0.0
4312,1724820317635591507,-1.9596580266952515,0.19783645868301392,0.16669534146785736,-0.036504339426755905,-0.01464997511357069,0.2979435622692108,-0.953772783279419,0.0,0.0,0.0,0.0,0.0,0.0
4314,1724820317645030995,-1.9595073461532593,0.19750279188156128,0.1666277050971985,-0.03696626424789429,-0.014037169516086578,0.2977140545845032,-0.9538359045982361,0.0,0.0,0.0,0.0,0.0,0.0
4316,1724820317667249379,-1.9594202041625977,0.19706816971302032,0.16647572815418243,-0.03719023987650871,-0.0136957336217165,0.29769885540008545,-0.9538368582725525,0.0,0.0,0.0,0.0,0.0,0.0
4318,1724820317667935193,-1.959258794784546,0.19666321575641632,0.16655069589614868,-0.03790033608675003,-0.013327009044587612,0.2972292900085449,-0.9539605379104614,0.0,0.0,0.0,0.0,0.0,0.0
4320,1724820317676114708,-1.9593346118927002,0.1958744078874588,0.16538144648075104,-0.03289637342095375,-0.004173116758465767,0.2950862944126129,-0.95489501953125,0.0,0.0,0.0,0.0,0.0,0.0
4322,1724820317685558958,-1.9591035842895508,0.1959036886692047,0.1663544923067093,-0.03613026440143585,-0.011611796915531158,0.2970190942287445,-0.9541171193122864,0.0,0.0,0.0,0.0,0.0,0.0
4324,1724820317695097168,-1.9590187072753906,0.195445716381073,0.1662626564502716,-0.035810042172670364,-0.012989229522645473,0.2967824637889862,-0.9541851282119751,0.0,0.0,0.0,0.0,0.0,0.0
4326,1724820317706050421,-1.9588710069656372,0.19500258564949036,0.16606098413467407,-0.03490186110138893,-0.01270265318453312,0.29649636149406433,-0.9543114900588989,0.0,0.0,0.0,0.0,0.0,0.0
4328,1724820317717641329,-1.9587130546569824,0.19458939135074615,0.1657688468694687,-0.033937666565179825,-0.011951474472880363,0.29594752192497253,-0.9545263051986694,0.0,0.0,0.0,0.0,0.0,0.0
4330,1724820317725027919,-1.9585977792739868,0.19425591826438904,0.165624737739563,-0.03315574675798416,-0.011431127786636353,0.29564139246940613,-0.9546549916267395,0.0,0.0,0.0,0.0,0.0,0.0
4332,1724820317735546121,-1.9584606885910034,0.19399699568748474,0.16533809900283813,-0.03239966556429863,-0.011339910328388214,0.2954052686691284,-0.9547551870346069,0.0,0.0,0.0,0.0,0.0,0.0
4334,1724820317746145902,-1.958338737487793,0.1936829686164856,0.16510935127735138,-0.031253669410943985,-0.01069253496825695,0.29516348242759705,-0.9548755884170532,0.0,0.0,0.0,0.0,0.0,0.0
4336,1724820317756383741,-1.958230972290039,0.19345317780971527,0.16500945389270782,-0.03084278479218483,-0.010600411333143711,0.2949047088623047,-0.9549700021743774,0.0,0.0,0.0,0.0,0.0,0.0
4338,1724820317765755676,-1.9581314325332642,0.19328804314136505,0.16505272686481476,-0.030912624672055244,-0.010696982964873314,0.29495298862457275,-0.9549517035484314,0.0,0.0,0.0,0.0,0.0,0.0
4340,1724820317775241999,-1.9580458402633667,0.19314338266849518,0.16506794095039368,-0.03114859201014042,-0.010950942523777485,0.29491204023361206,-0.9549537897109985,0.0,0.0,0.0,0.0,0.0,0.0
4342,1724820317785774792,-1.9579228162765503,0.19295726716518402,0.1649985909461975,-0.03133810684084892,-0.010694706812500954,0.2947380840778351,-0.9550042152404785,0.0,0.0,0.0,0.0,0.0,0.0
4344,1724820317795672385,-1.957815170288086,0.1928228735923767,0.16491548717021942,-0.03146658092737198,-0.010764735750854015,0.29445892572402954,-0.9550853371620178,0.0,0.0,0.0,0.0,0.0,0.0
4346,1724820317806762967,-1.9576870203018188,0.19268208742141724,0.16483935713768005,-0.03158538416028023,-0.010705914348363876,0.2941901981830597,-0.9551648497581482,0.0,0.0,0.0,0.0,0.0,0.0
4348,1724820317815295840,-1.9575772285461426,0.19262705743312836,0.16480916738510132,-0.0310679841786623,-0.011238212697207928,0.2941199839115143,-0.9551973342895508,0.0,0.0,0.0,0.0,0.0,0.0
4350,1724820317825255181,-1.9574066400527954,0.19253532588481903,0.16469819843769073,-0.030546730384230614,-0.011409473605453968,0.29388120770454407,-0.9552856683731079,0.0,0.0,0.0,0.0,0.0,0.0
4352,1724820317835512599,-1.9572395086288452,0.19245043396949768,0.1644282341003418,-0.029624400660395622,-0.011284627951681614,0.29357269406318665,-0.9554110169410706,0.0,0.0,0.0,0.0,0.0,0.0
4354,1724820317846116855,-1.9570531845092773,0.19239655137062073,0.16413770616054535,-0.028475606814026833,-0.011338841170072556,0.29340922832489014,-0.9554954767227173,0.0,0.0,0.0,0.0,0.0,0.0
4356,1724820317858422593,-1.9568315744400024,0.19230890274047852,0.1638941913843155,-0.02747175469994545,-0.011069678701460361,0.2929674983024597,-0.9556636214256287,0.0,0.0,0.0,0.0,0.0,0.0
4358,1724820317864897371,-1.9565991163253784,0.19215206801891327,0.16349932551383972,-0.026241496205329895,-0.010250519961118698,0.2925521731376648,-0.9558345675468445,0.0,0.0,0.0,0.0,0.0,0.0
4360,1724820317875002919,-1.9563608169555664,0.1920362263917923,0.16340091824531555,-0.026307443156838417,-0.010075845755636692,0.29238390922546387,-0.9558860063552856,0.0,0.0,0.0,0.0,0.0,0.0
4362,1724820317885337736,-1.9561803340911865,0.19187138974666595,0.16306087374687195,-0.02527516335248947,-0.009317406453192234,0.2920502722263336,-0.9560235142707825,0.0,0.0,0.0,0.0,0.0,0.0
4364,1724820317895531030,-1.956003189086914,0.19178946316242218,0.16276894509792328,-0.024574829265475273,-0.008837670087814331,0.2917846441268921,-0.9561274647712708,0.0,0.0,0.0,0.0,0.0,0.0
4366,1724820317907264299,-1.9558004140853882,0.19178389012813568,0.16254445910453796,-0.024495719000697136,-0.008803676813840866,0.29176008701324463,-0.9561373591423035,0.0,0.0,0.0,0.0,0.0,0.0
4368,1724820317917394889,-1.9556070566177368,0.19190523028373718,0.1624448299407959,-0.024367252364754677,-0.008950944058597088,0.2918795347213745,-0.956102728843689,0.0,0.0,0.0,0.0,0.0,0.0
4370,1724820317924918348,-1.9554132223129272,0.19197560846805573,0.1624363660812378,-0.02443816512823105,-0.00981577206403017,0.2922091782093048,-0.955991804599762,0.0,0.0,0.0,0.0,0.0,0.0
4372,1724820317935764205,-1.9552218914031982,0.1919337809085846,0.1619628667831421,-0.023540109395980835,-0.009359669871628284,0.2919825315475464,-0.956088125705719,0.0,0.0,0.0,0.0,0.0,0.0
4374,1724820317945002897,-1.9549798965454102,0.19198331236839294,0.16161641478538513,-0.022882990539073944,-0.009132842533290386,0.2921094596385956,-0.9560675024986267,0.0,0.0,0.0,0.0,0.0,0.0
4376,1724820317955343474,-1.9546699523925781,0.19208745658397675,0.16117383539676666,-0.021372800692915916,-0.008457671850919724,0.2920997142791748,-0.9561116099357605,0.0,0.0,0.0,0.0,0.0,0.0
4378,1724820317968265918,-1.95431387424469,0.19251099228858948,0.1611265242099762,-0.020538268610835075,-0.008929906412959099,0.2922498285770416,-0.9560797214508057,0.0,0.0,0.0,0.0,0.0,0.0
4380,1724820317977577826,-1.9538516998291016,0.19259001314640045,0.1604606807231903,-0.018093563616275787,-0.008739626966416836,0.29246360063552856,-0.9560655355453491,0.0,0.0,0.0,0.0,0.0,0.0
4382,1724820317985629957,-1.9533638954162598,0.19301821291446686,0.16000233590602875,-0.015961360186338425,-0.00822294782847166,0.2922348976135254,-0.9561781287193298,0.0,0.0,0.0,0.0,0.0,0.0
4384,1724820317995547176,-1.952862024307251,0.19360098242759705,0.1597081571817398,-0.014608243480324745,-0.009333052672445774,0.29256948828697205,-0.9560871720314026,0.0,0.0,0.0,0.0,0.0,0.0
4386,1724820318005032903,-1.9523156881332397,0.19395595788955688,0.15936152637004852,-0.01315495278686285,-0.008584338240325451,0.2918005585670471,-0.9563502073287964,0.0,0.0,0.0,0.0,0.0,0.0
4388,1724820318016638672,-1.9517842531204224,0.19423724710941315,0.1585649847984314,-0.010189109481871128,-0.006847936660051346,0.29149165749549866,-0.9564945697784424,0.0,0.0,0.0,0.0,0.0,0.0
4390,1724820318027334162,-1.9512128829956055,0.19472669064998627,0.15809588134288788,-0.00890569481998682,-0.006385995540767908,0.2914929986000061,-0.9565102458000183,0.0,0.0,0.0,0.0,0.0,0.0
4392,1724820318035742963,-1.9506275653839111,0.19543927907943726,0.15765418112277985,-0.007487880066037178,-0.006936588790267706,0.29155850410461426,-0.9564985036849976,0.0,0.0,0.0,0.0,0.0,0.0
4394,1724820318046553737,-1.9500374794006348,0.1959533840417862,0.15740585327148438,-0.006682989653199911,-0.007517337333410978,0.2912736237049103,-0.9565868973731995,0.0,0.0,0.0,0.0,0.0,0.0
4396,1724820318055012342,-1.9493693113327026,0.19626876711845398,0.1560160517692566,-0.002565473783761263,-0.0057478430680930614,0.29008835554122925,-0.9569792151451111,0.0,0.0,0.0,0.0,0.0,0.0
4398,1724820318064945199,-1.9486008882522583,0.19694755971431732,0.15549921989440918,-0.0009223630768246949,-0.004614293109625578,0.28940755128860474,-0.957194447517395,0.0,0.0,0.0,0.0,0.0,0.0
4400,1724820318078154578,-1.9478706121444702,0.1979910433292389,0.1555556356906891,9.922081517288461e-05,-0.005923825781792402,0.28960874676704407,-0.9571268558502197,0.0,0.0,0.0,0.0,0.0,0.0
4402,1724820318085457065,-1.9470614194869995,0.1990496814250946,0.15532271564006805,0.0022611513268202543,-0.006996059324592352,0.2895492613315582,-0.9571349024772644,0.0,0.0,0.0,0.0,0.0,0.0
4404,1724820318096194882,-1.9462050199508667,0.19941197335720062,0.15406101942062378,0.009106292389333248,-0.0042432500049471855,0.2869533598423004,-0.9578919410705566,0.0,0.0,0.0,0.0,0.0,0.0
4406,1724820318106989881,-1.9453434944152832,0.20053531229496002,0.15359756350517273,0.010136060416698456,-0.004857802297919989,0.28650134801864624,-0.9580138921737671,0.0,0.0,0.0,0.0,0.0,0.0
4408,1724820318115272070,-1.9444763660430908,0.2015957236289978,0.15349344909191132,0.011406407691538334,-0.00508889090269804,0.2857995927333832,-0.9582080245018005,0.0,0.0,0.0,0.0,0.0,0.0
4410,1724820318125823862,-1.9433528184890747,0.20317377150058746,0.1527039110660553,0.014241872355341911,-0.005971388425678015,0.2852630317211151,-0.9583248496055603,0.0,0.0,0.0,0.0,0.0,0.0
4412,1724820318136225570,-1.9423389434814453,0.20424768328666687,0.15153098106384277,0.019456645473837852,-0.004906370770186186,0.2847146689891815,-0.9584023356437683,0.0,0.0,0.0,0.0,0.0,0.0
4414,1724820318145561318,-1.9411202669143677,0.20604440569877625,0.15047141909599304,0.022540360689163208,-0.0037952002603560686,0.2839953899383545,-0.95855313539505,0.0,0.0,0.0,0.0,0.0,0.0
4416,1724820318156188190,-1.9399735927581787,0.20734448730945587,0.1493838131427765,0.024805860593914986,-0.004105118568986654,0.2829896807670593,-0.9587934017181396,0.0,0.0,0.0,0.0,0.0,0.0
4418,1724820318165081549,-1.9387108087539673,0.2089310884475708,0.1482553631067276,0.027973627671599388,-0.0032209130004048347,0.2822306156158447,-0.9589332938194275,0.0,0.0,0.0,0.0,0.0,0.0
4420,1724820318175346789,-1.937690258026123,0.21046534180641174,0.14708900451660156,0.031261853873729706,-0.0015430243220180273,0.28090596199035645,-0.9592248201370239,0.0,0.0,0.0,0.0,0.0,0.0
4422,1724820318186240802,-1.9364553689956665,0.21185556054115295,0.1463424265384674,0.032601818442344666,-0.0015124068595468998,0.2799933850765228,-0.9594469666481018,0.0,0.0,0.0,0.0,0.0,0.0
4424,1724820318194893639,-1.935423731803894,0.2135590761899948,0.14558325707912445,0.034449733793735504,-0.0012286341516301036,0.27958714962005615,-0.959501326084137,0.0,0.0,0.0,0.0,0.0,0.0
4426,1724820318207218223,-1.93449866771698,0.21446989476680756,0.14435361325740814,0.037465281784534454,0.0007905095117166638,0.2760261297225952,-0.9604192972183228,0.0,0.0,0.0,0.0,0.0,0.0
4428,1724820318223359801,-1.9336105585098267,0.21601782739162445,0.14358127117156982,0.03937629610300064,0.0012856543762609363,0.2757866382598877,-0.9604112505912781,0.0,0.0,0.0,0.0,0.0,0.0
4430,1724820318225979827,-1.9327536821365356,0.21712945401668549,0.14255939424037933,0.04114780202507973,0.0036941743455827236,0.27342939376831055,-0.9610045552253723,0.0,0.0,0.0,0.0,0.0,0.0
4432,1724820318237070058,-1.9318792819976807,0.21851707994937897,0.14254221320152283,0.03986029326915741,0.0015071015805006027,0.273666650056839,-0.9609971046447754,0.0,0.0,0.0,0.0,0.0,0.0
4434,1724820318245222930,-1.9311968088150024,0.21995551884174347,0.14232920110225677,0.040179070085287094,0.0008729583350941539,0.27317532896995544,-0.9611243605613708,0.0,0.0,0.0,0.0,0.0,0.0
4436,1724820318255660147,-1.9305074214935303,0.2206782102584839,0.14032109081745148,0.04838549345731735,0.0052130091935396194,0.2692239582538605,-0.9618473649024963,0.0,0.0,0.0,0.0,0.0,0.0
4438,1724820318267802106,-1.9296475648880005,0.22178271412849426,0.13979288935661316,0.04547377675771713,0.006183253601193428,0.26774752140045166,-0.9623956084251404,0.0,0.0,0.0,0.0,0.0,0.0
4440,1724820318277590676,-1.928938388824463,0.22314773499965668,0.1403931975364685,0.0422845296561718,0.0021373294293880463,0.2691577970981598,-0.9621649980545044,0.0,0.0,0.0,0.0,0.0,0.0
4442,1724820318287357868,-1.928401231765747,0.22420860826969147,0.13908438384532928,0.04713166877627373,0.00499041797593236,0.2674499750137329,-0.9624054431915283,0.0,0.0,0.0,0.0,0.0,0.0
4444,1724820318296843638,-1.927854299545288,0.22496233880519867,0.1385858803987503,0.04756779223680496,0.005282580852508545,0.26652127504348755,-0.9626400470733643,0.0,0.0,0.0,0.0,0.0,0.0
4446,1724820318306760056,-1.9272325038909912,0.22574180364608765,0.13770972192287445,0.049465011805295944,0.006007119547575712,0.2653340995311737,-0.9628680944442749,0.0,0.0,0.0,0.0,0.0,0.0
4448,1724820318315602909,-1.9267444610595703,0.22659531235694885,0.13702578842639923,0.05038060247898102,0.006318544037640095,0.2643819749355316,-0.9630805850028992,0.0,0.0,0.0,0.0,0.0,0.0
4450,1724820318326283438,-1.926298975944519,0.22738924622535706,0.13622990250587463,0.051380567252635956,0.006505018565803766,0.26378393173217773,-0.963190495967865,0.0,0.0,0.0,0.0,0.0,0.0
4452,1724820318335468633,-1.9260140657424927,0.22832505404949188,0.13572417199611664,0.05211324989795685,0.006560740992426872,0.26274755597114563,-0.9634339809417725,0.0,0.0,0.0,0.0,0.0,0.0
4454,1724820318347080446,-1.9257029294967651,0.229465052485466,0.13540886342525482,0.054008398205041885,0.005479200277477503,0.2617088258266449,-0.9636189937591553,0.0,0.0,0.0,0.0,0.0,0.0
4456,1724820318357212512,-1.925508975982666,0.23000553250312805,0.13486731052398682,0.05357556417584419,0.006462521851062775,0.2606787085533142,-0.9639162421226501,0.0,0.0,0.0,0.0,0.0,0.0
4458,1724820318366316543,-1.9254831075668335,0.23038293421268463,0.1340111941099167,0.055029239505529404,0.007661846000701189,0.259290486574173,-0.964199960231781,0.0,0.0,0.0,0.0,0.0,0.0
4460,1724820318376192532,-1.9254698753356934,0.23075251281261444,0.13393430411815643,0.0542268306016922,0.008334945887327194,0.25793707370758057,-0.9646028280258179,0.0,0.0,0.0,0.0,0.0,0.0
4462,1724820318386098695,-1.9253405332565308,0.231265127658844,0.13481560349464417,0.05129988119006157,0.006330282427370548,0.25845664739608765,-0.9646390676498413,0.0,0.0,0.0,0.0,0.0,0.0
4464,1724820318395024094,-1.9254411458969116,0.23157919943332672,0.1350608468055725,0.050877250730991364,0.0057967063039541245,0.2576594650745392,-0.9648780226707458,0.0,0.0,0.0,0.0,0.0,0.0
4466,1724820318405861292,-1.925499439239502,0.23203596472740173,0.1353714019060135,0.05065736919641495,0.0049489387311041355,0.2567320168018341,-0.9651414752006531,0.0,0.0,0.0,0.0,0.0,0.0
4468,1724820318414863373,-1.925639271736145,0.23236460983753204,0.13505730032920837,0.05283099412918091,0.00615099398419261,0.25516393780708313,-0.9654337763786316,0.0,0.0,0.0,0.0,0.0,0.0
4470,1724820318425454507,-1.9259378910064697,0.23243561387062073,0.13424526154994965,0.05912486091256142,0.009045979008078575,0.252267062664032,-0.965807318687439,0.0,0.0,0.0,0.0,0.0,0.0
4472,1724820318435435272,-1.9261469841003418,0.23296062648296356,0.13434989750385284,0.06020885333418846,0.010020151734352112,0.25099146366119385,-0.9660630226135254,0.0,0.0,0.0,0.0,0.0,0.0
4474,1724820318444965867,-1.926287055015564,0.23382161557674408,0.13549627363681793,0.05629870668053627,0.008875768631696701,0.25092822313308716,-0.9663264751434326,0.0,0.0,0.0,0.0,0.0,0.0
4476,1724820318455296926,-1.9264708757400513,0.23453092575073242,0.1361074447631836,0.053641531616449356,0.008934627287089825,0.25069865584373474,-0.9665366411209106,0.0,0.0,0.0,0.0,0.0,0.0
