seq,stamp,px,py,pz,ox,oy,oz,ow,lx,ly,lz,ax,ay,az,timestamp,wx,wy,wz,aa_x,aa_y,aa_z,roll,pitch,yaw,vx,vy,vz,jx,jy,jz,fw
2084,1724817051284626416,-1.685633897781372,-0.6849132776260376,0.1913571208715438,0.0007973744650371,-0.0544707812368869,0.495967149734497,-0.8666308522224426,0.0,0.0,0.0,0.4592564647326949,-0.7218850371150827,-0.1408290611215515,0.0,0.0,0.0,0.0,-11.479960210726311,-16.08640077817139,2.6033939725987816,-0.0556867269120893,0.0937584820629526,-1.0422089633068408,-0.0434158884175774,-0.0070820243518034,-0.0345756745419104,-4.185326952476192,-16.046781310807958,9.06315385933524,0.0
2086,1724817051294305194,-1.6860541105270386,-0.6849818229675293,0.1910224705934524,0.0016304311575368,-0.0540845543146133,0.4958313405513763,-0.8667315244674683,0.0,0.0,0.0,0.4187476143022612,-0.8771982710369419,-0.0531088069372025,0.009678778,-0.1111119863284532,-0.1556967019509481,0.0251976723073216,-0.6179510904247758,-4.440388336884132,2.706114821781658,-0.0567315387179837,0.0922676000880064,-1.0418792958979326,-0.0389708470503649,-0.014068989367562,-0.0359387277604543,-3.681783368445086,3.063715756764129,19.16616947050112,-0.0003692839585873
2088,1724817051304814030,-1.6864129304885864,-0.6852093935012817,0.190629243850708,0.0017670370871201,-0.0537521094083786,0.4955828785896301,-0.866894006729126,0.0,0.0,0.0,0.3858018294183154,-0.6269498787037019,0.263581544056215,0.020187614,0.0063304631636801,-0.0694780777632234,0.0548078423030773,12.230895671759429,5.99721988487112,2.979803244562307,-0.0566081922211422,0.0915712580329831,-1.0412602593791205,-0.0350325062820786,-0.0250594586062931,-0.035495944359539,-1.381467135352196,45.923593445417794,41.04672748805058,-0.0004135934517897
2090,1724817051314402614,-1.686756610870361,-0.685479462146759,0.1903057098388672,0.0012674096506088,-0.0533071681857109,0.4952642619609833,-0.8671044111251831,0.0,0.0,0.0,0.3878975169888061,0.0068348881515938,0.752621869675703,0.029776198,0.1328402105526118,-0.031283610507035,0.0847986445283039,-3.981214492870647,3.071726774210594,-2.9557777202587037,-0.0552584595950031,0.0913172162257867,-1.040428176951406,-0.0312366500923246,-0.0274062613413406,-0.0310311476243985,-11.290678989035971,46.599031832075774,28.000304741031663,-0.0003402308421176
2092,1724817051324439232,-1.6870217323303225,-0.6857465505599976,0.190022736787796,0.0016756583936512,-0.0534810610115528,0.4952789545059204,-0.8670846819877625,0.0,0.0,0.0,0.1536659692743947,0.2696850663369949,0.7920002414393977,0.039812816,-0.0875511999987246,-0.0100307593950423,-0.008778514469865,-6.015436786959943,-1.9730378212851456,-4.293668230656162,-0.0561447217167564,0.0912118024617301,-1.0405109821999703,-0.0274272521864418,-0.0246946188210799,-0.0204624219638667,-13.634268081318355,12.7590431195689,-26.575403847974563,-0.0002930083614229
2094,1724817051334158247,-1.687297821044922,-0.6859685182571411,0.1898966282606125,0.0018224358791485,-0.0531860403716564,0.4952927827835083,-0.8670946359634399,0.0,0.0,0.0,0.1124777674041666,0.267293748769858,0.2466744874350981,0.049531831,0.0040344078428572,-0.0677049793621289,-0.003169963720923,6.218284943345898,-5.964638727859562,4.210169831323008,-0.0561049508542166,0.0905530850125866,-1.0405048086657502,-0.0280596689522951,-0.0220781559069997,-0.0152215056524003,-0.0240791172767584,-5.6753295686598,-42.03421566407633,-0.0001403646726563
2096,1724817051344551539,-1.6875855922698977,-0.6861895322799683,0.1897134631872177,0.0019858703017234,-0.0525158084928989,0.4949356913566589,-0.867339015007019,0.0,0.0,0.0,0.1590613659065427,0.1479654341127111,-0.0337655708437401,0.059925123,0.033040731903979,-0.1300359283253602,0.0809670993363015,5.672542766653868,-2.1949077443344964,-0.4932055543994803,-0.0556790050869218,0.0892507064112977,-1.0395854264211195,-0.0249173264057418,-0.0193213996845358,-0.0159094603447815,1.4294936522934032,-12.49860332558925,-8.351586939037956,-0.0001982065887628
2098,1724817051355149383,-1.6878197193145752,-0.6863732933998108,0.1895633786916732,0.0017136298120021,-0.0516739152371883,0.4950473308563232,-0.8673263788223267,0.0,0.0,0.0,0.1412233473391311,0.0045135807087424,0.0790622974477746,0.070522967,0.1242980295849306,-0.112207734163917,-0.0170710861328234,-7.004109812465261,-3.000890276088813,-2.3451118076234705,-0.054371950154114,0.088053385232105,-1.039701016843671,-0.0247799842415474,-0.0190206445447316,-0.0159168869414099,14.254457560812751,-11.97216670801025,-5.55331536394692,-0.0001618102604374
2100,1724817051363830965,-1.6880539655685425,-0.6865503787994385,0.1894127130508422,0.0022587438579648,-0.051130261272192,0.4949912428855896,-0.8673893213272095,0.0,0.0,0.0,0.3783200187813874,-0.0883024569039095,-0.0843578997921081,0.079204549,-0.0475599429094479,-0.1715657993991511,0.0116813495383631,-10.736107372964772,-2.545036948261776,1.1006812218684967,-0.0547688668600435,0.0865716653089473,-1.0395177596278014,-0.022641753501432,-0.0191511851592913,-0.0146632412804006,14.591405699992908,-11.62887278488036,-29.60393285657274,-0.0001629078781589
2102,1724817051374489736,-1.688238501548767,-0.6867381930351257,0.1892916411161422,0.0028370227664709,-0.0505859293043613,0.4950030744075775,-0.867412805557251,0.0,0.0,0.0,0.367403677351466,-0.224523315858071,-0.5409712627346939,0.08986332,-0.0434375405977318,-0.1425238917788001,-0.0055231706882666,12.748594330457076,3.0916765874892835,3.4178887913772535,-0.05522973246561,0.0850515993371277,-1.039492969139911,-0.0168816146988746,-0.0210511578392385,-0.0185560151310948,-2.4562343895607306,2.9395507498275366,-14.699232854835063,-0.0001286816853182
2104,1724817051384414267,-1.6884020566940308,-0.686978816986084,0.1890409737825393,0.0022352752275764,-0.049635462462902,0.4947283565998077,-0.8676261901855469,0.0,0.0,0.0,0.3297931372294282,-0.0500858000329937,-0.4268163592590795,0.099787851,0.1973203672879773,-0.1084492291204489,0.0748978977053029,3.4794462517995717,1.1374721810957815,3.5264858213201,-0.0532035844826054,0.0840171559676766,-1.0386895617925187,-0.0148340624851215,-0.0237070116067528,-0.025549015244719,6.271911928203082,20.912258016340104,13.025670037407506,-0.0002529942173255
2106,1724817051394463365,-1.688534379005432,-0.6872115731239319,0.1887812614440918,0.0024277153424918,-0.049059547483921,0.4944540858268738,-0.8678147196769714,0.0,0.0,0.0,0.4951989287210938,0.1940066588291109,-0.2804194561375803,0.109836949,0.0208502785019675,-0.1203800221749625,0.0637661626301227,-13.74124856882666,2.731575202507673,-4.280417057634373,-0.0529351780959103,0.0828431333696111,-1.0379829896984014,-0.0102634925775078,-0.0219970215179543,-0.0270114426446674,-2.489748397733859,11.378934804867653,0.35637692227127,-0.0002597324118459
2108,1724817051404010211,-1.688606023788452,-0.6874110102653503,0.1885128021240234,0.0028813323006033,-0.0489947199821472,0.4944599568843841,-0.8678136467933655,0.0,0.0,0.0,0.299563349669551,0.1855402735078113,-0.4059137713322369,0.119383795,-0.0756932338595452,-0.058759538003897,-0.0058735853132571,1.1252315371515484,2.005627940604136,-2.1350858873719503,-0.0536599701816565,0.0822799740884545,-1.0380091855530995,-0.0051697153779173,-0.0199286199720987,-0.0309119865245737,-25.42908690043397,5.66153030228168,15.232114563983174,-0.0002647968403888
2110,1724817051414871314,-1.6886333227157593,-0.6876155734062195,0.1881425678730011,0.0027637286111712,-0.0483595021069049,0.4943149983882904,-0.8679322600364685,0.0,0.0,0.0,-0.0376265546309175,0.3279440920637015,0.110160859724455,0.130244898,0.0753859811568703,-0.0919482159123905,0.034688584805818,-0.0716597178234512,1.2722589326775715,0.4717953978819297,-0.052806001198515,0.0813027797953991,-1.0375784260996344,-0.0048074073665986,-0.0182979487502947,-0.0352878509079008,-16.349209673575956,10.854267334648256,25.541490839611455,-0.000362064407236
2112,1724817051423892655,-1.688693881034851,-0.6877766251564026,0.1878152340650558,0.0029852432198822,-0.0482385605573654,0.4942510724067688,-0.8679746389389038,0.0,0.0,0.0,-0.0749948124260187,0.4089512644502984,0.175920671059429,0.139266239,-0.0300289630902646,-0.0480401223183638,0.0144957080989809,-6.087338696238397,1.7896987723722404,-3.295803363821894,-0.0530644245515766,0.0808769165458018,-1.0374243685097342,-0.0056787542670306,-0.0140071185570533,-0.030449627322878,1.678247428847622,-3.380488265912735,-5.629712999130943,-0.0003242094556129
2114,1724817051436131642,-1.688746213912964,-0.6878842115402222,0.1875394433736801,0.0032931936439126,-0.0478625670075416,0.494476705789566,-0.8678658604621887,0.0,0.0,0.0,0.042189639041323,0.1623488260554672,-0.1074931362921689,0.151505226,-0.0115856718371687,-0.0772346282113507,-0.043399907216298,2.6597072768153582,-8.094694638422649,1.849283317289497,-0.0532449120353266,0.0799047625063488,-1.0379061817398796,-0.0062380873845739,-0.0101091392202974,-0.0342805173500639,13.57890946264897,-10.090439704795036,22.943414832158144,-0.0002745617045497
2116,1724817051444565566,-1.6888102293014526,-0.687977135181427,0.1871820539236068,0.0035994674544781,-0.047172162681818,0.494439423084259,-0.8679236769676208,0.0,0.0,0.0,0.179985051429717,0.1357051678175344,0.3539361693401908,0.15993915,0.0175458606149247,-0.1786863705820695,0.0104370436228492,5.711540244597078,-3.3773468438368632,0.8126752111578339,-0.0530836063288832,0.0784045408676644,-1.0377376593138328,-0.0053714569505416,-0.0096473621649195,-0.0339926912537169,5.456287152493118,-4.121767523328402,28.20499461471986,-0.0003575052660081
2118,1724817051454743997,-1.688837647438049,-0.6880584955215454,0.1869390308856964,0.0034233436454087,-0.0464393384754657,0.4946817457675934,-0.8678258061408997,0.0,0.0,0.0,0.1018500814142709,0.0819269177431635,0.3154235555975315,0.170117581,0.103410398707677,-0.1067873651702221,-0.049720516912702,4.123982924377402,2.862313875511284,-1.5062537691424387,-0.0520660158481007,0.077292517792326,-1.038187253685061,-0.0025908183959302,-0.0072716898125406,-0.0264617135409235,-6.481737724049825,-12.238833739002231,-7.498384769972068,-0.0002410172520717
2120,1724817051463707927,-1.6888600587844849,-0.6881179809570312,0.1866814196109771,0.0032690747175365,-0.0457585528492927,0.4948126673698425,-0.8677878975868225,0.0,0.0,0.0,0.0531802927997761,-0.0826885365365376,0.2188839337015393,0.179081511,0.1063374920006773,-0.1142982317970342,-0.0284554276780373,-3.08962098674985,0.5543846775996837,3.648574788564858,-0.0511283420219351,0.0762561610569796,-1.0383897007989693,-0.0030304523068167,-0.0077331039519492,-0.0269852085148318,3.7372354413679494,-12.506118863490268,4.505632590470176,-0.0002560231045709
2122,1724817051473797285,-1.688896656036377,-0.6882084608078003,0.1864290684461593,0.0033364575356245,-0.045261476188898,0.4947194755077362,-0.8678669333457947,0.0,0.0,0.0,0.1949849851946229,-0.1423423190678704,0.4378118331804257,0.189170869,0.0363709729061566,-0.0928939572033451,0.0228498867456575,-0.5118269829533117,2.679404470201864,2.072771404239103,-0.0507402825145593,0.0753318858849789,-1.0381110830920488,-0.0013330208295911,-0.0089218470189536,-0.0216279485655874,7.429101996099821,-1.6100842896061285,-11.474355787763203,-0.0002507795626632
2124,1724817051484606324,-1.6888844966888428,-0.6883043646812439,0.1862344741821289,0.002994077745825,-0.0447107702493667,0.4946953952312469,-0.8679103851318359,0.0,0.0,0.0,0.1985595894269102,-0.1099230505354601,-0.0703629829571004,0.199979908,0.105215665880162,-0.0574712626499944,0.0103717135691313,0.0866634264969761,1.0814007897208535,-0.8663320440105027,-0.0495922386679212,0.0747170710634974,-1.0379674591524606,0.001084290313571,-0.0107443833992562,-0.0179745304205916,3.3571062945393297,11.862507719901888,-20.12603334298015,-0.0001890890468106
2126,1724817051493805007,-1.6888748407363892,-0.6884178519248962,0.1860693544149398,0.0029134962242096,-0.0443232022225856,0.494687557220459,-0.8679350018501282,0.0,0.0,0.0,0.2531319458730748,0.0685799334286069,-0.0450114570963933,0.209178591,0.0568318135359297,-0.0647125480362861,0.0046578235692649,-1.6160859373271714,4.306615786325257,1.2952990787086034,-0.0490640814113589,0.0741246370650546,-1.0378951076781997,0.0027144576979623,-0.0112960974660545,-0.0218185144702349,-2.0690288837584996,17.388255506029022,32.45135648592179,-0.0001592947195892
2128,1724817051504167879,-1.6888272762298584,-0.6885227560997009,0.185798093676567,0.0024316869676113,-0.0442891418933868,0.494525134563446,-0.8680307865142822,0.0,0.0,0.0,0.1382763214607416,0.2252246910945168,0.6379533590056568,0.219541463,0.0826234879773808,0.0393837136017093,0.0404544001155343,0.2225067343267719,5.867080503898114,-1.9411397246158495,-0.0481781575655256,0.0745526593474385,-1.0374951232421554,0.0062238876315063,-0.0090845812632451,-0.0179318967325556,25.89446695057496,-3.374085542357221,-7.1702185665018705,-0.000262269408683
2130,1724817051514252081,-1.688748478889465,-0.6886041760444641,0.1856981664896011,0.0020212491508573,-0.0443844608962535,0.494680106639862,-0.8679386377334595,0.0,0.0,0.0,0.7622658992913393,0.0097564384627293,-0.1514413271708851,0.229625665,0.0626275676480028,0.0575493588081768,-0.0320661361074937,-2.145495812175791,0.9473886264907398,-4.773032145544675,-0.0475729048586115,0.0751168553032965,-1.0378468343542115,0.0056519808863519,-0.0066974090938947,-0.0089187901523404,386.6710027673652,534.828753438427,-208.62494349807977,-9.001441155724485e-05
2132,1724817051543556173,-1.6887669563293457,-0.6886832118034363,0.1855211555957794,0.0020870838779956,-0.0446476712822914,0.4942387044429779,-0.8681764006614685,0.0,0.0,0.0,39.75137114364941,63.04579804157204,-17.364625122484284,0.258929757,-0.0140906099839363,0.0125878782292391,0.0340113992909696,1648.3126929939174,3089.7790797600446,-1324.1715964923192,-0.0479120140448051,0.075532875239702,-1.0368661008420146,0.0977304294642635,-0.0257391400691631,-0.1023638661988002,-14515.98383485178,-1192.7404269468095,11834.600479975546,-0.0001745725229635
2134,1724817051544212266,-1.6887013912200928,-0.6887004375457764,0.1854525804519653,0.0014506260631605,-0.045063953846693,0.4944992959499359,-0.8680078983306885,0.0,0.0,0.0,29.99476122991939,62.21413055406658,-9.417555513602991,0.25958585,1.0916069063013414,2.0851796841754813,-0.8542526571185358,197.618482405211,2421.96709278377,-1488.7833734745757,-0.0472435392508586,0.076872758485259,-1.0374929920014695,0.1243487911269767,0.016560413519187,-0.1139649087331236,-17806.02146073592,-6389.038223763782,13260.11336180506,-6.234865910724553e-05
2136,1724817051544710346,-1.688630223274231,-0.6886759996414185,0.1853922456502914,0.0009624270605854,-0.0456373430788517,0.4948632419109344,-0.8677712082862854,0.0,0.0,0.0,20.016053764342516,57.09534841969661,-2.379102034154033,0.26008393,0.6275197310729942,3.0128275944503136,-1.6468000254712662,-886.6575674267293,1748.490742295097,-1498.482661428268,-0.0470001937159635,0.0783330901615321,-1.0383857461151629,0.1352894581221146,0.0466943186972494,-0.1155306268245293,-19152.9668245813,-10084.66069054587,13444.268334821953,-5.544168070978347e-05
2138,1724817051553741769,-1.6886521577835083,-0.6886423826217651,0.1852665841579437,0.00062560767401,-0.0461851097643375,0.4948483407497406,-0.8677509427070618,0.0,0.0,0.0,-8.625896783358092,-2.4810140674865773,6.553240883536522,0.269115353,0.0045425875246799,0.1423753971025592,0.0041634271369889,-40.70801000105149,-182.15476828793325,102.7640960751994,-0.0469609668922156,0.0796192773859054,-1.03840850965242,-0.0032122427373195,0.0047724127438577,-0.0118367390749742,-1468.7788274481104,-3616.769960169387,338.3167216605546,-0.0001283971423963
2140,1724817051565466828,-1.6887017488479614,-0.6885704398155212,0.1851594150066375,0.000635476084426,-0.0466736517846584,0.494884192943573,-0.8677043318748474,0.0,0.0,0.0,0.0695009556119359,0.4708009918523906,0.6148263921407273,0.280840412,-0.0424204011546058,0.0718503144376327,-0.0092666835978714,4.528761506878009,0.5908885168476834,-2.9076634857373183,-0.0474702417015203,0.0804556572057778,-1.038557254062496,-0.0022167721263315,0.0085737659807136,-0.0100172721082021,326.3187453191797,104.20812886080222,-237.30916613446723,-0.0001139942435184
2142,1724817051575154949,-1.6887071132659912,-0.6884678602218628,0.1850553452968597,4.113572504138574e-05,-0.0470545515418052,0.4951168894767761,-0.8675512671470642,0.0,0.0,0.0,-0.0934951048129354,0.2992803594107311,0.4704088129913373,0.290528533,0.06977079735615,0.1304546013124831,-0.0515433315682238,2.781420217968389,-1.080371634897003,-7.119201457214908,-0.0468396665854394,0.0816945789877647,-1.03911752625857,-0.0016667175305968,0.0143084304511447,-0.0003812481771863,-12.982745307743224,-35.391059718362186,-67.09605852526687,-0.0001088194303129
2144,1724817051583606444,-1.6887294054031372,-0.6883195042610168,0.1851285099983215,-0.0001806146465241,-0.0472471639513969,0.4956064522266388,-0.8672611713409424,0.0,0.0,0.0,-0.1748958619385447,-0.130227051324505,-0.4814307793960958,0.298980028,0.0284064253899088,0.0687603698042177,-0.1320263053174084,-3.1703333740963022,-3.4324971416475893,-1.5816324512780513,-0.046693375520686,0.082222903866713,-1.0402630991544648,-0.0035647985658187,0.0146801931531506,-0.0002704698578179,-1.8263431108415964,-24.466974244621007,-81.96718475709068,6.402088537898767e-05
2146,1724817051594739915,-1.6887826919555664,-0.6881982088088989,0.18499456346035,-0.0005014533526264,-0.0476177409291267,0.4957712590694427,-0.8671466112136841,0.0,0.0,0.0,-0.0807544486240065,-0.0161175082536655,-0.9443834366053048,0.310113499,0.0183946153028851,0.0872647229658173,-0.0331640557473729,-1.7799420227637983,0.7713466132193312,5.987364950118378,-0.0465229065011439,0.0831762105910861,-1.0406786721439865,-0.0047832253940995,0.0106751851831283,-0.012883630781169,10.063256726457157,12.918780800139183,-5.272567102303553,-0.0001435455651369
2148,1724817051607409316,-1.6888432502746582,-0.6880661249160767,0.1848190426826477,-0.0006735977949574,-0.0481331534683704,0.4957603514194488,-0.8671241998672485,0.0,0.0,0.0,0.0699173294850185,0.1860431630103152,-0.4877016905640299,0.3227829,-0.0168532692463015,0.0841957960071776,0.0009923601597571,-2.082995415673451,9.109224179133136,-4.227971003339206,-0.046739539663418,0.0842423366176285,-1.0407158559743228,-0.0053927961343447,0.0154248775032073,-0.0221304512601498,8.230608800803816,-24.035217546757067,47.58944106210165,-0.0001861799801437
2150,1724817051613964859,-1.6888806819915771,-0.6879480481147766,0.1846458911895752,-0.0008711046539247,-0.0486781671643257,0.4958981573581695,-0.8670148253440857,0.0,0.0,0.0,0.1114519014586662,-0.107174704362116,-0.1365713616190847,0.329338443,-0.0281369508368638,0.1756322396981546,-0.0502106106114408,1.5829605209576207,6.854636450383703,-2.9076124503184415,-0.0469565313276807,0.0853770280240719,-1.0410999997136583,-0.0045340841032341,0.0160038987809514,-0.0245062077856816,0.8487161102498673,-35.36719228785658,46.06852618341481,-0.0001813368589331
2152,1724817051624391979,-1.6889084577560425,-0.687814474105835,0.1844219863414764,-0.0014011524617671,-0.0491517409682273,0.4959048330783844,-0.8669835925102234,0.0,0.0,0.0,0.0292974111388873,-0.3206981269039145,0.2195042035086196,0.339765563,0.0431695616247031,0.1294623600677628,0.0007888986207253,0.9859897700808108,-2.5552443694763296,3.0119194445836377,-0.0465111282478172,0.086725857878303,-1.041155048148419,-0.0036960082241392,0.0116439709165874,-0.0221847759629802,5.105417606421446,4.020748487811236,33.13697035743023,-0.0002319869155023
2154,1724817051633838789,-1.6889522075653076,-0.6877144575119019,0.1842063218355178,-0.0016982569359242,-0.0496429838240146,0.4958506226539612,-0.866986095905304,0.0,0.0,0.0,0.1886559450863276,-0.0730408950344771,0.5238813723716762,0.349212373,0.0023938141188879,0.12135058319417,0.0131591278442234,-2.158598821178073,-0.6657665287897503,0.33127636728261,-0.0464823108498843,0.087876775534298,-1.0410839095330968,-0.0038563938877018,0.009448313029285,-0.0201379486545576,-6.7765077736650206,21.58626045250623,-57.34879345633935,-0.0002235110054963
2156,1724817051646614608,-1.6889880895614624,-0.6876134276390076,0.1839955449104309,-0.0021333985496312,-0.0502480678260326,0.4958503544330597,-0.8669504523277283,0.0,0.0,0.0,-0.3064660350255757,0.1227494534250038,-1.756363688252219,0.361988192,0.012097489224316,0.116178002483698,0.00049042548973,3.0398179405664982,17.153520741707315,-6.62063931613902,-0.0463333192468389,0.0893597409960293,-1.0411467889975936,0.0021067700544534,0.0112689560918113,-0.0081369272196916,-33.76054680770504,-1.0806376489999283,-69.97337537839974,-0.0002181690919844
2158,1724817051657615510,-1.6889183521270752,-0.6874576210975647,0.1839852333068847,-0.0037039816379547,-0.0523132421076297,0.4964607954025268,-0.8664734959602356,0.0,0.0,0.0,-0.6305558146148202,-0.044542776754928,-1.498284773820595,0.372989094,0.0671383740359825,0.4712053212732736,-0.1256639015124064,-10.719144216979318,-21.637614051076294,36.78785690670069,-0.0457440141858447,0.0944743129571216,-1.0427731326585914,-0.0085890134710098,0.0124321564756115,-0.0529938911185858,54.96127485295088,-4.904882106799896,318.87511463350063,-1.3282379881730713e-05
2160,1724817051663686643,-1.6890205144882202,-0.6873879432678223,0.1834890842437744,-0.0038519725203514,-0.0528053529560565,0.4957685470581054,-0.8668392300605774,0.0,0.0,0.0,-0.0140231206700024,-0.0398031361649894,1.4274410750524196,0.379060227,-0.0506172385378594,0.1592137800446018,0.25936068234351,-8.087926772011242,-34.1670155448221,29.667763485066217,-0.0459056614974844,0.0955120292555351,-1.041237450753419,-0.0112723034811068,0.0116582177409583,-0.0534482458902063,76.40650974753142,14.35128329971938,311.9375514128531,-0.0005064434618693
2162,1724817051674225645,-1.6890376806259155,-0.6872617602348328,0.1834430694580078,-0.0044621108099818,-0.0531423948705196,0.495993435382843,-0.8666870594024658,0.0,0.0,0.0,0.3312009238367985,0.3597173468618403,1.605370177379049,0.389599229,0.0710235161810491,0.1142077188428331,-0.0454432320629206,2.527084867847207,-2.671377428656604,-12.40031524553486,-0.0452085499096761,0.0966926074166961,-1.0417731893459192,-0.0035907679794462,0.0128427408367706,-0.0109204375504496,6.104932305280141,26.027987895595487,-76.0884108934161,-5.488623672995399e-05
2164,1724817051685741944,-1.6891037225723269,-0.6871029138565063,0.1832348257303238,-0.0046974420547485,-0.0536967702209949,0.4958885312080383,-0.8667117357254028,0.0,0.0,0.0,0.0661140490508687,0.5099531793097376,-0.4408585664219451,0.401115528,-0.013319028557665,0.1035661595810147,0.0196574900768613,0.7834784933794934,0.5329722405581805,1.809058264435106,-0.0453451369491867,0.0978943407239798,-1.041600296749828,-0.0047808830138791,0.0200977223132241,-0.0230110209640344,-10.796046257366918,20.987671114759344,-52.9889459535967,-0.0002226259493046
2166,1724817051693728958,-1.689136624336243,-0.6869074702262878,0.1830237358808517,-0.0050606951117515,-0.0540227070450782,0.4958500564098358,-0.866711437702179,0.0,0.0,0.0,0.0475893748642715,0.7215762016661527,-0.1733730309858113,0.409102542,0.0378471308876629,0.1158938826078948,0.0128141053520811,4.5009554011346715,-0.5458949150931605,-1.9531258191265344,-0.0450368878691581,0.0988236634699435,-1.0415395613875107,-0.0033141600912287,0.0235058864943269,-0.0231586752122856,-26.56815457211434,24.96885283777729,-10.349239590205295,-0.0002249481164461
2168,1724817051706818541,-1.6891627311706543,-0.6866204738616943,0.1827907562255859,-0.0055723749101161,-0.0542051382362842,0.4960733354091644,-0.8665691018104553,0.0,0.0,0.0,-0.8203613309996189,1.0156501773466746,-1.24927947787886,0.422192125,0.0558921810961972,0.0639273352153179,-0.0362695470507637,-0.3475813724343726,-3.3942160477089898,0.4400144684829365,-0.0443562209404084,0.0996383924664478,-1.042053717617572,-0.0056097558085355,0.0392764106092542,-0.028750670861438,-51.20269960911968,-40.29826935052328,-52.36128425697359,-0.0002521106076898
2170,1724817051714534058,-1.6892224550247192,-0.6862385272979736,0.1825191229581833,-0.0057983589358627,-0.0542535446584224,0.4961281418800354,-0.8665332198143005,0.0,0.0,0.0,-1.146717981306255,0.4192857646130361,-1.5175923400431894,0.429907642,0.0453601175901306,0.0403580850159577,-0.0138199265524693,-5.021131843704801,-7.604033478616541,10.964922734655502,-0.0440182874736755,0.0999447631191275,-1.0421746075626224,-0.014872552494026,0.0462523879355991,-0.042128142189231,-5.680629298406373,-48.50407434675945,-0.6084775617929168,-0.0002996874910452
2172,1724817051724358108,-1.6894577741622925,-0.6858248114585876,0.1820186674594879,-0.0054163075983524,-0.0539806932210922,0.4952886700630188,-0.8670328855514526,0.0,0.0,0.0,-0.7444756684173568,0.3029091189354651,-1.0961780822220164,0.439731692,-0.0497009811678867,-0.0912500105711437,0.1946616520774079,-10.822244621602284,-17.57104184002971,9.56025923841162,-0.0443118049331735,0.0991336364923895,-1.0402149315197733,-0.0254647016571283,0.0443064082075821,-0.0543320447861042,69.14279034375473,7.674678797475078,45.342743830685514,-0.0005442822649532
2174,1724817051734703363,-1.6897376775741575,-0.68534255027771,0.1814196556806564,-0.0038657987024635,-0.0529936142265796,0.4945010542869568,-0.8675514459609985,0.0,0.0,0.0,0.2780178015817169,0.5949671421030627,-0.6004427396263985,0.450076947,-0.1741431966455314,-0.3185046127750395,0.166525552638156,15.360827887565536,-3.155731648729528,3.005698559181866,-0.0459304424359532,0.0959196748883835,-1.0383363226910949,-0.0295310190066544,0.0528979472374402,-0.0640809888164675,95.81776008952394,-7.509125645805353,109.89334606030846,-0.0006488067184246
2176,1724817051743924747,-1.6900303363800049,-0.6848031282424927,0.1807779520750045,-0.0042553059756755,-0.0517780929803848,0.4935856759548187,-0.868144154548645,0.0,0.0,0.0,1.1367735941064536,0.231951952894085,0.9223298782169624,0.459298331,0.1926378160903312,-0.1929833004136272,0.2413028620769517,26.029171632824216,17.993853547937984,-2.6008216627375083,-0.0439344399765045,0.0942418536532274,-1.036023125601596,-0.0214513057201628,0.0564485354962407,-0.0668074849508277,15.1692063350715,-22.52954664214819,105.149597832745,-0.0006948781583018
2178,1724817051754530517,-1.6901323795318604,-0.6842294335365295,0.1801033318042755,-0.0057982187718153,-0.0512244217097759,0.4932839572429657,-0.8683394193649292,0.0,0.0,0.0,0.3467315946355839,0.1983878500280522,1.3058217760509103,0.469904101,0.3010251216557606,0.0513054014796709,0.0830793757048263,-1.1245459166453171,30.06345773243398,-21.281387781175113,-0.0406605393635908,0.0948227393786207,-1.0351617831362971,-0.0062163883014534,0.0570412157416768,-0.0421683024741792,-100.96517717445808,-2.1714990272521586,-87.81592626681254,-0.0007142980072698
2180,1724817051763817636,-1.6901624202728271,-0.6836757063865662,0.1798860728740692,-0.0074463454075157,-0.0523376874625682,0.4939901232719421,-0.86785888671875,0.0,0.0,0.0,-0.8062373395143271,0.1862980252022437,-0.5179497485991913,0.47919122,0.1983255237191336,0.3876783463337414,-0.1663080809960408,-12.42776317925466,-2.6898051441600965,-6.787105256554,-0.0389820849821381,0.0983588144996739,-1.0368563161526991,-0.0118584974873101,0.0600425781824469,-0.0383146183941303,-56.977339302148415,4.351301213008249,-120.77113680203348,-0.0002543418345709
2182,1724817051773724480,-1.690371036529541,-0.6830764412879944,0.179348811507225,-0.0075791240669786,-0.05197424441576,0.4941000640392303,-0.8678169846534729,0.0,0.0,0.0,-0.6608580468724619,0.2891470586583833,-0.9154193623172736,0.489098064,0.0607330604672205,-0.0501575539826325,-0.0214915320867455,-9.255149501030974,-35.06390453771631,4.116562822816594,-0.0383994594730721,0.0978540462671495,-1.0370507728317913,-0.0219457961051858,0.0604417008832953,-0.0533046716492684,29.861391926248917,-10.730973313522018,13.83001314511804,-0.0005902153616082
2184,1724817051784908649,-1.6906276941299438,-0.6824010610580444,0.1787643432617187,-0.0067204385995864,-0.0503482669591903,0.4946419298648834,-0.867611289024353,0.0,0.0,0.0,-0.1351323696327215,-0.0974413786571135,-0.0795503969381683,0.500282233,0.0157250470545566,-0.3270235618435379,-0.1080421145121866,2.0130763675388565,0.3707061444786479,-5.272641196591733,-0.038326363584547,0.0941529167377884,-1.0381230279197324,-0.0248248876522154,0.0668177161348069,-0.0559964410527822,-0.5316272302153422,-53.38207740368556,-6.491255050171894,-0.0006436846439878
2186,1724817051794078754,-1.6908694505691528,-0.6817399859428406,0.1782227456569671,-0.0066996635869145,-0.0496361330151557,0.4952126145362854,-0.8673269152641296,0.0,0.0,0.0,-0.4974321332970707,-0.7284361570987941,-0.7498082490135825,0.509452338,0.0795783196497702,-0.1347092899810438,-0.13785137299515,1.95810158507616,21.167554642286085,2.0694508017278666,-0.0377106892211818,0.0928704666634787,-1.0393446473036698,-0.0251445749413221,0.0609051538144349,-0.055514459895579,-6.5997184621452405,-27.4024939119739,4.261372245417121,-0.0005982734644035
2188,1724817051806178921,-1.6911542415618896,-0.6811816096305847,0.1776076406240463,-0.0071870111860334,-0.0502208061516284,0.4953606426715851,-0.8672047853469849,0.0,0.0,0.0,-0.0518486983214616,-0.398880206023203,0.5368079438808877,0.521552505,0.0233580165985955,0.1245460074636882,-0.0278667434279775,-0.7184018978991729,-40.64132287745751,20.17091636201037,-0.0374650056624553,0.094363753415531,-1.0397399180695592,-0.0385491922477569,0.0507550224014821,-0.0773982398338049,107.22470244641865,-0.9659767864600468,210.91893603116637,-0.0006694594100976
2190,1724817051813785544,-1.691519260406494,-0.6807734966278076,0.176891878247261,-0.0064351228065788,-0.048558983951807,0.4947909116744995,-0.8676304221153259,0.0,0.0,0.0,1.100409332326366,-0.5410828955563161,2.641311166052809,0.529159128,0.036675593366768,-0.4813902919941469,0.178554989337653,11.863820561761589,-27.258227907259705,1.141024379318483,-0.0370473759309955,0.0907551167044027,-1.0382397545890267,-0.0338942053721496,0.0498247064991126,-0.0620998763632423,78.37213868469118,-19.89996749822197,107.10917696020672,-0.0007649288604809
2192,1724817051824106184,-1.6916717290878296,-0.6803128719329834,0.1766990274190902,-0.0076641347259283,-0.0476672388613224,0.4956441223621368,-0.8671828508377075,0.0,0.0,0.0,0.8855174460997209,-0.7633422241055285,1.3724236575328466,0.539479768,0.3007307137729381,-0.0289435830162326,-0.1736922691465745,6.791977637710449,21.25726219366192,-8.171774069380294,-0.0341053859247971,0.0903928385039261,-1.040028041108213,-0.0156975861291357,0.0383762117826229,-0.0260162611778689,-37.846954374607414,3.5847071295614867,-120.14943255980754,-0.0002312866286113
2194,1724817051835211357,-1.691857099533081,-0.6799614429473877,0.1763225197792053,-0.0082335658371448,-0.0469460934400558,0.4954663813114166,-0.8673184514045715,0.0,0.0,0.0,0.261778264011166,-0.4233644026608629,0.0715676328840402,0.550584941,0.1515907402191879,-0.0627151386420233,0.0457469288391141,-4.690761258459993,1.4741369700079356,10.961135055115411,-0.032374001256362,0.0897136317396955,-1.039494867948138,-0.016350642666822,0.0340329110396524,-0.0361536783035916,-9.09523369051805,40.34957534789117,-17.316234843381736,-0.0004097479299827
2196,1724817051844222450,-1.6920019388198853,-0.6796373128890991,0.1759802848100662,-0.008890775963664,-0.0464922599494457,0.4951901137828827,-0.8674941658973694,0.0,0.0,0.0,0.5240004797349703,0.0114121537235645,0.645427168852376,0.559596034,0.1732205556943089,-0.0164168939853587,0.0801817637095216,-2.6771015808755716,3.31076443815189,-0.9154459688577684,-0.0307477576922011,0.0895885704855845,-1.0387650986347916,-0.0116476539180823,0.029982065787582,-0.028310783351122,15.663910030922146,27.58048757154751,49.625803259216525,-0.00037103367099
2198,1724817051858128364,-1.6920689344406128,-0.679348886013031,0.1757940798997879,-0.0090097626671195,-0.0463434681296348,0.4954057037830353,-0.8673778176307678,0.0,0.0,0.0,0.4534897663516463,-0.0485947373232864,1.0338429851542277,0.573501948,0.027032844004477,-0.0095876423415654,-0.0341987938732129,38.67568363298588,-14.693467726155268,10.96229013031569,-0.0304141405046122,0.0894407695979528,-1.0392382855384548,-0.0043161093657886,0.0400326071265766,-0.0241624971688487,-10.303585480558567,-113.69778916187144,83.53061203968706,-0.0002079147827113
2200,1724817051863811799,-1.6920922994613647,-0.6790765523910522,0.1756317317485809,-0.0097286673262715,-0.0455168113112449,0.4952771067619324,-0.8674872517585754,0.0,0.0,0.0,0.3827744345894974,-0.948868701354326,1.6377320464324387,0.579185383,0.3611009362377027,-0.1283685823165175,0.0726747157389725,26.717956853758565,-8.361183305433237,7.726974185746428,-0.0283230559891257,0.0887236374056945,-1.038802259545101,-0.0019100059131318,0.0379646924610597,-0.0165781828478523,-16.07842855498641,-120.41020455141692,49.36834264935209,-0.0001801400913359
2202,1724817051874558255,-1.692068099975586,-0.6788707971572876,0.1756971478462219,-0.0097938058897852,-0.0456994883716106,0.495597779750824,-0.8672938346862793,0.0,0.0,0.0,0.1361040443233973,-1.4708424052779672,1.0123561892821664,0.589931839,-0.0032552480937183,0.0365545009231514,-0.0693786086233192,-17.49539349362596,5.980048256979589,-3.5617889622511933,-0.0284254730356029,0.089095171322847,-1.0395618037511012,0.0013788989881788,0.0158802368460229,0.0071840711406814,-6.86220588497749,11.23942296406409,-71.93320227346852,5.399814633790864e-05
2204,1724817051884308657,-1.6920623779296875,-0.6787448525428772,0.1757768988609314,-0.0096973935142159,-0.0458203889429569,0.4956697523593902,-0.8672473430633545,0.0,0.0,0.0,0.2115504585785034,-0.8321242505335643,0.1894295734558511,0.599682241,-0.0286739915605264,0.0119983398611871,-0.0186766899945838,2.7635200743959216,-2.123488001048129,6.926247026736734,-0.0287216229095867,0.0892068995182251,-1.0397478192062446,0.0012025519957319,0.0067071831711302,0.006449431377657,8.428707581814809,49.42776867149585,-43.45104633507857,7.196164078802157e-05
2206,1724817051894603876,-1.6920433044433594,-0.678743302822113,0.1758244931697845,-0.009959646500647,-0.0456435680389404,0.4953649640083313,-0.8674278259277344,0.0,0.0,0.0,0.3058366195983241,-0.4980418908678506,0.1872180986111667,0.60997746,0.0581565569900659,-0.0055697171339844,0.0713958625012813,2.0876803301922937,2.0444906217018866,-2.527934959408843,-0.0280570381878297,0.0891704460501751,-1.0390085180873656,0.0058767698196646,-0.0006784996686732,0.0112778718342312,-16.069479817821033,27.7061174160247,-30.87832880412708,4.861183071767533e-05
2208,1724817051904020798,-1.6919533014297483,-0.678756833076477,0.1759880185127258,-0.0101508256047964,-0.0457797348499298,0.4955701231956482,-0.8673012852668762,0.0,0.0,0.0,-0.0627887958893134,-0.2779993250588805,-0.3676826102761115,0.619394382,0.0231511538112873,0.0459918357925642,-0.0495437202494971,-4.637613849433812,1.2856100020401369,-1.2094756648166485,-0.0278819086736946,0.0895903378604248,-1.0394889831654102,0.0074804385787672,-0.0034791582412978,0.0106137610106067,-22.750753052868667,21.330797973065252,-20.376629533758404,0.0001698999726079
2210,1724817051913662102,-1.691901683807373,-0.6788105368614197,0.1760237067937851,-0.0100752124562859,-0.0459215193986892,0.4953382909297943,-0.8674271106719971,0.0,0.0,0.0,-0.1203075743995854,-0.0924392551766394,-0.1836186798147889,0.629035686,-0.0306460658406059,0.0170290946668377,0.053628213266669,-1.1503131087774916,-1.8517138451120267,4.587408233528359,-0.0281313157682704,0.0897689368420143,-1.0389746888921625,0.0045742802890345,-0.0059678604026451,0.0041355503207958,-3.8197697179943018,14.754576589540145,22.069403654021738,4.250939252944443e-05
2212,1724817051925446461,-1.691859006881714,-0.6788865923881531,0.1760786920785904,-0.0102151576429605,-0.0459234826266765,0.4952425360679626,-0.8674799799919128,0.0,0.0,0.0,-0.134409160786864,0.0167352680011091,0.1193526515453684,0.640820045,0.0196005414563443,0.0118054919827933,0.0196286072694719,-4.275216448831495,1.592442701958797,-5.779530644997957,-0.0278798545428293,0.0899144697018472,-1.0387463492143882,0.0057653484046937,-0.0046706379481378,0.0090051397703394,-11.54954378723766,-0.648563734192336,-7.232256414409885,6.251780825403277e-05
2214,1724817051935278054,-1.6917847394943235,-0.6789178848266602,0.1762028187513351,-0.0099145714193582,-0.0463399738073349,0.4954792261123657,-0.8673262000083923,0.0,0.0,0.0,-0.3328784377568902,-0.0709510614544643,-0.221954899141751,0.650651638,-0.0924725345891605,0.04415946910453,-0.0609343273878439,-5.475363944559224,0.2457464535313076,1.7406879601469667,-0.0288442380599582,0.0903314724329334,-1.0393600714692084,0.0025123781069993,-0.005271756126234,0.0077681046582736,0.1667536323656993,3.3652246330188222,-12.73373359268335,0.0001307845488253
2216,1724817051944029280,-1.6918020248413086,-0.67898029088974,0.1762329638004303,-0.009612307883799,-0.0466286465525627,0.4953387975692749,-0.8673942685127258,0.0,0.0,0.0,-0.1728728602117962,0.0541863946403995,-0.1621628889386293,0.659402864,-0.0942438824363855,0.0225902356070861,0.0316881163008142,8.708871674743655,-1.834512227809096,2.9813603689394315,-0.0296443719882509,0.0905371774905549,-1.0390874397042518,-0.0004163682482953,-0.0059690773710094,0.0050768959973801,13.230539704049368,13.410285879463451,1.719253873099296,3.269819486710208e-05
2218,1724817051954198334,-1.691787838935852,-0.679027259349823,0.1763038784265518,-0.0100737186148762,-0.0464293025434017,0.4954845309257507,-0.867316484451294,0.0,0.0,0.0,-0.0980429787889587,0.180049781561731,-0.2050998409793994,0.669571918,0.0996180920829095,0.0113817700889933,-0.0278308341586381,1.3949688410347636,-1.8522927702166496,-2.2968813309610616,-0.0286573543747323,0.0906446208731981,-1.0393748814090726,-0.0002624667721278,-0.0038361767418777,0.0051455210923396,5.446294600679602,4.37083219111684,-13.17395273945438,7.457713760614409e-05
2220,1724817051964767336,-1.691808819770813,-0.6790592074394226,0.17633818089962,-0.0096620731055736,-0.0465634204447269,0.4955255687236786,-0.8672904968261719,0.0,0.0,0.0,-0.0614870140684575,0.1382988387512193,-0.4426662461300873,0.68014092,-0.0797261904268153,-0.0164344999319418,-0.013044316722271,-6.538025035451165,-0.3157999025098247,2.084556244842378,-0.0295120336599679,0.0904669832691658,-1.0395081301851643,-0.0025418993518968,-0.0022594144983045,0.000650735073048,8.80569896150066,-0.3778656244521503,-2.745775186877525,3.466338478051405e-05
2222,1724817051974151026,-1.6918373107910156,-0.6790740489959717,0.1763226687908172,-0.0094440625980496,-0.0466884039342403,0.4954639971256256,-0.8673214316368103,0.0,0.0,0.0,0.0656896893760082,0.164516293979705,-0.3040393112409031,0.68952461,-0.0541741755568441,-0.0001019448268099,0.0122277136105013,8.66261802575858,2.041620938735524,1.984207489180085,-0.0300099844935935,0.090469453416522,-1.039393055246999,-0.0018343155432773,-0.0010523773014554,-0.0036479573011201,2.700009215515622,2.3950160614611384,19.95434505449108,-1.6552729514862114e-05
2224,1724817051985059222,-1.6918420791625977,-0.6790788173675537,0.1762575805187225,-0.0100676286965608,-0.0464975535869598,0.4953742623329162,-0.8673758506774902,0.0,0.0,0.0,-0.0424775065920914,0.1855831077973624,-0.0206742620543255,0.700432806,0.1156356571007053,0.0259864560657463,0.0248817114780452,-2.391270176335035,-1.334739094147691,-1.8202281896425547,-0.0287247092794415,0.0907607543312634,-1.039128885364037,-0.001240962356789,0.0011972326926752,-0.0050108974583746,-12.174067264954733,-6.352693884602905,9.168449589539634,-6.482775089735574e-05
2226,1724817051994797620,-1.6918611526489258,-0.6790529489517212,0.1762170940637588,-0.0097471829503774,-0.046570349484682,0.4954399764537811,-0.8673381209373474,0.0,0.0,0.0,-0.1806639523928181,0.0516967413120416,-0.0775248845121945,0.710171204,-0.0637831234574512,-0.0194090272703111,-0.0187550373278538,-9.984251282098796,-1.4667863123133067,-2.4242057600951625,-0.0293619559209206,0.0905665251437063,-1.0393067679186876,-0.0024968410727126,0.0028249996078635,-0.0043056842571687,-7.103934663883376,-12.744694300659496,-10.319358139463974,-4.329087526590975e-05
2228,1724817052005973847,-1.6918959617614746,-0.6790192127227783,0.1761670708656311,-0.0094311237335205,-0.0467823110520839,0.4955165386199951,-0.8672864437103271,0.0,0.0,0.0,-0.1691726946076969,-0.0778683293823749,-0.2503386432144587,0.721347431,-0.0671201841179979,0.0051742574135761,-0.0194686929461839,10.278552059044896,-4.630041538566432,5.609349635608237,-0.0301320182519052,0.0906178525478442,-1.0395268417230044,-0.0051791354955383,0.0019219391382421,-0.0070953099780908,12.943463301930237,-3.514307594639875,5.2540138644740955,-5.441065722135506e-05
2230,1724817052013874836,-1.691948413848877,-0.6790101528167725,0.1760963797569275,-0.0095561118796467,-0.0463986620306968,0.4953389465808868,-0.8674072623252869,0.0,0.0,0.0,-0.0003528959723041,-0.0605111764241008,-0.0931124714364217,0.72924842,0.073169912921404,-0.0695551362964272,0.0565388119477386,8.07144446276849,-4.211617857219325,4.145723141383736,-0.029511973550964,0.0900818841092027,-1.039062253074418,-0.0061201560677659,0.0013230880425467,-0.0090773388678053,18.884524326481035,2.1513722632269783,23.228845620269137,-7.466593395244558e-05
2232,1724817052024693724,-1.6920069456100464,-0.6789932250976562,0.1759962439537048,-0.0095408791676163,-0.0461765304207801,0.49524986743927,-0.8674700260162354,0.0,0.0,0.0,0.1671814807381058,-0.0379091932077395,0.207519207121007,0.740067308,0.017022921908394,-0.0373947541013716,0.020292867802509,-0.4160627331476725,2.9708843810592924,-2.099000684264737,-0.0293069479210747,0.0896839264291034,-1.038829787383625,-0.004364784055383,0.0008948367496799,-0.0077478035260405,-29.11394028777186,3.879235751276377,-17.89707003267541,-0.0001048810245495
2234,1724817052034738367,-1.692041039466858,-0.6789904832839966,0.1759324818849563,-0.0097744837403297,-0.0460003539919853,0.4952161312103271,-0.8674960732460022,0.0,0.0,0.0,-0.5411820888415964,0.017750593568427,-0.3982974953899947,0.750111951,0.0573619156602837,-0.0075694148640916,0.0108780334284946,2.2276305324966024,2.2541399535558613,-0.9518637106409732,-0.0287207535030817,0.0896111005660002,-1.03871795508609,-0.0026395221398054,0.0005296682840114,-0.0048741134812126,405.93788501274184,178.29624644833234,-170.32533686786687,-6.604243286045366e-05
2236,1724817052062951447,-1.6920557022094729,-0.6789551973342896,0.1759117543697357,-0.0094957053661346,-0.0461450666189193,0.4954118728637695,-0.8673797249794006,0.0,0.0,0.0,48.66813480122632,18.737837839431457,-13.92156574677503,0.778325031,-0.0215050425248328,-0.0006436110115232,-0.0171311355802821,172.7531141662685,-472.6459372342264,-255.86488027582703,-0.029370831394917,0.0895789152608674,-1.0392025066017885,-0.0744042852397797,0.0053179761550836,-0.0703450714530049,7234.185730061319,-1809.3832575371632,10636.337057489289,-2.3865898258827847e-05
2238,1724817052063438183,-1.6920925378799438,-0.6789525747299194,0.1758769303560257,-0.0094793178141117,-0.0460881367325782,0.4954434633255005,-0.8673648238182068,0.0,0.0,0.0,52.23537412216693,17.83638027121387,-8.651136728339651,0.778811767,0.0640542398543198,-0.2346683854818906,-0.1438100055706087,-433.1257280706509,-1037.0694111226223,138.6948839296667,-0.0293456300140393,0.0894626783566084,-1.0392692937764356,-0.0502857142914763,0.0145942772941225,-0.0772186148369655,3717.8055060883057,-3166.668398740294,11637.496839904165,-3.743174424532849e-05
2240,1724817052063881670,-1.6921045780181885,-0.6789423823356628,0.1758403927087783,-0.0093071730807423,-0.0459522418677806,0.4954263865947723,-0.8673836588859558,0.0,0.0,0.0,52.42499835679692,15.90079029410833,-3.1629988048410462,0.779255254,-0.3740792499473718,-0.9193712815786864,0.0789102153632338,-943.7379314733053,-1472.971043847659,480.004041742312,-0.0295073253467808,0.089056156337045,-1.039222139141183,-0.0260355624772614,0.0220107751060973,-0.0788447284015603,182.66581870561305,-4250.728629761208,11870.306267761813,-3.785441652843032e-05
2242,1724817052073661202,-1.6921191215515137,-0.6789366602897644,0.1758332699537277,-0.0089274113997817,-0.0460178405046463,0.4954704344272613,-0.8673589825630188,0.0,0.0,0.0,1.3958793081157168,-1.1386165145013811,4.091049916170478,0.789034786,-0.0735504742974086,-0.0266926474894234,-0.0140074412763738,23.52061397640907,49.709655701096935,-4.020114546015799,-0.0302381259472538,0.0887911350305064,-1.0393517346937768,0.0002213560054684,0.0001697097127433,-0.0011625975323941,-2801.6054297563087,-859.4637131118293,201.205366605777,-8.473319204930593e-06
2244,1724817052084431619,-1.692096471786499,-0.6789397597312927,0.1758155971765518,-0.0094112148508429,-0.0458388514816761,0.4954570233821869,-0.867371141910553,0.0,0.0,0.0,-0.1166109769740409,0.0771814374447685,-0.1537611584727114,0.799805203,0.0942562092462437,0.0156025060538566,0.0077096896631964,3.860623666371804,1.564927106009974,0.3444224502653963,-0.0292160031026004,0.0889615952721435,-1.0392736236558835,-3.4241232427234536e-05,0.0008916725323402,-0.0027949758253669,-64.16478481616282,51.711871897364894,-189.11371287495564,-1.5814140510588805e-05
2246,1724817052094210920,-1.6921157836914062,-0.678920567035675,0.1757780164480209,-0.0095529584214091,-0.0458134450018405,0.4954787790775299,-0.8673584461212158,0.0,0.0,0.0,-0.0669086514331829,0.0397243235201184,-0.1828515641850948,0.809584504,0.0279465455503033,0.0099328598246704,-0.0037679609181077,-4.86769843479468,-1.5301880403262669,-0.1547752423818578,-0.0289462415271915,0.0890576097556256,-1.03931334660503,-0.0019993288852759,0.001736573662054,-0.0043181859664276,7.4062038290915,-1.3625680181269684,-2.880955768502062,-3.995746721059459e-05
2248,1724817052105672736,-1.6921390295028689,-0.6789036989212036,0.175722137093544,-0.0094865653663873,-0.0457178242504596,0.495438814163208,-0.8673869967460632,0.0,0.0,0.0,0.0491974139757014,0.057257105190457,-0.2146133185813984,0.82104632,-0.0021483850769591,-0.0203737410358878,0.0081456378665255,1.9733497739694372,-0.4342166413940374,-1.0022926470965128,-0.028961937958346,0.0888268823994586,-1.0392127862280234,-0.0009656245347287,0.0015648964626748,-0.0067779586833758,-6.381971068305616,4.924114317965474,-2.5535519257874384,-5.830256187811817e-05
2250,1724817052113680843,-1.692140817642212,-0.6788906455039978,0.1756572127342224,-0.0095985010266304,-0.0456002280116081,0.4954857230186462,-0.8673651814460754,0.0,0.0,0.0,-0.0942948525808793,0.1156821341543969,-0.2338452777153357,0.829054427,0.0393862870143282,-0.0114863184383476,-0.0113043540369427,4.453762781902173,0.0383875444365855,-0.924246988801604,-0.0286543483164266,0.0887323326207319,-1.0393010046474604,-0.000800985197884,0.0024275797160768,-0.0084966469130769,-10.022367474054748,1.7005780944999604,1.925466742887305,-6.557404657449428e-05
2252,1724817052124063667,-1.6921569108963013,-0.6788547039031982,0.1755637526512146,-0.0098738800734281,-0.0452904999256134,0.4955078065395355,-0.8673657178878784,0.0,0.0,0.0,-0.0920613457543903,0.058018399636058,-0.1556041810029814,0.839437251,0.0757639551765601,-0.0255108633195459,-0.0006469155546834,-2.4403712801015964,-2.7346558467303668,1.7205208839689925,-0.0278676367716762,0.0884673761031672,-1.03930025368672,-0.0033261655872678,0.0037357871189627,-0.0111834465754245,-14.706392401371115,2.3349042496141923,-3.6599629053859495,-9.63941794559833e-05
2254,1724817052134230412,-1.6922084093093872,-0.6788139939308167,0.1754283308982849,-0.0096741132438182,-0.0450141988694667,0.4954045116901397,-0.8674413561820984,0.0,0.0,0.0,-0.3901235289164473,0.1602897341136288,-0.3042680189426255,0.849603996,-0.008220268751489,-0.0670904724532437,0.0237547809786959,-5.043403275479912,-0.6409242337670231,-0.0099766834309394,-0.0279281980466762,0.087792286970318,-1.0390388023610515,-0.0027574454994407,0.0036489047405474,-0.0117383672737672,-13.53452902060448,1.688073054429895,4.121142053538731,-0.0001408746516306
2256,1724817052150910744,-1.692191243171692,-0.6787628531455994,0.1752758175134658,-0.0096957078203558,-0.0451554954051971,0.4957080781459808,-0.8672603964805603,0.0,0.0,0.0,-0.1839548131257444,-0.0406508331477675,0.2774331951966378,0.866284328,-0.0042986538961572,0.016603210169215,-0.0423695651677782,-18.452732584870933,-36.15580696496518,-14.840207145903678,-0.0280628608581248,0.0880493528516832,-1.0397558861955354,-0.021472242795653,0.0109431139366336,-0.0236468217384953,125.6877601233684,-50.12964915230201,102.51839828387216,-0.0001538327784522
2258,1724817052154582784,-1.6922882795333862,-0.6787163019180298,0.1751772612333297,-0.0094121396541595,-0.0449987389147281,0.4958716928958893,-0.8671780824661255,0.0,0.0,0.0,0.3691864250422783,-0.2555141343051635,0.7085669685293869,0.869956368,-0.087164510133971,-0.1494456255777239,-0.1056552274326367,-13.45705970889608,-31.84718139239664,-10.84190705766638,-0.0284156927274202,0.0874898395441347,-1.0401295744815229,-0.021389470702104,0.0104074862454623,-0.0218266943545764,120.00184495608146,-43.829884989178765,83.73346007204191,-0.0001076443525007
2260,1724817052165107651,-1.6923614740371704,-0.6786752343177795,0.1750987619161605,-0.009403757750988,-0.0445093251764774,0.4960093796253204,-0.867124617099762,0.0,0.0,0.0,0.7080641928943523,-0.2738686723060861,0.573948681552527,0.880481235,0.046008518469216,-0.0812276807389817,-0.0269232134445852,4.924992617504875,6.094981040249661,2.111129988761386,-0.0279540748552664,0.0866272725002138,-1.040389613742637,-0.0070467369436642,0.0044105422788831,-0.0079468115847696,-21.83838898671418,12.540889395995263,-44.858967815651226,-8.562455162137235e-05
2262,1724817052174885091,-1.6924312114715576,-0.6786274909973145,0.1750166267156601,-0.0094324005767703,-0.0443471446633338,0.4962491393089294,-0.8669955134391785,0.0,0.0,0.0,0.0037248137128915,-0.0215006335525734,-0.1559380422483214,0.890258675,0.0239665099088631,-0.0251460362398364,-0.0550528914183178,-0.8215706378519712,2.690846095398326,-0.4212332191303769,-0.0277658116539261,0.0863665227310781,-1.0409229565858815,-0.0060702282477649,0.0044206710857892,-0.0091003465641508,-39.84040536903542,16.57656709188632,-36.49856027305712,-8.938957285090734e-05
2264,1724817052186618382,-1.6924874782562256,-0.6785821318626404,0.1748999953269958,-0.0094951605424284,-0.044062715023756,0.4963893592357635,-0.8669289946556091,0.0,0.0,0.0,-0.0103910289620417,0.0429690325357489,-0.0469981263626395,0.901991966,0.0345012081735811,-0.0364479726724837,-0.0254172264169756,-0.2467235638563683,-4.8275697027437925,4.781474238759549,-0.0273857234354164,0.0859307983833803,-1.041210250578452,-0.0073803366474862,0.0038510743170121,-0.0114644874783209,16.222400156874457,5.188704263062689,4.417747901068454,-0.0001226567395259
2266,1724817052195045837,-1.6925653219223022,-0.6785497665405273,0.1747941523790359,-0.0093833273276686,-0.0436410345137119,0.496293842792511,-0.867006242275238,0.0,0.0,0.0,0.2317993985896778,0.0848450457325511,-0.0392274882053712,0.910419421,0.0254938339921519,-0.1005230343777887,0.0285322483716409,-3.378482416297526,-1.2525062296285765,1.022973449213158,-0.0271482922862871,0.0850905181863616,-1.0409458495763364,-0.0068549380786606,0.0047671335098442,-0.0109254176048745,14.636303019914775,-2.3735329910370107,-1.1280813691160856,-0.0001125154727955
2268,1724817052205771034,-1.6926063299179075,-0.6784859895706177,0.1746992766857147,-0.0091062877327203,-0.0436284206807613,0.496442973613739,-0.8669244647026062,0.0,0.0,0.0,0.1962930791525792,-0.040832843226235,-0.0793096491153384,0.921144618,-0.0422666961738502,-0.0272740542724409,-0.0339117301989652,9.70016576985811,2.7543508237103493,-1.066470458460476,-0.0276318857888149,0.0847881498633857,-1.041302722634426,-0.0020558720529635,0.0053515154790915,-0.0127546699794667,-19.211004579709726,-8.12092596213749,6.022685164526688,-0.0001009997212494
2270,1724817052214380434,-1.692611813545227,-0.6784440279006958,0.1745624542236328,-0.0096036093309521,-0.0431857034564018,0.4965108036994934,-0.8669024109840393,0.0,0.0,0.0,-0.0789900723790165,-0.0858897677095654,0.0399925317332587,0.929754018,0.1519465381295213,-0.0317248800242899,-0.0102267540310451,7.709472942297221,-0.4773530202903118,2.264216549061758,-0.0263305598059153,0.0845127405589139,-1.0413836455369627,-0.0021016996791942,0.0043412155528237,-0.01280687186419,-24.75214631291564,1.1470297070404432,-6.750279210307884,-0.000139143362606
2272,1724817052227004217,-1.692665457725525,-0.6783990859985352,0.1744578927755355,-0.0093501675873994,-0.0430627577006816,0.4964549541473388,-0.866943359375,0.0,0.0,0.0,-0.2577660445488806,0.0466928231810627,-0.4266657435759984,0.942377801,-0.025581953855322,-0.0370175190155418,0.0093447571061078,-1.329757227203487,-1.5999885744287812,0.4296990688070956,-0.0266424965084972,0.0840487387956244,-1.0412529968535922,-0.0044624303452138,0.0038392620077374,-0.0114495207984006,-8.922155281899686,4.662867553540056,-35.48842511511344,-0.0001103129397926
2274,1724817052235894980,-1.6927064657211304,-0.6783632040023804,0.1743362694978714,-0.00938506051898,-0.0427431091666221,0.4964417517185211,-0.8669663071632385,0.0,0.0,0.0,-0.3042817704430093,0.0515829096389195,-0.7329291423387427,0.951268564,0.0423266698220783,-0.0586359472885748,0.0061478760303177,-1.2024993828170532,-5.482794615276838,1.687678239038111,-0.0262604306493789,0.0835290406642707,-1.041184246976003,-0.0071972378212024,0.0047957496901034,-0.0185878078918726,13.129255877722493,7.310411498536327,36.36410477671249,-0.0001259212805255
2276,1724817052243579825,-1.6927789449691772,-0.6783213019371033,0.174160823225975,-0.0090741412714123,-0.0423876233398914,0.4963328838348388,-0.8670494556427002,0.0,0.0,0.0,-0.0814214937378119,0.1526681592042617,0.0168881821003051,0.958953409,-0.0256380475351759,-0.1210381792249117,0.0327162784774784,-6.8057885832081855,-3.3797551383052147,2.059291660357589,-0.0264344917667283,0.0826058354196512,-1.0409075401477683,-0.0095135481847776,0.0048201815076964,-0.0237555533055475,25.47085634280861,9.84659975031392,81.90040499817405,-0.0001818840529308
2278,1724817052256535806,-1.692903995513916,-0.6782726645469666,0.1738328337669372,-0.0084958188235759,-0.0422645024955272,0.4961552321910858,-0.8671629428863525,0.0,0.0,0.0,0.171493206866411,0.2080015200724693,0.7357027734800614,0.97190939,-0.0692939068190296,-0.0612830055602312,0.0288613751097435,9.795861193404749,4.498823918739561,-5.494076181580378,-0.0272997020645207,0.0818221782181927,-1.0405110015036516,-0.0057632493831647,0.010063383087882,-0.0084795690302961,-5.086314020115158,-27.391208087148023,-41.27079352200562,-0.0003376388406574
2280,1724817052265228498,-1.6929314136505127,-0.6781483888626099,0.1738573163747787,-0.0087867015972733,-0.0419804602861404,0.4963584840297699,-0.8670575022697449,0.0,0.0,0.0,-0.0162377200324018,-0.2147639069379222,-0.1873366789464942,0.980602082,0.0926428619910579,-0.0228371748739859,-0.049204593774097,1.1306459706932483,0.0049111517133542,-6.378640952026009,-0.0265289652736438,0.0816122207905214,-1.0409346132676025,-0.0049605542439223,0.0107243136317123,-0.0046701618101074,-7.712205907608181,-27.732006709575305,-59.347387985792246,1.556292094368972e-05
2282,1724817052273970588,-1.6929906606674194,-0.6780860424041748,0.1737506687641143,-0.0084434319287538,-0.0418613478541374,0.4966624975204468,-0.8668925762176514,0.0,0.0,0.0,0.0384081792951342,-0.2734290130220615,-0.294365413776803,0.989344172,-0.0513150271699777,-0.061635088246769,-0.082091041471082,-8.92403770254542,-2.3879337984412197,-0.6708740039852441,-0.0270348669153226,0.0810543782070422,-1.0416399205622455,-0.0060571081521629,0.006290209997239,-0.0118077223797756,1.360597761981018,5.998907399929094,-5.762167545203357,-0.0001135669688857
2284,1724817052289656640,-1.6930654048919678,-0.6780110597610474,0.1735764741897583,-0.0084232073277235,-0.0414984598755836,0.4967102706432342,-0.8668828010559082,0.0,0.0,0.0,-0.0778902846974267,0.1783895274969317,-0.2023456856367627,1.005030224,0.021010089279622,-0.0413901296680896,-0.0056166753554595,10.637583012569545,31.698635022283938,-7.37241251172515,-0.0267110133185027,0.0804029908697771,-1.041710706167656,-0.0008431874487513,0.0085812080810754,-0.0017304569410239,-25.81237424967728,-2.0790226129305256,-60.00087854495449,-0.0001825084137679
2286,1724817052298383459,-1.6930537223815918,-0.6779177188873291,0.1736068874597549,-0.0097708730027079,-0.0426412299275398,0.4972108006477356,-0.8665262460708618,0.0,0.0,0.0,-0.3924755295152057,0.010306847559487,-1.045754508500047,1.013757043,0.1431030331437686,0.3828720408889903,-0.1294183171606495,-9.411439655335162,-7.2605782416121905,-3.002215855171925,-0.0255622156151833,0.0837135997371408,-1.042931246278164,-0.0035148846531285,0.0102949773433067,-0.0075977857884712,-1.714455156220918,-26.539344706400996,-2.071461341876585,2.550813515546984e-05
2288,1724817052306455536,-1.6931183338165283,-0.677837610244751,0.1734628081321716,-0.0091959973797202,-0.0425348803400993,0.4974411427974701,-0.8664054870605469,0.0,0.0,0.0,-0.1499640273749475,-0.2582681603719128,-0.3563415338231793,1.02182912,-0.1075967581832481,-0.0929352900677596,-0.0701466246747266,-0.5587057197968921,-25.286299235755497,9.268289044871514,-0.02647638989656,0.0829489316451884,-1.0434795665728054,-0.0073275390544438,0.0089888705965535,-0.0188273323108152,35.05452966719595,-16.745770906534187,131.97946321187894,-0.0001523711704365
2290,1724817052313614484,-1.6931664943695068,-0.6777791976928711,0.1733218133449554,-0.009344432502985,-0.042201641947031,0.4974294602870941,-0.866426944732666,0.0,0.0,0.0,0.132806654341049,-0.2732226742842996,0.88418559422234,1.028988068,0.0820448069921785,-0.0602566472299139,0.008429688168957,14.27605805615536,4.236625593572293,5.797412088144248,-0.0258830984346326,0.0825192911455172,-1.0434077664066257,-0.0063544088259703,0.0065274900758574,-0.0148081857287287,15.4476963184616,-2.8552306784442116,98.6975814644245,-0.0001469404537417
2292,1724817052325178925,-1.6932330131530762,-0.6777341961860657,0.1732418537139892,-0.0093842474743723,-0.0420611016452312,0.4975415468215942,-0.8663689494132996,0.0,0.0,0.0,-0.1378501573397343,-0.3205571540269828,0.632229674396225,1.040552509,0.0189681143481019,-0.0173917013239634,-0.0212668900318617,-1.6747766795238288,7.6087570661989234,-0.105073673777766,-0.0256836212634195,0.0823118866362606,-1.0436492001175772,-0.0048769589687438,0.004686627668434,0.0014465882302729,-1.4551274627472497,5.396864662126062,-56.877318777537184,-8.650466642095851e-05
2294,1724817052338361296,-1.6932841539382937,-0.6776604652404785,0.1733865588903427,-0.0101589709520339,-0.0426924228668212,0.4974654614925384,-0.8663730621337891,0.0,0.0,0.0,0.1727894470326518,-0.1068111379134074,-0.6448366027197427,1.05373488,0.0536851831510917,0.1415458932127608,0.0143563649172773,3.3605506809785295,4.846035591328549,16.737444190437433,-0.0249640809477812,0.0841819968568011,-1.0435068226823871,-0.0106853539547273,-0.0019639899649632,-0.0018400319120814,54.96005574937816,31.592565027192254,-9.159514445097926,0.0001364518977589
2296,1724817052344142865,-1.6933631896972656,-0.6776909828186035,0.1733434200286865,-0.0105823567137122,-0.0429591909050941,0.4971027374267578,-0.8665630221366882,0.0,0.0,0.0,0.5701538200736281,0.1148375296722112,-0.4753681645802924,1.059516449,0.0749577722540064,0.1512791721406044,0.1467138679167901,-0.2229949924537552,-1.8429755880445495,15.198620726344272,-0.0244606064802477,0.0850773262044003,-1.042677545884142,-0.0081309415201218,-0.0015730847814623,-0.0065711123860312,37.14948705722227,20.741860810721946,33.945296263348226,-4.615981763117193e-05
2298,1724817052355411726,-1.6933331489562988,-0.6776273250579834,0.1732889264822006,-0.0107022356241941,-0.0432464964687824,0.4963687360286712,-0.8669679164886475,0.0,0.0,0.0,0.295158096212939,-0.0378900332671604,0.0089265244567752,1.07078531,-0.0132674622357226,0.0530548815834027,0.1489843723418332,0.4902476302374516,-10.348968191177567,-8.920226172532717,-0.0244676900928136,0.0857160845405006,-1.041007709318893,0.0011127868930458,0.0007582652166959,-0.0043956793903063,-27.348259259412377,5.9946953368845275,16.103138443458704,-5.625802079436085e-05
2300,1724817052363486152,-1.6933331489562988,-0.6776494979858398,0.173255980014801,-0.0107622817158699,-0.0430278144776821,0.4962925910949707,-0.8670216798782349,0.0,0.0,0.0,0.0572975864333723,0.1236078604773072,-0.0165257892134733,1.078859736,0.0388229574308876,-0.0399521711599389,0.0241847159272309,6.288417523793292,-4.990880066865147,-12.625585368543984,-0.0241368028119404,0.085398339416155,-1.0408039579525077,0.0004578545608069,-0.0009638245595091,-0.0053888444909269,-13.939045588637176,17.762113175518436,5.346207436328946,-3.145606599899211e-05
2302,1724817052374359481,-1.6933214664459229,-0.6776338815689087,0.1731782257556915,-0.0112432613968849,-0.0427556186914444,0.4966546595096588,-0.8668217062950134,0.0,0.0,0.0,0.1329764666524998,0.2839560426227385,0.1660428845678321,1.089733065,0.104814219761356,0.0013638414280253,-0.0716508478103935,-1.174782794215164,-0.6710008302556338,-11.850891829544192,-0.0230638283995944,0.0853947821329079,-1.041586046821799,0.0031075229579471,0.005313020883328,-0.0040094733763513,-8.172948239739334,-16.687714751395564,5.954953651719687,-7.768246729522838e-05
2304,1724817052384332845,-1.6932718753814695,-0.677545428276062,0.1731669753789901,-0.011198348365724,-0.0425015240907669,0.4976033568382263,-0.8662905097007751,0.0,0.0,0.0,-0.0869702571808984,-0.1700371686977731,0.126311410556582,1.099706429,0.0268315085006285,-0.0462262872460177,-0.217626897638573,0.8197832434219787,0.8878915634124235,3.012252467639573,-0.0229805124071569,0.0848839040361996,-1.0437531421412058,0.0034209954385744,0.0054618157985117,-0.0019950103089882,-10.07881972282449,-22.829843212617927,3.71403897817847,-1.3565387198510736e-05
2306,1724817052394159751,-1.6932532787322998,-0.677524745464325,0.1731389760971069,-0.0117415990680456,-0.0422862768173217,0.4976999759674072,-0.8662382364273071,0.0,0.0,0.0,-0.0700686813180843,-0.1746786924179675,0.2373436069003863,1.109533335,0.118534262604956,0.0172987147693584,-0.0171391065002055,-0.9709181812535044,2.21146882570648,11.732431632159177,-0.0218303488755565,0.0850500649132332,-1.0439257932106696,0.0014199153486842,0.0020000179316426,-0.0014864702910752,-0.1474003664480525,0.8915734272005134,1.2597437769231492,-2.8037695362444247e-05
2308,1724817052407402125,-1.6932429075241089,-0.6775001287460327,0.1731436103582382,-0.0111920274794101,-0.0423770621418952,0.4977748394012451,-0.8661981225013733,0.0,0.0,0.0,-0.1053429690091866,-0.1385334138818388,0.0748794189693436,1.122775709,-0.0781743636097989,-0.029309366259093,-0.0164803637299852,7.164054906875248,10.817606726862213,-4.5181033986346195,-0.0228833859347361,0.0846571671329918,-1.044136155253127,0.0028754817437004,0.0028560959770942,0.004968432108658,-14.780488155870716,-10.739474461352444,-38.2680954256771,3.746451874301857e-06
2310,1724817052413639055,-1.6932188272476196,-0.6774793863296509,0.1731881648302078,-0.0113932034000754,-0.0425475165247917,0.497933030128479,-0.8660962581634521,0.0,0.0,0.0,-0.23312061373775,-0.2450797444855026,-0.2401694487343987,1.129012639,0.0311865063256029,0.0802746910578047,-0.0580774518945611,10.633146748151075,7.236681491482496,-2.1586269546588204,-0.0227206712435786,0.0851494520129634,-1.0445111143159391,0.0015861407814128,0.0013952334128468,0.0042235498476497,-7.3367067122185485,-3.617890299778609,-28.938791958232663,4.4594856725390886e-05
2312,1724817052424048112,-1.693241834640503,-0.6774984002113342,0.1731813997030258,-0.0114298183470964,-0.0423828959465026,0.4979491233825683,-0.8660945296287537,0.0,0.0,0.0,-0.0810361982133255,-0.0488191805593084,-0.1665981820557065,1.139421696,0.0219782663344883,-0.0239128835999801,-0.0021837849236061,-3.619030329628945,-5.563127408408009,3.2621079984168753,-0.0224933529805312,0.0849000815941444,-1.0445281771070516,-0.0012989394434868,-0.0013443360228997,-0.000373867489988,14.164108504266457,17.749165683592665,13.70998141012358,-6.98724918302555e-06
2314,1724817052435231017,-1.6932454109191897,-0.6775076389312744,0.1731805354356765,-0.0110922306776046,-0.0423668846487998,0.4978955388069153,-0.8661304712295532,0.0,0.0,0.0,0.0719932738797533,0.1363847918418007,0.0665178270552528,1.150604601,-0.0513447798446153,-0.0327069985127808,0.0089746733271897,0.5201942951896888,2.6891494870815347,-2.008771253075133,-0.0230583072008286,0.0845366974901945,-1.0444190645841918,0.0001512497841673,0.0006852467920381,0.0010679284452947,5.681482122429976,11.312395959641444,21.98949258671764,-5.166279684517342e-07
2316,1724817052444093817,-1.693240761756897,-0.6774909496307373,0.1731980443000793,-0.0111323082819581,-0.0424214377999305,0.4980103075504303,-0.8660613894462585,0.0,0.0,0.0,0.0661354377703974,0.1997754269726301,0.2694400215272372,1.159467401,0.002974077935263,0.0155387339161662,-0.0299470529661598,4.706722039756683,4.116500541698099,-3.161630053380327,-0.0230547238083408,0.0846682714839541,-1.0446886796364132,0.0003841238466311,0.0015771785714777,0.0012190868082384,-135.02378803766086,-161.75214646316212,-393.07527887437783,1.6704595416879746e-05
2318,1724817052472561733,-1.6932426691055298,-0.6774740219116211,0.1731635779142379,-0.0112937577068805,-0.0425137542188167,0.4981049001216888,-0.8660002946853638,0.0,0.0,0.0,-16.063967046476964,-19.84975520221652,-48.95736937525452,1.187935317,0.0069231245239581,0.0113737765492559,-0.0074840443154122,-1437.5469403864552,-296.08217991184773,-504.8415840056467,-0.0228763777127957,0.0849870699956774,-1.0449097937672458,0.0059116942943546,0.0163296100442948,0.0319677573239118,361.00459536712515,-294.76544387509784,-207.40078526902653,-3.5500041925112574e-05
2320,1724817052473057139,-1.693239688873291,-0.6774657964706421,0.1731797009706497,-0.0111200483515858,-0.0425734594464302,0.4981539249420166,-0.8659714460372925,0.0,0.0,0.0,-15.87712610031922,-19.99225322745834,-49.04699723265566,1.188430723,-0.7176408057571231,-0.1378584291287691,-0.2619447282752065,-579.6103836823838,-152.05611910923088,-103.73322010036966,-0.023242816356802,0.084915805471786,-1.045038472076478,-0.002186655720493,0.0063203262473905,0.0072826004823411,1004.4651941716356,494.7896753612458,1744.510468015582,1.5740043118494705e-05
2322,1724817052474007941,-1.6932567358016968,-0.677478551864624,0.1731405258178711,-0.0112664699554443,-0.0424860939383506,0.4980013966560364,-0.8660615682601929,0.0,0.0,0.0,-13.777338971876237,-18.09401863037039,-43.87476190333198,1.189381525,0.342495237715185,-0.0102150218317658,0.3874309526531646,1031.810094341561,124.73298170215978,630.6895712061233,-0.0228858048303305,0.0849145909901908,-1.044668642878546,-0.0164254169460775,-0.0123015774266876,-0.0379259511992451,2133.1876169383345,1960.8168689999989,5313.110102541547,-3.929831077709376e-05
2324,1724817052486151452,-1.693222999572754,-0.6774551868438721,0.173188105225563,-0.0111859226599335,-0.0427283383905887,0.4983247220516205,-0.8658646941184998,0.0,0.0,0.0,0.4560951386989763,0.1896841508541734,0.985836756824825,1.201525036,-0.0287300901500593,0.0287244145402825,-0.0632790099161815,-3.8387831433049184,-3.198769677831394,-6.767839555183966,-0.0233008947466669,0.0852455692471255,-1.0454477402819156,0.0021026023175068,-0.00070955220351,-0.0010475376820071,406.1335980021966,554.3930422134285,1348.0886640004278,4.80663307238553e-05
2326,1724817052493933613,-1.6932100057601929,-0.6774738430976868,0.1731551885604858,-0.0113889994099736,-0.0424872115254402,0.4982190430164337,-0.8659346699714661,0.0,0.0,0.0,-0.2033401017858216,-0.2399700378275822,-0.2236461873180213,1.209307197,0.0747088712389171,-0.0281137613901882,0.0354011698077786,3.0822328106122736,-4.408026330243162,6.577714315085201,-0.0226955604107357,0.0850331687487535,-1.045166184024613,0.000317409610389,-0.003048112395799,-0.0036045567111688,-38.79229123317654,-21.895619485169085,-74.14603141773725,-3.082282117172969e-05
2328,1724817052503581772,-1.6932231187820437,-0.6775110363960266,0.1731278896331787,-0.0112339230254292,-0.0423778630793094,0.498109370470047,-0.8660052418708801,0.0,0.0,0.0,-0.0280454733370606,-0.0527280370403152,0.0331149722731908,1.218955356,-0.0176759034924395,-0.0360068612398276,0.0258673454046531,-2.448386011141186,-0.8287811430373377,0.1259060011683683,-0.0228442065694293,0.0846915554300632,-1.044907983257644,-0.0013327841997892,-0.0046393152633754,-0.0045072228344658,16.090463153741254,15.116703773946996,15.11298309839156,-2.5715820652055877e-05
2330,1724817052514468330,-1.6932373046875,-0.677571177482605,0.1730582118034362,-0.0113246357068419,-0.0420452952384948,0.4979291260242462,-0.8661238551139832,0.0,0.0,0.0,0.1215952512051256,0.059138982085288,0.0563848756595279,1.229841914,0.043216955983064,-0.0451607166078978,0.0409229903243902,-1.8215443643760745,2.4127330545046997,-2.5143871222802536,-0.0223350763349863,0.0842100900929786,-1.0444497556710957,0.0001183946784237,-0.0038351495253223,-0.0025906703417852,1.7356042744061768,-2.193452746034993,-10.011334265269417,-6.658885029982332e-05
2332,1724817052523816457,-1.6932247877120972,-0.677593469619751,0.173064574599266,-0.0111951446160674,-0.0421378165483474,0.497978538274765,-0.8660926818847656,0.0,0.0,0.0,0.0414156169175413,-0.0614568269252667,-0.1347221590904192,1.239190041,-0.0333315539191739,0.0035105727172646,-0.0138661892292268,2.636438470619516,1.8985413051084503,-0.5871066509488723,-0.0226576687660842,0.0842399903511617,-1.0445806203950936,0.0011611268386104,-0.0034005402303236,-0.0030241219557565,-2.6529790153372037,-10.08816043198362,-11.404151197829576,8.480497882337162e-06
2334,1724817052534210825,-1.693214774131775,-0.6776405572891235,0.1729903221130371,-0.0117018111050128,-0.0417594946920871,0.4978209137916565,-0.8661949038505554,0.0,0.0,0.0,0.0823085846381377,-0.1338123234686573,-0.1487887146900081,1.249584409,0.1191856901674175,-0.0149880271902053,0.0409850688111859,2.1139898529293064,-4.337323804024526,2.6082482535180267,-0.0213825863899229,0.0840936151767803,-1.0441497338239127,0.0007810871096012,-0.0052869809795481,-0.0054456477768791,12.942400537233938,-1.492249107286522,-0.3169551549395377,-7.045307312505881e-05
2336,1724817052544832708,-1.6932084560394287,-0.677704930305481,0.1729509085416793,-0.0115002570673823,-0.0413343533873558,0.4976447820663452,-0.8663191199302673,0.0,0.0,0.0,0.3175602412752464,-0.0903026157656651,-0.1409066455891929,1.260206292,0.0053192880427384,-0.0888202566924238,0.0397217505892615,-3.875301615657357,0.0051697679272744,-1.2826288334429026,-0.0212890375034755,0.0831593818857094,-1.0437061198391322,0.0029456263978744,-0.0061908428681007,-0.0061123809205483,12.584920439104586,-1.6588460152122655,-7.086213659593775,-3.4957332843573975e-05
2338,1724817052554543137,-1.6931589841842651,-0.6777662038803101,0.1728702336549759,-0.0115580381825566,-0.0411510206758976,0.4975807666778564,-0.8663638830184937,0.0,0.0,0.0,0.3548734924685546,-0.1574996292754149,-0.2792098572562995,1.269916721,0.0284499542448386,-0.0270192434669969,0.016936551546176,1.3753695139612034,0.3093099203767249,-1.9434420403772383,-0.020998632275278,0.0829005542049444,-1.0435356132942455,0.0070393109378557,-0.0071139550361749,-0.0081742804861573,10.605453313682895,-0.6663162466338646,-0.0099811269519509,-7.368522334679025e-05
2340,1724817052564342844,-1.6930707693099976,-0.6778438687324524,0.172791451215744,-0.0114896548911929,-0.0407169200479984,0.4975839555263519,-0.8663834929466248,0.0,0.0,0.0,0.5256871777206173,-0.1021807548151019,-0.1385483498623673,1.279716428,0.0319723602916403,-0.083871720153034,0.0018772253710464,4.961944344905133,-2.7792140478729537,1.6334654333903555,-0.0206823765457408,0.0820792008408737,-1.043500004384374,0.0098572916013495,-0.0092748815611543,-0.0115717983496494,20.017721181096096,7.87149878921995,17.227260876385746,-6.859204507255109e-05
2342,1724817052574628649,-1.6929601430892944,-0.677953839302063,0.1726342886686325,-0.0118877105414867,-0.0400184988975524,0.4973805546760559,-0.8665274381637573,0.0,0.0,0.0,0.7595173517579963,0.002821780776702,0.0696715053163591,1.290002233,0.1326986592344653,-0.0798301058986055,0.0529040143659461,1.3340333330827931,6.363024657701533,-5.6368104930850285,-0.019271586776554,0.0812691165189648,-1.0429376634004464,0.0178352574307609,-0.0090484161287562,-0.0107497159830867,-11.198806400261084,-3.974572316011172,-22.796404761460543,-0.000143607124564
2344,1724817052583588299,-1.6927450895309448,-0.6780220866203308,0.1725733280181884,-0.0122315380722284,-0.039939846843481,0.4977051019668579,-0.8663399815559387,0.0,0.0,0.0,0.3943577120384142,-0.1434803776851748,-0.4704796115135594,1.298961883,0.0786352852971309,0.0237738243872577,-0.0803093758180092,1.6840948924775754,1.7796179697874916,-4.251155244682599,-0.0186260409033598,0.0814684594467817,-1.0436636186930794,0.0245145262213526,-0.0091729447796389,-0.0102054988020761,-46.99471646483842,-6.94573572582437,-41.13065357992717,-4.4324273761872104e-05
2346,1724817052594069259,-1.6924818754196167,-0.6781373023986816,0.1724246591329574,-0.0128971934318542,-0.0390895493328571,0.497725635766983,-0.8663572669029236,0.0,0.0,0.0,-0.1746821280500898,-0.1012340299834089,-0.6666994383085001,1.309442843,0.1909157084199226,-0.0775288132199407,0.0053049287183502,-2.6195844523272034,-20.183554755607744,6.865696340167579,-0.0166193794289397,0.0806569823971429,-1.043593406808129,0.0243427705031678,-0.0122655020574526,-0.0216496493412865,65.92302953465146,-6.958891256936041,0.4640902093662582,-0.000126658624068
2348,1724817052603973757,-1.692247986793518,-0.678270697593689,0.17214035987854,-0.0121548976749181,-0.0373738333582878,0.4974943399429321,-0.8665765523910522,0.0,0.0,0.0,1.6034407880491732,-0.2730187552757962,-0.4825302078792212,1.319347341,0.0401823664648855,-0.3758840345025294,0.0611117779319935,-12.819461202087329,-24.089689293248934,4.431637214619021,-0.0161687845070416,0.0769444627539898,-1.0429251286089924,0.0211310339446599,-0.0114539728662736,-0.0242732137233832,1647.2494180740991,291.42315767420195,42.64221939395997,-0.0002633289887155
2350,1724817052655332613,-1.6918240785598757,-0.6783225536346436,0.1720737218856811,-0.0125058721750974,-0.0369790233671665,0.4982196986675262,-0.8661715984344482,0.0,0.0,0.0,477.0831604545588,96.92398631723682,8.111830779197916,1.370706197,0.0207400888478454,-0.0062776800571683,-0.031625510764013,3523.771198500046,219.76849178711544,-2153.3498556013005,-0.0152281301595469,0.0765965804725109,-1.044548784605019,0.6168634078449031,-0.1200060874825794,-0.1070176345062634,-64283.40449298744,-226363.4102890891,5621.721655092315,-4.152746201584111e-05
2352,1724817052656129928,-1.6913247108459473,-0.6784197092056274,0.1719870865345001,-0.01350615080446,-0.0364762730896472,0.4988737404346466,-0.8658013939857483,0.0,0.0,0.0,424.9187549060453,-86.38426919249261,12.661627198928612,1.371503512,2.8739170499715128,0.1715782144690028,-1.775155099880765,-34980.700816805365,-3397.745002985329,-8408.776434629375,-0.0130455574792461,0.076713364242392,-1.045970148906122,1.0030106468539088,-0.0415012688763454,-0.1004296013198882,-738793.7923902288,-229754.1075684329,56901.85097699931,-5.5753180168048984e-05
2354,1724817052656541735,-1.6908315420150757,-0.6784197092056274,0.1719474792480468,-0.0097337532788515,-0.038164984434843,0.499896228313446,-0.8651893734931946,0.0,0.0,0.0,-22.543933661399024,-180.96611128437144,46.98323055950691,1.371915319,-19.732730106423247,-1.9977663136407275,-6.561342452078514,-11154.841870158602,-4526.526338128699,-120.56401462738565,-0.0213770619497966,0.075844304074385,-1.0486656133084142,1.1653630405530748,-0.1163907043979861,-0.0942798398988316,-1041934.7736703788,-40687.190405714515,79129.56961843628,-1.1714977968801038e-05
2356,1724817052656974312,-1.6903420686721802,-0.6785229444503784,0.1719075590372085,-0.0084548182785511,-0.0379968956112861,0.5001242756843567,-0.8650782704353333,0.0,0.0,0.0,-452.97281696558946,-112.69134475715543,79.29789146001761,1.372347896,-4.682214397047218,-3.61897630813956,-1.3871221113751309,27529.49142312418,-2108.1191994783203,9247.054212030607,-0.023444946913988,0.0742657459480165,-1.0492317958594142,0.9662249331528868,-0.1942682738966255,-0.0593927976167236,-745239.63145051,153654.93936339297,53703.44404550831,-6.326673970434563e-06
2358,1724817052658395037,-1.6897406578063965,-0.6785918474197388,0.1719766557216644,-0.0091294944286346,-0.0384482108056545,0.5006946325302124,-0.8647215366363525,0.0,0.0,0.0,-346.1803133091146,86.11642079773922,57.61060356266121,1.373768621,0.5386290820626374,1.036903555695392,-0.915018367776682,2854.7014532600942,2516.386172784538,287.23681960751685,-0.0227799025697651,0.0757084728109973,-1.0505693379231635,0.3571118718470245,-0.0401530216331416,0.0469617461377547,72074.03467318538,105822.9609797741,-14591.82545854706,0.0001071136653654
2360,1724817052663474849,-1.6891289949417114,-0.6786442399024963,0.1721848249435424,-0.0094246631488204,-0.0382758192718029,0.5013111233711243,-0.864368736743927,0.0,0.0,0.0,-36.24608678795114,4.12125767614989,-4.287335664999726,1.378848433,0.1450754947004554,0.0026201744361282,-0.2743469101003933,-58.63947820733171,-140.7408828475328,90.59029846628812,-0.0221486402263994,0.0756904717296748,-1.0519668789494918,0.0979948920054596,-0.0088214404664306,0.0263255582111012,42440.253952465544,-11079.88406166476,-8218.55786246154,0.000245079722626
2362,1724817052674215881,-1.6885855197906494,-0.678705096244812,0.1721347719430923,-0.008918828330934,-0.0380573272705078,0.5018059611320496,-0.8640965819358826,0.0,0.0,0.0,-2.205953194333503,0.0655962046735493,-2.477653652649216,1.389589465,-0.0570131517762009,-0.0813115549616339,-0.1082686563849109,-9.272132534175828,-24.768746310571863,15.376752373825012,-0.0228471818622468,0.074791162549317,-1.0531131088220405,0.0439651059298569,-0.011036188049367,-0.0248336411766896,1707.074622633443,-161.0706886659409,245.37172921507184,-1.575773028282711e-05
2364,1724817052684845658,-1.6881879568099976,-0.678878903388977,0.1716585755348205,-0.0072815674357116,-0.0358000881969928,0.5015683174133301,-0.8643463850021362,0.0,0.0,0.0,0.5591244146442071,0.6311194755042067,0.9394368022062216,1.400219242,-0.0551897854396186,-0.522954936627901,0.0542856067255308,15.438100557596355,2.220482213397414,-3.5081812837102806,-0.0233829527616341,0.069247089222997,-1.0524059785102766,0.0502267139669356,-0.0074797595714315,-0.0271297766871221,109.30607519245314,14.307642450615162,160.4377811234948,-0.0004447954796248
2366,1724817052694131200,-1.687617540359497,-0.6788763999938965,0.1715499758720398,-0.0077674845233559,-0.0347196273505687,0.5021328926086426,-0.8640583157539368,0.0,0.0,0.0,0.3507480650014831,0.4484915826183993,1.12305702654148,1.409504784,0.2119930197571612,-0.1473193268751991,-0.1307864665604187,16.22178252379254,26.6276518031767,-12.51105293199744,-0.0214957295886305,0.0678522368713513,-1.0535920873028577,0.0551756466338417,0.0007859097257032,-0.0090344253240495,-10.170191748321692,-28.149080471760712,-10.3825204857173,-7.867048813120881e-05
2368,1724817052706532935,-1.6870368719100952,-0.6788581013679504,0.1714820116758346,-0.0086885830387473,-0.0338413119316101,0.5030521750450134,-0.863549530506134,0.0,0.0,0.0,0.4278692704684204,-0.0410842794300806,0.494777756831077,1.421906519,0.2052588640147088,-0.0461028328031517,-0.1630399203397974,2.7100604634894783,-0.8258077384586171,-4.026833328427431,-0.0190861331650965,0.0672395746164526,-1.0556066487580558,0.0565072288363381,-0.0009677757758481,-0.0087833792505662,-23.792498700407226,-5.461954546778304,25.76874941623956,-3.983336618871842e-05
2370,1724817052714769966,-1.6865184307098389,-0.67887943983078,0.1713915914297104,-0.0093213617801666,-0.0329771675169467,0.5038151144981384,-0.8631314635276794,0.0,0.0,0.0,0.0677020329630724,0.1000151418349673,1.125173213627463,1.43014355,0.2453788978316392,-0.1020736013120927,-0.2040111919210823,-3.109616710537191,11.617219418282716,-5.340252540061516,-0.0171763273162342,0.0663684598934999,-1.0572752679841235,0.0617850179635013,-0.0007573353922083,-0.0021117452772863,-51.44177676628526,4.019199341338634,16.813382803158003,-6.451147308330607e-05
2372,1724817052724091440,-1.6859546899795532,-0.6788671612739563,0.1714654266834259,-0.0102842757478356,-0.0334842056035995,0.5048625469207764,-0.8624887466430664,0.0,0.0,0.0,-0.4932091141847108,-0.0008205755783026,0.6519468897921281,1.439465024,0.1322109017417631,0.2004409651280648,-0.2576533434379184,-5.00309612732043,9.868266128732984,-0.5266381136327958,-0.0161078358816674,0.0681966413344677,-1.0597132656498751,0.056371309289716,0.0009604829484963,0.0117016542481724,-35.78895689326424,-15.207288776587852,-94.29162158574697,9.972844405640084e-05
2374,1724817052734830312,-1.685400128364563,-0.6788612604141235,0.1716378629207611,-0.0110941352322697,-0.0331680290400981,0.5058104395866394,-0.8619354367256165,0.0,0.0,0.0,-0.5758543472693871,-0.2184383806137002,-0.8991124382955964,1.450203896,0.1667866460260446,0.0269949669705402,-0.1986285082905854,3.4404784112892344,-11.427452949327892,2.1602810342504295,-0.0144629902420548,0.0684539072924758,-1.061855586938393,0.0521581862930986,-0.0013384314113409,0.008434941299976,-29.090113047604653,-3.3275057958539667,-81.29416684090852,0.0001971880557495
2376,1724817052744040335,-1.6849156618118286,-0.6788884997367859,0.1716553419828415,-0.0117621487006545,-0.0325496159493923,0.5066566467285156,-0.8614529371261597,0.0,0.0,0.0,-1.0127642462477369,-0.1153023976293819,-1.149101978720638,1.459413919,0.2002175709503608,-0.0409398211189497,-0.2050834853113385,-2.4115310784819117,-10.732997567020425,2.372915321512078,-0.0127477336599271,0.0680511777467796,-1.063743370726995,0.0454048837584366,-0.0033847266302018,-0.0045450552995545,-1.5933534569528869,15.47826894149389,31.16022568188484,4.0282244754648845e-05
2378,1724817052754224161,-1.6845343112945557,-0.6789277791976929,0.1715365052223205,-0.0117248790338635,-0.0314558446407318,0.5073270797729492,-0.8610994815826416,0.0,0.0,0.0,-0.5127469142813852,0.0905213394701509,-0.1752405151582501,1.469597745,0.1076295243828784,-0.1880425533108461,-0.1463055492668096,-9.184757961581845,-16.808839336487715,2.0358916794012796,-0.0117501730611313,0.0661180834250528,-1.0652131290501767,0.0319436379976139,-0.0033554260536625,-0.0133169456612503,53.18646434000304,12.86672799557624,89.40215943126533,-0.0001003999127743
2380,1724817052765217619,-1.684248447418213,-0.6789587140083313,0.1713705509901046,-0.0106041096150875,-0.0295536313205957,0.5081488490104675,-0.8606967926025391,0.0,0.0,0.0,0.1204621220674009,0.1448151696661922,0.7337105008646829,1.480591203,0.0055526274579012,-0.4008856545524195,-0.1682585436501721,18.618215202620036,10.73206711882005,-9.00888572822369,-0.0118041686196371,0.0616894836265787,-1.0670145713522183,0.035908487458343,-0.0013201700576601,-0.0071010095784771,-6.835722983823214,-22.668582361759672,11.192020232398232,-0.000152671059603
2382,1724817052774093340,-1.6838587522506714,-0.6789597272872925,0.171364814043045,-0.0117781748995184,-0.0283877998590469,0.5093405842781067,-0.8600161075592041,0.0,0.0,0.0,-0.4019429351096795,-0.2542171647831863,0.320761655272026,1.489466924,0.3707571032226653,-0.0899866170461007,-0.2984662421507597,16.316242941734394,20.972457022630568,-4.5675149053354405,-0.0086754491572221,0.0608637054413784,-1.069660361041605,0.0352564661850536,-0.0003237487280429,0.0006171493680966,-36.324906362983285,-39.285729597295976,-46.50888116648042,8.676087042665047e-06
2384,1724817052786278034,-1.683573842048645,-0.6789671778678894,0.1713934689760208,-0.0123383626341819,-0.027558047324419,0.5103416442871094,-0.8594415783882141,0.0,0.0,0.0,-0.467637202820153,-0.6380244325705713,-0.2456540372666028,1.501651618,0.1542233087026387,-0.0695553352001842,-0.1851311634483838,-0.6894165567427635,-10.422560447849758,10.39386822328177,-0.0069323640163459,0.0599986149569528,-1.0719135347759086,0.024864305245984,-0.0095515392505518,-0.0046547300309374,17.18882689500095,11.706015732767415,27.944783024296047,3.887816382827205e-05
2386,1724817052794855011,-1.6833516359329224,-0.6791030764579773,0.1713112443685531,-0.0127467643469572,-0.0261573679745197,0.5107125043869019,-0.8592590689659119,0.0,0.0,0.0,-0.1838810930188648,-0.2767731037630471,0.4433991954124905,1.510228595,0.2514392804849505,-0.2319987270029128,-0.0893876489866216,-1.4635966573887265,-8.848382080792899,3.831749689978329,-0.0048203695073304,0.0580042956108895,-1.072669816715382,0.0231793167394442,-0.0143035799055866,-0.0056326344625183,12.969409187314175,27.52881380489662,45.654886270027745,-6.838203132593301e-05
2388,1724817052803937996,-1.6831673383712769,-0.6792181730270386,0.1712981164455413,-0.0126814497634768,-0.0250575765967369,0.5112264156341553,-0.8589871525764465,0.0,0.0,0.0,-0.2595541292679203,-0.1670673947517522,0.5244747554195753,1.51931158,0.115042286296531,-0.2153038408274559,-0.1251006527401578,0.5510213266748885,20.38103994482347,-2.453590019393495,-0.0038398233957169,0.0560437904011782,-1.073799444061435,0.0216300723047737,-0.0141504597486949,0.0037564352438517,-26.45209121543429,-9.56466040361654,-69.15896207464024,-2.106822993240963e-06
2390,1724817052814227583,-1.6829291582107544,-0.6793810129165649,0.171397402882576,-0.0145534705370664,-0.0252019427716732,0.5118388533592224,-0.8585883975028992,0.0,0.0,0.0,-0.7429598460588911,-0.517762778559413,-1.0973389949206804,1.529601167,0.3021775294495152,0.210554689350862,-0.1331156892927762,0.3847792301221782,5.424873349000371,1.4840221312089632,-0.0008091555266787,0.0582071173768151,-1.075176350535853,0.0179220743646055,-0.0180134352398511,0.0032173070608489,-25.837043961554222,-6.026488774895668,-85.70414584786519,0.0001141479290475
2392,1724817052824566821,-1.682798147201538,-0.6795899868011475,0.1713638454675674,-0.0147961154580116,-0.024413488805294,0.5122808218002319,-0.8583433628082275,0.0,0.0,0.0,-0.7904373754352071,-0.2885940320772404,-1.2363427524395787,1.539940405,0.1212077827169244,-0.1069748377434863,-0.094261760428797,-12.570933450833154,-24.013913852226757,9.913340411804183,0.0003878028364514,0.0571008691244052,-1.076152265899413,0.0062655994735081,-0.0248454659565311,-0.018984394177627,21.608248669592804,41.17703955696159,71.9501027528761,-1.94629855138144e-05
2394,1724817052834603329,-1.68279767036438,-0.6798844933509827,0.171019971370697,-0.0142628448083996,-0.0230799615383148,0.5120257139205933,-0.8585415482521057,0.0,0.0,0.0,-0.3183066126392075,0.3099075841169131,0.3177520549744287,1.549976913,0.0430928114584893,-0.2827422441818771,0.0652037110359168,-8.529614001458919,-2.596477644169992,2.1172036215637484,0.0008566831833528,0.0542627234138314,-1.0754987093931587,0.0016152915323601,-0.0241158026334247,-0.0225175871604772,22.68591896464686,25.09326298504296,82.11962651464495,-0.0003291826118486
2396,1724817052844361519,-1.682767033576965,-0.6800702214241028,0.1709116697311401,-0.0136438785120844,-0.0225033443421125,0.5122194290161133,-0.8584513664245605,0.0,0.0,0.0,-0.3280073308151879,0.2270787179545843,0.4291102745679982,1.559735103,-0.04722356593695,-0.1665591703734283,-0.0447930178420913,3.01862919439002,1.7512412527961772,-2.991012144703689,0.0003724277612315,0.0526376767753379,-1.0759374447114003,-0.0001147948246398,-0.0188411459512991,-0.013062245940242,-1.2111740375172673,-18.210978035300688,-22.34526270021287,-9.876380066938396e-05
2398,1724817052853886719,-1.6827983856201172,-0.6802479028701782,0.170768991112709,-0.0134393703192472,-0.0212709475308656,0.5122299790382385,-0.8584797382354736,0.0,0.0,0.0,-0.3415622141638157,-0.0367852464422139,-0.0975980469868884,1.569260303,0.0956510231032383,-0.2442968547027065,0.0037140356032429,4.706593235250305,-3.5789977898242817,1.904172931117918,0.0012852468070222,0.050310673097192,-1.0759039823912022,-0.0046404116044556,-0.0195926339036418,-0.0139943282220151,-2.0426577950622953,-20.693485861627167,-54.86276069390789,-0.0001352394570379
2400,1724817052864202876,-1.682861328125,-0.680460512638092,0.1706356257200241,-0.0129595827311277,-0.020176064223051,0.5123030543327332,-0.8584699034690857,0.0,0.0,0.0,-0.3695572870866257,-0.1719614790578432,-0.6587270488748536,1.57957646,0.0292028678075031,-0.2300216277903536,-0.0122647059855245,-1.294757457605006,3.0312100072231427,-2.1350291998385185,0.0015801207228456,0.0479379139037018,-1.0760340077253792,-0.0066718030276149,-0.0195016358578499,-0.0149983013450665,-0.3398280081641189,-14.694974728275085,-46.593145181949595,-0.0001254307110029
2402,1724817052875161063,-1.6829410791397097,-0.6806613206863403,0.1704471707344055,-0.0128086786717176,-0.0191332716494798,0.5125234723091125,-0.858364462852478,0.0,0.0,0.0,-0.3456487701726526,-0.3515185299004875,-1.0785092134989671,1.590534647,0.0749198495704862,-0.1776286166437702,-0.0424833491543145,2.051673301066473,-14.181531409497715,1.8230049929306065,0.0023790455223486,0.0459923506812612,-1.0765039064294766,-0.0127310836559075,-0.0234903605370817,-0.0287516259232969,27.88402271549662,5.772272997481113,29.67815852527917,-0.0001814737089609
2404,1724817052884846637,-1.6831110715866089,-0.6809330582618713,0.1700697839260101,-0.0119438329711556,-0.0169579423964023,0.5124989748001099,-0.8584372997283936,0.0,0.0,0.0,0.1444544457320837,-0.1059221970765926,-0.2090496052489989,1.600220221,0.0766403365161732,-0.4773199552903481,0.0143872041856942,10.47996004783273,-3.305948822813386,-0.9958750102291662,0.0031268876230284,0.0413688635163101,-1.0763771813973328,-0.0143042737360445,-0.026788211745945,-0.0376860876129718,25.749611646953618,9.39680256821227,66.65109090772427,-0.0003696346691339
2406,1724817052893729567,-1.6832116842269895,-0.6811606884002686,0.1697454303503036,-0.0122663127258419,-0.0153097538277506,0.5127244591712952,-0.8583290576934814,0.0,0.0,0.0,0.1707241922366805,-0.1524749671794885,0.1946743013410306,1.609103151,0.2536640899578276,-0.2815407947873488,-0.0504076570638536,6.100378612874062,16.033755927333743,-4.129848728547522,0.0053617704070921,0.0388698774019378,-1.07683590206319,-0.0105210001659798,-0.0258181254516252,-0.0337311261424977,-16.473891204575224,-22.31227744655461,-6.831460944972168,-0.0003171157562509
2408,1724817052904190462,-1.6833118200302124,-0.6814331412315369,0.1694268584251403,-0.012418801896274,-0.0140755428001284,0.5129930973052979,-0.8581874370574951,0.0,0.0,0.0,-0.2409839576776774,-0.5961890239934435,-0.5208457987849737,1.619564046,0.1471281404346475,-0.1878044437273235,-0.0546260124621159,-17.654597577159194,-2.4780040677864967,-1.7044549570560892,0.0068787459454912,0.0369088066286178,-1.0774197264897063,-0.0118786731693631,-0.0306368660098783,-0.0347813171209416,0.1414655417709287,-11.402612709574267,-16.41947911174241,-0.0003097487228303
2410,1724817052913738346,-1.6834453344345093,-0.6817656755447388,0.1690570563077926,-0.0112967249006032,-0.0130175808444619,0.513342022895813,-0.85801100730896,0.0,0.0,0.0,0.1045773771314317,-0.4347879034453235,-0.2246340170845113,1.62911193,-0.0865370457890654,-0.3111469108695436,-0.0822393787444796,-9.085418410491334,-7.668408643557024,5.140520305047989,0.0060239923656006,0.0339431400123738,-1.0782246386224044,-0.0151486051574067,-0.0375104314199887,-0.0434183612418426,36.71431470168946,4.703133562809665,29.970973532385113,-0.000360125761575
2412,1724817052923879812,-1.683611512184143,-0.6821749806404114,0.1685662418603897,-0.0103790592402219,-0.0116019351407885,0.5131139755249023,-0.8581792712211609,0.0,0.0,0.0,0.4825358288949587,-0.5185225245169618,0.0679744417578833,1.639253396,-0.0129224442744596,-0.3323642051968408,0.0564199425699743,10.681005901532195,14.504052003997854,-0.3704942530566413,0.0059107527621841,0.0305691219573268,-1.0776722491636612,-0.0092723881891885,-0.0388485554813939,-0.0383718877874486,17.131295113957464,-5.769354691997414,22.307992844243827,-0.0004799509563871
2414,1724817052935081036,-1.683627367019653,-0.682591438293457,0.1682604551315307,-0.0111893722787499,-0.0113508887588977,0.5137051343917847,-0.8578187823295593,0.0,0.0,0.0,0.4252938645353308,-0.5523741228099963,0.2368822204792473,1.65045462,0.1490568142036856,0.0354223501654085,-0.1214662521297266,6.9045619277707,-11.894145559650775,4.080395533527984,0.0075385752695441,0.0309750400729253,-1.0790308787580325,-0.0050660799709589,-0.0494392627336921,-0.0429257972624537,9.435009642016931,26.100196986831396,33.916912656087106,-0.0002929064143393
2416,1724817052943961464,-1.683698058128357,-0.6831167936325073,0.1677692383527755,-0.0109123634174466,-0.0095227565616369,0.5135205984115601,-0.8579549789428711,0.0,0.0,0.0,0.611486979831799,-0.1155579942413753,0.6707040396137789,1.659335048,0.1571723547534256,-0.3851138977852764,0.0553069478987674,-2.327575072187582,-20.021351348129173,6.634908715018623,0.0089478849080416,0.0275511249762001,-1.0785675983062477,-0.0009388719459053,-0.0515768176589546,-0.0362920770296701,11.357090947242352,7.472931078158503,-12.86405118343791,-0.0004763983410084
2418,1724817052954683119,-1.6836172342300415,-0.6835716366767883,0.1676263660192489,-0.0106480997055768,-0.0081457365304231,0.5137476921081543,-0.8578366637229919,0.0,0.0,0.0,0.6088611484738754,-0.5754303002525196,-0.2661044748502417,1.670056703,0.0902576029106482,-0.2459466366437625,-0.0453443887488693,-9.386354357900046,4.559582278082978,2.6416581257003293,0.0099021899639932,0.0249188750130223,-1.0790789968126744,0.0075166944807989,-0.0511958208653027,-0.0300887020155382,-3.176222903853784,-7.876414627693279,2.525309831752679,-0.000130459434963
2420,1724817052964860924,-1.683540940284729,-0.6841774582862854,0.1671581715345382,-0.0097620794549584,-0.0070074363611638,0.5133339762687683,-0.8581047058105469,0.0,0.0,0.0,0.5482131616211661,-0.3172912108389503,0.6281767318844191,1.680234508,-0.0356630393287914,-0.2808944740335902,0.0977637251710779,-3.686952064875952,-2.078503534674944,7.282739781776124,0.0095619324832827,0.0220504292159876,-1.0781113078119626,0.0119765872588999,-0.0629553073573987,-0.0409580514920673,0.0558834893856996,67.36083788824308,108.06112045711272,-0.0004533981228936
2422,1724817052974109223,-1.6833925247192385,-0.6847885251045227,0.1668217629194259,-0.0090930117294192,-0.0058492147363722,0.5129174590110779,-0.8583698272705078,0.0,0.0,0.0,0.5992758731923816,0.658618901624,1.797273142229823,1.689482807,0.003225997197896,-0.2887282017469515,0.1081559915247176,10.355401778851098,-6.085004383693857,-4.342321608468333,0.0096119563403871,0.0193707192007367,-1.0771365875362016,0.017971159742018,-0.0588464700122095,-0.0208948068036152,-9.065572878061973,7.963362893507672,-51.09593061019377,-0.0003230184897981
2424,1724817052984527844,-1.683182716369629,-0.685316801071167,0.1667857617139816,-0.0088074626401066,-0.0035100476816296,0.5129467844963074,-0.8583680987358093,0.0,0.0,0.0,0.333618282402248,-0.4034776454338078,-0.8184943884100296,1.699901428,0.183302597934438,-0.4136036967771389,-0.0012398707644201,13.935395821724285,12.803518144784842,-3.8977995958037743,0.0115207161768883,0.0150619146792648,-1.077195143421813,0.0236407854647779,-0.0494688687301057,-0.0065373480054686,-9.64323056124493,-75.22294762823401,-174.94209916724787,-2.6736324095595883e-05
2426,1724817052996592081,-1.682848572731018,-0.6858963370323181,0.1666638404130935,-0.0106554375961422,-0.0030164029449224,0.512719988822937,-0.8584845066070557,0.0,0.0,0.0,0.4387724775613641,-0.9377239128250778,-1.865595311502632,1.711965665,0.3046417122436557,0.0871622158403264,0.043967878280987,-14.59833342236243,-59.87033725735261,35.9173423681364,0.0152044738120846,0.016106278430029,-1.0766506203490591,0.0247241076532844,-0.0725469405026686,-0.0470971988269202,15.690658172230386,78.93330548610277,71.235825015849,-0.0001114166387764
2428,1724817053004621299,-1.6826659440994265,-0.6866098046302795,0.1660880148410797,-0.0089281434193253,0.0003432561061345,0.5110180974006653,-0.8595236539840698,0.0,0.0,0.0,0.602026044497822,0.3544892122946397,-0.4491555712702904,1.719994883,0.0556723958995322,-0.9352924738645164,0.5042651654487273,-19.14030071711496,-42.500932766884375,14.837782897730818,0.015699937843029,0.0085349158620467,-1.0727181295925698,0.0301119518864965,-0.0748648529319631,-0.0540800988814504,-12.731538603376723,101.07344561842396,90.14937654297415,-0.0005668079347079
2430,1724817053014342870,-1.682286500930786,-0.6871728897094727,0.1657698601484298,-0.0080977026373147,0.001834376482293,0.5104123950004578,-0.8598896265029907,0.0,0.0,0.0,0.0890717157067737,0.6324284312673454,-0.5881116704823048,1.729716454,0.0092878935224884,-0.3498385358647373,0.1483776873133384,-1.9007203988344776,19.726672735110164,-8.440783960959227,0.0157997017247599,0.0051116352379097,-1.0713290963401167,0.0351523737091383,-0.0638480996063393,-0.0534966868826121,-42.512954579120674,3.9918725623372815,7.926890086351408,-0.0003156572198358
2432,1724817053023906481,-1.6819868087768557,-0.6878392696380615,0.1650628298521042,-0.006845970172435,0.0041207782924175,0.5090630650520325,-0.8606921434402466,0.0,0.0,0.0,-0.2210563945346779,0.4391810921185541,-0.3032469146591952,1.739280065,0.0181171521378053,-0.5421706033347654,0.3326568108881618,-2.424911103037539,-11.80197890044057,3.744566341853604,0.0159806978510391,-0.0001233818841296,-1.0682305613066132,0.0319642720916562,-0.0625114283853243,-0.0652188476909465,21.168052223070013,-44.0671860666461,33.27826390914777,-0.0007060975268448
2434,1724817053034574062,-1.6816383600234983,-0.688420832157135,0.1644707471132278,-0.0050778128206729,0.0066114659421145,0.5082197785377502,-0.8611871004104614,0.0,0.0,0.0,0.642493423622964,-0.3148268910830731,0.0933022839292139,1.749947646,-0.0475900798649926,-0.5692023656680926,0.1878798478548499,6.840538007351867,0.9067554154822446,-7.257038430712907,0.0154669657682044,-0.0062261687802923,-1.0663220845276673,0.0309424047116806,-0.054263696614786,-0.0574774480490987,73.43510855532732,-65.01845853934725,40.945491745728454,-0.0005965887277799
2436,1724817053045938832,-1.6813075542449951,-0.6890344619750977,0.1637936234474182,-0.0044950130395591,0.009689456783235,0.5073349475860596,-0.8616827726364136,0.0,0.0,0.0,1.3860694413740149,-0.985172955736676,0.6043102726020182,1.761312416,0.1875496413770076,-0.517238141599538,0.1818599149475992,24.499104912740655,19.5361767051906,-3.566250092001466,0.0175803512164649,-0.0121378195982079,-1.0643525958508226,0.0471830017249317,-0.0710144424417364,-0.0640737873101482,-61.62802961240945,33.1934046464894,50.97338069998957,-0.0006852813497205
2438,1724817053053712423,-1.6808446645736694,-0.6896770000457764,0.1632716506719589,-0.005260030273348,0.0114343762397766,0.5068618059158325,-0.8619354963302612,0.0,0.0,0.0,0.2314155855353958,-0.2370125888596268,1.0325083891966842,1.769086007,0.3982481922753676,-0.2858065272140989,0.1379914179966191,18.72934564865844,15.243074504114654,-5.08403768522413,0.0206625170877129,-0.0143796681857243,-1.0633225476024917,0.0577293090426991,-0.0760740173872278,-0.0530766828243614,-140.4793752604878,72.74087548201416,-2.258955480732885,-0.0005350213905336
2440,1724817053063749288,-1.680288791656494,-0.6903552412986755,0.1629212647676468,-0.0065041803754866,0.0140408063307404,0.5064331889152527,-0.862140417098999,0.0,0.0,0.0,-1.0741575173341231,0.1885005476608583,0.266727035028059,1.779122872,0.4776989781760845,-0.3210892578383506,0.094210799659004,-17.06992749760911,-21.265842215137965,7.817637184094371,0.0254431898277615,-0.0176233398699482,-1.0624514095967927,0.0454695409881082,-0.0730897027022621,-0.0476660660984471,6.556163994552094,-58.5741262813002,-63.509794061946224,-0.0003693770507474
2442,1724817053074407007,-1.6799163818359375,-0.691196620464325,0.1622688919305801,-0.0045199859887361,0.0175260249525308,0.5050045251846313,-0.8629269003868103,0.0,0.0,0.0,0.5419994749485584,-1.5784316263180656,-0.2654314883052424,1.789780591,0.0130084807243919,-0.7486169565654739,0.3153654480396746,-21.905285164450987,-6.933643690956803,5.395882986632331,0.0255134611231519,-0.0256849540603533,-1.059293832017686,0.0356886475237985,-0.072312397738127,-0.047905512997378,91.09784818263572,-132.30678816617606,-33.338526978938965,-0.0006732401270282
2444,1724817053087546381,-1.6794353723526,-0.6920393109321594,0.1618549823760986,-0.0039358977228403,0.0194977186620235,0.5042237043380737,-0.8633439540863037,0.0,0.0,0.0,0.7582217722508471,-2.774486157857959,-0.4346872320242605,1.802919965,0.076638107339372,-0.3022299488239389,0.1375338112500741,45.07657780429673,17.509318524202765,23.124930963017327,0.026473257990991,-0.029701696092224,-1.0575898756987523,0.066456146339874,-0.1198022729359138,-0.0553288701614604,-131.12757036616424,213.667633156151,174.35620938649495,-0.0004425274727801
2446,1724817053094077784,-1.678904414176941,-0.6930025219917297,0.1614162474870681,-0.004927004687488,0.0210093837231397,0.5030444264411926,-0.8639911413192749,0.0,0.0,0.0,-0.5773807267048872,-0.3896893588609291,1.3120029088783762,1.809451368,0.5016776727809107,-0.2413224461051338,0.4075923720462596,21.22983878038451,-12.842851400580296,23.356771470664334,0.0296700151994116,-0.0313519743139574,-1.05497186140692,0.0662676058737616,-0.1351969026117139,-0.05774500111779,-114.75211968295828,313.6720427710088,252.78265498599063,-0.0004723931859224
2448,1724817053103699053,-1.678479790687561,-0.6941292881965637,0.160994291305542,-0.0035967307630926,0.024045143276453,0.5014801025390625,-0.8648275136947632,0.0,0.0,0.0,-0.409606067014816,1.8989572835327555,3.536504139462549,1.819072637,0.0845048002746449,-0.6790740691637556,0.3773306603103915,-18.837134677337545,17.659154022032602,-8.668009234969663,0.0303639979280059,-0.0379915637128045,-1.051537093534377,0.0529384458067738,-0.1110634984406573,-0.0212840953372515,52.29189426931568,25.4489373407902,34.90780477029142,-0.0004608128522828
2450,1724817053113621238,-1.6778644323349,-0.6951693892478943,0.1610140800476074,-0.0045602396130561,0.0238078385591506,0.5004518032073975,-0.8654250502586365,0.0,0.0,0.0,0.4658877847374305,-0.0221724614920839,1.8742356043066608,1.828994822,0.1485240994379031,0.1424030157996018,0.234813808075024,3.355846833244386,42.244166098032785,-9.859435834198765,0.0317490952627924,-0.0366516448927772,-1.0491629156472393,0.0588589269544073,-0.0984571988919498,0.0112157924586853,46.34453119272603,-176.47709823313414,-193.97982102387715,-2.4976116087532337e-05
2452,1724817053125954103,-1.6771869659423828,-0.6962860226631165,0.1612937599420547,-0.0054227407090365,0.0240293126553297,0.4994564950466156,-0.8659886717796326,0.0,0.0,0.0,0.3952843343151455,-1.935858766314306,-0.9235394633933608,1.841327687,0.1424475256893221,0.0418278237566535,0.1822619009732094,6.891097776773959,-22.015576782355755,7.636047721081738,0.0334233836977277,-0.0362092908559325,-1.0468978575540475,0.0625995400713748,-0.1185465883886678,0.0128505224240154,-32.8449471794622,59.18180459007377,-77.0680122322139,0.0002311605127533
2454,1724817053135322008,-1.6765459775924685,-0.6975958347320557,0.1613442152738571,-0.0058220438659191,0.0257119853049516,0.4980597496032715,-0.8667418956756592,0.0,0.0,0.0,-0.105384176925297,0.1438231385429969,-0.5796560757118494,1.850695592,0.2595440686965029,-0.263040083522513,0.3384530512354051,-25.687532651790868,-16.323567007232636,10.226352302625145,0.0357391031845506,-0.0387815789378435,-1.0438122229351807,0.0669570323100146,-0.1388655502005917,-0.0033159862921099,-75.03242691517147,270.2012735318501,96.9067286186386,-2.2298823366829126e-06
2456,1724817053143986443,-1.67597758769989,-0.6987913846969604,0.1612457484006881,-0.0041776928119361,0.0261715371161699,0.4966857135295868,-0.8675257563591003,0.0,0.0,0.0,-0.9284941841099476,2.8712334638472967,0.7424005962804308,1.859360027,-0.269048856759635,-0.2744884275905027,0.3753964679498492,-36.54627612573679,7.600261227713809,-7.558611595566709,0.0332810469345662,-0.0412706792399605,-1.0406410857496975,0.0614717866353942,-0.119084943088179,0.0008460474537201,286.86763470958243,-624.2940651937655,-126.81381674498311,-0.0001489133794159
2458,1724817053155127753,-1.675351858139038,-0.699847400188446,0.1614301055669784,-0.0024139455053955,0.0255725290626287,0.4961450099945068,-0.8678596615791321,0.0,0.0,0.0,7.738296316356813,-17.537654321218735,-4.673196223453212,1.870501337,-0.3257891342070928,-0.061999077054717,0.121812911077084,-0.8690991065953811,14.886360398738857,-17.067081848503975,0.0295957179908684,-0.0420037490196261,-1.0393051608054296,0.0468949125462341,-0.0786679735900612,0.0128714430765812,883.5617639766938,4529.787078608674,4061.8287215601927,0.000132468827288
2460,1724817053185679707,-1.674695611000061,-0.700900673866272,0.161515399813652,-0.0027230668347328,0.0250285118818283,0.4951164126396179,-0.8684617877006531,0.0,0.0,0.0,43.58546496483768,653.8334127280868,500.4488184024873,1.901053291,0.0015195662291894,0.0421171383774602,0.0773896020456329,-4039.968733753524,-24598.810343469464,20963.530716128855,0.0295426770111607,-0.0407874503488008,-1.0369016329124598,1.0412464638548045,-2.3877138415232366,-0.6118538448127424,-153512.92716224212,291387.4885340354,49196.093819173286,3.376513119741497e-05
2462,1724817053186130233,-1.6742197275161743,-0.7019920349121094,0.1612356603145599,-0.0010579731315374,0.0270202774554491,0.4932408332824707,-0.8694723844528198,0.0,0.0,0.0,-26.60376709302534,786.9009116317393,522.8299354965645,1.901503817,-1.8455023275431068,-11.203732752468056,9.661287332367856,1875.4449088183203,-6347.995837671341,8464.672107808727,0.0285287555156284,-0.0459592769486734,-1.032693368809126,1.0609561887038126,-2.088299004547366,-0.3829280324897723,-156695.7489917507,242638.00259198225,11927.988456065885,-0.0003292696923707
2464,1724817053186711096,-1.6735999584197998,-0.7029548287391663,0.1611914634704589,-0.0018216349417343,0.0277946796268224,0.4919520616531372,-0.8701766729354858,0.0,0.0,0.0,-118.29788147951184,888.3562741484309,501.4874244604743,1.90208468,3.7186995075991858,-0.9512003997330284,4.986098692221871,8813.14152663539,16324.02704921145,-7488.223928265355,0.0305555040406932,-0.0465971103703894,-1.0298117756615932,0.9928159644823468,-1.5396175558041438,-0.0682266509895677,-145437.69120446016,153153.7289171357,-39278.13734189735,-9.849638107683936e-05
2466,1724817053193773932,-1.672956943511963,-0.7037033438682556,0.1613847315311432,-0.0030814874917268,0.0267947930842638,0.4912233054637909,-0.87061607837677,0.0,0.0,0.0,-78.82683998593386,122.85860437800382,6.338121214440218,1.909147516,0.1766579778475231,0.4257229434379247,0.2303534791690282,-304.9466721156209,94.5429553680904,-396.8197704649818,0.0317255638608185,-0.043642411082494,-1.0280902556985625,0.0723392405292031,-0.0951731759636445,0.0132194617738843,6331.40150188401,-69409.19230637701,-42113.54015495922,0.000145351706047
2468,1724817053204241118,-1.672489881515503,-0.7045319080352783,0.1613036841154098,-0.0028183667454868,0.027535917237401,0.4895503222942352,-0.8715356588363647,0.0,0.0,0.0,-1.0314908184706852,0.9333029420931158,-0.2354745304667299,1.919614702,0.0338149845067992,-0.1422904688325383,0.3663982717093953,-8.181661770597064,-18.64278986506963,2.4074863736159653,0.031911127523059,-0.0452530464166777,-1.0243006272607258,0.0461350739012829,-0.0758558230836854,-0.0010025803301898,3731.6980549374366,-5806.27506465868,-281.9731813173121,-0.0001228977044906
2470,1724817053214514714,-1.6720006465911863,-0.7052779197692871,0.16136135160923,-0.0028637882787734,0.0274385679513216,0.4882757365703583,-0.8722532987594604,0.0,0.0,0.0,-0.0089518161707329,0.1909069305450055,0.3570337568680792,1.929888298,0.0048675120324312,0.0253918148985187,0.2843488637616699,-10.76779069599278,8.497989644967005,-3.146400303337451,0.0318287834976362,-0.045085398733259,-1.0213695188912206,0.0503806681355314,-0.0754658188033232,0.0079046569377716,16.851647532481365,-37.68955926628226,-47.15546530405407,1.6530894689865237e-05
2472,1724817053223581278,-1.671521782875061,-0.7059849500656128,0.1614513546228408,-0.0022970132995396,0.0269387029111385,0.4871294200420379,-0.872911274433136,0.0,0.0,0.0,-0.5177094962238267,0.1258223634998398,-0.9092723365513196,1.938954862,-0.1563711092842104,0.0398393874127486,0.2945486109394976,-7.101815763520731,-1.5968752524787833,-1.331548770065469,0.0302904761018562,-0.0448073011883384,-1.0186863751476871,0.0469212997628147,-0.072511182257088,0.0070612876514086,-37.33901271861538,-1.9889047633914816,-104.22496952478708,5.05578549157541e-05
2474,1724817053234465782,-1.6710880994796753,-0.706702709197998,0.1614907681941986,-0.0017626988701522,0.0267836917191743,0.4859649837017059,-0.8735660314559937,0.0,0.0,0.0,-0.6787991585437094,0.1719866960953617,-1.5805807681288897,1.949839366,-0.0940888408887432,-0.019230316843239,0.24795593690874,11.57271956321278,-26.226097935571147,10.064808679836574,0.0291452937603526,-0.0450967107863202,-1.015992114221231,0.0395071281072176,-0.0737558488873233,-0.0135016308011159,63.75706396952424,-4.849539379439812,111.25220917969963,1.8455676177453004e-06
2476,1724817053243962859,-1.6707156896591189,-0.7074679136276245,0.1612206548452377,-0.000953740091063,0.0287637189030647,0.4840400516986847,-0.8745724558830261,0.0,0.0,0.0,0.5776691492857702,0.0505990692887423,0.908956871552996,1.959336443,0.0642993059941836,-0.440653748946634,0.4624158223028493,6.819558118783714,-19.170850828269792,9.333349335276612,0.0295541773093957,-0.0494087162377401,-1.0117204133324418,0.0330801464711427,-0.0697497302272331,-0.0259552198261312,83.85016844127507,-35.6552418458261,137.32031490182953,-0.0003087774227963
2478,1724817053258431796,-1.6703722476959229,-0.7082385420799255,0.1608999222517013,2.2520291167893447e-05,0.029603399336338,0.482118546962738,-0.8756057620048523,0.0,0.0,0.0,0.7228696988773526,-0.9695131779023196,0.1444164044766664,1.97380538,-0.0543353479410464,-0.1624661385477477,0.3054182046187225,-3.9380554747464105,51.6029820984612,-30.09210325718684,0.0285475499212671,-0.0518868077976263,-1.007365972708449,0.0690899845080252,-0.0772008187773849,0.0361391280882372,-233.66429931725384,86.06918155511889,-360.33999405851296,-0.0003599953810911
2480,1724817053264366861,-1.669851779937744,-0.7087550163269043,0.1612563580274582,-0.0001140002714237,0.028928592801094,0.4819165468215942,-0.8757395148277283,0.0,0.0,0.0,-1.2572360742386903,-0.0775065395768024,-2.7428411602081417,1.979740445,-0.0673339388932245,0.2226221869149968,0.0799758480273008,-6.0285001602453185,23.88027146603736,-10.870621339289334,0.0281216698353279,-0.0505795098046395,-1.0068534187105538,0.0690811368657478,-0.0840615361029861,0.0268999157002971,-222.8582220200421,150.56181539180898,-254.4505681269145,0.0003151136500285
2482,1724817053273917976,-1.6694780588150024,-0.7095124125480652,0.1610036641359329,0.0011225866619497,0.0292562916874885,0.4802976250648498,-0.8766167759895325,0.0,0.0,0.0,-1.6832096511816002,1.3646379541664984,-1.60684824628765,1.98929156,-0.1839097121287031,-0.179528375505265,0.3929029230981853,-2.2844372830743045,-21.0241317213451,13.219675833435875,0.0261742021950274,-0.0523954336867311,-1.003143631123635,0.0377719336124613,-0.068225593636761,-0.0175283843122944,60.877560656290306,22.316638329220343,185.38962427084135,-0.0002938031194185
2484,1724817053285818544,-1.6690486669540403,-0.7101601362228394,0.1609274595975875,0.0018364620627835,0.0296826548874378,0.4789488315582275,-0.8773389458656311,0.0,0.0,0.0,0.6052750400277174,-0.2777779921744834,1.5847316617398182,2.001192128,-0.0639872862303651,-0.1171399412885215,0.2604309658074018,5.270653856060328,7.778137373708196,-11.693336552844292,0.0252498520241889,-0.053868690252953,-1.0000769490320345,0.0413892712318642,-0.0563358874177808,0.0084971734558934,55.88756348666423,-107.12636920017805,8.11226260760023,-0.0001181825279514
2486,1724817053294881634,-1.668636918067932,-0.7106838822364807,0.1611073166131973,0.0021163425408303,0.0296900607645511,0.4783564507961273,-0.8776611685752869,0.0,0.0,0.0,0.170245701479899,-1.035499456339411,-0.1368244164650048,2.010255218,-0.0493932695984346,-0.0291444422740972,0.1505757746398737,7.944678913160482,25.12782041682993,-6.441324896272553,0.0247287862427731,-0.054166843188526,-0.9987172743533252,0.048954633639326,-0.067666540245483,0.0187033588826199,-74.53546409691528,-2.053004122108508,-176.7439363792358,0.000142090867353
2488,1724817053303734273,-1.66817307472229,-0.7113683223724365,0.1612630188465118,0.0011493708007037,0.0285801049321889,0.4777947068214416,-0.8780057430267334,0.0,0.0,0.0,-0.7190430263092136,-0.3484860102594935,-1.5872597437927731,2.019107857,0.075712217616053,0.326628906082313,0.1426670356526064,7.494612606247319,2.1805720659519263,6.0354856512057165,0.0253285732712431,-0.0513078273908945,-0.997380476903698,0.0447157885776619,-0.0749769327209151,0.0065712710338834,-51.53342336490762,83.49069407678151,-41.97974582824715,0.0001126039585539
2490,1724817053313864352,-1.6678091287612915,-0.7121007442474365,0.1612018793821334,0.0010806393111124,0.0291677042841911,0.476519227027893,-0.8786793947219849,0.0,0.0,0.0,-0.6739929819692128,0.5655016672280255,-0.5999067684219174,2.029237936,0.0746936178154529,-0.0918628624380121,0.284125341048225,2.740390306737241,-23.138335427572127,7.410048121554361,0.0259372578801048,-0.0523118678917816,-0.9945231968096,0.0346472276438731,-0.0729743223147743,-0.0120210372584308,13.191515910858229,77.04839524878815,116.78005737584267,-0.0001010663971176
2492,1724817053324764121,-1.667446494102478,-0.7129040360450745,0.1610006541013717,0.0008061652770265,0.0301510076969862,0.4751164317131042,-0.8794058561325073,0.0,0.0,0.0,-0.42765517578668,1.2507754353987068,0.8994659838650272,2.040137705,0.1378816417132768,-0.1309280952995675,0.2880266167370594,-1.639583628654771,-3.2386083434782287,-8.407684524822356,0.0272754586585116,-0.0538219717397756,-0.991418512390313,0.0310530291791835,-0.0624968057208903,-0.0040705991920209,204.24786446690683,-354.8511825233206,34.730827617932604,-0.0002439655359832
2494,1724817053338158395,-1.667067050933838,-0.7135567665100098,0.1611829996109008,0.0013871907722204,0.031123274937272,0.4749331474304199,-0.8794702291488647,0.0,0.0,0.0,5.2979556056191335,-10.377758387453833,-0.3278746026219176,2.053531979,-0.0064862014994098,-0.1686211751315247,0.0311328027855153,-8.380162797265,-1.1698630295742456,-14.578434587043724,0.0271690294578586,-0.0560910409321706,-0.9910625570887698,0.0237134113672059,-0.040978255973922,0.0107761029188274,-2481.0642823021312,4154.804858883192,-53.74937620419849,0.0001408299952337
2496,1724817053380424408,-1.6666803359985352,-0.71425461769104,0.1612600088119506,0.0021526105701923,0.0306896958500146,0.4744283258914947,-0.8797563910484314,0.0,0.0,0.0,-487.4822387873701,835.1517777351146,2.452784860286215,2.095797992,-0.0408354743558104,0.0012304296203401,0.0285954160794522,7977.221004574001,-5484.170942621786,20991.53343995264,0.025375173546525,-0.0560708068657564,-0.989851151253756,1.0273169440142738,-2.077970990939093,-0.1946449691365046,-34878.164707214804,-942126.9824644864,-398598.41015802743,3.380645584734442e-05
2498,1724817053380808862,-1.666281819343567,-0.7150607109069824,0.1611844897270202,0.001878279261291,0.031324379146099,0.473026692867279,-0.8804891109466553,0.0,0.0,0.0,-500.9724864251889,469.5827010901494,-152.18410297318488,2.096182446,3.0539383526144244,-2.1263733067895765,8.172282328792756,5167.86752380271,-3123.225955391788,11976.736652440815,0.026372763007971,-0.0569693126200627,-0.9867265251623653,0.8381146783452778,-1.7538044739892484,-0.1936764125855603,92932.16338683116,-1009040.3451088188,-328478.1521184015,-0.0001231994405719
2500,1724817053381543680,-1.6659446954727173,-0.715867817401886,0.1610460430383682,0.0011977332178503,0.0321437567472457,0.4716847538948059,-0.8811804056167603,0.0,0.0,0.0,-252.88073393351976,-353.56526222951015,-289.98032407833057,2.096917264,2.8037819085379385,-1.0353659575142775,4.04374085057018,-20219.928608076298,-15657.3077400513,10265.52118379001,0.0282635752773684,-0.0578109986338506,-0.9837721354060146,0.4575753490676106,-1.9334656128598908,-0.5227816865528894,352190.8507339236,-165907.66823212808,202243.02384811177,-0.0001830548933729
2502,1724817053381884603,-1.6657888889312744,-0.7166590690612793,0.1608149260282516,0.0030698848422616,0.0329245328903198,0.4702104032039642,-0.8819345831871033,0.0,0.0,0.0,-130.50659288192995,-259.1825178651657,-159.38029489745983,2.097258187,-7.234059605173599,-9.084712941608606,10.055911899897175,-25410.226531904867,-20180.513672518435,14937.922931066592,0.0255984411177057,-0.0609993739259977,-0.9804224199656,0.4132764957371506,-2.0712557417763264,-0.596668235234592,314976.4232646716,288203.4890770198,353753.369671578,-0.0002679941550355
2504,1724817053384261022,-1.6655312776565552,-0.7174457311630249,0.160742849111557,0.0040837172418832,0.0327023193240165,0.4693208634853363,-0.8824125528335571,0.0,0.0,0.0,-110.40181695809112,613.8664208946147,195.52883425163785,2.099634606,-0.8145583702998643,-0.2253226973733643,0.8780642381670604,2207.8751875986195,3034.568592745899,-3148.091989960318,0.0235355023438515,-0.0615859450012004,-0.9783458400546104,0.0937194718133902,-0.2855087981075161,-0.0255107365605464,8829.332295298898,287192.22867968323,117681.31544026815,-0.0001156173339937
2506,1724817053394517025,-1.665220022201538,-0.718359112739563,0.1606945246458053,0.0036836164072155,0.0317524895071983,0.4684552550315857,-0.8829087615013123,0.0,0.0,0.0,-3.5057394696598143,10.01907563613928,0.91078328208238,2.109890609,-0.0121659814114857,0.2025369331035519,0.1925700405880919,41.66054497836392,14.25115358542268,-36.988977999396695,0.0232880354240134,-0.059555520904588,-0.9763189485819682,0.0267487637985297,-0.0792043177568935,-0.0037752370910295,5814.92878046173,-32427.97876794858,-10294.84508975858,-9.77168995916638e-05
2508,1724817053406767867,-1.6649450063705444,-0.7191852331161499,0.160661980509758,0.0039893533103168,0.0317764468491077,0.4675085246562958,-0.88340824842453,0.0,0.0,0.0,0.3021646483985964,-0.1976469921932864,1.8277565655042336,2.122141451,-0.0370282929475818,-0.0248152158429842,0.1762300869236145,-9.880929075790425,-12.009300033590552,13.57792769426619,0.022705746180091,-0.0599090940517034,-0.9741637112016888,0.028055168271976,-0.1042099000072056,-0.0103023613962953,70.17948750126645,-111.84088522326036,57.29101615851545,-7.725995696912895e-05
2510,1724817053413606621,-1.664731740951538,-0.7200382947921753,0.1605623364448547,0.0045622792094945,0.031804371625185,0.4665368795394897,-0.8839179873466492,0.0,0.0,0.0,-0.1365896044682611,1.794250674303143,2.1525236228178937,2.128980205,-0.1345752270479787,-0.0819433666663804,0.3260128233165127,-0.2229361825432017,5.5041257716846825,2.257923669550424,0.0216517898640611,-0.0605187904794855,-0.9719431320606609,0.0308680366369102,-0.0985239106994591,0.0112087883925617,-64.97260308913792,157.3809128859812,-96.4110195135957,-0.0001427168633476
2512,1724817053424206222,-1.6644097566604614,-0.7206519246101379,0.1611046642065048,0.0036232001148164,0.0310795083642005,0.466398149728775,-0.8840212821960449,0.0,0.0,0.0,-0.8386717855679113,1.2628706815070396,-1.2334822561314724,2.139579806,0.0937350252814157,0.2040618338122021,0.0272192962459993,7.274615574764619,-4.561645307302138,-4.1873532387128645,0.0226253277245595,-0.0583627282843902,-0.9716061500317272,0.020418937705898,-0.0636878250548136,0.0177117745270551,-0.8892414744079886,-103.63588789963622,-166.5076173889203,0.0005029404797019
2514,1724817053437317858,-1.6643035411834717,-0.721580982208252,0.1607943177223205,0.0050649540498852,0.0330706350505352,0.464299738407135,-0.8850460648536682,0.0,0.0,0.0,0.2095390370855571,-0.9637440510598512,-0.936152109441866,2.152691442,-0.0422453422354637,-0.3673657439713896,0.3616012152207505,2.1525082209618116,-11.908689174238454,11.879975970909909,0.0217892762282141,-0.0632836159242486,-0.9669646553962672,0.011808870778907,-0.0799515420620338,-0.0284176135626799,75.68121417363355,-97.37260493404636,134.83081549814827,-0.0003522299974582
2516,1724817053448772716,-1.6641311645507812,-0.7225878238677979,0.1604212820529937,0.0050840293988585,0.0342935174703598,0.4624407887458801,-0.8859720826148987,0.0,0.0,0.0,1.033786236691424,-1.3541237345032258,1.730688977722543,2.1641463,0.1077391458396782,-0.1868125213191051,0.3613563568215093,1.225496718703887,18.419096944670837,-12.783381772190348,0.022759614341923,-0.0655151810618688,-0.962865395024237,0.0228776738266134,-0.0882224450699737,-0.0133014178913679,-11.219649542421598,-7.390588630884565,81.960131994305,-0.0004228078004511
