seq,stamp,px,py,pz,ox,oy,oz,ow,lx,ly,lz,ax,ay,az
412,1724816386440037127,-2.105059862136841,-1.1710821390151978,0.1388811618089676,-0.03798091411590576,-0.02438977174460888,0.3766763508319855,-0.9252445697784424,0.0,0.0,0.0,0.0,0.0,0.0
414,1724816386445495415,-2.10514235496521,-1.1710968017578125,0.13887682557106018,-0.03704570233821869,-0.024782368913292885,0.376808762550354,-0.9252181649208069,0.0,0.0,0.0,0.0,0.0,0.0
416,1724816386456605141,-2.1050398349761963,-1.1711055040359497,0.1390150785446167,-0.03770823031663895,-0.024710778146982193,0.376533567905426,-0.9253053069114685,0.0,0.0,0.0,0.0,0.0,0.0
418,1724816386462382584,-2.1051411628723145,-1.171143651008606,0.138970285654068,-0.03721955791115761,-0.024931762367486954,0.37685856223106384,-0.9251869320869446,0.0,0.0,0.0,0.0,0.0,0.0
420,1724816386472958537,-2.105135440826416,-1.1711493730545044,0.13895860314369202,-0.036965321749448776,-0.024799861013889313,0.37691882252693176,-0.9251760244369507,0.0,0.0,0.0,0.0,0.0,0.0
422,1724816386486765871,-2.1051502227783203,-1.17111074924469,0.13895834982395172,-0.03608396649360657,-0.024855712428689003,0.37719857692718506,-0.9250953197479248,0.0,0.0,0.0,0.0,0.0,0.0
424,1724816386492517925,-2.105043411254883,-1.1710649728775024,0.13899582624435425,-0.037028923630714417,-0.024716677144169807,0.37689927220344543,-0.9251837730407715,0.0,0.0,0.0,0.0,0.0,0.0
426,1724816386504719719,-2.1051688194274902,-1.1711273193359375,0.13891740143299103,-0.03667410835623741,-0.02479875087738037,0.3770035207271576,-0.9251531958580017,0.0,0.0,0.0,0.0,0.0,0.0
428,1724816386513234873,-2.1050896644592285,-1.171117901802063,0.13895264267921448,-0.03753512352705002,-0.024361608549952507,0.3766537010669708,-0.9252727627754211,0.0,0.0,0.0,0.0,0.0,0.0
430,1724816386522798155,-2.1051125526428223,-1.171111822128296,0.13897736370563507,-0.03734571486711502,-0.024565564468503,0.3767716884613037,-0.9252270460128784,0.0,0.0,0.0,0.0,0.0,0.0
432,1724816386536778524,-2.1051855087280273,-1.1711236238479614,0.1389348953962326,-0.03678276762366295,-0.02464207261800766,0.376998633146286,-0.925154983997345,0.0,0.0,0.0,0.0,0.0,0.0
434,1724816386547023467,-2.1051723957061768,-1.1711137294769287,0.1389750838279724,-0.03699468821287155,-0.024609947577118874,0.3771607577800751,-0.9250813126564026,0.0,0.0,0.0,0.0,0.0,0.0
436,1724816386554438086,-2.105173349380493,-1.1711057424545288,0.13897620141506195,-0.036435142159461975,-0.024737635627388954,0.3771781623363495,-0.9250930547714233,0.0,0.0,0.0,0.0,0.0,0.0
438,1724816386562669973,-2.105201482772827,-1.1711214780807495,0.13896475732326508,-0.03610367327928543,-0.024792823940515518,0.37717029452323914,-0.9251077771186829,0.0,0.0,0.0,0.0,0.0,0.0
440,1724816386572397201,-2.1051735877990723,-1.171111822128296,0.13896682858467102,-0.0363391675055027,-0.024751106277108192,0.37704184651374817,-0.925152063369751,0.0,0.0,0.0,0.0,0.0,0.0
442,1724816386582839367,-2.105120897293091,-1.1711289882659912,0.13892582058906555,-0.037163008004426956,-0.024448703974485397,0.37685954570770264,-0.9252016544342041,0.0,0.0,0.0,0.0,0.0,0.0
444,1724816386592679306,-2.105151891708374,-1.171116590499878,0.13895921409130096,-0.036675404757261276,-0.024533389136195183,0.37694451212882996,-0.9251843094825745,0.0,0.0,0.0,0.0,0.0,0.0
446,1724816386602935360,-2.105149030685425,-1.171081781387329,0.13899660110473633,-0.03688114508986473,-0.02454826608300209,0.3768872320652008,-0.9251989722251892,0.0,0.0,0.0,0.0,0.0,0.0
448,1724816386612519643,-2.105186700820923,-1.1711112260818481,0.1389600783586502,-0.036619044840335846,-0.02464332804083824,0.37707632780075073,-0.9251298308372498,0.0,0.0,0.0,0.0,0.0,0.0
450,1724816386625948729,-2.1052277088165283,-1.1711119413375854,0.13899271190166473,-0.03641066327691078,-0.024669893085956573,0.3771277368068695,-0.9251163601875305,0.0,0.0,0.0,0.0,0.0,0.0
452,1724816386633746014,-2.105189800262451,-1.171091079711914,0.13895386457443237,-0.03681791201233864,-0.024544382467865944,0.37699493765830994,-0.9251577854156494,0.0,0.0,0.0,0.0,0.0,0.0
454,1724816386660054927,-2.1051526069641113,-1.1710286140441895,0.13891513645648956,-0.03725133836269379,-0.024233626201748848,0.3769558370113373,-0.925164520740509,0.0,0.0,0.0,0.0,0.0,0.0
456,1724816386660715416,-2.1052002906799316,-1.171028733253479,0.13884858787059784,-0.03728705272078514,-0.02428979054093361,0.37720543146133423,-0.9250599145889282,0.0,0.0,0.0,0.0,0.0,0.0
458,1724816386662610873,-2.1052215099334717,-1.1710306406021118,0.1387745887041092,-0.03755092993378639,-0.024124087765812874,0.37715521454811096,-0.9250741004943848,0.0,0.0,0.0,0.0,0.0,0.0
460,1724816386672625300,-2.1052303314208984,-1.1710381507873535,0.13875073194503784,-0.03757745027542114,-0.02410006895661354,0.37697404623031616,-0.9251473546028137,0.0,0.0,0.0,0.0,0.0,0.0
462,1724816386683848383,-2.1052207946777344,-1.1710456609725952,0.13879257440567017,-0.037201784551143646,-0.02393566258251667,0.3770027458667755,-0.9251552224159241,0.0,0.0,0.0,0.0,0.0,0.0
464,1724816386692883732,-2.1052374839782715,-1.17104172706604,0.13874703645706177,-0.03669387847185135,-0.0240971390157938,0.37703603506088257,-0.9251576662063599,0.0,0.0,0.0,0.0,0.0,0.0
466,1724816386707818710,-2.105232000350952,-1.1710394620895386,0.13873390853405,-0.03649439290165901,-0.024119418114423752,0.3771081566810608,-0.925135612487793,0.0,0.0,0.0,0.0,0.0,0.0
468,1724816386715205999,-2.105210065841675,-1.171013355255127,0.13881103694438934,-0.03703439608216286,-0.02401416003704071,0.3770580589771271,-0.9251372218132019,0.0,0.0,0.0,0.0,0.0,0.0
470,1724816386722943007,-2.1052305698394775,-1.1710166931152344,0.13883255422115326,-0.037059005349874496,-0.024218851700425148,0.3770671784877777,-0.9251272678375244,0.0,0.0,0.0,0.0,0.0,0.0
472,1724816386736217316,-2.1052544116973877,-1.1710443496704102,0.1388012170791626,-0.03697897866368294,-0.024260854348540306,0.3770725131034851,-0.9251271486282349,0.0,0.0,0.0,0.0,0.0,0.0
474,1724816386742457808,-2.105214834213257,-1.171040654182434,0.13879235088825226,-0.03720571845769882,-0.024007229134440422,0.3769642412662506,-0.9251688718795776,0.0,0.0,0.0,0.0,0.0,0.0
476,1724816386752874618,-2.105239152908325,-1.1710422039031982,0.13878333568572998,-0.03725091740489006,-0.024019664153456688,0.37702855467796326,-0.9251405000686646,0.0,0.0,0.0,0.0,0.0,0.0
478,1724816386763305996,-2.1053028106689453,-1.1710329055786133,0.13877922296524048,-0.03649158775806427,-0.02419278956949711,0.3772094249725342,-0.9250924587249756,0.0,0.0,0.0,0.0,0.0,0.0
480,1724816386772868264,-2.105276107788086,-1.1710394620895386,0.13881824910640717,-0.036585114896297455,-0.024097023531794548,0.3772696554660797,-0.9250667691230774,0.0,0.0,0.0,0.0,0.0,0.0
482,1724816386783493375,-2.1052567958831787,-1.1710609197616577,0.1387859731912613,-0.0368209183216095,-0.024002209305763245,0.37712448835372925,-0.9251191020011902,0.0,0.0,0.0,0.0,0.0,0.0
484,1724816386792474450,-2.105269432067871,-1.1710209846496582,0.13881909847259521,-0.036428213119506836,-0.024023158475756645,0.377286434173584,-0.9250679612159729,0.0,0.0,0.0,0.0,0.0,0.0
486,1724816386802599024,-2.105238199234009,-1.1710526943206787,0.1387748122215271,-0.037280067801475525,-0.023997599259018898,0.3769867718219757,-0.9251569509506226,0.0,0.0,0.0,0.0,0.0,0.0
488,1724816386812675229,-2.1052515506744385,-1.1710727214813232,0.1387530267238617,-0.03728754445910454,-0.023855097591876984,0.3769695460796356,-0.9251672625541687,0.0,0.0,0.0,0.0,0.0,0.0
490,1724816386822518379,-2.1052911281585693,-1.1710431575775146,0.13874059915542603,-0.03648190200328827,-0.02404654212296009,0.37724432349205017,-0.9250824451446533,0.0,0.0,0.0,0.0,0.0,0.0
492,1724816386834718244,-2.105252265930176,-1.1710418462753296,0.13877606391906738,-0.03715856000781059,-0.024173887446522713,0.3770643472671509,-0.9251255989074707,0.0,0.0,0.0,0.0,0.0,0.0
494,1724816386861582819,-2.1052682399749756,-1.1710586547851562,0.1387661099433899,-0.03664800152182579,-0.024021413177251816,0.37706804275512695,-0.9251484870910645,0.0,0.0,0.0,0.0,0.0,0.0
496,1724816386862404432,-2.105273723602295,-1.1710377931594849,0.13877630233764648,-0.03684098273515701,-0.02410781942307949,0.3771374523639679,-0.9251102209091187,0.0,0.0,0.0,0.0,0.0,0.0
498,1724816386862974310,-2.1052446365356445,-1.1710236072540283,0.1387985199689865,-0.03690289705991745,-0.023940058425068855,0.3770064115524292,-0.9251655340194702,0.0,0.0,0.0,0.0,0.0,0.0
500,1724816386873641233,-2.1052660942077637,-1.1710354089736938,0.13880307972431183,-0.03694853186607361,-0.023953735828399658,0.37709376215934753,-0.9251277446746826,0.0,0.0,0.0,0.0,0.0,0.0
502,1724816386883903251,-2.1052701473236084,-1.1710206270217896,0.13878795504570007,-0.0365174375474453,-0.024013588204979897,0.3772023916244507,-0.9250990152359009,0.0,0.0,0.0,0.0,0.0,0.0
504,1724816386893044728,-2.1053009033203125,-1.171035885810852,0.1387540102005005,-0.03649158403277397,-0.024020900949835777,0.3772459626197815,-0.9250820279121399,0.0,0.0,0.0,0.0,0.0,0.0
506,1724816386903638622,-2.1052544116973877,-1.1710330247879028,0.13881798088550568,-0.036724578589200974,-0.024019399657845497,0.3770817518234253,-0.9251399040222168,0.0,0.0,0.0,0.0,0.0,0.0
508,1724816386912318587,-2.1052584648132324,-1.1710588932037354,0.138760045170784,-0.03668805584311485,-0.024042196571826935,0.37716802954673767,-0.9251055121421814,0.0,0.0,0.0,0.0,0.0,0.0
510,1724816386931536176,-2.1053225994110107,-1.17105233669281,0.13877204060554504,-0.03632747381925583,-0.024110469967126846,0.3772656321525574,-0.925078272819519,0.0,0.0,0.0,0.0,0.0,0.0
512,1724816386934200719,-2.1053457260131836,-1.171072006225586,0.13874125480651855,-0.03621242567896843,-0.02414318546652794,0.3773805797100067,-0.9250349402427673,0.0,0.0,0.0,0.0,0.0,0.0
514,1724816386942581014,-2.1053197383880615,-1.1710712909698486,0.13874758780002594,-0.036772504448890686,-0.024010011926293373,0.3772576153278351,-0.9250664710998535,0.0,0.0,0.0,0.0,0.0,0.0
516,1724816386952884855,-2.1053171157836914,-1.1710795164108276,0.13868676126003265,-0.03677215799689293,-0.023898428305983543,0.3771713674068451,-0.9251046180725098,0.0,0.0,0.0,0.0,0.0,0.0
518,1724816386968733329,-2.105278253555298,-1.1710777282714844,0.138745978474617,-0.0367574580013752,-0.024058427661657333,0.37707921862602234,-0.9251385927200317,0.0,0.0,0.0,0.0,0.0,0.0
520,1724816386974577952,-2.105318784713745,-1.1710476875305176,0.13877719640731812,-0.0363035649061203,-0.024194400757551193,0.3772653341293335,-0.9250770807266235,0.0,0.0,0.0,0.0,0.0,0.0
522,1724816386983715040,-2.1053378582000732,-1.1710729598999023,0.1387394219636917,-0.03631916642189026,-0.024186154827475548,0.37733009457588196,-0.9250503182411194,0.0,0.0,0.0,0.0,0.0,0.0
524,1724816386992329204,-2.1053106784820557,-1.171064019203186,0.1387777477502823,-0.036359239369630814,-0.024059763178229332,0.37717822194099426,-0.92511385679245,0.0,0.0,0.0,0.0,0.0,0.0
526,1724816387003108197,-2.1053102016448975,-1.171049952507019,0.13876447081565857,-0.03638976812362671,-0.02397780865430832,0.3771938979625702,-0.9251084923744202,0.0,0.0,0.0,0.0,0.0,0.0
528,1724816387013395341,-2.105250358581543,-1.1710513830184937,0.13879334926605225,-0.0369432307779789,-0.023979919031262398,0.3769771456718445,-0.9251748919487,0.0,0.0,0.0,0.0,0.0,0.0
530,1724816387022484522,-2.105252742767334,-1.1710309982299805,0.13879598677158356,-0.03671809285879135,-0.023985346779227257,0.37710562348365784,-0.9251312017440796,0.0,0.0,0.0,0.0,0.0,0.0
532,1724816387034842891,-2.1051926612854004,-1.1710175275802612,0.13886576890945435,-0.0373213067650795,-0.024071747437119484,0.376933753490448,-0.9251748919487,0.0,0.0,0.0,0.0,0.0,0.0
534,1724816387043109621,-2.1052753925323486,-1.1710255146026611,0.1388438194990158,-0.03640193119645119,-0.024042822420597076,0.3771567940711975,-0.9251214265823364,0.0,0.0,0.0,0.0,0.0,0.0
536,1724816387077175244,-2.105231761932373,-1.1710234880447388,0.13884954154491425,-0.03711569309234619,-0.02406843565404415,0.3769802451133728,-0.9251644015312195,0.0,0.0,0.0,0.0,0.0,0.0
538,1724816387077500722,-2.105196237564087,-1.1710145473480225,0.13887755572795868,-0.03702410310506821,-0.024088604375720024,0.3770149052143097,-0.925153374671936,0.0,0.0,0.0,0.0,0.0,0.0
540,1724816387077789835,-2.1051573753356934,-1.1710152626037598,0.13884028792381287,-0.037389375269412994,-0.023985307663679123,0.3768927752971649,-0.9251911044120789,0.0,0.0,0.0,0.0,0.0,0.0
542,1724816387087090964,-2.1051933765411377,-1.1710282564163208,0.1388261616230011,-0.03703718259930611,-0.0241945032030344,0.37693989276885986,-0.9251806139945984,0.0,0.0,0.0,0.0,0.0,0.0
544,1724816387092627213,-2.105215311050415,-1.1710436344146729,0.1387857347726822,-0.037315841764211655,-0.024074003100395203,0.3768986761569977,-0.9251893758773804,0.0,0.0,0.0,0.0,0.0,0.0
546,1724816387102591765,-2.105222463607788,-1.1710269451141357,0.13880662620067596,-0.03722568228840828,-0.023999802768230438,0.3771115243434906,-0.9251081943511963,0.0,0.0,0.0,0.0,0.0,0.0
548,1724816387112570560,-2.105252265930176,-1.1710357666015625,0.13881148397922516,-0.03683032467961311,-0.024131547659635544,0.37717998027801514,-0.9250926375389099,0.0,0.0,0.0,0.0,0.0,0.0
550,1724816387123688460,-2.1052393913269043,-1.171044945716858,0.13876530528068542,-0.03707335516810417,-0.02393626794219017,0.37706267833709717,-0.9251358509063721,0.0,0.0,0.0,0.0,0.0,0.0
552,1724816387138497777,-2.1052000522613525,-1.1710588932037354,0.13878919184207916,-0.037392932921648026,-0.023945391178131104,0.3769056797027588,-0.9251867532730103,0.0,0.0,0.0,0.0,0.0,0.0
554,1724816387143277082,-2.105215311050415,-1.1710392236709595,0.1388091892004013,-0.03729843720793724,-0.0241895392537117,0.37702643871307373,-0.9251350164413452,0.0,0.0,0.0,0.0,0.0,0.0
556,1724816387180829360,-2.105245351791382,-1.171073317527771,0.13875922560691833,-0.036986418068408966,-0.024080870673060417,0.3770700693130493,-0.9251325726509094,0.0,0.0,0.0,0.0,0.0,0.0
558,1724816387181136380,-2.105229139328003,-1.1710634231567383,0.1387769728899002,-0.036850180476903915,-0.024068940430879593,0.3769998550415039,-0.9251669645309448,0.0,0.0,0.0,0.0,0.0,0.0
560,1724816387181397440,-2.1052346229553223,-1.1710476875305176,0.13878479599952698,-0.037028439342975616,-0.023975424468517303,0.3770237863063812,-0.9251524806022644,0.0,0.0,0.0,0.0,0.0,0.0
562,1724816387185438831,-2.1052212715148926,-1.1710667610168457,0.13877667486667633,-0.037056006491184235,-0.02399706095457077,0.3769177794456482,-0.9251940846443176,0.0,0.0,0.0,0.0,0.0,0.0
564,1724816387192548500,-2.105217695236206,-1.171037197113037,0.13883648812770844,-0.037081342190504074,-0.024038996547460556,0.37706220149993896,-0.9251331686973572,0.0,0.0,0.0,0.0,0.0,0.0
566,1724816387202954352,-2.105222463607788,-1.1710132360458374,0.13885146379470825,-0.03689316660165787,-0.024198973551392555,0.3770870566368103,-0.9251262545585632,0.0,0.0,0.0,0.0,0.0,0.0
568,1724816387212438808,-2.1052050590515137,-1.1710368394851685,0.13883112370967865,-0.03693791478872299,-0.024085097014904022,0.3769736588001251,-0.9251736998558044,0.0,0.0,0.0,0.0,0.0,0.0
570,1724816387223234312,-2.105271577835083,-1.1710361242294312,0.1387310028076172,-0.03642784059047699,-0.02405209094285965,0.37717995047569275,-0.9251106977462769,0.0,0.0,0.0,0.0,0.0,0.0
572,1724816387234695228,-2.105259418487549,-1.171035885810852,0.13878893852233887,-0.036851633340120316,-0.024076996371150017,0.3771268427371979,-0.9251149296760559,0.0,0.0,0.0,0.0,0.0,0.0
574,1724816387242389837,-2.1052260398864746,-1.1710360050201416,0.13878895342350006,-0.036507558077573776,-0.023961666971445084,0.37703779339790344,-0.9251678586006165,0.0,0.0,0.0,0.0,0.0,0.0
576,1724816387252702789,-2.105250120162964,-1.171030044555664,0.13880009949207306,-0.03676905483007431,-0.024023057892918587,0.3771410584449768,-0.9251137971878052,0.0,0.0,0.0,0.0,0.0,0.0
578,1724816387262993312,-2.1052350997924805,-1.1710172891616821,0.13880719244480133,-0.036757390946149826,-0.024078749120235443,0.37712475657463074,-0.9251195192337036,0.0,0.0,0.0,0.0,0.0,0.0
580,1724816387272365313,-2.1052298545837402,-1.1710216999053955,0.13882741332054138,-0.036573223769664764,-0.024140629917383194,0.3771759271621704,-0.9251043200492859,0.0,0.0,0.0,0.0,0.0,0.0
582,1724816387283212886,-2.1052186489105225,-1.1710197925567627,0.138812854886055,-0.036972761154174805,-0.0241557564586401,0.37705880403518677,-0.9251358509063721,0.0,0.0,0.0,0.0,0.0,0.0
584,1724816387292884132,-2.105189800262451,-1.1710536479949951,0.1387757509946823,-0.037602730095386505,-0.02387123741209507,0.3769150674343109,-0.9251763224601746,0.0,0.0,0.0,0.0,0.0,0.0
586,1724816387305251557,-2.105201244354248,-1.1710388660430908,0.13879305124282837,-0.037289321422576904,-0.02378520369529724,0.37701132893562317,-0.925152063369751,0.0,0.0,0.0,0.0,0.0,0.0
588,1724816387312797546,-2.1052048206329346,-1.1710553169250488,0.13877341151237488,-0.037696853280067444,-0.023865506052970886,0.376880019903183,-0.9251869320869446,0.0,0.0,0.0,0.0,0.0,0.0
590,1724816387322417464,-2.1052112579345703,-1.1710366010665894,0.1388174593448639,-0.03711218014359474,-0.024057241156697273,0.3770601153373718,-0.9251322746276855,0.0,0.0,0.0,0.0,0.0,0.0
592,1724816387333445808,-2.105206251144409,-1.1710222959518433,0.1388254016637802,-0.03746465593576431,-0.023965420201420784,0.3770056664943695,-0.9251426458358765,0.0,0.0,0.0,0.0,0.0,0.0
594,1724816387343105750,-2.105231285095215,-1.1710350513458252,0.13880009949207306,-0.036638110876083374,-0.02416186034679413,0.3771209120750427,-0.9251235723495483,0.0,0.0,0.0,0.0,0.0,0.0
596,1724816387353580524,-2.1052937507629395,-1.1710433959960938,0.13877858221530914,-0.03616536408662796,-0.024138154461979866,0.37722423672676086,-0.9251007437705994,0.0,0.0,0.0,0.0,0.0,0.0
598,1724816387362427962,-2.1052374839782715,-1.171051025390625,0.13877663016319275,-0.03708746284246445,-0.024029282853007317,0.37702667713165283,-0.925147533416748,0.0,0.0,0.0,0.0,0.0,0.0
600,1724816387374142345,-2.1052327156066895,-1.171032428741455,0.13878151774406433,-0.036711663007736206,-0.024025673046708107,0.37715470790863037,-0.925110399723053,0.0,0.0,0.0,0.0,0.0,0.0
602,1724816387383430834,-2.1052656173706055,-1.171019434928894,0.13878728449344635,-0.03655080124735832,-0.024093152955174446,0.37721505761146545,-0.9250905513763428,0.0,0.0,0.0,0.0,0.0,0.0
604,1724816387396250632,-2.105289936065674,-1.17104172706604,0.13876552879810333,-0.036119841039180756,-0.024240607395768166,0.37732023000717163,-0.9250606298446655,0.0,0.0,0.0,0.0,0.0,0.0
606,1724816387404426837,-2.1051652431488037,-1.171011209487915,0.13881443440914154,-0.03714219853281975,-0.023838726803660393,0.37703779339790344,-0.9251457452774048,0.0,0.0,0.0,0.0,0.0,0.0
608,1724816387412352021,-2.105181932449341,-1.171004056930542,0.13881178200244904,-0.036948855966329575,-0.02406073361635208,0.37709006667137146,-0.9251264333724976,0.0,0.0,0.0,0.0,0.0,0.0
610,1724816387423261401,-2.1052348613739014,-1.1710152626037598,0.13876520097255707,-0.036755338311195374,-0.024063168093562126,0.3771233856678009,-0.9251205325126648,0.0,0.0,0.0,0.0,0.0,0.0
612,1724816387436793177,-2.10526180267334,-1.171035885810852,0.13874530792236328,-0.03655700013041496,-0.024051722139120102,0.3771713078022003,-0.9251092076301575,0.0,0.0,0.0,0.0,0.0,0.0
614,1724816387442737068,-2.1052279472351074,-1.171033501625061,0.13875579833984375,-0.036901358515024185,-0.023876380175352097,0.377129465341568,-0.9251170754432678,0.0,0.0,0.0,0.0,0.0,0.0
616,1724816387453437575,-2.105194330215454,-1.1710233688354492,0.13875655829906464,-0.03726542368531227,-0.023998819291591644,0.37707939743995667,-0.9251196980476379,0.0,0.0,0.0,0.0,0.0,0.0
618,1724816387462930642,-2.105212688446045,-1.171040415763855,0.13873381912708282,-0.037088945508003235,-0.02374827116727829,0.37714824080467224,-0.9251052141189575,0.0,0.0,0.0,0.0,0.0,0.0
620,1724816387472436431,-2.1052355766296387,-1.1710222959518433,0.13875450193881989,-0.036736633628606796,-0.023906730115413666,0.37745916843414307,-0.924988329410553,0.0,0.0,0.0,0.0,0.0,0.0
622,1724816387485194411,-2.105221748352051,-1.1710052490234375,0.13870912790298462,-0.03686179965734482,-0.023720169439911842,0.3775016665458679,-0.9249708652496338,0.0,0.0,0.0,0.0,0.0,0.0
624,1724816387492523011,-2.10522723197937,-1.1710022687911987,0.13866472244262695,-0.037257757037878036,-0.023297637701034546,0.3776451647281647,-0.9249071478843689,0.0,0.0,0.0,0.0,0.0,0.0
626,1724816387502922632,-2.1052169799804688,-1.1709705591201782,0.13862727582454681,-0.03797885775566101,-0.022836066782474518,0.37784072756767273,-0.924809455871582,0.0,0.0,0.0,0.0,0.0,0.0
628,1724816387515810921,-2.1051905155181885,-1.1709001064300537,0.13857604563236237,-0.03846457600593567,-0.022323325276374817,0.3780553936958313,-0.9247141480445862,0.0,0.0,0.0,0.0,0.0,0.0
630,1724816387522478255,-2.1051673889160156,-1.1708823442459106,0.13846197724342346,-0.03924265131354332,-0.021437065675854683,0.3782140016555786,-0.9246375560760498,0.0,0.0,0.0,0.0,0.0,0.0
632,1724816387533357978,-2.105046510696411,-1.170863151550293,0.1383105218410492,-0.040499016642570496,-0.020393770188093185,0.37837645411491394,-0.9245405793190002,0.0,0.0,0.0,0.0,0.0,0.0
634,1724816387542704803,-2.1051788330078125,-1.1708729267120361,0.13823044300079346,-0.040076371282339096,-0.02052302472293377,0.3791325092315674,-0.9242462515830994,0.0,0.0,0.0,0.0,0.0,0.0
636,1724816387552352743,-2.103423595428467,-1.1713277101516724,0.13879188895225525,-0.047231122851371765,-0.019885415211319923,0.3753690719604492,-0.9254576563835144,0.0,0.0,0.0,0.0,0.0,0.0
638,1724816387562471681,-2.103567361831665,-1.17153799533844,0.13777877390384674,-0.046242207288742065,-0.013191942125558853,0.37283357977867126,-0.9266514182090759,0.0,0.0,0.0,0.0,0.0,0.0
640,1724816387574089432,-2.103242874145508,-1.171495795249939,0.13766413927078247,-0.046689875423908234,-0.01206616498529911,0.3731364905834198,-0.9265223145484924,0.0,0.0,0.0,0.0,0.0,0.0
642,1724816387584281598,-2.1028525829315186,-1.1715123653411865,0.13749518990516663,-0.0467323437333107,-0.010807307437062263,0.37359681725502014,-0.9263502359390259,0.0,0.0,0.0,0.0,0.0,0.0
644,1724816387592601455,-2.102362632751465,-1.1713800430297852,0.1374463438987732,-0.04750492423772812,-0.010119881480932236,0.3739180862903595,-0.9261890053749084,0.0,0.0,0.0,0.0,0.0,0.0
646,1724816387603421851,-2.1021523475646973,-1.1709064245224,0.13767309486865997,-0.04736931622028351,-0.010730762965977192,0.37573251128196716,-0.9254545569419861,0.0,0.0,0.0,0.0,0.0,0.0
648,1724816387612435993,-2.101633310317993,-1.1707665920257568,0.1375930905342102,-0.04772502928972244,-0.009958823211491108,0.3762567937374115,-0.9252318143844604,0.0,0.0,0.0,0.0,0.0,0.0
650,1724816387625447374,-2.1020076274871826,-1.1710431575775146,0.13583621382713318,-0.04262087494134903,-0.00269265822134912,0.3725435137748718,-0.9270316958427429,0.0,0.0,0.0,0.0,0.0,0.0
652,1724816387633531272,-2.1014387607574463,-1.1712113618850708,0.13523481786251068,-0.0454641655087471,0.0009351673070341349,0.3704136610031128,-0.927753210067749,0.0,0.0,0.0,0.0,0.0,0.0
654,1724816387642872363,-2.1008784770965576,-1.1709321737289429,0.13532745838165283,-0.046403151005506516,0.0009246316039934754,0.3716912567615509,-0.9271955490112305,0.0,0.0,0.0,0.0,0.0,0.0
656,1724816387653615781,-2.100498914718628,-1.1708956956863403,0.13517402112483978,-0.045880842953920364,0.001373072387650609,0.37171700596809387,-0.9272106289863586,0.0,0.0,0.0,0.0,0.0,0.0
658,1724816387662444584,-2.0986783504486084,-1.1691603660583496,0.13887009024620056,-0.056491266936063766,-0.015819549560546875,0.3827456533908844,-0.921989381313324,0.0,0.0,0.0,0.0,0.0,0.0
660,1724816387673005159,-2.0981709957122803,-1.1689850091934204,0.1391160935163498,-0.05713494494557381,-0.01580718159675598,0.3835040330886841,-0.9216346740722656,0.0,0.0,0.0,0.0,0.0,0.0
662,1724816387686041025,-2.097702980041504,-1.1689655780792236,0.13910578191280365,-0.057212065905332565,-0.014204218052327633,0.3836253881454468,-0.9216054677963257,0.0,0.0,0.0,0.0,0.0,0.0
664,1724816387700579642,-2.0972702503204346,-1.1689869165420532,0.1391010731458664,-0.0580802746117115,-0.012785851024091244,0.38369062542915344,-0.9215447306632996,0.0,0.0,0.0,0.0,0.0,0.0
666,1724816387703592340,-2.097747802734375,-1.1709445714950562,0.1349482536315918,-0.046056102961301804,0.011158804409205914,0.3666369915008545,-0.9291564226150513,0.0,0.0,0.0,0.0,0.0,0.0
668,1724816387714456403,-2.0973129272460938,-1.1709163188934326,0.13516032695770264,-0.04300231486558914,0.010960167273879051,0.36803680658340454,-0.9287516474723816,0.0,0.0,0.0,0.0,0.0,0.0
670,1724816387723475465,-2.0950562953948975,-1.1701806783676147,0.13779284060001373,-0.05473088100552559,0.002898464910686016,0.37629225850105286,-0.9248785376548767,0.0,0.0,0.0,0.0,0.0,0.0
672,1724816387734386993,-2.0943875312805176,-1.1695449352264404,0.13901092112064362,-0.05942552909255028,-0.005606510676443577,0.3822469413280487,-0.9221304059028625,0.0,0.0,0.0,0.0,0.0,0.0
674,1724816387742534645,-2.0942046642303467,-1.1702163219451904,0.13794855773448944,-0.05835075303912163,0.0017204468604177237,0.37924396991729736,-0.9234535098075867,0.0,0.0,0.0,0.0,0.0,0.0
676,1724816387752507949,-2.0936439037323,-1.1705162525177002,0.13779298961162567,-0.05833285301923752,0.004259273875504732,0.37891408801078796,-0.9235817790031433,0.0,0.0,0.0,0.0,0.0,0.0
678,1724816387763540617,-2.093083143234253,-1.1704902648925781,0.13831797242164612,-0.05736025795340538,0.003341315547004342,0.3797157406806946,-0.9233172535896301,0.0,0.0,0.0,0.0,0.0,0.0
680,1724816387772513079,-2.092254161834717,-1.1703145503997803,0.13894863426685333,-0.05968226492404938,0.0011195363476872444,0.38143324851989746,-0.9224671125411987,0.0,0.0,0.0,0.0,0.0,0.0
682,1724816387783204454,-2.0907812118530273,-1.1700636148452759,0.14037995040416718,-0.06135546788573265,-0.0007473182049579918,0.38153132796287537,-0.9223171472549438,0.0,0.0,0.0,0.0,0.0,0.0
684,1724816387793485250,-2.090186834335327,-1.1702096462249756,0.1404724419116974,-0.061627089977264404,0.00045463343849405646,0.3811130225658417,-0.9224721193313599,0.0,0.0,0.0,0.0,0.0,0.0
686,1724816387802815380,-2.090064287185669,-1.170439600944519,0.1394972801208496,-0.06010311469435692,0.004273685626685619,0.380659818649292,-0.9227499961853027,0.0,0.0,0.0,0.0,0.0,0.0
688,1724816387813156402,-2.089465618133545,-1.1706472635269165,0.140083447098732,-0.059188228100538254,0.00706597650423646,0.37827032804489136,-0.9237740635871887,0.0,0.0,0.0,0.0,0.0,0.0
690,1724816387864227717,-2.088961601257324,-1.1708415746688843,0.1396254003047943,-0.05792941525578499,0.010009672492742538,0.3779504895210266,-0.9239574670791626,0.0,0.0,0.0,0.0,0.0,0.0
692,1724816387864412379,-2.088177442550659,-1.1707608699798584,0.14042407274246216,-0.06099550426006317,0.008097809739410877,0.37936893105506897,-0.923197329044342,0.0,0.0,0.0,0.0,0.0,0.0
694,1724816387864655742,-2.087252378463745,-1.171054720878601,0.14106900990009308,-0.061517588794231415,0.008141467347741127,0.37885773181915283,-0.9233721494674683,0.0,0.0,0.0,0.0,0.0,0.0
696,1724816387865085537,-2.087078332901001,-1.171472430229187,0.14094430208206177,-0.061156995594501495,0.010476765222847462,0.3778728246688843,-0.9237761497497559,0.0,0.0,0.0,0.0,0.0,0.0
698,1724816387865321597,-2.086397409439087,-1.1716519594192505,0.14137639105319977,-0.06079442799091339,0.011185625568032265,0.3774688243865967,-0.9239568710327148,0.0,0.0,0.0,0.0,0.0,0.0
700,1724816387873977169,-2.0865774154663086,-1.1729612350463867,0.13893894851207733,-0.04533082991838455,0.029152952134609222,0.3658926784992218,-0.9290951490402222,0.0,0.0,0.0,0.0,0.0,0.0
702,1724816387889004782,-2.085955858230591,-1.1733779907226562,0.139216348528862,-0.043576765805482864,0.03112480230629444,0.36384066939353943,-0.9299206137657166,0.0,0.0,0.0,0.0,0.0,0.0
704,1724816387893040863,-2.0854389667510986,-1.1739206314086914,0.13945037126541138,-0.041847240179777145,0.03372310474514961,0.36101603507995605,-0.9310097098350525,0.0,0.0,0.0,0.0,0.0,0.0
706,1724816387903853928,-2.0847935676574707,-1.1743452548980713,0.14007028937339783,-0.04045340046286583,0.03539275377988815,0.3594646453857422,-0.9316094517707825,0.0,0.0,0.0,0.0,0.0,0.0
708,1724816387924375379,-2.0829362869262695,-1.172731876373291,0.14477404952049255,-0.056010808795690536,0.015315387398004532,0.3763743042945862,-0.9246463179588318,0.0,0.0,0.0,0.0,0.0,0.0
710,1724816387925353985,-2.0819077491760254,-1.1732722520828247,0.14557161927223206,-0.053064391016960144,0.016337940469384193,0.37483811378479004,-0.9254263043403625,0.0,0.0,0.0,0.0,0.0,0.0
712,1724816387935219101,-2.080956220626831,-1.173221230506897,0.14674012362957,-0.05312177166342735,0.01433575339615345,0.3769589066505432,-0.9245942831039429,0.0,0.0,0.0,0.0,0.0,0.0
714,1724816387943164545,-2.0804824829101562,-1.1738330125808716,0.14711958169937134,-0.05072386935353279,0.016355587169528008,0.3759301006793976,-0.9251141548156738,0.0,0.0,0.0,0.0,0.0,0.0
716,1724816387952868859,-2.0799264907836914,-1.1742935180664062,0.14710143208503723,-0.04977860674262047,0.019641892984509468,0.37590494751930237,-0.925111711025238,0.0,0.0,0.0,0.0,0.0,0.0
718,1724816387962885488,-2.0798466205596924,-1.1765363216400146,0.14519229531288147,-0.03776933625340462,0.03793061524629593,0.3613627851009369,-0.9308876395225525,0.0,0.0,0.0,0.0,0.0,0.0
720,1724816387973453672,-2.0788955688476562,-1.177047610282898,0.14601382613182068,-0.03790602833032608,0.03820263594388962,0.361980676651001,-0.9306308627128601,0.0,0.0,0.0,0.0,0.0,0.0
722,1724816387984092765,-2.0771374702453613,-1.176418423652649,0.149458110332489,-0.04351840168237686,0.026635082438588142,0.36936303973197937,-0.927883505821228,0.0,0.0,0.0,0.0,0.0,0.0
724,1724816387992363393,-2.0767340660095215,-1.1768991947174072,0.14983168244361877,-0.04074392840266228,0.028956059366464615,0.37016022205352783,-0.9276222586631775,0.0,0.0,0.0,0.0,0.0,0.0
726,1724816388003014747,-2.076153516769409,-1.1767899990081787,0.15090329945087433,-0.04492877051234245,0.022556455805897713,0.3751610815525055,-0.9255954027175903,0.0,0.0,0.0,0.0,0.0,0.0
728,1724816388013419238,-2.0755186080932617,-1.177319049835205,0.15144668519496918,-0.04407009482383728,0.023755665868520737,0.37511199712753296,-0.9256266355514526,0.0,0.0,0.0,0.0,0.0,0.0
730,1724816388022429291,-2.0750784873962402,-1.178098201751709,0.1515382081270218,-0.04029087349772453,0.02764294110238552,0.3728010952472687,-0.9266238808631897,0.0,0.0,0.0,0.0,0.0,0.0
732,1724816388061657855,-2.0744900703430176,-1.1791069507598877,0.15100149810314178,-0.03896944969892502,0.03206226974725723,0.3710155785083771,-0.9272544980049133,0.0,0.0,0.0,0.0,0.0,0.0
734,1724816388062000569,-2.0733914375305176,-1.1789954900741577,0.1522570699453354,-0.03728870302438736,0.03232348710298538,0.37148526310920715,-0.9271264672279358,0.0,0.0,0.0,0.0,0.0,0.0
736,1724816388062325762,-2.0721209049224854,-1.1789875030517578,0.1537693440914154,-0.035547561943531036,0.03153323754668236,0.37177711725234985,-0.9271051287651062,0.0,0.0,0.0,0.0,0.0,0.0
738,1724816388063980121,-2.0716395378112793,-1.1795638799667358,0.15512768924236298,-0.0347183421254158,0.03015652298927307,0.3720243275165558,-0.9270831346511841,0.0,0.0,0.0,0.0,0.0,0.0
740,1724816388074057774,-2.070831537246704,-1.1797599792480469,0.15628652274608612,-0.03604342043399811,0.026157459244132042,0.3736729323863983,-0.926490843296051,0.0,0.0,0.0,0.0,0.0,0.0
742,1724816388087228093,-2.0706191062927246,-1.180618405342102,0.15645448863506317,-0.03500145673751831,0.026846399530768394,0.3733605742454529,-0.9266370534896851,0.0,0.0,0.0,0.0,0.0,0.0
744,1724816388092498084,-2.0700080394744873,-1.1811822652816772,0.1569116860628128,-0.03441011905670166,0.02727539651095867,0.37342968583106995,-0.926618754863739,0.0,0.0,0.0,0.0,0.0,0.0
746,1724816388102483165,-2.069363594055176,-1.1819462776184082,0.15684451162815094,-0.030175253748893738,0.031546756625175476,0.37149783968925476,-0.9274069666862488,0.0,0.0,0.0,0.0,0.0,0.0
748,1724816388112670740,-2.0682973861694336,-1.1820883750915527,0.15777339041233063,-0.03038555197417736,0.02886008471250534,0.37298738956451416,-0.9268895387649536,0.0,0.0,0.0,0.0,0.0,0.0
750,1724816388126191401,-2.0674972534179688,-1.1824558973312378,0.1583155393600464,-0.029360292479395866,0.029388872906565666,0.3729337751865387,-0.9269276261329651,0.0,0.0,0.0,0.0,0.0,0.0
752,1724816388138524470,-2.066710948944092,-1.1829129457473755,0.15888193249702454,-0.028493737801909447,0.029530629515647888,0.37286296486854553,-0.9269786477088928,0.0,0.0,0.0,0.0,0.0,0.0
754,1724816388142697166,-2.0662295818328857,-1.1837503910064697,0.15903963148593903,-0.027474896982312202,0.03316977620124817,0.3704250454902649,-0.9278632998466492,0.0,0.0,0.0,0.0,0.0,0.0
756,1724816388152725903,-2.0651702880859375,-1.184419870376587,0.15948884189128876,-0.026447905227541924,0.03338487818837166,0.3702411949634552,-0.9279587864875793,0.0,0.0,0.0,0.0,0.0,0.0
758,1724816388162308640,-2.0649845600128174,-1.1864341497421265,0.15724046528339386,-0.019071370363235474,0.04863618314266205,0.3615589737892151,-0.9308845400810242,0.0,0.0,0.0,0.0,0.0,0.0
760,1724816388173571296,-2.0656275749206543,-1.1867280006408691,0.1575438231229782,-0.01167263649404049,0.034250225871801376,0.3738800883293152,-0.9267709255218506,0.0,0.0,0.0,0.0,0.0,0.0
762,1724816388183696207,-2.0641162395477295,-1.1870890855789185,0.15811878442764282,-0.021742520853877068,0.04372366517782211,0.36738845705986023,-0.9287849068641663,0.0,0.0,0.0,0.0,0.0,0.0
764,1724816388192356649,-2.063504934310913,-1.186883568763733,0.15997400879859924,-0.024536872282624245,0.03332512825727463,0.3723336458206177,-0.9271758198738098,0.0,0.0,0.0,0.0,0.0,0.0
766,1724816388205770843,-2.0629701614379883,-1.1874451637268066,0.16029450297355652,-0.024332910776138306,0.032520439475774765,0.3725258708000183,-0.9271325469017029,0.0,0.0,0.0,0.0,0.0,0.0
768,1724816388223748292,-2.061361074447632,-1.1877377033233643,0.16117019951343536,-0.019624220207333565,0.03769421577453613,0.3666380047798157,-0.9293926358222961,0.0,0.0,0.0,0.0,0.0,0.0
770,1724816388224404594,-2.061638116836548,-1.1882297992706299,0.16150084137916565,-0.024648992344737053,0.030812693759799004,0.37204208970069885,-0.9273768663406372,0.0,0.0,0.0,0.0,0.0,0.0
772,1724816388233495827,-2.0608222484588623,-1.1899687051773071,0.1604423075914383,-0.016129175201058388,0.045714352279901505,0.36204400658607483,-0.9308996796607971,0.0,0.0,0.0,0.0,0.0,0.0
774,1724816388242473729,-2.0606837272644043,-1.190420150756836,0.16076546907424927,-0.01595713198184967,0.045222003012895584,0.363107830286026,-0.9305122494697571,0.0,0.0,0.0,0.0,0.0,0.0
776,1724816388252939728,-2.06158709526062,-1.1916011571884155,0.1590454876422882,-0.00661234138533473,0.05202106013894081,0.35948649048805237,-0.9316757321357727,0.0,0.0,0.0,0.0,0.0,0.0
778,1724816388263645780,-2.0608694553375244,-1.1922516822814941,0.15859192609786987,-0.006011499557644129,0.053570229560136795,0.3584839403629303,-0.9319782257080078,0.0,0.0,0.0,0.0,0.0,0.0
780,1724816388363569843,-2.060446262359619,-1.192669153213501,0.1584969311952591,-0.0063734110444784164,0.054003432393074036,0.3590801954269409,-0.9317212700843811,0.0,0.0,0.0,0.0,0.0,0.0
782,1724816388365209256,-2.0599491596221924,-1.1931099891662598,0.15838079154491425,-0.007494333200156689,0.05469416454434395,0.35919228196144104,-0.9316293597221375,0.0,0.0,0.0,0.0,0.0,0.0
784,1724816388365536583,-2.05895733833313,-1.192126750946045,0.1613040566444397,-0.021469656378030777,0.0366257019340992,0.37123775482177734,-0.9275667667388916,0.0,0.0,0.0,0.0,0.0,0.0
786,1724816388366010301,-2.0587799549102783,-1.1931275129318237,0.16068896651268005,-0.01877877674996853,0.04072655737400055,0.36801254749298096,-0.9287386536598206,0.0,0.0,0.0,0.0,0.0,0.0
788,1724816388366243912,-2.0583837032318115,-1.1933890581130981,0.16083019971847534,-0.018213141709566116,0.0411265604197979,0.3679405748844147,-0.9287608861923218,0.0,0.0,0.0,0.0,0.0,0.0
790,1724816388366474753,-2.0571937561035156,-1.1931095123291016,0.16181807219982147,-0.021496469154953957,0.03754934296011925,0.3702220916748047,-0.9279351234436035,0.0,0.0,0.0,0.0,0.0,0.0
792,1724816388366704041,-2.057319402694702,-1.1938341856002808,0.1614219695329666,-0.02143554948270321,0.03843427076935768,0.36974841356277466,-0.9280891418457031,0.0,0.0,0.0,0.0,0.0,0.0
794,1724816388367053385,-2.056922435760498,-1.1943814754486084,0.16100990772247314,-0.02146286331117153,0.03860127180814743,0.37002161145210266,-0.9279727339744568,0.0,0.0,0.0,0.0,0.0,0.0
796,1724816388367294651,-2.0565803050994873,-1.1946812868118286,0.16118741035461426,-0.020966846495866776,0.03895409777760506,0.36961397528648376,-0.9281317591667175,0.0,0.0,0.0,0.0,0.0,0.0
798,1724816388367595051,-2.055577516555786,-1.1948895454406738,0.16147319972515106,-0.02137124538421631,0.03837788850069046,0.3701324462890625,-0.9279398918151855,0.0,0.0,0.0,0.0,0.0,0.0
800,1724816388380005656,-2.0556912422180176,-1.1960489749908447,0.16087853908538818,-0.018258200958371162,0.04343552514910698,0.3662682771682739,-0.9293156862258911,0.0,0.0,0.0,0.0,0.0,0.0
802,1724816388385031054,-2.0551228523254395,-1.1964443922042847,0.1608312726020813,-0.018501516431570053,0.04410824179649353,0.36600732803344727,-0.9293819665908813,0.0,0.0,0.0,0.0,0.0,0.0
804,1724816388393276496,-2.0557491779327393,-1.197627067565918,0.1587890088558197,-0.008399966172873974,0.04329504817724228,0.3704623579978943,-0.9277999401092529,0.0,0.0,0.0,0.0,0.0,0.0
806,1724816388406134180,-2.0547313690185547,-1.1975038051605225,0.15982021391391754,-0.012652173638343811,0.045781102031469345,0.36656343936920166,-0.9291799068450928,0.0,0.0,0.0,0.0,0.0,0.0
808,1724816388412841129,-2.0549025535583496,-1.1983368396759033,0.15971551835536957,-0.01300789788365364,0.04206765443086624,0.3697008490562439,-0.928106963634491,0.0,0.0,0.0,0.0,0.0,0.0
810,1724816388422968028,-2.054631471633911,-1.1981971263885498,0.16033165156841278,-0.014703512191772461,0.04548940435051918,0.3669155240058899,-0.9290250539779663,0.0,0.0,0.0,0.0,0.0,0.0
812,1724816388436639147,-2.053528308868408,-1.1985126733779907,0.16014108061790466,-0.014281005598604679,0.04699810966849327,0.36573266983032227,-0.9294228553771973,0.0,0.0,0.0,0.0,0.0,0.0
814,1724816388442450642,-2.0524239540100098,-1.1994638442993164,0.15930041670799255,-0.012100514024496078,0.052300166338682175,0.36356255412101746,-0.9300218820571899,0.0,0.0,0.0,0.0,0.0,0.0
816,1724816388453080898,-2.0528371334075928,-1.1997606754302979,0.15951372683048248,-0.01243260595947504,0.04796275123953819,0.36646875739097595,-0.9291101694107056,0.0,0.0,0.0,0.0,0.0,0.0
818,1724816388462523776,-2.051938772201538,-1.2001025676727295,0.15960118174552917,-0.01258258055895567,0.050265975296497345,0.3639881908893585,-0.9299611449241638,0.0,0.0,0.0,0.0,0.0,0.0
820,1724816388472742642,-2.051339864730835,-1.200536847114563,0.15945462882518768,-0.012074016034603119,0.051052700728178024,0.3634684979915619,-0.9301282167434692,0.0,0.0,0.0,0.0,0.0,0.0
822,1724816388483938638,-2.0509297847747803,-1.200819492340088,0.15953053534030914,-0.012086932547390461,0.05041998252272606,0.3646462559700012,-0.9297015070915222,0.0,0.0,0.0,0.0,0.0,0.0
824,1724816388492518738,-2.049557685852051,-1.201080083847046,0.1605364829301834,-0.016057409346103668,0.04860800504684448,0.36592531204223633,-0.9292352795600891,0.0,0.0,0.0,0.0,0.0,0.0
826,1724816388572357261,-2.048724412918091,-1.201493263244629,0.16068266332149506,-0.016493435949087143,0.04797523468732834,0.3653658330440521,-0.9294806122779846,0.0,0.0,0.0,0.0,0.0,0.0
828,1724816388572663053,-2.048365354537964,-1.2020442485809326,0.16019165515899658,-0.01596796326339245,0.04990229383111,0.36501502990722656,-0.929526150226593,0.0,0.0,0.0,0.0,0.0,0.0
830,1724816388573018555,-2.048170804977417,-1.202142357826233,0.1595275104045868,-0.015688158571720123,0.05352729931473732,0.36574313044548035,-0.9290429353713989,0.0,0.0,0.0,0.0,0.0,0.0
832,1724816388573265552,-2.0479540824890137,-1.2025576829910278,0.15952296555042267,-0.015208244323730469,0.05366664007306099,0.3659083843231201,-0.9289777874946594,0.0,0.0,0.0,0.0,0.0,0.0
834,1724816388573604964,-2.0474302768707275,-1.2024452686309814,0.1598806083202362,-0.017973707988858223,0.04680571332573891,0.3693391978740692,-0.9279412031173706,0.0,0.0,0.0,0.0,0.0,0.0
836,1724816388573889912,-2.047135591506958,-1.2031136751174927,0.15978467464447021,-0.01582666113972664,0.050968486815690994,0.36615756154060364,-0.9290212392807007,0.0,0.0,0.0,0.0,0.0,0.0
838,1724816388574186069,-2.0470030307769775,-1.2033966779708862,0.16016249358654022,-0.015729550272226334,0.04992998391389847,0.3665754497051239,-0.9289144277572632,0.0,0.0,0.0,0.0,0.0,0.0
840,1724816388574446904,-2.04628586769104,-1.2037512063980103,0.16067999601364136,-0.0171949565410614,0.0496562123298645,0.3654349148273468,-0.9293524622917175,0.0,0.0,0.0,0.0,0.0,0.0
842,1724816388582999780,-2.046640396118164,-1.204995036125183,0.1593700498342514,-0.01328644622117281,0.059090178459882736,0.35993894934654236,-0.9310079216957092,0.0,0.0,0.0,0.0,0.0,0.0
844,1724816388592698507,-2.0479354858398438,-1.2068887948989868,0.15642186999320984,-0.0023995949886739254,0.07181936502456665,0.34993407130241394,-0.9340142011642456,0.0,0.0,0.0,0.0,0.0,0.0
846,1724816388603620037,-2.0476717948913574,-1.2069801092147827,0.1564961075782776,-0.0016539997886866331,0.07207600027322769,0.3506840467453003,-0.9337146282196045,0.0,0.0,0.0,0.0,0.0,0.0
848,1724816388612873367,-2.0462496280670166,-1.2047957181930542,0.16049456596374512,-0.021049335598945618,0.05058206990361214,0.3683595359325409,-0.928067684173584,0.0,0.0,0.0,0.0,0.0,0.0
850,1724816388622990099,-2.0462772846221924,-1.2053306102752686,0.16017699241638184,-0.019358690828084946,0.05388955399394035,0.3661140203475952,-0.9288066625595093,0.0,0.0,0.0,0.0,0.0,0.0
852,1724816388632954764,-2.045445203781128,-1.2050726413726807,0.16069340705871582,-0.019226541742682457,0.055167634040117264,0.36619338393211365,-0.9287030696868896,0.0,0.0,0.0,0.0,0.0,0.0
854,1724816388642538036,-2.0448012351989746,-1.205091118812561,0.16080594062805176,-0.01919143833220005,0.05632227659225464,0.3661152720451355,-0.9286652207374573,0.0,0.0,0.0,0.0,0.0,0.0
856,1724816388655591938,-2.0436086654663086,-1.205149531364441,0.16122274100780487,-0.019339531660079956,0.05645819008350372,0.36493781208992004,-0.9291173219680786,0.0,0.0,0.0,0.0,0.0,0.0
858,1724816388662507453,-2.042522430419922,-1.20453941822052,0.16208802163600922,-0.021469103172421455,0.05279899761080742,0.3688618540763855,-0.9277350306510925,0.0,0.0,0.0,0.0,0.0,0.0
860,1724816388673292955,-2.042729139328003,-1.2052305936813354,0.16173401474952698,-0.020701533183455467,0.05518927052617073,0.36504513025283813,-0.9291220307350159,0.0,0.0,0.0,0.0,0.0,0.0
862,1724816388683427029,-2.0440566539764404,-1.2058292627334595,0.1607234925031662,-0.02099788188934326,0.05803586170077324,0.3654021620750427,-0.9288014769554138,0.0,0.0,0.0,0.0,0.0,0.0
864,1724816388699090358,-2.0437448024749756,-1.2058546543121338,0.16074804961681366,-0.020755590870976448,0.05952674522995949,0.36477401852607727,-0.9289594888687134,0.0,0.0,0.0,0.0,0.0,0.0
866,1724816388704731564,-2.0434975624084473,-1.2059803009033203,0.1606541872024536,-0.020356765016913414,0.06092127412557602,0.3641519248485565,-0.9291219115257263,0.0,0.0,0.0,0.0,0.0,0.0
868,1724816388712403021,-2.0428860187530518,-1.2055613994598389,0.16127580404281616,-0.024682702496647835,0.05697515979409218,0.36662235856056213,-0.9282956123352051,0.0,0.0,0.0,0.0,0.0,0.0
870,1724816388734134839,-2.0426180362701416,-1.205630898475647,0.16130921244621277,-0.025424813851714134,0.057527635246515274,0.3661975562572479,-0.9284090995788574,0.0,0.0,0.0,0.0,0.0,0.0
872,1724816388734414767,-2.0420126914978027,-1.205363392829895,0.16155576705932617,-0.026024330407381058,0.057500988245010376,0.3667943477630615,-0.9281585812568665,0.0,0.0,0.0,0.0,0.0,0.0
874,1724816388742879162,-2.0417447090148926,-1.2056214809417725,0.16132168471813202,-0.02670140191912651,0.058171097189188004,0.36615490913391113,-0.928350031375885,0.0,0.0,0.0,0.0,0.0,0.0
876,1724816388753533990,-2.041243553161621,-1.205475926399231,0.1615547239780426,-0.02589297667145729,0.05900336429476738,0.3655555844306946,-0.9285565614700317,0.0,0.0,0.0,0.0,0.0,0.0
878,1724816388763628249,-2.0402631759643555,-1.2050495147705078,0.16211779415607452,-0.026356173679232597,0.0595722571015358,0.3663996160030365,-0.9281744956970215,0.0,0.0,0.0,0.0,0.0,0.0
880,1724816388775967339,-2.039733648300171,-1.2050193548202515,0.1623310148715973,-0.026284581050276756,0.06023598089814186,0.36583346128463745,-0.9283570051193237,0.0,0.0,0.0,0.0,0.0,0.0
882,1724816388784261673,-2.0402324199676514,-1.2062453031539917,0.1616314798593521,-0.02414773590862751,0.06485140323638916,0.3599112033843994,-0.9304166436195374,0.0,0.0,0.0,0.0,0.0,0.0
884,1724816388792880818,-2.038282871246338,-1.2059767246246338,0.16266530752182007,-0.02276664786040783,0.06441948562860489,0.3581236004829407,-0.9311709403991699,0.0,0.0,0.0,0.0,0.0,0.0
886,1724816388807462896,-2.0377542972564697,-1.2060884237289429,0.16280901432037354,-0.022824449464678764,0.06478822231292725,0.3575931787490845,-0.9313477277755737,0.0,0.0,0.0,0.0,0.0,0.0
888,1724816388812527313,-2.0373051166534424,-1.2061588764190674,0.16285265982151031,-0.023600604385137558,0.06607154756784439,0.3570641875267029,-0.9314413070678711,0.0,0.0,0.0,0.0,0.0,0.0
890,1724816388822554622,-2.0373482704162598,-1.2065376043319702,0.1622052937746048,-0.02286197990179062,0.06836461275815964,0.35717278718948364,-0.9312524795532227,0.0,0.0,0.0,0.0,0.0,0.0
892,1724816388833887953,-2.0373036861419678,-1.2063630819320679,0.16249854862689972,-0.027021341025829315,0.06250013411045074,0.36125391721725464,-0.92997807264328,0.0,0.0,0.0,0.0,0.0,0.0
894,1724816388842899047,-2.0373587608337402,-1.2070207595825195,0.16218680143356323,-0.023756330832839012,0.06689390540122986,0.3569965064525604,-0.9314045310020447,0.0,0.0,0.0,0.0,0.0,0.0
896,1724816388859433187,-2.0367958545684814,-1.207957148551941,0.16038158535957336,-0.011385775171220303,0.08225362002849579,0.3460333049297333,-0.934540331363678,0.0,0.0,0.0,0.0,0.0,0.0
898,1724816388862496496,-2.0351836681365967,-1.207269310951233,0.16383281350135803,-0.024326469749212265,0.06580767780542374,0.35196036100387573,-0.9333818554878235,0.0,0.0,0.0,0.0,0.0,0.0
900,1724816388876590442,-2.0342140197753906,-1.2070307731628418,0.1641954779624939,-0.02585611678659916,0.06365750730037689,0.3545243442058563,-0.9325190186500549,0.0,0.0,0.0,0.0,0.0,0.0
902,1724816388883186793,-2.0340073108673096,-1.2071619033813477,0.16411404311656952,-0.02526227943599224,0.06489691138267517,0.35334908962249756,-0.9328958988189697,0.0,0.0,0.0,0.0,0.0,0.0
904,1724816388892951472,-2.032743453979492,-1.2064087390899658,0.16489624977111816,-0.025188762694597244,0.06333259493112564,0.3540228009223938,-0.9327499270439148,0.0,0.0,0.0,0.0,0.0,0.0
906,1724816388902924408,-2.0316319465637207,-1.2057678699493408,0.1643231213092804,-0.022835489362478256,0.06721597164869308,0.3568020761013031,-0.9314788579940796,0.0,0.0,0.0,0.0,0.0,0.0
908,1724816388912476268,-2.0310442447662354,-1.206341028213501,0.16445359587669373,-0.025710999965667725,0.06361857801675797,0.35725343227386475,-0.9314835667610168,0.0,0.0,0.0,0.0,0.0,0.0
910,1724816388923489532,-2.0310311317443848,-1.2073190212249756,0.16397185623645782,-0.024095911532640457,0.06647574156522751,0.35131174325942993,-0.9335847496986389,0.0,0.0,0.0,0.0,0.0,0.0
912,1724816388934670845,-2.0304322242736816,-1.2075235843658447,0.16398873925209045,-0.02382688596844673,0.06680119037628174,0.35040032863616943,-0.9339109063148499,0.0,0.0,0.0,0.0,0.0,0.0
914,1724816388942531762,-2.029148578643799,-1.206476092338562,0.1648673713207245,-0.026424484327435493,0.06309526413679123,0.35598984360694885,-0.9319828748703003,0.0,0.0,0.0,0.0,0.0,0.0
916,1724816388954162550,-2.0292811393737793,-1.2075679302215576,0.16439521312713623,-0.024576351046562195,0.06607023626565933,0.3499507009983063,-0.9341120719909668,0.0,0.0,0.0,0.0,0.0,0.0
918,1724816388962544828,-2.02887225151062,-1.207882285118103,0.16410036385059357,-0.023271571844816208,0.06800754368305206,0.34811103343963623,-0.9346935749053955,0.0,0.0,0.0,0.0,0.0,0.0
920,1724816388973111438,-2.0281424522399902,-1.2081691026687622,0.16404440999031067,-0.021541405469179153,0.06901173293590546,0.34658536314964294,-0.9352282881736755,0.0,0.0,0.0,0.0,0.0,0.0
922,1724816388983847191,-2.0276577472686768,-1.2081255912780762,0.16435928642749786,-0.021351857110857964,0.06782297790050507,0.3475527763366699,-0.9349606037139893,0.0,0.0,0.0,0.0,0.0,0.0
924,1724816388999024827,-2.027153253555298,-1.2087392807006836,0.16442318260669708,-0.02208796516060829,0.06735146790742874,0.34584084153175354,-0.935612142086029,0.0,0.0,0.0,0.0,0.0,0.0
926,1724816389003219336,-2.026409387588501,-1.2089258432388306,0.16452959179878235,-0.02194838598370552,0.06774242222309113,0.3450639843940735,-0.9358739852905273,0.0,0.0,0.0,0.0,0.0,0.0
928,1724816389012564833,-2.025348424911499,-1.2083561420440674,0.16519354283809662,-0.02397509478032589,0.0644809827208519,0.34706977009773254,-0.935312807559967,0.0,0.0,0.0,0.0,0.0,0.0
930,1724816389022560884,-2.0244200229644775,-1.2083109617233276,0.16534994542598724,-0.023975985124707222,0.06469355523586273,0.3473859429359436,-0.9351806640625,0.0,0.0,0.0,0.0,0.0,0.0
932,1724816389033441988,-2.0232958793640137,-1.208111047744751,0.16566649079322815,-0.024751702323555946,0.06445086747407913,0.3488869071006775,-0.934618353843689,0.0,0.0,0.0,0.0,0.0,0.0
934,1724816389043139227,-2.024660348892212,-1.211434006690979,0.16151630878448486,-0.010223972611129284,0.08440552651882172,0.3330538272857666,-0.9390667080879211,0.0,0.0,0.0,0.0,0.0,0.0
936,1724816389052581030,-2.022845983505249,-1.2105118036270142,0.16384011507034302,-0.018720174208283424,0.07656451314687729,0.3392130434513092,-0.9374017715454102,0.0,0.0,0.0,0.0,0.0,0.0
938,1724816389062438289,-2.0206804275512695,-1.2084749937057495,0.16611969470977783,-0.025170976296067238,0.06319560110569,0.35222288966178894,-0.9334408640861511,0.0,0.0,0.0,0.0,0.0,0.0
940,1724816389074285134,-2.01983904838562,-1.2083402872085571,0.16651754081249237,-0.025379454717040062,0.06264056265354156,0.3531196117401123,-0.9331337213516235,0.0,0.0,0.0,0.0,0.0,0.0
942,1724816389083451468,-2.0207345485687256,-1.2100303173065186,0.16520656645298004,-0.023675672709941864,0.0663815513253212,0.3474903404712677,-0.9350312948226929,0.0,0.0,0.0,0.0,0.0,0.0
944,1724816389092892461,-2.020585536956787,-1.2107956409454346,0.16483435034751892,-0.024912582710385323,0.0651932954788208,0.347674697637558,-0.9350141882896423,0.0,0.0,0.0,0.0,0.0,0.0
946,1724816389119147271,-2.020253896713257,-1.21143639087677,0.1644221991300583,-0.02636571228504181,0.06467783451080322,0.347552627325058,-0.9350554943084717,0.0,0.0,0.0,0.0,0.0,0.0
948,1724816389119608954,-2.0197994709014893,-1.2119951248168945,0.1643979400396347,-0.024026639759540558,0.06574050337076187,0.34622159600257874,-0.935538113117218,0.0,0.0,0.0,0.0,0.0,0.0
950,1724816389125263957,-2.0183446407318115,-1.2115752696990967,0.16564221680164337,-0.022321077063679695,0.06667936593294144,0.34450563788414,-0.936147153377533,0.0,0.0,0.0,0.0,0.0,0.0
952,1724816389133422949,-2.0173943042755127,-1.211661696434021,0.16593773663043976,-0.02175792120397091,0.06625162065029144,0.3442491590976715,-0.9362851977348328,0.0,0.0,0.0,0.0,0.0,0.0
954,1724816389142817398,-2.016953706741333,-1.2119909524917603,0.16591572761535645,-0.021496690809726715,0.06630771607160568,0.34368062019348145,-0.9364960193634033,0.0,0.0,0.0,0.0,0.0,0.0
956,1724816389154081000,-2.015733480453491,-1.2121660709381104,0.16645579040050507,-0.02190418168902397,0.06615348160266876,0.3418601155281067,-0.9371635913848877,0.0,0.0,0.0,0.0,0.0,0.0
958,1724816389162413686,-2.0145726203918457,-1.211725115776062,0.1669498234987259,-0.02354372665286064,0.06382038444280624,0.3454102873802185,-0.9359831213951111,0.0,0.0,0.0,0.0,0.0,0.0
960,1724816389173513881,-2.0145206451416016,-1.2125846147537231,0.16658301651477814,-0.022236324846744537,0.0661044791340828,0.34063780307769775,-0.9376041889190674,0.0,0.0,0.0,0.0,0.0,0.0
962,1724816389185282418,-2.013422727584839,-1.2128283977508545,0.16690368950366974,-0.022585095837712288,0.06573352217674255,0.3396122455596924,-0.9379938840866089,0.0,0.0,0.0,0.0,0.0,0.0
964,1724816389193225287,-2.012967824935913,-1.213070034980774,0.16692201793193817,-0.022779062390327454,0.0662376880645752,0.3388911783695221,-0.9382145404815674,0.0,0.0,0.0,0.0,0.0,0.0
966,1724816389204318267,-2.0116147994995117,-1.212702751159668,0.16734959185123444,-0.024590739980340004,0.06374251842498779,0.3428436815738678,-0.9369047284126282,0.0,0.0,0.0,0.0,0.0,0.0
968,1724816389212765329,-2.0115444660186768,-1.213432788848877,0.16706158220767975,-0.023267753422260284,0.0659942626953125,0.33876878023147583,-0.9382638335227966,0.0,0.0,0.0,0.0,0.0,0.0
970,1724816389226775774,-2.0104222297668457,-1.2123101949691772,0.16788573563098907,-0.025019707158207893,0.06330686062574387,0.3444075882434845,-0.936349093914032,0.0,0.0,0.0,0.0,0.0,0.0
972,1724816389236798460,-2.009941816329956,-1.212546706199646,0.166671484708786,-0.033700257539749146,0.055407531559467316,0.35913410782814026,-0.9310300350189209,0.0,0.0,0.0,0.0,0.0,0.0
974,1724816389242442403,-2.0106804370880127,-1.2137941122055054,0.1671876758337021,-0.02264634519815445,0.06857943534851074,0.33680999279022217,-0.938798725605011,0.0,0.0,0.0,0.0,0.0,0.0
976,1724816389254312664,-2.010167121887207,-1.2139384746551514,0.1675666868686676,-0.022564314305782318,0.06896575540304184,0.3363296389579773,-0.9389445781707764,0.0,0.0,0.0,0.0,0.0,0.0
978,1724816389264687323,-2.0099802017211914,-1.214390754699707,0.1675380915403366,-0.023586655035614967,0.06952816992998123,0.3364868462085724,-0.9388216733932495,0.0,0.0,0.0,0.0,0.0,0.0
980,1724816389272401678,-2.009971857070923,-1.215349555015564,0.16678208112716675,-0.0232044979929924,0.07222744077444077,0.33443552255630493,-0.9393602609634399,0.0,0.0,0.0,0.0,0.0,0.0
982,1724816389283022379,-2.00877046585083,-1.2147588729858398,0.16854746639728546,-0.024822184816002846,0.07134927064180374,0.33280739188194275,-0.9399641156196594,0.0,0.0,0.0,0.0,0.0,0.0
984,1724816389292947252,-2.008371114730835,-1.215069055557251,0.16870591044425964,-0.02495669387280941,0.07195006310939789,0.3326685130596161,-0.9399638772010803,0.0,0.0,0.0,0.0,0.0,0.0
986,1724816389302719427,-2.007279872894287,-1.214582920074463,0.1692732721567154,-0.025965070351958275,0.07157807052135468,0.33395668864250183,-0.9395080804824829,0.0,0.0,0.0,0.0,0.0,0.0
988,1724816389312696030,-2.0064289569854736,-1.2145287990570068,0.1696256697177887,-0.02632085047662258,0.07210667431354523,0.3338506817817688,-0.9394954442977905,0.0,0.0,0.0,0.0,0.0,0.0
990,1724816389324201060,-2.0056731700897217,-1.2151497602462769,0.16783921420574188,-0.019949445500969887,0.08127148449420929,0.32989269495010376,-0.9403020143508911,0.0,0.0,0.0,0.0,0.0,0.0
992,1724816389332937693,-2.005162000656128,-1.2151718139648438,0.16830512881278992,-0.02074819803237915,0.07997018098831177,0.3311713933944702,-0.939946711063385,0.0,0.0,0.0,0.0,0.0,0.0
994,1724816389343218063,-2.004578113555908,-1.2153815031051636,0.16909249126911163,-0.023862136527895927,0.07776518166065216,0.331524133682251,-0.9399335384368896,0.0,0.0,0.0,0.0,0.0,0.0
996,1724816389352814159,-2.0040321350097656,-1.2157061100006104,0.16997964680194855,-0.025914406403899193,0.07545947283506393,0.3320545256137848,-0.939879834651947,0.0,0.0,0.0,0.0,0.0,0.0
998,1724816389362383643,-2.0035557746887207,-1.2159931659698486,0.17012959718704224,-0.025462577119469643,0.07606004923582077,0.331542432308197,-0.9400245547294617,0.0,0.0,0.0,0.0,0.0,0.0
1000,1724816389380892246,-2.0019614696502686,-1.2151007652282715,0.17102837562561035,-0.02832692489027977,0.07255613058805466,0.33789366483688354,-0.9379557967185974,0.0,0.0,0.0,0.0,0.0,0.0
1002,1724816389383436062,-2.0010178089141846,-1.2150343656539917,0.17132019996643066,-0.028865033760666847,0.07265833020210266,0.33957114815711975,-0.9373254776000977,0.0,0.0,0.0,0.0,0.0,0.0
1004,1724816389403129981,-2.000375509262085,-1.2157835960388184,0.17112454771995544,-0.02909291349351406,0.07265303283929825,0.3394819498062134,-0.9373512268066406,0.0,0.0,0.0,0.0,0.0,0.0
1006,1724816389403696310,-2.0012359619140625,-1.217083215713501,0.17028509080410004,-0.02717377431690693,0.07511091977357864,0.33414188027381897,-0.9391320943832397,0.0,0.0,0.0,0.0,0.0,0.0
1008,1724816389416724089,-2.00039005279541,-1.216949701309204,0.1712741255760193,-0.026570480316877365,0.07783941924571991,0.32930147647857666,-0.9406358003616333,0.0,0.0,0.0,0.0,0.0,0.0
1010,1724816389422833539,-1.9986761808395386,-1.2158639430999756,0.17216677963733673,-0.029567334800958633,0.07426106929779053,0.3362677991390228,-0.9383683204650879,0.0,0.0,0.0,0.0,0.0,0.0
1012,1724816389434927769,-1.9991272687911987,-1.2169562578201294,0.17160595953464508,-0.02697371505200863,0.0782056376338005,0.3283430337905884,-0.9409288763999939,0.0,0.0,0.0,0.0,0.0,0.0
1014,1724816389442900472,-1.9986883401870728,-1.2175599336624146,0.17152711749076843,-0.02629947103559971,0.08058128505945206,0.32495805621147156,-0.9419221878051758,0.0,0.0,0.0,0.0,0.0,0.0
1016,1724816389452824095,-1.9986697435379028,-1.2178839445114136,0.17148132622241974,-0.026460664346814156,0.07928609102964401,0.3266749978065491,-0.9414334893226624,0.0,0.0,0.0,0.0,0.0,0.0
1018,1724816389462855327,-1.9970500469207764,-1.2167375087738037,0.17312031984329224,-0.027106203138828278,0.07810251414775848,0.32699114084243774,-0.9414042830467224,0.0,0.0,0.0,0.0,0.0,0.0
1020,1724816389472553707,-1.9946861267089844,-1.2151203155517578,0.17431282997131348,-0.029344312846660614,0.0746573954820633,0.33600756525993347,-0.9384371042251587,0.0,0.0,0.0,0.0,0.0,0.0
1022,1724816389483832440,-1.9956506490707397,-1.2174313068389893,0.17322885990142822,-0.028833622112870216,0.07867315411567688,0.32563528418540955,-0.941775381565094,0.0,0.0,0.0,0.0,0.0,0.0
1024,1724816389492374237,-1.9949311017990112,-1.2176238298416138,0.17350654304027557,-0.02895127423107624,0.07912055402994156,0.3249672055244446,-0.9419651031494141,0.0,0.0,0.0,0.0,0.0,0.0
1026,1724816389503147299,-1.994242787361145,-1.2178281545639038,0.1738787442445755,-0.02928454428911209,0.07894016802310944,0.32456573843955994,-0.9421082139015198,0.0,0.0,0.0,0.0,0.0,0.0
1028,1724816389513431383,-1.9935566186904907,-1.217861533164978,0.17436042428016663,-0.029967550188302994,0.07835926860570908,0.32513880729675293,-0.9419376850128174,0.0,0.0,0.0,0.0,0.0,0.0
1030,1724816389524566280,-1.9931581020355225,-1.2181649208068848,0.17438538372516632,-0.03009793721139431,0.0790322944521904,0.32510894536972046,-0.9418875575065613,0.0,0.0,0.0,0.0,0.0,0.0
1032,1724816389533175885,-1.9926036596298218,-1.2187072038650513,0.1745964139699936,-0.02942340448498726,0.08004791289567947,0.322385311126709,-0.9427589774131775,0.0,0.0,0.0,0.0,0.0,0.0
1034,1724816389546257871,-1.9914963245391846,-1.218449592590332,0.17532819509506226,-0.030824029818177223,0.07759993523359299,0.3253774642944336,-0.9418904185295105,0.0,0.0,0.0,0.0,0.0,0.0
1036,1724816389554425149,-1.9908969402313232,-1.218803882598877,0.1754617989063263,-0.030163588002324104,0.07760760188102722,0.3253575265407562,-0.941918134689331,0.0,0.0,0.0,0.0,0.0,0.0
1038,1724816389562415170,-1.9901227951049805,-1.219663381576538,0.17523345351219177,-0.02982909046113491,0.08149003982543945,0.3198438286781311,-0.9434880018234253,0.0,0.0,0.0,0.0,0.0,0.0
1040,1724816389572679362,-1.989281177520752,-1.219700574874878,0.17557890713214874,-0.029971687123179436,0.08047410100698471,0.32166770100593567,-0.942950427532196,0.0,0.0,0.0,0.0,0.0,0.0
1042,1724816389583651588,-1.9886044263839722,-1.220234751701355,0.17567802965641022,-0.030046865344047546,0.08177119493484497,0.31901827454566956,-0.9437362551689148,0.0,0.0,0.0,0.0,0.0,0.0
1044,1724816389592873848,-1.9888691902160645,-1.221708059310913,0.1743614375591278,-0.02246817946434021,0.0926174446940422,0.3161745071411133,-0.9439019560813904,0.0,0.0,0.0,0.0,0.0,0.0
1046,1724816389603273346,-1.9880869388580322,-1.2222249507904053,0.17428840696811676,-0.022989921271800995,0.09166314452886581,0.3150138258934021,-0.9443705081939697,0.0,0.0,0.0,0.0,0.0,0.0
1048,1724816389612524916,-1.9867331981658936,-1.2227144241333008,0.1746806502342224,-0.02630441077053547,0.08979687094688416,0.3118034303188324,-0.9455280303955078,0.0,0.0,0.0,0.0,0.0,0.0
1050,1724816389623611168,-1.9858230352401733,-1.222631573677063,0.17523010075092316,-0.026632841676473618,0.09018120169639587,0.3151422441005707,-0.944374680519104,0.0,0.0,0.0,0.0,0.0,0.0
1052,1724816389633398371,-1.9851813316345215,-1.2239863872528076,0.17481942474842072,-0.02715534344315529,0.09171945601701736,0.30808255076408386,-0.9465386271476746,0.0,0.0,0.0,0.0,0.0,0.0
1054,1724816389643485429,-1.984220027923584,-1.2240090370178223,0.17564792931079865,-0.02871176227927208,0.08845318108797073,0.30998197197914124,-0.9461832642555237,0.0,0.0,0.0,0.0,0.0,0.0
1056,1724816389656668967,-1.9820784330368042,-1.2220790386199951,0.1788875311613083,-0.03260420635342598,0.07435774058103561,0.32270389795303345,-0.9430112242698669,0.0,0.0,0.0,0.0,0.0,0.0
1058,1724816389662442581,-1.9815834760665894,-1.2225079536437988,0.1789063662290573,-0.03235814720392227,0.07424268871545792,0.32092782855033875,-0.9436346292495728,0.0,0.0,0.0,0.0,0.0,0.0
1060,1724816389675316872,-1.981088638305664,-1.2232681512832642,0.17897547781467438,-0.032617952674627304,0.07486432790756226,0.3191553056240082,-0.9441776871681213,0.0,0.0,0.0,0.0,0.0,0.0
1062,1724816389683619837,-1.9795535802841187,-1.2229397296905518,0.17987990379333496,-0.03291581943631172,0.07178548723459244,0.3214370012283325,-0.943632185459137,0.0,0.0,0.0,0.0,0.0,0.0
1064,1724816389693146013,-1.9782966375350952,-1.2229098081588745,0.18064053356647491,-0.03473465144634247,0.06986004114151001,0.3226044774055481,-0.9433130025863647,0.0,0.0,0.0,0.0,0.0,0.0
1066,1724816389703523063,-1.9786807298660278,-1.224410057067871,0.18082310259342194,-0.03478676825761795,0.06918661296367645,0.31863275170326233,-0.9447097182273865,0.0,0.0,0.0,0.0,0.0,0.0
1068,1724816389712569500,-1.9747905731201172,-1.221704125404358,0.18177735805511475,-0.034492991864681244,0.06687655299901962,0.3327648341655731,-0.9400029182434082,0.0,0.0,0.0,0.0,0.0,0.0
1070,1724816389724707563,-1.9743889570236206,-1.2225010395050049,0.18244360387325287,-0.036225512623786926,0.06450314074754715,0.3299665153026581,-0.9410893321037292,0.0,0.0,0.0,0.0,0.0,0.0
1072,1724816389733588656,-1.9741934537887573,-1.2235969305038452,0.18244372308254242,-0.03397088870406151,0.06443552672863007,0.32563552260398865,-0.9426852464675903,0.0,0.0,0.0,0.0,0.0,0.0
1074,1724816389743305063,-1.9734435081481934,-1.2239964008331299,0.1829356700181961,-0.03530728444457054,0.061940211802721024,0.3262595534324646,-0.9425877332687378,0.0,0.0,0.0,0.0,0.0,0.0
1076,1724816389753324893,-1.972598910331726,-1.2245261669158936,0.18334048986434937,-0.03696168586611748,0.061023861169815063,0.32525041699409485,-0.9429327249526978,0.0,0.0,0.0,0.0,0.0,0.0
1078,1724816389763133107,-1.9700617790222168,-1.2236560583114624,0.18402807414531708,-0.03739210218191147,0.05898289382457733,0.3320595920085907,-0.9406696557998657,0.0,0.0,0.0,0.0,0.0,0.0
1080,1724816389782098185,-1.968772292137146,-1.2237834930419922,0.1842879354953766,-0.037289999425411224,0.05814347043633461,0.3329741954803467,-0.9404025673866272,0.0,0.0,0.0,0.0,0.0,0.0
1082,1724816389783440228,-1.969269871711731,-1.2253272533416748,0.1842411756515503,-0.03728959336876869,0.05845512077212334,0.32716554403305054,-0.9424199461936951,0.0,0.0,0.0,0.0,0.0,0.0
1084,1724816389796342738,-1.966619610786438,-1.2243074178695679,0.185006782412529,-0.036556925624608994,0.05548694357275963,0.33313989639282227,-0.9405332207679749,0.0,0.0,0.0,0.0,0.0,0.0
1086,1724816389804202757,-1.9667620658874512,-1.2260539531707764,0.18475358188152313,-0.03556409850716591,0.057218924164772034,0.3258996307849884,-0.9430009126663208,0.0,0.0,0.0,0.0,0.0,0.0
1088,1724816389812676117,-1.964957594871521,-1.2262440919876099,0.18513675034046173,-0.03351512923836708,0.057936232537031174,0.32554683089256287,-0.943153977394104,0.0,0.0,0.0,0.0,0.0,0.0
1090,1724816389822770961,-1.9624494314193726,-1.2248057126998901,0.18624627590179443,-0.03590179607272148,0.0532260462641716,0.3356691002845764,-0.9397895336151123,0.0,0.0,0.0,0.0,0.0,0.0
1092,1724816389834471178,-1.96272611618042,-1.2268174886703491,0.18621525168418884,-0.0357210673391819,0.054056037217378616,0.3277563452720642,-0.9425379633903503,0.0,0.0,0.0,0.0,0.0,0.0
1094,1724816389842695544,-1.9615389108657837,-1.227228045463562,0.18652264773845673,-0.03450995683670044,0.05431794002652168,0.3281913101673126,-0.9424166679382324,0.0,0.0,0.0,0.0,0.0,0.0
1096,1724816389869438297,-1.960699439048767,-1.2291733026504517,0.18449847400188446,-0.027136826887726784,0.06886301934719086,0.31939688324928284,-0.9447260499000549,0.0,0.0,0.0,0.0,0.0,0.0
1098,1724816389869733681,-1.9585739374160767,-1.2282744646072388,0.1874682903289795,-0.03315593674778938,0.053401485085487366,0.32675936818122864,-0.9430149793624878,0.0,0.0,0.0,0.0,0.0,0.0
1100,1724816389873143212,-1.957489252090454,-1.2285486459732056,0.18811623752117157,-0.03505871444940567,0.051231201738119125,0.3286767601966858,-0.9424000978469849,0.0,0.0,0.0,0.0,0.0,0.0
1102,1724816389888143910,-1.9560794830322266,-1.2290641069412231,0.1886313408613205,-0.03369282931089401,0.05134992301464081,0.3326558470726013,-0.9410462975502014,0.0,0.0,0.0,0.0,0.0,0.0
1104,1724816389892501589,-1.9523402452468872,-1.2283122539520264,0.19005723297595978,-0.033601462841033936,0.04568788409233093,0.33332937955856323,-0.9411031007766724,0.0,0.0,0.0,0.0,0.0,0.0
1106,1724816389907143179,-1.9497756958007812,-1.2278623580932617,0.19072286784648895,-0.03405415639281273,0.04417121037840843,0.337658166885376,-0.9396148920059204,0.0,0.0,0.0,0.0,0.0,0.0
1108,1724816389913759603,-1.948540210723877,-1.228588342666626,0.19070656597614288,-0.03441181778907776,0.045926641672849655,0.33682259917259216,-0.9398175477981567,0.0,0.0,0.0,0.0,0.0,0.0
1110,1724816389923710727,-1.9470255374908447,-1.2291704416275024,0.19082556664943695,-0.033426765352487564,0.0470268540084362,0.33676785230636597,-0.9398183822631836,0.0,0.0,0.0,0.0,0.0,0.0
1112,1724816389933884013,-1.945698857307434,-1.2300198078155518,0.19120492041110992,-0.03228132426738739,0.04589667543768883,0.3363059163093567,-0.9400796890258789,0.0,0.0,0.0,0.0,0.0,0.0
1114,1724816389942753490,-1.9444611072540283,-1.2309322357177734,0.19145257771015167,-0.030808711424469948,0.04365704581141472,0.33619970083236694,-0.9402737021446228,0.0,0.0,0.0,0.0,0.0,0.0
1116,1724816389954468317,-1.941684603691101,-1.2315466403961182,0.192296102643013,-0.03219907730817795,0.04234271124005318,0.33529943227767944,-0.9406087398529053,0.0,0.0,0.0,0.0,0.0,0.0
1118,1724816389962963534,-1.9406219720840454,-1.2329487800598145,0.19105970859527588,-0.03632171079516411,0.04263610020279884,0.3369024097919464,-0.9398722052574158,0.0,0.0,0.0,0.0,0.0,0.0
1120,1724816389973500734,-1.938550353050232,-1.2333935499191284,0.19178800284862518,-0.033916257321834564,0.040487486869096756,0.3372039794921875,-0.9399489164352417,0.0,0.0,0.0,0.0,0.0,0.0
1122,1724816389985563679,-1.9364885091781616,-1.2336249351501465,0.19280722737312317,-0.0329597182571888,0.03820696100592613,0.33916619420051575,-0.9393722414970398,0.0,0.0,0.0,0.0,0.0,0.0
1124,1724816389992731365,-1.934594988822937,-1.2351078987121582,0.19165414571762085,-0.03177390247583389,0.03581464663147926,0.340243399143219,-0.9391177892684937,0.0,0.0,0.0,0.0,0.0,0.0
1126,1724816390037620279,-1.9319530725479126,-1.235075831413269,0.19274544715881348,-0.03358353674411774,0.036998577415943146,0.33958250284194946,-0.9392481446266174,0.0,0.0,0.0,0.0,0.0,0.0
1128,1724816390038329896,-1.928708791732788,-1.2353514432907104,0.19501732289791107,-0.03174034133553505,0.031774744391441345,0.3366824984550476,-0.9405465722084045,0.0,0.0,0.0,0.0,0.0,0.0
1130,1724816390038575876,-1.9263075590133667,-1.2357795238494873,0.19459818303585052,-0.02996900863945484,0.03565920889377594,0.33961057662963867,-0.939411997795105,0.0,0.0,0.0,0.0,0.0,0.0
1132,1724816390039862786,-1.923963189125061,-1.2359495162963867,0.19556939601898193,-0.029658028855919838,0.028926661238074303,0.34286263585090637,-0.9384715557098389,0.0,0.0,0.0,0.0,0.0,0.0
1134,1724816390043472716,-1.9223607778549194,-1.2373216152191162,0.19449679553508759,-0.033841922879219055,0.029336726292967796,0.3429209887981415,-0.9382959604263306,0.0,0.0,0.0,0.0,0.0,0.0
1136,1724816390055280482,-1.9189578294754028,-1.2374762296676636,0.19498619437217712,-0.028940511867403984,0.03234127536416054,0.34224733710289,-0.9386071562767029,0.0,0.0,0.0,0.0,0.0,0.0
1138,1724816390066736262,-1.9171942472457886,-1.2382415533065796,0.19543424248695374,-0.032832302153110504,0.024970047175884247,0.34467703104019165,-0.9378147125244141,0.0,0.0,0.0,0.0,0.0,0.0
1140,1724816390072660413,-1.9138661623001099,-1.2384310960769653,0.19652993977069855,-0.03166770935058594,0.02006874792277813,0.3462182581424713,-0.9374045729637146,0.0,0.0,0.0,0.0,0.0,0.0
1142,1724816390083985240,-1.9122918844223022,-1.2398254871368408,0.1947629600763321,-0.03945598378777504,0.02174583449959755,0.34700271487236023,-0.9367815256118774,0.0,0.0,0.0,0.0,0.0,0.0
1144,1724816390092616058,-1.9088555574417114,-1.2398351430892944,0.19687949120998383,-0.03201935067772865,0.016030656173825264,0.34725281596183777,-0.9370876550674438,0.0,0.0,0.0,0.0,0.0,0.0
1146,1724816390102472892,-1.9064900875091553,-1.2405697107315063,0.197128027677536,-0.03197229281067848,0.012912814505398273,0.34769928455352783,-0.93697190284729,0.0,0.0,0.0,0.0,0.0,0.0
1148,1724816390112510713,-1.905335545539856,-1.2438799142837524,0.19311754405498505,-0.026181284338235855,0.031199563294649124,0.3317101299762726,-0.9425017833709717,0.0,0.0,0.0,0.0,0.0,0.0
1150,1724816390122612954,-1.9014123678207397,-1.2423038482666016,0.19692642986774445,-0.03126053512096405,0.009665431454777718,0.34797531366348267,-0.9369325637817383,0.0,0.0,0.0,0.0,0.0,0.0
1152,1724816390133179673,-1.8994109630584717,-1.2430201768875122,0.19628886878490448,-0.03607381507754326,0.007573914248496294,0.35065150260925293,-0.93578040599823,0.0,0.0,0.0,0.0,0.0,0.0
1154,1724816390142632631,-1.8968790769577026,-1.244069218635559,0.19590750336647034,-0.03547721356153488,0.005027773790061474,0.349470317363739,-0.9362620115280151,0.0,0.0,0.0,0.0,0.0,0.0
1156,1724816390158240115,-1.895136833190918,-1.2455307245254517,0.19520321488380432,-0.02573460154235363,0.005880892276763916,0.34976691007614136,-0.936464786529541,0.0,0.0,0.0,0.0,0.0,0.0
1158,1724816390162401271,-1.8920092582702637,-1.2478278875350952,0.19294683635234833,-0.03249484673142433,0.015026693232357502,0.3371175527572632,-0.9407817125320435,0.0,0.0,0.0,0.0,0.0,0.0
1160,1724816390174709254,-1.8886553049087524,-1.2469751834869385,0.1955632120370865,-0.03841777518391609,-0.003258807584643364,0.34845808148384094,-0.936531126499176,0.0,0.0,0.0,0.0,0.0,0.0
1162,1724816390184841136,-1.8858851194381714,-1.248294711112976,0.1952776163816452,-0.03605087473988533,-0.0045372433960437775,0.3462168872356415,-0.9374505877494812,0.0,0.0,0.0,0.0,0.0,0.0
1164,1724816390192549376,-1.8841540813446045,-1.2503308057785034,0.19342096149921417,-0.03318032622337341,-0.002171114319935441,0.34059014916419983,-0.9396237134933472,0.0,0.0,0.0,0.0,0.0,0.0
1166,1724816390206636437,-1.8803528547286987,-1.2504404783248901,0.19516341388225555,-0.04123888909816742,-0.01740495301783085,0.34700167179107666,-0.936795711517334,0.0,0.0,0.0,0.0,0.0,0.0
1168,1724816390212373381,-1.8777084350585938,-1.2521142959594727,0.1940665990114212,-0.03699588030576706,-0.01576514169573784,0.34219157695770264,-0.9387692809104919,0.0,0.0,0.0,0.0,0.0,0.0
1170,1724816390224682009,-1.8741812705993652,-1.2525233030319214,0.19512368738651276,-0.0413665696978569,-0.029548773542046547,0.34668415784835815,-0.9366033673286438,0.0,0.0,0.0,0.0,0.0,0.0
1172,1724816390234673415,-1.8711720705032349,-1.2545844316482544,0.1941612809896469,-0.04296308383345604,-0.03509782627224922,0.34435003995895386,-0.9372007846832275,0.0,0.0,0.0,0.0,0.0,0.0
1174,1724816390242432718,-1.8686954975128174,-1.2565698623657227,0.19254474341869354,-0.04047267138957977,-0.03474177420139313,0.3393953740596771,-0.9391303658485413,0.0,0.0,0.0,0.0,0.0,0.0
1176,1724816390252580631,-1.8647857904434204,-1.2586922645568848,0.19151706993579865,-0.04501108080148697,-0.03795025870203972,0.3349500596523285,-0.9403946995735168,0.0,0.0,0.0,0.0,0.0,0.0
1178,1724816390263606583,-1.861477017402649,-1.2606487274169922,0.1901378333568573,-0.049225032329559326,-0.0419435054063797,0.3328374922275543,-0.9407640099525452,0.0,0.0,0.0,0.0,0.0,0.0
1180,1724816390272913848,-1.8579576015472412,-1.26240873336792,0.1896589696407318,-0.04670523479580879,-0.052534069865942,0.33240821957588196,-0.940512478351593,0.0,0.0,0.0,0.0,0.0,0.0
1182,1724816390283628901,-1.853951334953308,-1.2641332149505615,0.1891426146030426,-0.04908117651939392,-0.06208036467432976,0.3325272798538208,-0.9397673606872559,0.0,0.0,0.0,0.0,0.0,0.0
1184,1724816390293410067,-1.8493202924728394,-1.2652459144592285,0.18986305594444275,-0.05189363658428192,-0.0821852833032608,0.3387908637523651,-0.9358276128768921,0.0,0.0,0.0,0.0,0.0,0.0
1186,1724816390305081015,-1.8458000421524048,-1.2680104970932007,0.1879856437444687,-0.05030761659145355,-0.0876990407705307,0.33317139744758606,-0.9374300241470337,0.0,0.0,0.0,0.0,0.0,0.0
1188,1724816390315639848,-1.840980052947998,-1.2704423666000366,0.1868501454591751,-0.05364378169178963,-0.09758435189723969,0.33278992772102356,-0.9364030361175537,0.0,0.0,0.0,0.0,0.0,0.0
1190,1724816390323141895,-1.8368507623672485,-1.272398829460144,0.18586373329162598,-0.05847885087132454,-0.1068200096487999,0.3336878716945648,-0.9347845911979675,0.0,0.0,0.0,0.0,0.0,0.0
1192,1724816390333381408,-1.834992527961731,-1.274259328842163,0.18296931684017181,-0.057182878255844116,-0.10134004056453705,0.3317906856536865,-0.9361492395401001,0.0,0.0,0.0,0.0,0.0,0.0
1194,1724816390343016192,-1.831730842590332,-1.2755653858184814,0.18314839899539948,-0.05878060311079025,-0.10756268352270126,0.3362920582294464,-0.9337466955184937,0.0,0.0,0.0,0.0,0.0,0.0
1196,1724816390354911478,-1.8299521207809448,-1.2769876718521118,0.18213000893592834,-0.05801774561405182,-0.10416608303785324,0.3356611430644989,-0.9344062209129333,0.0,0.0,0.0,0.0,0.0,0.0
1198,1724816390362690094,-1.8277041912078857,-1.2779004573822021,0.1824783980846405,-0.05780345946550369,-0.1072082668542862,0.33895230293273926,-0.9328861832618713,0.0,0.0,0.0,0.0,0.0,0.0
1200,1724816390372796003,-1.8252134323120117,-1.2784315347671509,0.1839442104101181,-0.05754760280251503,-0.11377590149641037,0.3413466811180115,-0.9312495589256287,0.0,0.0,0.0,0.0,0.0,0.0
1202,1724816390398857089,-1.8245618343353271,-1.2793232202529907,0.18272964656352997,-0.05568953976035118,-0.10884632170200348,0.3393472135066986,-0.9326814413070679,0.0,0.0,0.0,0.0,0.0,0.0
1204,1724816390399100990,-1.8241726160049438,-1.2801483869552612,0.18143968284130096,-0.05624840781092644,-0.10269695520401001,0.3356698751449585,-0.9346738457679749,0.0,0.0,0.0,0.0,0.0,0.0
1206,1724816390404791753,-1.8236656188964844,-1.2806594371795654,0.18090884387493134,-0.05648667737841606,-0.1013985425233841,0.3353727161884308,-0.9349079132080078,0.0,0.0,0.0,0.0,0.0,0.0
1208,1724816390414152633,-1.822783350944519,-1.2806475162506104,0.18091490864753723,-0.05595078691840172,-0.10207311809062958,0.33614298701286316,-0.9345900416374207,0.0,0.0,0.0,0.0,0.0,0.0
1210,1724816390423937857,-1.8210418224334717,-1.2801889181137085,0.18253310024738312,-0.054839905351400375,-0.11102278530597687,0.3409285843372345,-0.9318982362747192,0.0,0.0,0.0,0.0,0.0,0.0
1212,1724816390440496048,-1.8204420804977417,-1.2798411846160889,0.18262924253940582,-0.05379843711853027,-0.1114240512251854,0.3420260548591614,-0.9315087795257568,0.0,0.0,0.0,0.0,0.0,0.0
1214,1724816390445458596,-1.8199273347854614,-1.2795202732086182,0.18286922574043274,-0.05380343645811081,-0.11202453076839447,0.3427322804927826,-0.9311768412590027,0.0,0.0,0.0,0.0,0.0,0.0
1216,1724816390453109845,-1.819931149482727,-1.2792948484420776,0.18231475353240967,-0.0539553165435791,-0.10795686393976212,0.3420502841472626,-0.9318990111351013,0.0,0.0,0.0,0.0,0.0,0.0
1218,1724816390463816073,-1.819791555404663,-1.2789777517318726,0.1822250485420227,-0.05300571024417877,-0.10618489980697632,0.34014177322387695,-0.9328552484512329,0.0,0.0,0.0,0.0,0.0,0.0
1220,1724816390473767332,-1.8193905353546143,-1.2786918878555298,0.18262992799282074,-0.053509198129177094,-0.10740097612142563,0.3404092788696289,-0.932589590549469,0.0,0.0,0.0,0.0,0.0,0.0
1222,1724816390483935201,-1.819005012512207,-1.2783606052398682,0.18317142128944397,-0.05337836965918541,-0.10958617180585861,0.3407670557498932,-0.9322121739387512,0.0,0.0,0.0,0.0,0.0,0.0
1224,1724816390493215227,-1.8186765909194946,-1.278103232383728,0.18357908725738525,-0.05324668437242508,-0.11049632728099823,0.34070175886154175,-0.9321361184120178,0.0,0.0,0.0,0.0,0.0,0.0
1226,1724816390504718761,-1.818422555923462,-1.27791166305542,0.18395178020000458,-0.05267111212015152,-0.11132564395666122,0.3404664099216461,-0.9321560859680176,0.0,0.0,0.0,0.0,0.0,0.0
1228,1724816390513131446,-1.818316102027893,-1.2777634859085083,0.18434423208236694,-0.05199064686894417,-0.11196181923151016,0.33990931510925293,-0.9323213696479797,0.0,0.0,0.0,0.0,0.0,0.0
1230,1724816390522720476,-1.818196415901184,-1.2777085304260254,0.18466779589653015,-0.05080787092447281,-0.11216330528259277,0.33958712220191956,-0.9324798583984375,0.0,0.0,0.0,0.0,0.0,0.0
1232,1724816390536812714,-1.8182529211044312,-1.2778912782669067,0.18451431393623352,-0.049892302602529526,-0.10893405973911285,0.33809414505958557,-0.933454155921936,0.0,0.0,0.0,0.0,0.0,0.0
1234,1724816390542850233,-1.8181636333465576,-1.2779511213302612,0.18475644290447235,-0.04918218404054642,-0.10818461328744888,0.3375643193721771,-0.9337706565856934,0.0,0.0,0.0,0.0,0.0,0.0
1236,1724816390552612090,-1.818102240562439,-1.278021216392517,0.18498215079307556,-0.04864353686571121,-0.10751350224018097,0.3371848464012146,-0.9340134263038635,0.0,0.0,0.0,0.0,0.0,0.0
1238,1724816390562958170,-1.8178774118423462,-1.2780085802078247,0.18539991974830627,-0.0477641224861145,-0.1076510101556778,0.33759286999702454,-0.9338955283164978,0.0,0.0,0.0,0.0,0.0,0.0
1240,1724816390573190020,-1.8177205324172974,-1.2778820991516113,0.18598082661628723,-0.04730381444096565,-0.10788667947053909,0.33815208077430725,-0.9336894750595093,0.0,0.0,0.0,0.0,0.0,0.0
1242,1724816390582525507,-1.817847728729248,-1.278019666671753,0.18617835640907288,-0.046107593923807144,-0.10519648343324661,0.3361322581768036,-0.934785008430481,0.0,0.0,0.0,0.0,0.0,0.0
1244,1724816390592895889,-1.8178991079330444,-1.2779581546783447,0.18667910993099213,-0.045269619673490524,-0.10465250164270401,0.33530712127685547,-0.9351832866668701,0.0,0.0,0.0,0.0,0.0,0.0
1246,1724816390604250171,-1.8177043199539185,-1.2776507139205933,0.1876230239868164,-0.04505360126495361,-0.10750146955251694,0.33622726798057556,-0.9345399141311646,0.0,0.0,0.0,0.0,0.0,0.0
1248,1724816390612460662,-1.8179640769958496,-1.2774876356124878,0.18770763278007507,-0.04530594125390053,-0.10576950758695602,0.3354032039642334,-0.9350213408470154,0.0,0.0,0.0,0.0,0.0,0.0
1250,1724816390623626301,-1.8181204795837402,-1.2769776582717896,0.18836568295955658,-0.045524436980485916,-0.10666235536336899,0.3364834189414978,-0.9345210790634155,0.0,0.0,0.0,0.0,0.0,0.0
1252,1724816390633128899,-1.8182607889175415,-1.2765100002288818,0.18890723586082458,-0.04517082870006561,-0.10558871179819107,0.33676815032958984,-0.9345575571060181,0.0,0.0,0.0,0.0,0.0,0.0
1254,1724816390643242698,-1.8184117078781128,-1.2761106491088867,0.18926352262496948,-0.04438157007098198,-0.10372035205364227,0.3364182114601135,-0.9349305629730225,0.0,0.0,0.0,0.0,0.0,0.0
1256,1724816390655759781,-1.8181287050247192,-1.275524377822876,0.1903848797082901,-0.040935926139354706,-0.10495451837778091,0.33700069785118103,-0.9347403049468994,0.0,0.0,0.0,0.0,0.0,0.0
1258,1724816390662459396,-1.8181589841842651,-1.2749288082122803,0.1909560263156891,-0.0393015556037426,-0.10357967764139175,0.33636975288391113,-0.9351909756660461,0.0,0.0,0.0,0.0,0.0,0.0
1260,1724816390672892008,-1.8181551694869995,-1.274520754814148,0.19183507561683655,-0.036761075258255005,-0.10546412318944931,0.33738356828689575,-0.9347183704376221,0.0,0.0,0.0,0.0,0.0,0.0
1262,1724816390683722019,-1.81850004196167,-1.2739440202713013,0.19224518537521362,-0.03614538908004761,-0.10517661273479462,0.3375925123691559,-0.9346992373466492,0.0,0.0,0.0,0.0,0.0,0.0
1264,1724816390692823805,-1.818697214126587,-1.2737675905227661,0.19210772216320038,-0.03856808319687843,-0.10108041018247604,0.336330771446228,-0.9355089068412781,0.0,0.0,0.0,0.0,0.0,0.0
1266,1724816390703358105,-1.8190715312957764,-1.2738776206970215,0.19162051379680634,-0.03843194246292114,-0.0959978774189949,0.3347015678882599,-0.9366334676742554,0.0,0.0,0.0,0.0,0.0,0.0
1268,1724816390712730813,-1.8192861080169678,-1.273666262626648,0.19179071485996246,-0.03900546208024025,-0.09265561401844025,0.3337632715702057,-0.9372809529304504,0.0,0.0,0.0,0.0,0.0,0.0
1270,1724816390722644093,-1.8194501399993896,-1.2734531164169312,0.19210270047187805,-0.04038015380501747,-0.0896088033914566,0.3329141438007355,-0.9378207921981812,0.0,0.0,0.0,0.0,0.0,0.0
1272,1724816390733592589,-1.8195445537567139,-1.273337483406067,0.19223134219646454,-0.04198959842324257,-0.08597283810377121,0.33183252811431885,-0.938473641872406,0.0,0.0,0.0,0.0,0.0,0.0
1274,1724816390752320293,-1.819658875465393,-1.2731492519378662,0.19256456196308136,-0.04144551604986191,-0.08399046957492828,0.33135390281677246,-0.9388464093208313,0.0,0.0,0.0,0.0,0.0,0.0
1276,1724816390754518618,-1.8197518587112427,-1.2729582786560059,0.19288389384746552,-0.040635183453559875,-0.08252885192632675,0.33078616857528687,-0.9392115473747253,0.0,0.0,0.0,0.0,0.0,0.0
1278,1724816390763274444,-1.8197622299194336,-1.27272367477417,0.193240225315094,-0.040886830538511276,-0.08129849284887314,0.33058077096939087,-0.9393802285194397,0.0,0.0,0.0,0.0,0.0,0.0
1280,1724816390772937032,-1.8198037147521973,-1.2725850343704224,0.19342073798179626,-0.03933918848633766,-0.08014964312314987,0.3298915922641754,-0.9397872090339661,0.0,0.0,0.0,0.0,0.0,0.0
1282,1724816390783578450,-1.8198866844177246,-1.2724558115005493,0.19368335604667664,-0.03805777430534363,-0.07890769094228745,0.3292711675167084,-0.9401626586914062,0.0,0.0,0.0,0.0,0.0,0.0
1284,1724816390792405276,-1.8198997974395752,-1.2722644805908203,0.19400756061077118,-0.037309274077415466,-0.07738621532917023,0.32870715856552124,-0.9405164122581482,0.0,0.0,0.0,0.0,0.0,0.0
1286,1724816390802859130,-1.819888949394226,-1.272154450416565,0.19431796669960022,-0.03683314844965935,-0.07536250352859497,0.3277920186519623,-0.9410187602043152,0.0,0.0,0.0,0.0,0.0,0.0
1288,1724816390812844977,-1.8199031352996826,-1.271942377090454,0.19469362497329712,-0.036529790610075,-0.07384981960058212,0.32727086544036865,-0.9413318634033203,0.0,0.0,0.0,0.0,0.0,0.0
1290,1724816390823538690,-1.8199620246887207,-1.2717481851577759,0.1949707716703415,-0.03661889582872391,-0.07150304317474365,0.3264423608779907,-0.941797137260437,0.0,0.0,0.0,0.0,0.0,0.0
1292,1724816390833888152,-1.8200362920761108,-1.271553635597229,0.1952366977930069,-0.03760452941060066,-0.06887859106063843,0.3257081210613251,-0.9422079920768738,0.0,0.0,0.0,0.0,0.0,0.0
1294,1724816390842873989,-1.8202039003372192,-1.270565152168274,0.19604137539863586,-0.03726040571928024,-0.06993434578180313,0.3278161585330963,-0.9414124488830566,0.0,0.0,0.0,0.0,0.0,0.0
1296,1724816390852513976,-1.8203126192092896,-1.2703306674957275,0.19612959027290344,-0.037765372544527054,-0.06830806285142899,0.32721632719039917,-0.9417204260826111,0.0,0.0,0.0,0.0,0.0,0.0
1298,1724816390862767460,-1.82050621509552,-1.2700104713439941,0.1961807757616043,-0.037369173020124435,-0.06649856269359589,0.32659152150154114,-0.9420825839042664,0.0,0.0,0.0,0.0,0.0,0.0
1300,1724816390874184533,-1.8206831216812134,-1.269762635231018,0.19615691900253296,-0.036910127848386765,-0.06441630423069,0.3259526193141937,-0.9424664974212646,0.0,0.0,0.0,0.0,0.0,0.0
1302,1724816390884207018,-1.8208224773406982,-1.2695232629776,0.19616366922855377,-0.03653426095843315,-0.06216087564826012,0.32514235377311707,-0.9429123997688293,0.0,0.0,0.0,0.0,0.0,0.0
1304,1724816390892713694,-1.8209264278411865,-1.2692861557006836,0.1961280256509781,-0.034732162952423096,-0.06019718572497368,0.3244280219078064,-0.9433538317680359,0.0,0.0,0.0,0.0,0.0,0.0
1306,1724816390903490349,-1.8210606575012207,-1.269112467765808,0.19598031044006348,-0.03373224288225174,-0.057619497179985046,0.32342222332954407,-0.9438963532447815,0.0,0.0,0.0,0.0,0.0,0.0
1308,1724816390976632851,-1.8211190700531006,-1.268897294998169,0.19591596722602844,-0.03347354009747505,-0.05530261993408203,0.3227660357952118,-0.9442686438560486,0.0,0.0,0.0,0.0,0.0,0.0
1310,1724816390976885097,-1.8209505081176758,-1.2688180208206177,0.1960914433002472,-0.03380892798304558,-0.05508886277675629,0.32241347432136536,-0.9443896412849426,0.0,0.0,0.0,0.0,0.0,0.0
1312,1724816390977215398,-1.8209850788116455,-1.2686216831207275,0.19613267481327057,-0.03414781019091606,-0.053848203271627426,0.3217507600784302,-0.9446749091148376,0.0,0.0,0.0,0.0,0.0,0.0
1314,1724816390977494677,-1.8210818767547607,-1.2684459686279297,0.19613686203956604,-0.03464328870177269,-0.052190713584423065,0.3207521438598633,-0.9450893998146057,0.0,0.0,0.0,0.0,0.0,0.0
1316,1724816390977765210,-1.8212934732437134,-1.2682315111160278,0.1959444284439087,-0.03490376099944115,-0.04918869584798813,0.31951475143432617,-0.9456598162651062,0.0,0.0,0.0,0.0,0.0,0.0
1318,1724816390978260648,-1.8214361667633057,-1.2681057453155518,0.19581803679466248,-0.03453398123383522,-0.04648280143737793,0.3182060122489929,-0.9462514519691467,0.0,0.0,0.0,0.0,0.0,0.0
1320,1724816390978598074,-1.8215864896774292,-1.2679405212402344,0.1957622766494751,-0.03426056355237961,-0.04485689848661423,0.31742924451828003,-0.9466007351875305,0.0,0.0,0.0,0.0,0.0,0.0
1322,1724816390984199017,-1.821664810180664,-1.2677593231201172,0.1957196295261383,-0.034066781401634216,-0.04288145899772644,0.3164859116077423,-0.9470149278640747,0.0,0.0,0.0,0.0,0.0,0.0
1324,1724816390992806908,-1.8216966390609741,-1.267539143562317,0.19568896293640137,-0.033479105681180954,-0.040886733680963516,0.3155437707901001,-0.9474384784698486,0.0,0.0,0.0,0.0,0.0,0.0
1326,1724816391005799636,-1.821739912033081,-1.267337679862976,0.19579246640205383,-0.0332128144800663,-0.03978412225842476,0.31498244404792786,-0.9476815462112427,0.0,0.0,0.0,0.0,0.0,0.0
1328,1724816391012676733,-1.8217068910598755,-1.267122507095337,0.1958771049976349,-0.033338312059640884,-0.03829174488782883,0.3144528865814209,-0.9479144215583801,0.0,0.0,0.0,0.0,0.0,0.0
1330,1724816391022537638,-1.821709156036377,-1.2668994665145874,0.19612163305282593,-0.03521058335900307,-0.03711780905723572,0.31351399421691895,-0.9482043981552124,0.0,0.0,0.0,0.0,0.0,0.0
1332,1724816391033251182,-1.8217132091522217,-1.2666898965835571,0.19626709818840027,-0.035587556660175323,-0.035950079560279846,0.31279683113098145,-0.9484721422195435,0.0,0.0,0.0,0.0,0.0,0.0
1334,1724816391046675111,-1.8217620849609375,-1.2664846181869507,0.1963421106338501,-0.03535284474492073,-0.03446852043271065,0.31179744005203247,-0.9488648772239685,0.0,0.0,0.0,0.0,0.0,0.0
1336,1724816391052469284,-1.8218228816986084,-1.2662640810012817,0.19639112055301666,-0.0348370261490345,-0.032463137060403824,0.3108285963535309,-0.9492724537849426,0.0,0.0,0.0,0.0,0.0,0.0
1338,1724816391062598746,-1.8219990730285645,-1.2661187648773193,0.1961936205625534,-0.033173978328704834,-0.029900841414928436,0.3098151981830597,-0.9497473239898682,0.0,0.0,0.0,0.0,0.0,0.0
1340,1724816391073725890,-1.8221348524093628,-1.265924334526062,0.19607391953468323,-0.032759081572294235,-0.02771623432636261,0.3088058531284332,-0.9501566290855408,0.0,0.0,0.0,0.0,0.0,0.0
1342,1724816391083838218,-1.8222335577011108,-1.2657495737075806,0.1959535777568817,-0.03257734701037407,-0.025938628241419792,0.30800047516822815,-0.9504744410514832,0.0,0.0,0.0,0.0,0.0,0.0
1344,1724816391099876151,-1.8223820924758911,-1.265526294708252,0.19579270482063293,-0.032852042466402054,-0.02449093945324421,0.3074885904788971,-0.9506691098213196,0.0,0.0,0.0,0.0,0.0,0.0
1346,1724816391105598276,-1.822563886642456,-1.2652918100357056,0.19558069109916687,-0.03351343423128128,-0.022929567843675613,0.30703461170196533,-0.9508317112922668,0.0,0.0,0.0,0.0,0.0,0.0
1348,1724816391112481762,-1.8227981328964233,-1.265093207359314,0.19512733817100525,-0.033661600202322006,-0.020288199186325073,0.3066394031047821,-0.9510140419006348,0.0,0.0,0.0,0.0,0.0,0.0
1350,1724816391129143246,-1.8230280876159668,-1.2647974491119385,0.19490566849708557,-0.033913251012563705,-0.019234776496887207,0.3066214919090271,-0.9510327577590942,0.0,0.0,0.0,0.0,0.0,0.0
1352,1724816391133261891,-1.8235042095184326,-1.2648334503173828,0.1935521513223648,-0.034810375422239304,-0.013026981614530087,0.3047206699848175,-0.9517163038253784,0.0,0.0,0.0,0.0,0.0,0.0
1354,1724816391142921126,-1.823712706565857,-1.2634960412979126,0.19505327939987183,-0.03509841114282608,-0.021499376744031906,0.3113316297531128,-0.949409544467926,0.0,0.0,0.0,0.0,0.0,0.0
1356,1724816391154695487,-1.823990821838379,-1.2631853818893433,0.19478094577789307,-0.035706277936697006,-0.02060476876795292,0.3111521899700165,-0.9494655728340149,0.0,0.0,0.0,0.0,0.0,0.0
1358,1724816391162450711,-1.8241420984268188,-1.2631006240844727,0.19431911408901215,-0.03690396994352341,-0.019754132255911827,0.3099990487098694,-0.9498149752616882,0.0,0.0,0.0,0.0,0.0,0.0
1360,1724816391172879619,-1.8241453170776367,-1.262947916984558,0.19406165182590485,-0.03988632932305336,-0.019550055265426636,0.3083206117153168,-0.9502448439598083,0.0,0.0,0.0,0.0,0.0,0.0
1362,1724816391184863240,-1.8242624998092651,-1.264054298400879,0.19211840629577637,-0.039733968675136566,-0.01099937129765749,0.3009449541568756,-0.9527499079704285,0.0,0.0,0.0,0.0,0.0,0.0
1364,1724816391192392217,-1.8245857954025269,-1.2639650106430054,0.191135972738266,-0.03786342591047287,-0.008368066512048244,0.29919975996017456,-0.9534023404121399,0.0,0.0,0.0,0.0,0.0,0.0
1366,1724816391202853100,-1.8250538110733032,-1.2635231018066406,0.19075383245944977,-0.03621329739689827,-0.007474920246750116,0.2991005778312683,-0.9535049200057983,0.0,0.0,0.0,0.0,0.0,0.0
1368,1724816391217261634,-1.8255953788757324,-1.2633618116378784,0.19004474580287933,-0.033931393176317215,-0.007591974455863237,0.29857707023620605,-0.9537519812583923,0.0,0.0,0.0,0.0,0.0,0.0
1370,1724816391225293828,-1.8260458707809448,-1.263198733329773,0.1891944706439972,-0.03869559243321419,-0.004769975319504738,0.2967517077922821,-0.9541584849357605,0.0,0.0,0.0,0.0,0.0,0.0
1372,1724816391233582071,-1.8266124725341797,-1.2630972862243652,0.18805566430091858,-0.040286533534526825,-0.003605322679504752,0.2962668538093567,-0.9542484283447266,0.0,0.0,0.0,0.0,0.0,0.0
1374,1724816391242553088,-1.8274165391921997,-1.2627509832382202,0.18728753924369812,-0.03694045543670654,-0.0038879269268363714,0.29623687267303467,-0.9543920159339905,0.0,0.0,0.0,0.0,0.0,0.0
1376,1724816391252589171,-1.8282164335250854,-1.2619783878326416,0.18780595064163208,-0.03831661865115166,-0.013043860904872417,0.2997320592403412,-0.9531645178794861,0.0,0.0,0.0,0.0,0.0,0.0
1378,1724816391265232597,-1.8292016983032227,-1.2616506814956665,0.18722103536128998,-0.04073850437998772,-0.009933657944202423,0.2987026274204254,-0.9534245729446411,0.0,0.0,0.0,0.0,0.0,0.0
1380,1724816391272579334,-1.8301429748535156,-1.261649250984192,0.18613223731517792,-0.04219614714384079,-0.00768818985670805,0.29737401008605957,-0.9537972211837769,0.0,0.0,0.0,0.0,0.0,0.0
1382,1724816391283752560,-1.8310389518737793,-1.2619235515594482,0.185382679104805,-0.04486926272511482,-0.008829347789287567,0.2960186302661896,-0.9540868997573853,0.0,0.0,0.0,0.0,0.0,0.0
1384,1724816391293085307,-1.832071304321289,-1.2627036571502686,0.18229079246520996,-0.03862389549612999,0.0038386003579944372,0.2928504943847656,-0.9553701281547546,0.0,0.0,0.0,0.0,0.0,0.0
1386,1724816391303364242,-1.8331749439239502,-1.2628908157348633,0.18224844336509705,-0.042138323187828064,0.0027126900386065245,0.29109805822372437,-0.9557609558105469,0.0,0.0,0.0,0.0,0.0,0.0
1388,1724816391318989413,-1.833906888961792,-1.2642343044281006,0.17987455427646637,-0.04151688516139984,0.00821860134601593,0.2882212996482849,-0.9566280841827393,0.0,0.0,0.0,0.0,0.0,0.0
1390,1724816391322989705,-1.8356395959854126,-1.2644517421722412,0.1798018217086792,-0.04420773312449455,0.006071829702705145,0.28860223293304443,-0.9564087390899658,0.0,0.0,0.0,0.0,0.0,0.0
1392,1724816391333702039,-1.8366694450378418,-1.2646033763885498,0.1792117804288864,-0.04718431457877159,0.007536451797932386,0.28929415345191956,-0.9560469388961792,0.0,0.0,0.0,0.0,0.0,0.0
1394,1724816391342669203,-1.8381093740463257,-1.2654260396957397,0.17778965830802917,-0.04648576304316521,0.010952464304864407,0.2879934310913086,-0.9564407467842102,0.0,0.0,0.0,0.0,0.0,0.0
1396,1724816391353256904,-1.8393977880477905,-1.2660728693008423,0.17639678716659546,-0.04632822424173355,0.014507895335555077,0.28640761971473694,-0.9568771719932556,0.0,0.0,0.0,0.0,0.0,0.0
1398,1724816391362576378,-1.8408151865005493,-1.2671780586242676,0.17568257451057434,-0.05084608495235443,0.013360177166759968,0.2850969731807709,-0.9570558667182922,0.0,0.0,0.0,0.0,0.0,0.0
1400,1724816391374015128,-1.8422861099243164,-1.2681210041046143,0.17441986501216888,-0.05101016163825989,0.018177080899477005,0.2827405035495758,-0.9576666951179504,0.0,0.0,0.0,0.0,0.0,0.0
1402,1724816391383523798,-1.8436213731765747,-1.2687665224075317,0.17264175415039062,-0.05083717778325081,0.024004250764846802,0.2810208201408386,-0.9580536484718323,0.0,0.0,0.0,0.0,0.0,0.0
1404,1724816391392855330,-1.8453013896942139,-1.270213007926941,0.1702205389738083,-0.046624645590782166,0.032417960464954376,0.2767610251903534,-0.9592594504356384,0.0,0.0,0.0,0.0,0.0,0.0
1406,1724816391404136840,-1.8465815782546997,-1.2718912363052368,0.16763004660606384,-0.04500399902462959,0.03974321112036705,0.2721675634384155,-0.9603749513626099,0.0,0.0,0.0,0.0,0.0,0.0
1408,1724816391412674237,-1.848257303237915,-1.2723042964935303,0.16700826585292816,-0.04600594565272331,0.04344350844621658,0.2711073160171509,-0.9604671597480774,0.0,0.0,0.0,0.0,0.0,0.0
1410,1724816391427701635,-1.8498177528381348,-1.2733834981918335,0.16528262197971344,-0.041658900678157806,0.03667687252163887,0.2755696475505829,-0.959677517414093,0.0,0.0,0.0,0.0,0.0,0.0
1412,1724816391434870063,-1.8521044254302979,-1.2736635208129883,0.16497360169887543,-0.048800427466630936,0.04142968729138374,0.27063360810279846,-0.9605517983436584,0.0,0.0,0.0,0.0,0.0,0.0
1414,1724816391442542447,-1.8539931774139404,-1.2748709917068481,0.16293685138225555,-0.05126546323299408,0.043412722647190094,0.26924842596054077,-0.960724949836731,0.0,0.0,0.0,0.0,0.0,0.0
1416,1724816391453264486,-1.8558034896850586,-1.2756925821304321,0.16114500164985657,-0.048931658267974854,0.051662471145391464,0.26592329144477844,-0.9613643884658813,0.0,0.0,0.0,0.0,0.0,0.0
1418,1724816391464248087,-1.8578399419784546,-1.2765965461730957,0.1592227816581726,-0.047102123498916626,0.0556836798787117,0.26409390568733215,-0.9617355465888977,0.0,0.0,0.0,0.0,0.0,0.0
1420,1724816391473469071,-1.859868049621582,-1.2776970863342285,0.1573733389377594,-0.04824495688080788,0.058988649398088455,0.2614424526691437,-0.9622061252593994,0.0,0.0,0.0,0.0,0.0,0.0
1422,1724816391484128518,-1.8619762659072876,-1.2787120342254639,0.15427355468273163,-0.04431096091866493,0.06685156375169754,0.2577601671218872,-0.9628744125366211,0.0,0.0,0.0,0.0,0.0,0.0
1424,1724816391492690973,-1.8640022277832031,-1.2798115015029907,0.15183916687965393,-0.04385366290807724,0.07194813340902328,0.254635214805603,-0.9633593559265137,0.0,0.0,0.0,0.0,0.0,0.0
1426,1724816391505897217,-1.8660333156585693,-1.280660629272461,0.14986062049865723,-0.04705086350440979,0.07352075725793839,0.2524755597114563,-0.9636581540107727,0.0,0.0,0.0,0.0,0.0,0.0
1428,1724816391512782934,-1.86751389503479,-1.2816619873046875,0.14734694361686707,-0.04161546006798744,0.07930463552474976,0.25111067295074463,-0.9638062119483948,0.0,0.0,0.0,0.0,0.0,0.0
1430,1724816391522697354,-1.868823766708374,-1.2821944952011108,0.1456092745065689,-0.03992772847414017,0.08138514310121536,0.25042280554771423,-0.963883101940155,0.0,0.0,0.0,0.0,0.0,0.0
1432,1724816391534152032,-1.8699764013290405,-1.2826744318008423,0.14450863003730774,-0.042063262313604355,0.0852639302611351,0.250287264585495,-0.9634920954704285,0.0,0.0,0.0,0.0,0.0,0.0
1434,1724816391542786484,-1.8713293075561523,-1.2837992906570435,0.1438729614019394,-0.04576284438371658,0.08684568852186203,0.248228520154953,-0.9637148380279541,0.0,0.0,0.0,0.0,0.0,0.0
1436,1724816391554565851,-1.8726122379302979,-1.2854623794555664,0.14448250830173492,-0.0474938228726387,0.0811251550912857,0.24447651207447052,-0.9650877118110657,0.0,0.0,0.0,0.0,0.0,0.0
1438,1724816391563061874,-1.8733632564544678,-1.2857109308242798,0.1441640555858612,-0.046805743128061295,0.08420883119106293,0.24462521076202393,-0.9648194909095764,0.0,0.0,0.0,0.0,0.0,0.0
1440,1724816391572509830,-1.874473214149475,-1.2869532108306885,0.14474418759346008,-0.04286831617355347,0.08035937696695328,0.24044184386730194,-0.9663811326026917,0.0,0.0,0.0,0.0,0.0,0.0
1442,1724816391582890851,-1.8755875825881958,-1.2887120246887207,0.1427641659975052,-0.043482985347509384,0.08982087671756744,0.23335205018520355,-0.9672581553459167,0.0,0.0,0.0,0.0,0.0,0.0
1444,1724816391594139258,-1.8755451440811157,-1.288794755935669,0.14500921964645386,-0.04408413916826248,0.07867267727851868,0.23603777587413788,-0.9675501585006714,0.0,0.0,0.0,0.0,0.0,0.0
1446,1724816391602676415,-1.8761833906173706,-1.2895739078521729,0.14449623227119446,-0.04369017481803894,0.07914390414953232,0.2347276210784912,-0.9678483605384827,0.0,0.0,0.0,0.0,0.0,0.0
1448,1724816391612451478,-1.8765496015548706,-1.2900309562683105,0.1441517472267151,-0.04062865674495697,0.07793465256690979,0.23242832720279694,-0.9686344861984253,0.0,0.0,0.0,0.0,0.0,0.0
1450,1724816391623186377,-1.876777172088623,-1.2893506288528442,0.14397889375686646,-0.036027878522872925,0.07805145531892776,0.23036380112171173,-0.9693000316619873,0.0,0.0,0.0,0.0,0.0,0.0
1452,1724816391634515206,-1.876529574394226,-1.2888017892837524,0.1435338854789734,-0.03324040025472641,0.07809791713953018,0.2278403639793396,-0.9699921011924744,0.0,0.0,0.0,0.0,0.0,0.0
1454,1724816391642826652,-1.8766298294067383,-1.2882064580917358,0.14344216883182526,-0.03056587092578411,0.07907101511955261,0.225316122174263,-0.9705905914306641,0.0,0.0,0.0,0.0,0.0,0.0
1456,1724816391655224772,-1.8766957521438599,-1.287975549697876,0.1429663896560669,-0.03128114715218544,0.0792841911315918,0.2234208881855011,-0.9709884524345398,0.0,0.0,0.0,0.0,0.0,0.0
1458,1724816391675844581,-1.87615168094635,-1.2873300313949585,0.14265771210193634,-0.03131561726331711,0.08001385629177094,0.2204507291316986,-0.9716062545776367,0.0,0.0,0.0,0.0,0.0,0.0
1460,1724816391676318974,-1.875951886177063,-1.2861663103103638,0.14406603574752808,-0.03013479709625244,0.07711458206176758,0.2184077650308609,-0.9723391532897949,0.0,0.0,0.0,0.0,0.0,0.0
1462,1724816391684925852,-1.876171588897705,-1.2859208583831787,0.14281781017780304,-0.025362186133861542,0.0789162740111351,0.21572893857955933,-0.9729286432266235,0.0,0.0,0.0,0.0,0.0,0.0
1464,1724816391692848880,-1.8750032186508179,-1.284377098083496,0.14364732801914215,-0.02758677676320076,0.07924328744411469,0.2124204933643341,-0.9735692739486694,0.0,0.0,0.0,0.0,0.0,0.0
1466,1724816391705479736,-1.8757107257843018,-1.284511685371399,0.14279773831367493,-0.02218112349510193,0.07751884311437607,0.21067005395889282,-0.9742264151573181,0.0,0.0,0.0,0.0,0.0,0.0
1468,1724816391713047327,-1.875780701637268,-1.2840853929519653,0.14270706474781036,-0.02008744701743126,0.07798357307910919,0.20744293928146362,-0.9749269485473633,0.0,0.0,0.0,0.0,0.0,0.0
1470,1724816391723304786,-1.8753231763839722,-1.283536434173584,0.14281710982322693,-0.020859308540821075,0.07766543328762054,0.2044704407453537,-0.9755638837814331,0.0,0.0,0.0,0.0,0.0,0.0
1472,1724816391738809277,-1.8734917640686035,-1.282931923866272,0.14146552979946136,-0.02040630578994751,0.09212331473827362,0.19027861952781677,-0.9771851897239685,0.0,0.0,0.0,0.0,0.0,0.0
1474,1724816391743506214,-1.873031497001648,-1.2831696271896362,0.14053305983543396,-0.021536193788051605,0.09820456802845001,0.18313783407211304,-0.977932870388031,0.0,0.0,0.0,0.0,0.0,0.0
1476,1724816391753249147,-1.872730016708374,-1.2816964387893677,0.14276514947414398,-0.018441224470734596,0.08708484470844269,0.18803997337818146,-0.9781191945075989,0.0,0.0,0.0,0.0,0.0,0.0
1478,1724816391766040389,-1.8725755214691162,-1.281369686126709,0.14271093904972076,-0.01753757707774639,0.08824959397315979,0.1894598752260208,-0.9777573943138123,0.0,0.0,0.0,0.0,0.0,0.0
1480,1724816391773198127,-1.872381329536438,-1.2812741994857788,0.1425996720790863,-0.017457081004977226,0.0884176641702652,0.18830186128616333,-0.9779672622680664,0.0,0.0,0.0,0.0,0.0,0.0
1482,1724816391784178000,-1.8720568418502808,-1.2810732126235962,0.1424637883901596,-0.01846630871295929,0.08892866224050522,0.1854778379201889,-0.9784420132637024,0.0,0.0,0.0,0.0,0.0,0.0
1484,1724816391794423066,-1.8711951971054077,-1.2802245616912842,0.14343102276325226,-0.019353551790118217,0.08743642270565033,0.18250109255313873,-0.979118824005127,0.0,0.0,0.0,0.0,0.0,0.0
1486,1724816391802490875,-1.8706251382827759,-1.280106782913208,0.14357227087020874,-0.021585827693343163,0.0885755717754364,0.18108385801315308,-0.979232907295227,0.0,0.0,0.0,0.0,0.0,0.0
1488,1724816391812586115,-1.8702527284622192,-1.2798458337783813,0.14354471862316132,-0.022569825872778893,0.0897994115948677,0.17993314564228058,-0.9793114066123962,0.0,0.0,0.0,0.0,0.0,0.0
1490,1724816391827413415,-1.869956374168396,-1.2797183990478516,0.14445997774600983,-0.02398194558918476,0.08210545033216476,0.1789805144071579,-0.9801273345947266,0.0,0.0,0.0,0.0,0.0,0.0
1492,1724816391833577723,-1.8696589469909668,-1.2796363830566406,0.14445331692695618,-0.024607865139842033,0.08128275722265244,0.17783907055854797,-0.9803881049156189,0.0,0.0,0.0,0.0,0.0,0.0
1494,1724816391858048635,-1.8694425821304321,-1.279531717300415,0.14446525275707245,-0.024732666090130806,0.0813867375254631,0.1769510805606842,-0.9805369973182678,0.0,0.0,0.0,0.0,0.0,0.0
1496,1724816391858421048,-1.8695082664489746,-1.2792876958847046,0.14468158781528473,-0.02319798246026039,0.08069470524787903,0.17729192972183228,-0.9805701375007629,0.0,0.0,0.0,0.0,0.0,0.0
1498,1724816391862557515,-1.8692834377288818,-1.27923583984375,0.14468617737293243,-0.023248879238963127,0.08038493990898132,0.17648591101169586,-0.9807398319244385,0.0,0.0,0.0,0.0,0.0,0.0
1500,1724816391873189636,-1.869162678718567,-1.2791674137115479,0.14470253884792328,-0.02296021766960621,0.08034856617450714,0.17588594555854797,-0.9808573722839355,0.0,0.0,0.0,0.0,0.0,0.0
1502,1724816391883622007,-1.8689857721328735,-1.279150128364563,0.14466410875320435,-0.02290748432278633,0.08038821071386337,0.17525453865528107,-0.9809682965278625,0.0,0.0,0.0,0.0,0.0,0.0
1504,1724816391892709278,-1.8692107200622559,-1.2789682149887085,0.14477446675300598,-0.02206750214099884,0.08067071437835693,0.17514708638191223,-0.980983555316925,0.0,0.0,0.0,0.0,0.0,0.0
1506,1724816391981284471,-1.8691599369049072,-1.2789711952209473,0.14476928114891052,-0.02193133905529976,0.08077892661094666,0.17462891340255737,-0.9810701608657837,0.0,0.0,0.0,0.0,0.0,0.0
1508,1724816391981545173,-1.8690662384033203,-1.2790030241012573,0.14475461840629578,-0.021442534402012825,0.08074159920215607,0.1741301715373993,-0.9811726212501526,0.0,0.0,0.0,0.0,0.0,0.0
1510,1724816391981904417,-1.8689849376678467,-1.2790361642837524,0.144719660282135,-0.021392427384853363,0.08086278289556503,0.17374368011951447,-0.9812322854995728,0.0,0.0,0.0,0.0,0.0,0.0
1512,1724816391982263295,-1.8686528205871582,-1.2791720628738403,0.14489582180976868,-0.0207148939371109,0.08044986426830292,0.17253750562667847,-0.9814935922622681,0.0,0.0,0.0,0.0,0.0,0.0
1514,1724816391982508674,-1.8684909343719482,-1.2792742252349854,0.14495302736759186,-0.020398076623678207,0.08023931086063385,0.1720532327890396,-0.9816023707389832,0.0,0.0,0.0,0.0,0.0,0.0
1516,1724816391982754528,-1.8683189153671265,-1.2793445587158203,0.14502094686031342,-0.02042425237596035,0.08006907254457474,0.1718199998140335,-0.9816566109657288,0.0,0.0,0.0,0.0,0.0,0.0
1518,1724816391983080734,-1.8681553602218628,-1.2793179750442505,0.14477825164794922,-0.020087415352463722,0.08165588974952698,0.17046041786670685,-0.9817699193954468,0.0,0.0,0.0,0.0,0.0,0.0
1520,1724816391983454739,-1.8679319620132446,-1.2793298959732056,0.14499565958976746,-0.019796427339315414,0.08111535757780075,0.16999496519565582,-0.9819013476371765,0.0,0.0,0.0,0.0,0.0,0.0
1522,1724816391983827937,-1.8680174350738525,-1.2794189453125,0.1445518583059311,-0.020457979291677475,0.08265382051467896,0.17051537334918976,-0.9816692471504211,0.0,0.0,0.0,0.0,0.0,0.0
1524,1724816391992563590,-1.8678033351898193,-1.2793829441070557,0.14469261467456818,-0.020719211548566818,0.08245968073606491,0.17052459716796875,-0.9816784262657166,0.0,0.0,0.0,0.0,0.0,0.0
1526,1724816392003430452,-1.867613434791565,-1.2794969081878662,0.14456135034561157,-0.02055284008383751,0.08322645723819733,0.1698177605867386,-0.9817397594451904,0.0,0.0,0.0,0.0,0.0,0.0
1528,1724816392012674700,-1.8673707246780396,-1.279533863067627,0.1446070671081543,-0.020641231909394264,0.08342704176902771,0.16941434144973755,-0.9817905426025391,0.0,0.0,0.0,0.0,0.0,0.0
1530,1724816392022669049,-1.867091417312622,-1.2794222831726074,0.14441262185573578,-0.020258508622646332,0.08576050400733948,0.16951893270015717,-0.9815794229507446,0.0,0.0,0.0,0.0,0.0,0.0
1532,1724816392033488967,-1.867324948310852,-1.2798657417297363,0.14402492344379425,-0.01892630010843277,0.08598700165748596,0.17088927328586578,-0.9813485145568848,0.0,0.0,0.0,0.0,0.0,0.0
1534,1724816392045488857,-1.8665330410003662,-1.2797555923461914,0.14413411915302277,-0.02051789127290249,0.0868297591805458,0.16890226304531097,-0.9815862774848938,0.0,0.0,0.0,0.0,0.0,0.0
1536,1724816392052468426,-1.8662915229797363,-1.2800440788269043,0.14453862607479095,-0.021372487768530846,0.08441384881734848,0.16782528162002563,-0.9819634556770325,0.0,0.0,0.0,0.0,0.0,0.0
1538,1724816392063582034,-1.865384578704834,-1.2802363634109497,0.1441882997751236,-0.02307576686143875,0.08775626122951508,0.16473020613193512,-0.982155978679657,0.0,0.0,0.0,0.0,0.0,0.0
1540,1724816392073330343,-1.8649709224700928,-1.2801889181137085,0.14446797966957092,-0.02412952110171318,0.08703853189945221,0.1651574671268463,-0.9821227788925171,0.0,0.0,0.0,0.0,0.0,0.0
1542,1724816392084289139,-1.8652256727218628,-1.280430793762207,0.14451931416988373,-0.02263364940881729,0.08426598459482193,0.16793818771839142,-0.9819285869598389,0.0,0.0,0.0,0.0,0.0,0.0
1544,1724816392092613853,-1.8645219802856445,-1.2804354429244995,0.14428871870040894,-0.02444060891866684,0.08696510642766953,0.16627052426338196,-0.9819337129592896,0.0,0.0,0.0,0.0,0.0,0.0
1546,1724816392102790284,-1.864548683166504,-1.2808821201324463,0.14427721500396729,-0.0232173353433609,0.0861998125910759,0.166280135512352,-0.9820293188095093,0.0,0.0,0.0,0.0,0.0,0.0
1548,1724816392112476293,-1.8640199899673462,-1.280994176864624,0.1442028433084488,-0.024447450414299965,0.08777513355016708,0.1649167388677597,-0.9820897579193115,0.0,0.0,0.0,0.0,0.0,0.0
1550,1724816392123235732,-1.8633757829666138,-1.2807711362838745,0.144743874669075,-0.027599403634667397,0.08925474435091019,0.16322655975818634,-0.9821552634239197,0.0,0.0,0.0,0.0,0.0,0.0
1552,1724816392133128650,-1.861717939376831,-1.2804615497589111,0.14586536586284637,-0.030878042802214622,0.08802925795316696,0.1612294465303421,-0.9824981689453125,0.0,0.0,0.0,0.0,0.0,0.0
1554,1724816392143225647,-1.8611775636672974,-1.2803115844726562,0.14564035832881927,-0.03201327845454216,0.0926656648516655,0.16107839345932007,-0.9820600748062134,0.0,0.0,0.0,0.0,0.0,0.0
1556,1724816392160363698,-1.8600411415100098,-1.280693531036377,0.1455744206905365,-0.03351921960711479,0.0943860337138176,0.15922285616397858,-0.9821485877037048,0.0,0.0,0.0,0.0,0.0,0.0
1558,1724816392163917278,-1.8590871095657349,-1.2806812524795532,0.14587199687957764,-0.03586965054273605,0.09310736507177353,0.15983407199382782,-0.9820883870124817,0.0,0.0,0.0,0.0,0.0,0.0
1560,1724816392173048467,-1.8594551086425781,-1.2805503606796265,0.14625701308250427,-0.03676190227270126,0.09419276565313339,0.1593729704618454,-0.9820268154144287,0.0,0.0,0.0,0.0,0.0,0.0
1562,1724816392183975496,-1.8590251207351685,-1.280815601348877,0.14594870805740356,-0.03746430203318596,0.09619712829589844,0.15822641551494598,-0.9819913506507874,0.0,0.0,0.0,0.0,0.0,0.0
1564,1724816392193233649,-1.8592097759246826,-1.2815459966659546,0.14599142968654633,-0.03646280989050865,0.09379810839891434,0.15833422541618347,-0.9822437167167664,0.0,0.0,0.0,0.0,0.0,0.0
1566,1724816392205869502,-1.858608365058899,-1.281662940979004,0.14613617956638336,-0.03795212134718895,0.094325952231884,0.15785376727581024,-0.982214093208313,0.0,0.0,0.0,0.0,0.0,0.0
1568,1724816392212950900,-1.8573325872421265,-1.2816771268844604,0.1456575244665146,-0.038721244782209396,0.09825374186038971,0.1570558249950409,-0.9819268584251404,0.0,0.0,0.0,0.0,0.0,0.0
1570,1724816392224552166,-1.8563463687896729,-1.2817715406417847,0.1456526219844818,-0.0391681008040905,0.10006699711084366,0.15671885013580322,-0.9817798733711243,0.0,0.0,0.0,0.0,0.0,0.0
1572,1724816392233385945,-1.8545091152191162,-1.2811626195907593,0.147072434425354,-0.04116556793451309,0.09963961690664291,0.15599240362644196,-0.9818573594093323,0.0,0.0,0.0,0.0,0.0,0.0
1574,1724816392242754833,-1.854317545890808,-1.281359076499939,0.14711341261863708,-0.042746733874082565,0.10045383870601654,0.15520858764648438,-0.9818310737609863,0.0,0.0,0.0,0.0,0.0,0.0
1576,1724816392254670331,-1.853149175643921,-1.2816452980041504,0.14737766981124878,-0.04408315196633339,0.10071007162332535,0.1535947322845459,-0.9819994568824768,0.0,0.0,0.0,0.0,0.0,0.0
1578,1724816392263138699,-1.8527060747146606,-1.281731367111206,0.14756722748279572,-0.04502575099468231,0.10167113691568375,0.15289553999900818,-0.9819667935371399,0.0,0.0,0.0,0.0,0.0,0.0
1580,1724816392272880205,-1.8515015840530396,-1.2819417715072632,0.14749030768871307,-0.046308163553476334,0.10391491651535034,0.1526167392730713,-0.9817155003547668,0.0,0.0,0.0,0.0,0.0,0.0
1582,1724816392284284054,-1.8504735231399536,-1.282289981842041,0.14820429682731628,-0.051211513578891754,0.10143454372882843,0.15174467861652374,-0.9818665981292725,0.0,0.0,0.0,0.0,0.0,0.0
1584,1724816392292780733,-1.8501529693603516,-1.2823611497879028,0.1482345163822174,-0.05265212059020996,0.10282403975725174,0.1516149640083313,-0.9816659092903137,0.0,0.0,0.0,0.0,0.0,0.0
1586,1724816392302550421,-1.8492332696914673,-1.282532811164856,0.14853225648403168,-0.05378729850053787,0.10306505858898163,0.15131951868534088,-0.9816246628761292,0.0,0.0,0.0,0.0,0.0,0.0
1588,1724816392312873283,-1.8486522436141968,-1.282394528388977,0.14832083880901337,-0.054940104484558105,0.10551062971353531,0.15407505631446838,-0.9808721542358398,0.0,0.0,0.0,0.0,0.0,0.0
1590,1724816392337200864,-1.8479583263397217,-1.2825545072555542,0.14818182587623596,-0.0553123913705349,0.1069084107875824,0.15458446741104126,-0.9806196689605713,0.0,0.0,0.0,0.0,0.0,0.0
1592,1724816392337453822,-1.8466869592666626,-1.2821913957595825,0.14889948070049286,-0.05600188672542572,0.10767042636871338,0.1528492271900177,-0.9807690382003784,0.0,0.0,0.0,0.0,0.0,0.0
1594,1724816392343705383,-1.8456518650054932,-1.283362865447998,0.14784979820251465,-0.056727245450019836,0.11476518213748932,0.14686504006385803,-0.9808372259140015,0.0,0.0,0.0,0.0,0.0,0.0
1596,1724816392353218606,-1.844889760017395,-1.2839372158050537,0.14729832112789154,-0.058309607207775116,0.11675730347633362,0.14898216724395752,-0.980189859867096,0.0,0.0,0.0,0.0,0.0,0.0
1598,1724816392362462131,-1.8432128429412842,-1.2837028503417969,0.14899715781211853,-0.05854678526520729,0.1124916523694992,0.14887532591819763,-0.9806906580924988,0.0,0.0,0.0,0.0,0.0,0.0
1600,1724816392372961795,-1.84239661693573,-1.2836381196975708,0.14919893443584442,-0.05757550150156021,0.11257296800613403,0.14937566220760345,-0.9806627631187439,0.0,0.0,0.0,0.0,0.0,0.0
1602,1724816392383781681,-1.8414349555969238,-1.283687949180603,0.14896729588508606,-0.0593239925801754,0.11431299149990082,0.1503496766090393,-0.9802082180976868,0.0,0.0,0.0,0.0,0.0,0.0
1604,1724816392392708319,-1.8404182195663452,-1.2840138673782349,0.14868134260177612,-0.06017863750457764,0.11526269465684891,0.14943215250968933,-0.9801852107048035,0.0,0.0,0.0,0.0,0.0,0.0
1606,1724816392403279514,-1.8405307531356812,-1.283247709274292,0.14911530911922455,-0.057115424424409866,0.11240392923355103,0.1550884246826172,-0.9798218011856079,0.0,0.0,0.0,0.0,0.0,0.0
1608,1724816392412532475,-1.8382290601730347,-1.2828580141067505,0.14949654042720795,-0.05785807594656944,0.11482084542512894,0.15447461605072021,-0.9795950055122375,0.0,0.0,0.0,0.0,0.0,0.0
1610,1724816392423272807,-1.836281180381775,-1.2834270000457764,0.14967207610607147,-0.061292801052331924,0.1126384288072586,0.15340682864189148,-0.9798072576522827,0.0,0.0,0.0,0.0,0.0,0.0
1612,1724816392434563199,-1.835885763168335,-1.2828948497772217,0.14989684522151947,-0.06122249737381935,0.11214851588010788,0.1568157970905304,-0.9793280363082886,0.0,0.0,0.0,0.0,0.0,0.0
1614,1724816392442618081,-1.8353464603424072,-1.282904028892517,0.1495857983827591,-0.059842079877853394,0.11308358609676361,0.15738451480865479,-0.9792146682739258,0.0,0.0,0.0,0.0,0.0,0.0
1616,1724816392453210395,-1.8337773084640503,-1.2825831174850464,0.15008129179477692,-0.0609893724322319,0.11546935886144638,0.15767037868499756,-0.9788193106651306,0.0,0.0,0.0,0.0,0.0,0.0
1618,1724816392462717735,-1.8317232131958008,-1.2825963497161865,0.15023691952228546,-0.06176195666193962,0.11560730636119843,0.15908414125442505,-0.9785257577896118,0.0,0.0,0.0,0.0,0.0,0.0
1620,1724816392474311794,-1.8310917615890503,-1.2825454473495483,0.15018649399280548,-0.0626494288444519,0.11660661548376083,0.1590600162744522,-0.9783546924591064,0.0,0.0,0.0,0.0,0.0,0.0
1622,1724816392483815022,-1.830836296081543,-1.2830067873001099,0.14986871182918549,-0.06023949012160301,0.11783893406391144,0.16031575202941895,-0.9781534671783447,0.0,0.0,0.0,0.0,0.0,0.0
1624,1724816392493828910,-1.8288644552230835,-1.2825186252593994,0.15022887289524078,-0.06175060197710991,0.11991170793771744,0.15716800093650818,-0.9783181548118591,0.0,0.0,0.0,0.0,0.0,0.0
1626,1724816392502522810,-1.8283627033233643,-1.283270001411438,0.14926515519618988,-0.058970946818590164,0.12073127925395966,0.16148747503757477,-0.9776852130889893,0.0,0.0,0.0,0.0,0.0,0.0
1628,1724816392513485076,-1.8264236450195312,-1.28315007686615,0.149679034948349,-0.06601763516664505,0.1234065443277359,0.1554163694381714,-0.9778845906257629,0.0,0.0,0.0,0.0,0.0,0.0
1630,1724816392522527701,-1.8250267505645752,-1.2831560373306274,0.14978095889091492,-0.06629190593957901,0.1244540736079216,0.15389826893806458,-0.9779733419418335,0.0,0.0,0.0,0.0,0.0,0.0
1632,1724816392533232925,-1.8243122100830078,-1.2826403379440308,0.15024670958518982,-0.06306164711713791,0.12407674640417099,0.15765666961669922,-0.9776362776756287,0.0,0.0,0.0,0.0,0.0,0.0
1634,1724816392542735922,-1.8225589990615845,-1.282312273979187,0.15116475522518158,-0.06558839231729507,0.12335778772830963,0.15695345401763916,-0.977674126625061,0.0,0.0,0.0,0.0,0.0,0.0
1636,1724816392555039781,-1.8212941884994507,-1.282347321510315,0.150363951921463,-0.06563448905944824,0.127226784825325,0.15664541721343994,-0.9772245287895203,0.0,0.0,0.0,0.0,0.0,0.0
1638,1724816392564262980,-1.8204394578933716,-1.2824419736862183,0.15052348375320435,-0.06903274357318878,0.12718349695205688,0.15626342594623566,-0.977057158946991,0.0,0.0,0.0,0.0,0.0,0.0
1640,1724816392574134677,-1.8193252086639404,-1.2819414138793945,0.1509639173746109,-0.06744782626628876,0.12438905239105225,0.15798577666282654,-0.9772506356239319,0.0,0.0,0.0,0.0,0.0,0.0
1642,1724816392582804647,-1.8175464868545532,-1.281372308731079,0.15166564285755157,-0.0660700649023056,0.12439175695180893,0.1588754504919052,-0.9772002100944519,0.0,0.0,0.0,0.0,0.0,0.0
1644,1724816392592780044,-1.8165448904037476,-1.2812117338180542,0.15184754133224487,-0.06645869463682175,0.12472191452980042,0.1592053920030594,-0.9770779609680176,0.0,0.0,0.0,0.0,0.0,0.0
1646,1724816392602854879,-1.815750241279602,-1.2812118530273438,0.15167967975139618,-0.06838718801736832,0.12464945018291473,0.15851274132728577,-0.9770668148994446,0.0,0.0,0.0,0.0,0.0,0.0
1648,1724816392612558934,-1.8150438070297241,-1.2815626859664917,0.15165971219539642,-0.06930168718099594,0.12450248748064041,0.15523266792297363,-0.9775476455688477,0.0,0.0,0.0,0.0,0.0,0.0
1650,1724816392623363161,-1.8138281106948853,-1.281353235244751,0.15262435376644135,-0.06982336938381195,0.12163086235523224,0.1553114950656891,-0.9778594374656677,0.0,0.0,0.0,0.0,0.0,0.0
1652,1724816392632528591,-1.8139371871948242,-1.2810277938842773,0.1522524654865265,-0.06855124980211258,0.12528014183044434,0.15855072438716888,-0.9769684076309204,0.0,0.0,0.0,0.0,0.0,0.0
1654,1724816392642898349,-1.8109016418457031,-1.2803659439086914,0.15233297646045685,-0.06958825141191483,0.12813931703567505,0.15860579907894135,-0.9765152931213379,0.0,0.0,0.0,0.0,0.0,0.0
1656,1724816392654179959,-1.8099333047866821,-1.2801876068115234,0.15257292985916138,-0.0704575851559639,0.12791410088539124,0.1590029001235962,-0.9764178395271301,0.0,0.0,0.0,0.0,0.0,0.0
1658,1724816392662433269,-1.8092914819717407,-1.280250906944275,0.1527549922466278,-0.07153889536857605,0.12820042669773102,0.15665234625339508,-0.9766815900802612,0.0,0.0,0.0,0.0,0.0,0.0
1660,1724816392672886808,-1.808552622795105,-1.2801666259765625,0.15246057510375977,-0.07243374735116959,0.12882134318351746,0.15634354948997498,-0.9765833616256714,0.0,0.0,0.0,0.0,0.0,0.0
1662,1724816392683671854,-1.8080730438232422,-1.2801653146743774,0.15279783308506012,-0.0734291821718216,0.12748003005981445,0.15468725562095642,-0.9769487977027893,0.0,0.0,0.0,0.0,0.0,0.0
1664,1724816392692955124,-1.8075379133224487,-1.2800511121749878,0.15267890691757202,-0.0719660222530365,0.12643197178840637,0.15720024704933167,-0.9767927527427673,0.0,0.0,0.0,0.0,0.0,0.0
1666,1724816392702860049,-1.8065214157104492,-1.279795527458191,0.1527719646692276,-0.07208424061536789,0.12783809006214142,0.15714961290359497,-0.9766090512275696,0.0,0.0,0.0,0.0,0.0,0.0
1668,1724816392713088460,-1.8050485849380493,-1.279289722442627,0.15338654816150665,-0.07323192805051804,0.1293724924325943,0.15578274428844452,-0.9765406847000122,0.0,0.0,0.0,0.0,0.0,0.0
1670,1724816392722717457,-1.804432988166809,-1.2789815664291382,0.15366190671920776,-0.07298114895820618,0.12905235588550568,0.15559415519237518,-0.9766318202018738,0.0,0.0,0.0,0.0,0.0,0.0
1672,1724816392735250445,-1.8034321069717407,-1.2793917655944824,0.15371538698673248,-0.07485299557447433,0.12778176367282867,0.15442033112049103,-0.9768434762954712,0.0,0.0,0.0,0.0,0.0,0.0
