seq,stamp,px,py,pz,ox,oy,oz,ow,lx,ly,lz,ax,ay,az,timestamp,wx,wy,wz,aa_x,aa_y,aa_z,roll,pitch,yaw,vx,vy,vz,jx,jy,jz,fw
216,1724815776501908291,-2.104138135910034,-1.1457996368408203,0.1456427723169326,0.0156822390854358,-0.0669370219111442,-0.3180592060089111,0.9455748796463012,0.0,0.0,0.0,0.0193865094443361,-0.1419006459942573,0.4466361194608557,0.0,0.0,0.0,0.0,-1.0956518211019517,-10.103511421153003,-3.0069731115568725,0.0727978393996078,-0.1168780921267315,-0.6532158356257167,-0.0105185082819497,0.0029043642271055,-0.0099575865871817,1.4669657352098406,-8.501870938918817,-25.171695923526546,0.0
218,1724815776511020255,-2.104233980178833,-1.14577317237854,0.1455520391464233,0.0155141791328787,-0.0673172026872634,-0.3181868493556976,0.9455077648162842,0.0,0.0,0.0,0.0327534484128017,-0.2193693879223318,0.217272532386735,0.009111964,-0.0099835399504154,-0.092062832343135,-0.0273994307414742,2.5077048064525016,4.038998573177386,-0.9030302571946708,0.0727434023263851,-0.1176966038385374,-0.6535280290567446,-0.0103418591058073,0.0016113706492291,-0.0058878543455547,13.76951039520581,-4.745943193683089,-23.386759172629997,-7.636282902629129e-05
220,1724815776520406920,-2.1043293476104736,-1.14577054977417,0.1455361247062683,0.0158572122454643,-0.0670217797160148,-0.3182344138622284,0.945506989955902,0.0,0.0,0.0,0.280964499799643,-0.2275994694958552,0.0150085677708239,0.018498629,0.0483986333561097,0.0826029804687518,-0.0155314875096863,0.9429581521238102,5.700238021941278,0.7050283924670281,0.0732081680600022,-0.1169126572777798,-0.6536174388590944,-0.0099051598701151,-0.0011968717323966,-0.0060662549044039,19.577339680254227,8.2201961162104,1.423465004498004,-2.680940845912617e-06
222,1724815776534059901,-2.104459524154663,-1.145816206932068,0.1453665047883987,0.0153758013620972,-0.0675443559885025,-0.3183744549751282,0.9454306960105896,0.0,0.0,0.0,0.4119138301563498,0.0652819399746809,0.4906192443491744,0.03215161,-0.0435145404255819,-0.0958962802869454,-0.0170127817581315,11.297138894829509,10.559065434207898,4.756789887332016,0.0726527033436162,-0.1182015422159355,-0.6539468744114963,-0.0014135374932209,-0.0028829371738225,-0.0051858743255301,-21.57163882609683,14.239891952568753,17.952375054654148,-0.0001507280118433
224,1724815776541238299,-2.1044390201568604,-1.1458351612091064,0.1453565955162048,0.0158045813441276,-0.0674325376749038,-0.318224549293518,0.945482075214386,0.0,0.0,0.0,0.1394482739438519,0.1402820928401289,0.5557672315125881,0.039330008,0.1056271743332838,0.0690974098540238,0.0354960243165163,8.912025995917851,13.117405652707292,1.638581326375956,0.0733765316741052,-0.117725443034126,-0.6536545336066217,0.0007505788338733,-0.0017018337287026,-5.567954666130248e-05,-41.552054727987326,13.939705292872922,5.963992324809439,-1.288196837140689e-05
226,1724815776553185161,-2.1044719219207764,-1.1458368301391602,0.1453822702169418,0.0157497301697731,-0.0672145560383796,-0.3185576796531677,0.945386290550232,0.0,0.0,0.0,-0.428462137439185,0.3762424305477043,0.5651511592962505,0.05127687,-0.0238017144929619,0.0296176102110879,-0.0577885925128999,-2.714152304482559,-3.728723582369804,3.5065194816948733,0.0731704069669506,-0.1173220049750766,-0.6543217318149527,-0.0008050406259201,-0.0005081374038127,0.0034245187216601,-16.15266532511066,7.948431788785182,-9.708395004007482,2.991975739894764e-05
228,1724815776561344154,-2.1044676303863525,-1.1458430290222168,0.1454173177480697,0.0157336127012968,-0.0672280341386795,-0.3184274435043335,0.9454294443130492,0.0,0.0,0.0,-0.3853783492579145,0.3753294783607532,0.4274675049720939,0.059435863,-0.0007034143979139,-0.0031681873962282,0.0338684043788843,1.2275433211249265,-1.6801424478748426,5.343602680624645,0.073132397531608,-0.1173679742718982,-0.6540460970905503,-0.0059627437087215,0.0041013354041936,0.0095614743412628,71.0449297208896,-47.257144816547,-82.36611678040993,3.404385633522562e-05
230,1724815776572224543,-2.1046266555786133,-1.1457278728485107,0.145597755908966,0.0156982485204935,-0.0671460330486297,-0.3183965981006622,0.945446252822876,0.0,0.0,0.0,1.341826358542393,-0.8229003844569602,-1.4189497392331485,0.070316252,-0.0106129510640181,0.0124776112364094,0.0065442025332548,-0.132282477785389,1.628764706728548,-3.531058913162915,0.0730073886998233,-0.1172377745754034,-0.6539646181289136,-0.0065752858513121,0.0054336797929011,0.0095012075734981,119.12607218030406,-80.7774772080512,-119.26425610948344,0.0002020082699551
232,1724815776580413027,-2.104630947113037,-1.1457151174545288,0.1456319093704223,0.015714606270194,-0.0670307204127311,-0.3185076713562011,0.9454167485237122,0.0,0.0,0.0,2.0731349705422333,-1.3034736938600224,-2.084720246954272,0.078504736,-0.0068986494925606,0.0269904414918615,-0.0286540038764445,6.9612528264038325,-9.935541453628929,5.81182713332857,0.0729765353562429,-0.1170002406898753,-0.6541840090567864,0.0130282902254208,-0.0071304475184987,-0.0108280965848504,33.205017175645274,-20.364022048997512,-23.12672060487059,3.4582208402846374e-05
234,1724815776591374163,-2.104289293289185,-1.145920753479004,0.1452931463718414,0.0160587038844823,-0.0686487480998039,-0.3175181150436401,0.945627748966217,0.0,0.0,0.0,1.6139014361825723,-0.9643598512303432,-1.4845772523896317,0.089465872,0.1648888878155974,-0.2536997525776401,0.1833952116201275,15.2073529728076,-24.847461476103792,18.78611147237073,0.074569707035323,-0.1199216934421042,-0.6523715769692773,0.0310436555197474,-0.0180302126101685,-0.0278400327464705,-41.25844900638139,29.747476898200446,52.98290677259813,-0.0003859563729099
236,1724815776970931485,-2.09416127204895,-1.143166422843933,0.1750204563140869,0.0035960420500487,-0.0025161241646856,-0.3251349925994873,0.94565749168396,0.0,0.0,0.0,-5.659690886645951,-5.318562823069457,-4.624622136061269,0.469023194,-0.175502933333093,0.3080401543672186,-0.0389914491891475,143.97531738653782,-124.06511127122177,148.73849338612197,0.008437533061496,-0.0024203874852393,-0.6623258118497889,0.2537084067125192,0.0107756019197893,0.295127980017476,-336.3302152665635,149.188079149043,-429.5037405592313,0.0296400579374442
238,1724815776981380481,-2.091444969177246,-1.1430528163909912,0.1781666129827499,0.0086065391078591,-0.0099346321076154,-0.3174143731594085,0.9481958746910096,0.0,0.0,0.0,-9.26523855655589,-3.713482583960557,-9.233674107826104,0.47947219,1.3705677578993385,-1.0244293577211354,1.5581303673482525,-2.238533590277596,95.53208035548982,-22.83649212643018,0.0226321164677959,-0.0133766748533171,-0.6462124552901953,0.1927735307478286,-0.046349781361485,0.2452302590949528,-30.92131321466485,343.9728826698236,-21.886160217159613,0.0030779158007663
240,1724815776990463023,-2.090224504470825,-1.1439255475997925,0.1799528747797012,0.0116283548995852,-0.0032622362487018,-0.3174919784069061,0.948184072971344,0.0,0.0,0.0,-7.066012594138685,0.9135319320495632,-6.122853375982053,0.488554732,0.164423024113883,1.604203060050928,-0.0362845280698137,-170.25939308577006,76.52230491961447,-141.7922189039162,0.024125467051805,0.0011974181849412,-0.6462013068868283,0.0815141627837903,-0.0662334555730481,0.1261676006964611,505.12644338147624,333.6159808516553,595.0631348096415,0.0017866160530042
242,1724815777000995619,-2.0900115966796875,-1.1442584991455078,0.1804206222295761,0.000910427828785,-0.0006544826901517,-0.3230944871902466,0.9463661313056946,0.0,0.0,0.0,1.4664653384806248,2.279826593420319,3.22948419889547,0.499087328,-2.0864078745001984,-0.1901343211755533,-1.1174359990203937,54.51595188458655,-67.83376306691561,29.19607493553573,0.0021461177240553,-0.0006504521239071,-0.6579962313602201,0.070406351690579,-0.0187141101238381,0.147007422213516,663.1478139962558,-202.07424275006156,617.0659841739266,0.0004677902056486
244,1724815777011353326,-2.088771104812622,-1.1443209648132324,0.1829883158206939,0.0070937317796051,-0.0019391360692679,-0.3204947412014007,0.94722181558609,0.0,0.0,0.0,6.838320795195262,-3.1927692079436674,6.861801970247492,0.509445035,1.2102401261851752,0.1515713627184911,0.527896984611669,158.88598686228215,23.96583976630535,84.50728036716846,0.0146821739074748,0.0008734235963638,-0.6525153875087629,0.1112745714490088,-0.0178330269914646,0.1931986057720855,60.51887422960661,-265.8840518060313,-209.6921940257793,0.0025579800990689
246,1724815777027372027,-2.0871989727020264,-1.1448990106582642,0.1847279071807861,0.006426565349102,0.0009212876902893,-0.3201764822006225,0.9473356604576112,0.0,0.0,0.0,-3.5414461097636547,-0.9493899495389896,-10.379874593489092,0.525463736,-0.1933859440437954,0.3118993055773565,0.0398223549765132,-80.05121766210014,267.9929380324039,221.17283638791105,0.0115867380058151,0.0058608410900476,-0.6518118270731826,0.2924769648837468,-0.1501811527265317,0.3626273151587682,-1569.8050061146887,877.2263612465836,-1897.261556872329,0.0017430986175565
248,1724815777030941422,-2.086000442504883,-1.1455258131027222,0.1862243115901947,0.0064704306423664,0.0036713425070047,-0.3184165954589844,0.9479216933250428,0.0,0.0,0.0,-9.87788145332014,2.768097550135945,-17.804870584225664,0.529033131,-0.4730971276754986,1.4736613648313146,1.0294206251927775,-52.17489880854359,187.8281228938368,194.67579911383493,0.0099296631716206,0.0110811021795122,-0.6480809234861623,0.268022414641166,-0.1477536869552516,0.3089093068933435,-1321.4777767323667,828.5791029354884,-1379.510147162436,0.0015087966664781
250,1724815777040970531,-2.085221767425537,-1.1462228298187256,0.1862135827541351,0.00442157080397,0.0015837799292057,-0.3153117597103119,0.9489765167236328,0.0,0.0,0.0,-10.345196731018444,5.078342561589353,-11.89565323333724,0.53906224,-0.2583815163779641,-0.5214859708069685,0.6550930493272933,13.530288141652152,-68.52070126876198,-35.19886000957182,0.0073933563137437,0.0057943188858653,-0.6415562161072579,0.0836656206363954,-0.0611532105270455,0.0527010679846178,390.76460985455697,-88.18133817486455,915.5553463074482,-4.013451508283894e-06
252,1724815777051129535,-2.0843098163604736,-1.146758198738098,0.1873023062944412,0.0036497293040156,0.0025000688619911,-0.3137671947479248,0.9494896531105042,0.0,0.0,0.0,-1.8747236645692889,0.9045945490005214,0.7637953826482664,0.549221244,-0.2020062702490409,0.1244576114766934,0.3193777562260776,-58.39829091102077,25.124600313379386,-34.075869857309954,0.0053620397267525,0.0070379677854572,-0.638303608626668,0.061273860700993,-0.0461614781954509,0.0723278242431977,547.6375518349228,-277.15140124309295,629.2659665912284,0.0010954722589267
254,1724815777060828758,-2.083979368209839,-1.147145390510559,0.1876811981201172,-0.0025973985902965,0.0046260254457592,-0.3138388395309448,0.9494615197181702,0.0,0.0,0.0,0.7870942077340737,-0.5455479266884553,1.1548623769145077,0.558920467,-1.3605949537596207,0.0120089693729563,-0.0206677858085209,-27.882217903464245,-1.19380681282669,-13.284732744202504,-0.0078361936738962,0.0071541982094124,-0.6385042884916426,0.046140878097276,-0.0426762759108356,0.0689185786168273,149.06578548491336,-66.72808840473844,-83.83638473868618,0.0003815265865491
256,1724815777075494493,-2.0830349922180176,-1.1478323936462402,0.1893539726734161,-0.0002525411255192,0.0055976076982915,-0.3119889497756958,0.9500691890716552,0.0,0.0,0.0,0.1931192344481882,0.3115811089053331,-2.8278596465730086,0.573586202,0.2610782763808056,0.22511947920747,0.2673552112755215,-40.83230147019389,9.183803496923847,-0.2998713300010109,-0.0039728751502941,0.0104788409046631,-0.6346026317723868,0.1097368751468934,-0.0707430883857398,0.1192595440461374,-129.15268978408545,483.7703305023009,163.17538430350697,0.0016849328132608
258,1724815777080655719,-2.0823862552642822,-1.1482409238815308,0.1899789422750473,-0.0005884893471375,0.0064229858107864,-0.3114227950572967,0.9502495527267456,0.0,0.0,0.0,-0.634490608396348,3.580974236081124,-1.1960268966069103,0.578747428,-0.2246778062955453,0.2628063947751118,0.2295910146519064,-44.230094168028515,-3.4283462547494064,-4.699804172499542,-0.0051193330863422,0.0118406174673061,-0.6334237687179196,0.1032079793346554,-0.0650929130801003,0.0932931519218476,-119.81514355193534,467.6110235795171,354.1939951659307,0.0006342518699273
260,1724815777090452063,-2.0817933082580566,-1.148617148399353,0.1903760284185409,0.0007190671167336,0.0061506102792918,-0.3103500604629516,0.9506021738052368,0.0,0.0,0.0,-1.0545056373424075,5.078173759147089,2.9807727633506715,0.588543772,0.2696202274954409,0.0297012821584683,0.2322127391292827,27.090331442181032,92.63701380058956,-54.91589462257438,-0.0024507740692236,0.0121401902596377,-0.6311499037169427,0.1087158477377698,0.0162169229896136,0.1528852884436169,-209.07936369394747,-196.9478518870365,-177.51110672244903,0.000405675348395
262,1724815777101237455,-2.0800485610961914,-1.1477936506271362,0.1933590471744537,0.0061786319129168,0.0180395264178514,-0.3155238628387451,0.9487261176109314,0.0,0.0,0.0,-5.283072115963539,-1.199380914253286,-6.104334781711645,0.599329164,0.2843326182739399,2.4113772349592892,-1.0153420871296206,-20.534832741840823,-29.109066084189543,-2.984098802269793,0.0003401041261135,0.0381373955600803,-0.642131823481077,0.0781449100990414,0.0327298825055279,0.1481961461682317,-115.3303246449122,-306.82292260453045,-403.5798702905655,0.0030147389665378
264,1724815777110942229,-2.0800204277038574,-1.1478569507598877,0.19367615878582,0.0056023956276476,0.0179569479078054,-0.3157935738563537,0.9486414790153505,0.0,0.0,0.0,-3.9857684236805464,-1.7736949182535515,-6.189432100014545,0.609033938,-0.1061841344306944,-0.053643761882498,-0.0602738797851774,-20.443574290949385,-115.958322991086,46.919647771593326,-0.0007125518987644,0.0376166830517296,-0.6427170436432681,0.0054917069227968,-0.0027531122658785,0.0394458830237329,244.8283054162651,74.40888886951639,232.07697944578797,0.0003191368881292
266,1724815777120800989,-2.0799403190612793,-1.1478463411331177,0.194132849574089,0.0053694741800427,0.0189987234771251,-0.316308856010437,0.948450803756714,0.0,0.0,0.0,-0.4588621286195865,0.2977874837773474,-1.4893267493811717,0.618892698,-0.1094709362451331,0.1856731580268021,-0.1134120403228058,-0.5763644205393286,-2.126123588832856,0.7608163020469896,-0.0018349932131874,0.0394457621708142,-0.6438382646299277,0.0012558239002231,-0.0013854871543017,0.0286661543984578,211.40646356869553,109.92436376800626,253.88695430613265,0.0004587140856943
268,1724815777131373442,-2.080004930496216,-1.1478888988494873,0.1942357271909713,0.0045450502075254,0.0185150410979986,-0.3164793252944946,0.948407769203186,0.0,0.0,0.0,0.117082202790721,0.3240047047387837,-1.3318308058750794,0.629465151,-0.1183193318794151,-0.136130995086346,-0.0356321892206703,0.131259453432647,-8.70858239343106,2.0469682175246375,-0.0031003773982968,0.0380055952080425,-0.6442116646535287,-0.0039265991872241,0.0035663135542307,0.0084315590006944,39.53065596460919,6.21868385824364,19.08230611613331,0.0001015852193771
270,1724815777140350628,-2.0800235271453857,-1.147799015045166,0.1943015158176422,0.0040038535371422,0.0184649284929037,-0.3167169094085693,0.948331892490387,0.0,0.0,0.0,0.358033912910718,0.4083313553375476,-1.128621004225113,0.638442337,-0.1097608494028222,-0.0486744314694259,-0.057731352516922,4.173203343566402,6.491395336249216,-0.7136461092080532,-0.0041052541429879,0.03756677287311,-0.6447287447565245,0.0017534159800689,0.0053745349911196,0.0009123464947364,-10.086139906197994,10.729744487301758,34.877458423163695,6.340364938699977e-05
272,1724815777154605931,-2.079911947250366,-1.147827386856079,0.194169282913208,0.0040858974680304,0.018213776871562,-0.3169122636318207,0.9482712149620056,0.0,0.0,0.0,-0.6216423668074338,0.5915366265443192,-0.3543319173316797,0.65269764,0.0226160029359753,-0.0297225749066763,-0.0283344001704988,20.16993304528313,-21.84204430673367,-1.7934469965944464,-0.0037978889995033,0.0371414814697472,-0.6451313554445651,0.0006393930906938,0.0158791154187838,-0.0217644344004952,-14.888726469517708,-70.73559445895495,128.39060239695797,-0.0001280280022349
274,1724815777160238951,-2.0799243450164795,-1.147698163986206,0.1940188854932785,0.0043296543881297,0.017525341361761,-0.3170483112335205,0.9482375383377076,0.0,0.0,0.0,-0.5856795981296509,0.0070243806324302,0.5337780596817205,0.65833066,0.1604598834901155,-0.2043367564851402,-0.0470191651136898,10.204205744440909,-13.212927557403257,-3.441735096353393,-0.0029035624191451,0.0359895610611609,-0.6453924281798563,-0.0040720963367419,0.0188877121624173,-0.0210082224832044,25.21681207039651,-90.00359027638973,115.03083814471604,-0.0001531744978185
276,1724815777170761722,-2.0800039768218994,-1.1475790739059448,0.19390968978405,0.0042692879214882,0.0175794214010238,-0.3174744844436645,0.9480942487716676,0.0,0.0,0.0,0.0498637079008538,-0.6695469748155471,0.90622842818103,0.668853431,-0.0126009602528846,0.0062355538952561,-0.0856875515844246,-7.472000891686784,13.027078792445856,-1.138462063067505,-0.0030686597336903,0.0360524861708166,-0.6462949190412579,-0.005306528388445,0.0086008592656199,-0.0075377709037605,46.80437937987986,2.1480170779794463,9.412161534818203,-0.0001138561784126
278,1724815777182429139,-2.0800366401672363,-1.1475138664245603,0.1938584744930267,0.004478464834392,0.017926275730133,-0.3178403377532959,0.9479641914367676,0.0,0.0,0.0,0.4201085667039814,0.2150719706697357,0.6799189199379219,0.680520848,0.0163170255248212,0.0678784904580503,-0.0661597877233035,3.464273613960741,6.171379021698584,0.4783465819565062,-0.0029065149101404,0.0368421425150731,-0.6470696985316455,-0.002562085341168,0.0047738709142208,-0.0018013540030743,-8.973519741285477,33.37697965583095,-27.024745794383033,-5.349419032321704e-05
280,1724815777190695633,-2.0800564289093018,-1.1474791765213013,0.1938587427139282,0.0048351222649216,0.0183471385389566,-0.3181129097938537,0.947862982749939,0.0,0.0,0.0,0.1075135419912381,0.2424002583718202,0.4118423616801683,0.688787342,0.0507278554966288,0.1240953131961192,-0.0692066109500274,-6.269952717597795,-5.488510238576683,2.096704558220273,-0.0025086573839495,0.0378664251288647,-0.647645005578062,0.0019935972252937,0.0097325195553423,0.004921798437536,-40.03797483541784,-34.234072097171534,-38.52987161107564,-1.0822751957003894e-06
282,1724815777200822957,-2.079981803894043,-1.1473119258880615,0.1939692497253418,0.0040157116018235,0.0181736517697572,-0.3181850910186767,0.9478459358215332,0.0,0.0,0.0,-0.3255482020247363,-0.5700592071852827,-0.0540522289054098,0.698914666,-0.1422081314561865,-0.0839596006932081,-0.0173857912066842,-0.7617279537360746,-4.030080700260926,1.024220887658246,-0.0039553379479579,0.0370155753144555,-0.647818464373997,-0.0024211982019579,0.0077525052621467,0.0041117406496002,10.776381356151472,-33.17098356048654,-16.858913861630704,0.0001096032161292
284,1724815777211168278,-2.0801103115081787,-1.1473243236541748,0.1939399242401123,0.0043032052926719,0.0183431860059499,-0.3184334635734558,0.9477580189704896,0.0,0.0,0.0,0.3517280894267137,-0.4159616635322128,0.0795395269238562,0.709259987,0.0431931198866971,0.0488663272282235,-0.0500417025714433,5.581541284049394,9.350056288322746,0.441311423464408,-0.0035278639466631,0.0375191743246388,-0.6483384382707307,-0.0046225921628177,-0.0021031580882748,0.0038266356010812,35.43144142109289,14.058687126951714,-13.209552169892936,-3.317470635122562e-05
286,1724815777220387321,-2.0800888538360596,-1.1473511457443235,0.1940299272537231,0.004428609739989,0.018818212673068,-0.3185024559497833,0.9477249383926392,0.0,0.0,0.0,0.4316191792607409,-0.2932278177164261,-0.2568487071034692,0.71847903,-0.0067259527547857,0.1064000287939721,-0.0164151227104963,-0.4967366932895474,0.9977175304372276,1.483632457933348,-0.0035957583753524,0.038499535104546,-0.6484933673088337,0.0032577458248823,-0.001528673872869,0.0054397678132254,-14.682168146447458,11.542938646922645,-22.85170441492748,9.118725320854944e-05
288,1724815777230970094,-2.080043077468872,-1.147350549697876,0.1940349787473678,0.0047552087344229,0.0190054606646299,-0.31864133477211,0.9476729035377502,0.0,0.0,0.0,-0.0073963671289986,-0.1925755935265453,-0.3330212104369762,0.729061803,0.0477627102035248,0.0532651198255037,-0.0270015035480445,4.126612710983595,2.1039860109411004,-2.4386240392634635,-0.0031014566343226,0.0390622654694267,-0.6487811847478555,0.0026847060516246,-0.0089510537802155,-0.0025243385974729,-23.58238820403357,49.71994173426054,24.740880782523895,6.545256055643046e-06
290,1724815777240697547,-2.080031633377075,-1.1475181579589844,0.1939835846424102,0.0053253700025379,0.0195183344185352,-0.3189384043216705,0.9475595355033876,0.0,0.0,0.0,-0.0767301222108395,0.6505919172733242,0.1932164924317539,0.738789256,0.0787644287217583,0.1374368996735666,-0.0635831699366722,0.3477176965317459,0.2453463392620274,-0.6040402009376129,-0.0023600102611897,0.0403974847411786,-0.6494038583752428,0.0030307800122244,-0.0062751102735987,-0.0020126358193266,-30.866669983816863,40.458610730226034,37.71015740266888,-4.7189284195857506e-05
292,1724815777250694951,-2.079982280731201,-1.147468328475952,0.1939970701932907,0.0056583946570754,0.0196881350129842,-0.3191182613372803,0.9474934935569764,0.0,0.0,0.0,-0.629231611713218,0.5801638846082322,0.4018355429491721,0.74878666,0.0530671689364184,0.0535022387736429,-0.0371881955735944,-2.871324303080301,-2.1943184532813547,2.4202070840269134,-0.0018446486720657,0.0409315822467168,-0.6497770282531056,0.0011097391503795,0.0040873250359325,0.0013637994638795,-29.997867538565497,-34.72583210364156,-0.7068906510137527,1.3976844363825667e-05
294,1724815777260767353,-2.080009937286377,-1.147436261177063,0.1940109580755233,0.0059091527946293,0.0201047882437706,-0.3191893994808197,0.9474592208862304,0.0,0.0,0.0,-0.6749773955682299,-0.0505164394057083,0.1757811505720705,0.758859062,0.0210921992333666,0.0943310172468441,-0.0150432025239701,1.1207310469434892,0.3022222173626749,-0.199694895111266,-0.0016385455397135,0.0418814545389412,-0.6499303011173303,-0.0096635821688693,0.0052999591062175,0.0060617770322224,62.85795650286606,-37.93089381882689,-51.09578557789699,1.215574759864358e-05
296,1724815777270517024,-2.080169439315796,-1.147364616394043,0.1941142529249191,0.006336654536426,0.0202788189053535,-0.3193777203559875,0.9473893642425536,0.0,0.0,0.0,0.5739364334506609,-0.1873822669957511,-0.5927908200879242,0.768608733,0.0725543805009723,0.0618754449206543,-0.0396233660778084,0.0609074646154752,-2.2824066996654624,-0.8791799820093411,-0.0009475027729308,0.042484226138781,-0.6503178316516952,-0.0125203377368592,0.0031945319222757,0.0050327376912147,131.17609066578854,18.97680554423088,-19.206871971856273,9.593027132486412e-05
298,1724815777280835135,-2.080256700515747,-1.1473770141601562,0.1941054463386535,0.0064946403726935,0.0204962864518165,-0.3195281326770782,0.9473328590393066,0.0,0.0,0.0,1.9610371726657945,0.3689340011363534,-0.1398971461632208,0.778926844,0.016209953529876,0.0497525844972388,-0.0307652799635805,0.4634105405827289,-5.163594070745174,5.536546149966625,-0.0007938415927189,0.042997299355013,-0.6506359674660894,0.0028683960345432,0.0015730357865564,-0.0064043070297667,-11.724443737686848,30.303203004859157,58.57640136826879,-1.1509993105869609e-05
300,1724815777290407385,-2.0801286697387695,-1.1473373174667358,0.1939948499202728,0.0067793619818985,0.0202231500297784,-0.3192472159862518,0.9474314451217652,0.0,0.0,0.0,0.5508799551976505,0.4493107035741785,0.5512031782136534,0.788499094,0.073254015902799,-0.0350953514961819,0.0637744098207902,-3.860829313811411,2.5341462170030304,4.077597688198009,-6.646772889805735e-05,0.0426616210060395,-0.650024805324223,0.0258101945229896,0.0097763548264069,0.0008575507143646,-185.98217835266553,-38.6626978336128,19.650283219418267,-0.0001071663507791
302,1724815777300679768,-2.079726457595825,-1.147174835205078,0.1941404789686203,0.0066115502268075,0.0209114402532577,-0.3190321922302246,0.9474900364875792,0.0,0.0,0.0,-1.7858321315317638,-0.4666188027982546,0.173783352932925,0.798771477,-0.0746604835560703,0.116585837457017,0.0417362840641143,-1.9638538419418292,1.379292119233026,-3.9411400775178462,-0.0008148730513025,0.0438594176344415,-0.6495961078710623,0.0111212467400605,0.009897705987079,0.0042330335255336,-99.119870541603,-48.719578504406755,-35.03357024177775,0.0001555268717416
304,1724815777311327282,-2.0799174308776855,-1.147134780883789,0.194075807929039,0.0067915441468358,0.0207583047449588,-0.3191385269165039,0.9474563598632812,0.0,0.0,0.0,-1.4246390593086042,-0.5389996880687711,-0.1803909290017609,0.809418991,0.0416705474926889,-0.016467566767825,-0.0200457285804191,2.051235458538464,0.1541030561532048,-4.448621862664304,-0.0003805292358706,0.0436839547583524,-0.6498096905471741,-0.0118211133050465,-0.0003507660533514,0.004374808303198,109.27611524225604,29.21173796523297,-53.32008781081878,-7.233963540751373e-05
306,1724815777323670910,-2.0799758434295654,-1.147197961807251,0.1942793279886245,0.0067614242434501,0.0218521803617477,-0.3194486796855926,0.947327435016632,0.0,0.0,0.0,1.0025256847688928,0.3368746445506975,-1.1255616323166722,0.821762619,-0.0600020192616403,0.1664594612639089,-0.0555842159081381,4.410518747113845,-16.468006275003237,1.9811799355652175,-0.0011519399191623,0.0457381415645391,-0.6504980497864203,-0.0189589916125783,-0.0009433966779965,-0.0006237922025569,152.947232357485,16.97103151141728,37.24889061194865,0.0002028324707875
308,1724815777331076425,-2.080179452896118,-1.1471863985061646,0.1941986829042434,0.0067492816597223,0.0214870478957891,-0.3195211291313171,0.9473114609718324,0.0,0.0,0.0,1.9410866386271015,0.2226962612071506,-0.344020226878482,0.829168134,0.0288512728992763,-0.0945024697103047,-0.0193187810784988,10.61024252522714,-17.826648154833997,5.63200560980199,-0.0009447460281121,0.0450381542815267,-0.6506405521489323,-0.0045114622886757,0.0032613468392312,-0.0121607523887163,25.783083662568977,-22.64676270315069,115.6539567377716,-8.8280640103056e-05
310,1724815777340550054,-2.0799436569213867,-1.1471349000930786,0.1940680742263794,0.0071794264949858,0.0210803709924221,-0.3193415105342865,0.9473780393600464,0.0,0.0,0.0,0.961841948007992,-0.0794580487782474,0.8742764865653091,0.838641763,0.1125469798292767,-0.0523616883313443,0.0429434754076634,-2.287611883564389,9.186005489046735,0.044450660090425,0.0001397255486259,0.0445422661646051,-0.6502331581513617,0.0137585611290518,0.0011888499729124,-0.0007086510973808,-102.61771620837553,-10.041481003605638,24.40311487370479,-0.0001235360504503
312,1724815777352119530,-2.079941749572754,-1.1471811532974243,0.1942446529865265,0.0070072733797132,0.0218759961426258,-0.3195949792861938,0.9472757577896118,0.0,0.0,0.0,-0.2148283768345795,0.1131247800315184,-0.3155707692532349,0.850211239,-0.0710650473296944,0.1208556951358118,-0.0487722459071201,1.9782593855064716,3.8961481923266374,4.753770504247716,-0.0007080237414904,0.0459403383494042,-0.6507983407873359,0.0112284763115724,0.002237825638943,0.0046792269938364,-62.65324440552081,-5.625810194094234,-49.46855216139603,0.0001777237157743
314,1724815777361246866,-2.0797595977783203,-1.1471158266067505,0.1942111551761627,0.0074541172944009,0.022094527259469,-0.3192285299301147,0.9473908543586732,0.0,0.0,0.0,-0.5054878388181107,-0.0985947205879957,-0.3827490198222539,0.859338575,0.0755138196542868,0.0766638282373035,0.0859301609040831,5.49530756480721,-6.140660254653317,3.179473160300861,1.753726212159207e-05,0.0466403477158874,-0.6500134548540891,0.0092954445867121,0.0034320614045455,-0.00382676886636,-12.546431239267973,-20.480023447391236,16.97317631251729,-2.8546803150109503e-05
316,1724815777372320087,-2.0797998905181885,-1.1471278667449951,0.194166675209999,0.007405262440443,0.0220596902072429,-0.3194087147712707,0.9473313689231871,0.0,0.0,0.0,-0.3851619495324396,-0.2888855678194975,0.1320910706972387,0.870411796,-0.00555197996381,-0.0087831687357303,-0.0344099813697958,-3.336604963583907,0.6374766039267086,-2.0350631562973347,-6.170660902587007e-05,0.046543086003416,-0.6503949567032298,-0.0002475264198835,-0.0007419377527355,-0.0006874230161351,22.755025857468542,-5.2361934663511,-10.347076263696152,-4.558665026544877e-05
318,1724815777380820937,-2.079779863357544,-1.1471319198608398,0.1941825598478317,0.0074433996342122,0.0222762245684862,-0.3193824589252472,0.9473348259925842,0.0,0.0,0.0,-0.1141389662591442,-0.2554205401120227,-0.3268169032973137,0.878912646,-0.0079143140706735,0.0511547232224545,0.0059323492488974,3.0748407948700702,7.596803633484099,1.1203753001985028,-0.0001266270649775,0.0469779467869514,-0.650344478878672,-0.0004111234305668,-0.0026230276434375,-0.0005526913422162,-11.136004241138997,7.782144836161766,-87.66965510106783,1.67319931933754e-05
320,1724815777390620340,-2.079815149307251,-1.1471818685531616,0.1941497921943664,0.0079258931800723,0.0227946750819683,-0.3194957077503204,0.9472803473472596,0.0,0.0,0.0,-0.709208702787514,-0.1357204447436255,-1.5664535752132955,0.888712049,0.0600908447322925,0.1317665625838637,-0.0240412562845356,3.3353279559001914,2.693327326202003,-2.4491019929783824,0.0004510093132416,0.0482692148556129,-0.650580077325282,-0.0026015719694356,-0.0055116298528972,-0.0076261669279702,-43.318511157942986,14.507550765679945,-117.79380486023352,-3.25970648890393e-05
322,1724815777401443988,-2.07983136177063,-1.147246479988098,0.1940160542726516,0.0083566457033157,0.0231905691325664,-0.3197199404239654,0.9471914768218994,0.0,0.0,0.0,-0.9699781386447812,0.0487110309066529,-2.737315268655155,0.899535697,0.0531008841340918,0.0947729945713915,-0.0432615522091582,12.54381234349184,6.5106093458128065,-2.498918019879171,0.0010029309051089,0.0492953538376971,-0.6510482509631738,-0.0160840757552165,-0.0050791516990926,-0.0346783737179432,19.86557571601877,7.707973845557066,-34.77131609098008,-0.0001322200395075
324,1724815777411131531,-2.080113649368286,-1.1472879648208618,0.1934865564107895,0.0100519582629203,0.0238651316612958,-0.3200802803039551,0.9470365047454834,0.0,0.0,0.0,-0.3963821430911158,0.0424700520502377,-2.4376924769802737,0.90922324,0.2889826758226795,0.2439313593332374,-0.0737401306124507,22.082694411883743,24.62083989556102,-0.9298967366451056,0.0037666607281018,0.0516601440964233,-0.6517578436666046,-0.0230904942590512,-0.0045313561280906,-0.0632594581449765,17.415775702557895,-14.193744017366855,-31.643578080920776,-0.0005383076587773
326,1724815777420427650,-2.0802743434906006,-1.1473323106765747,0.1928217560052871,0.0129575030878186,0.0256060976535081,-0.320380687713623,0.9468541145324708,0.0,0.0,0.0,-0.6073056795717289,-0.210345287464427,-3.2900313100233065,0.918519359,0.474049605810459,0.555091653589644,-0.0626143450732892,8.226959856230952,11.77191104178308,-1.0590524659383416,0.0081435657233201,0.0568237204232143,-0.6523099590015898,-0.0238595709939204,-0.0042621175773831,-0.0813478845876813,-40.08721951753923,-2.147905242294973,-6.917403493403839,-0.0006683475853991
328,1724815777432427800,-2.080662488937378,-1.1473755836486816,0.1916932314634323,0.0158589631319046,0.026907717809081,-0.321037620306015,0.9465512633323668,0.0,0.0,0.0,-1.3578628315977823,0.1518894257681533,-2.059889609070204,0.930519509,0.3918269514602891,0.360205296678859,-0.1102682352803106,21.286693178882057,7.711252765764115,4.049580499173382,0.0127700861920027,0.0611598373334835,-0.6535900960802178,-0.0392733718614977,-0.0104933426203501,-0.1416518045745824,-98.26998491172284,109.64919599099892,176.9450612234658,-0.001140095350963
330,1724815777440468191,-2.0810155868530273,-1.147497057914734,0.1902978122234344,0.0192857421934604,0.0280851367861032,-0.3212089240550995,0.9463952779769896,0.0,0.0,0.0,-2.3404481067035863,1.4616012770502222,-0.2361841948236103,0.9385599,0.7145695830787951,0.5512400890682994,-0.0344985181858299,17.135496669704274,12.821040733735954,3.765945370032926,0.0185023226645046,0.0655958176219047,-0.6537985199249728,-0.0505865202465756,-0.0056564258764808,-0.1422388904629459,-64.11447380290767,53.659291112268846,57.06851129019151,-0.001399949628674
332,1724815777453460290,-2.081812858581543,-1.147372126579285,0.1891071796417236,0.0230778101831674,0.0301513541489839,-0.3218690752983093,0.9460225701332092,0.0,0.0,0.0,-1.9538914514383825,-0.1344017606335841,-3.058352659785543,0.951551999,0.4542508748717545,0.4881798512327415,-0.1043447855492828,40.66519759340818,8.455218567206096,-17.397772604722466,0.0243200233824227,0.0719658934907916,-0.6550210804779212,-0.1005892133202337,0.0313876155450287,-0.1487328410633033,188.98366902877245,-169.27504380041873,46.215203944146054,-0.0012287176496522
334,1724815777460382083,-2.082653760910034,-1.147074580192566,0.1878671497106552,0.0268549621105194,0.0310543254017829,-0.3228000700473785,0.945576310157776,0.0,0.0,0.0,-0.0585883283476371,-1.4773127827654378,-1.766978398854194,0.958473792,0.9595785101730618,0.5957848222010015,-0.2691012818982226,45.71313696072323,-15.50229942527264,-1.8589124722650423,0.0308323538427733,0.0761395813537462,-0.6567740779478681,-0.1071261223695216,0.0194469772270231,-0.1793372081418818,72.24236068176323,15.003133670603248,251.8256341272499,-0.001291732196252
336,1724815777474475003,-2.0837514400482178,-1.1474759578704834,0.1853343546390533,0.0312275774776935,0.0257016010582447,-0.3208407163619995,0.9462692141532898,0.0,0.0,0.0,-4.824356199756204,4.7314991954962045,3.6544941848084385,0.972566712,0.8207024492016471,-0.5135668242503955,0.3343414588751584,-38.96570530315286,-9.548444955858642,10.25329805375736,0.0427209868624637,0.0687335311631713,-0.6523198010014165,-0.0825349089059841,0.0057365977720209,-0.1280730181259706,-87.86922555697703,-21.21839958928691,-163.23948679182115,-0.0025255653598349
338,1724815777486038736,-2.084749937057495,-1.1470849514007568,0.1843434125185012,0.0318226031959056,0.0256782565265893,-0.3200613260269165,0.9465140104293824,0.0,0.0,0.0,-3.465510381871873,0.1045518746343816,-3.4322086474586584,0.984130445,0.0938915523030713,0.0323191623165534,0.1439112783530801,-45.78349260644937,52.7848672506719,-111.6134829898784,0.0439225550939876,0.0690348497212622,-0.6506371256339444,-0.2006548348923615,0.1145758600779061,-0.0856529782727477,970.1410574259888,-918.893366550726,-293.71776565979366,-0.0010458068720378
340,1724815777490219294,-2.085761547088623,-1.1464838981628418,0.1839853972196579,0.0318305604159832,0.0262744612991809,-0.3209628462791443,0.9461920857429504,0.0,0.0,0.0,1.8788616533603069,-4.520984329151485,-4.17780341579302,0.988311003,-0.0717112500081647,0.2614199885149643,-0.4664954543403006,5.864965284759087,35.35261952108619,-89.39373433401128,0.043490224501484,0.0702119023997184,-0.6525423815089844,-0.2049421054434717,0.1009457746769442,-0.1107331170880652,977.811694243021,-768.4655974084578,61.53927451294386,-0.0004327664253647
342,1724815777501014032,-2.0869414806365967,-1.1465879678726196,0.1820905804634094,0.0384562015533447,0.0245827194303274,-0.3203676640987396,0.9461931586265564,0.0,0.0,0.0,4.0560198507626275,-3.395875747342626,3.17297513449001,0.999105741,1.2592141191179804,0.1009359677568208,0.146633529755086,1.783033252463201,-16.662951999739192,19.088432504111683,0.0571990843065429,0.0712204427322186,-0.6509025742515763,-0.1037051276474159,0.017004788327199,-0.1050619916201984,-167.76626752844604,203.18235634073815,268.3992266331999,-0.001903526115586
344,1724815777511315803,-2.0879547595977783,-1.146150827407837,0.1817010641098022,0.0387112498283386,0.0240204986184835,-0.3205294609069824,0.9461423754692078,0.0,0.0,0.0,-1.3044817068718784,-0.3298811543919283,1.8819526497415424,1.009407512,0.08297071134529,-0.0883797491269317,-0.0274651140079066,-36.436133352995526,18.113629076511273,0.1925075233198017,0.0580300852329891,0.0703277744678234,-0.6512382826473864,-0.1142465857337526,0.0250846470007672,-0.0463451877988276,-458.34583381576425,-171.28387912398648,-717.6843878510967,-0.0004475639648481
346,1724815777520210593,-2.089092969894409,-1.1460609436035156,0.1812232881784439,0.0407233573496341,0.0249801818281412,-0.3200618922710418,0.9461913704872132,0.0,0.0,0.0,-4.905200152662785,-5.4545690879866235,-9.051036430146928,1.018302302,0.3559399508946026,0.3529841564076619,0.1055161810593771,28.158838509004887,13.953037977407964,10.31581313174104,0.0612770270271081,0.0734059607002898,-0.6501113450796638,-0.1280094001490539,0.0135934119504739,-0.0589256488056282,-151.8696808734765,-350.2025434833124,-672.7732515054608,-0.0005080937754102
348,1724815777531438322,-2.0905308723449707,-1.145858883857727,0.1804878264665603,0.0441319607198238,0.0238232538104057,-0.3193211853504181,0.9463185667991638,0.0,0.0,0.0,-3.02551175845978,-6.184367855958665,-8.7195392306281,1.029530031,0.6362456397800952,0.0041460608156239,0.1556544005842149,-25.998572173935855,-236.1163971214014,181.8248287614495,0.0685490432854333,0.0733390408874814,-0.6483595874283704,-0.2306738320174446,-0.1066445782580061,-0.2687794068822722,693.9943306687358,569.2366430726421,1080.4445785848202,-0.0007760201644408
350,1724815777541131063,-2.09362530708313,-1.1479355096817017,0.1761816889047622,0.038126390427351,0.0048073404468595,-0.3044656813144684,0.9517478942871094,0.0,0.0,0.0,8.107406023535567,4.640136015598824,10.54661377817516,1.039222772,-0.0421989995975498,-4.000222317142919,3.402108009229408,4.770690750050221,-9.090652852742249,-1.9143890284011744,0.0697391096737728,0.0323727612925697,-0.6180980780357815,-0.2088036589669997,-0.1287275296712948,-0.2698611493665375,490.5783944410884,848.3620633608714,1371.7583337392402,-0.0040931076109604
352,1724815777550543432,-2.094581127166748,-1.148365497589111,0.1752357184886932,0.0406431220471859,0.0020100092515349,-0.3031820952892303,0.9520635008811952,0.0,0.0,0.0,6.710678139848344,10.17201069182018,17.828438741337063,1.048635141,0.6860720808261188,-0.3928180873178345,0.3052350795787677,9.983761115973474,221.23235575886233,-200.9061971752379,0.0762757013055682,0.0284756948613338,-0.6155012715873099,-0.0790144428767547,-0.0218176308358195,-0.0731752833322243,-210.48155179254337,198.12445133271044,235.8420951850524,-0.0008891393373624
354,1724815777560833955,-2.0951406955718994,-1.148321509361267,0.174790158867836,0.0408847071230411,0.0023273723199963,-0.3047407865524292,0.951554536819458,0.0,0.0,0.0,3.8461768620782344,7.827584120838658,14.204776842769778,1.058925664,0.0306309806321674,0.0608456939898708,-0.3208184635874681,-106.42841147110576,240.69921939850911,-264.6584247294567,0.0764970703526931,0.0293519334361914,-0.6187464736741811,-0.08959593414869,0.0695095453650509,0.0757707691502247,4.65610296401195,-522.7847259406288,-784.6771118473164,-0.0004360851438152
356,1724815777570362382,-2.096305131912231,-1.1470836400985718,0.1765626519918441,0.0405835434794425,0.0237426664680242,-0.3248293995857239,0.944603145122528,0.0,0.0,0.0,6.387555109654358,0.2438959579021253,2.9118259072116013,1.068454091,-1.360503243350795,4.0890075296781765,-4.640858851670341,127.057142203988,55.75210379518587,20.87981182127404,0.061440625370839,0.0712805975068315,-0.6602318945080913,-0.0099417461815107,0.134854041562221,0.2087437775334653,-213.68437075965537,-778.8312882706637,-1239.4609281160592,0.0016291244665373
358,1724815777580294768,-2.0952415466308594,-1.145693063735962,0.1788712292909622,0.0547953732311725,0.0231972634792327,-0.3227109014987945,0.9446253776550292,0.0,0.0,0.0,-0.7086456205072859,-7.315022366799576,-9.960920334534595,1.078386477,2.728548998875179,0.8430359122803726,0.4768084638753067,98.28819325641962,-199.13429091533743,255.58702568718485,0.0889463923308283,0.0792745830336976,-0.6548652564709501,0.0330840274905455,0.0687991588954588,0.1233258353496022,-484.83098365627706,-238.0883758189136,-503.8300454005291,0.0021364515340534
360,1724815777590966676,-2.0957369804382324,-1.145775318145752,0.1789363175630569,0.0560632869601249,0.0237308535724878,-0.3215358555316925,0.9449383616447448,0.0,0.0,0.0,-3.2497840389468067,-3.859487752446792,-6.253906368876914,1.089058385,0.1838659440447879,0.1818492131123951,0.2269801138537988,-115.2881747241074,-31.00991806087457,-3.592292391265804,0.0911163396547393,0.0809896120570694,-0.6522699312964533,-0.0322755671584786,-0.016886346936161,0.0014181617969128,-11.922701950583487,404.8651954071817,406.86900035064053,7.021846348591939e-05
362,1724815777600528100,-2.0959243774414062,-1.1460154056549072,0.1789097785949707,0.0569525770843029,0.0241033677011728,-0.3198732733726501,0.9454399347305298,0.0,0.0,0.0,-1.4261096025934967,0.7060679370954231,-1.8538919448491264,1.098619809,0.1365849635566695,0.1504480116277877,0.3624001278349473,-5.316407038383644,-15.248765255097815,-13.013772957760676,0.0927150857685432,0.082104000965442,-0.6486755710410009,-0.038722301192152,-0.0180698395679854,-0.0140951009634395,163.06258134007606,246.2866045593291,308.784214539144,1.5082689303001175e-06
364,1724815777610669934,-2.096522808074951,-1.146122932434082,0.178645059466362,0.0571065619587898,0.0233564265072345,-0.3202180862426758,0.9453325867652892,0.0,0.0,0.0,-0.0700146291003829,0.716620365451609,-0.3509334715164418,1.108761643,0.0786711494323071,-0.1329114481412718,-0.061938663635669,-20.72208278274963,-28.141720663162065,-13.89230151453388,0.0934516493350153,0.0808202465353511,-0.6494287252131731,-0.0612738433972168,-0.0019819688105542,-0.0353863249542651,186.08738865804003,-62.28769159114137,177.5852098976336,-0.0002540254462798
366,1724815777621300315,-2.0971994400024414,-1.1460479497909546,0.1781654357910156,0.0548277348279953,0.0216688569635152,-0.3197987675666809,0.9456495642662048,0.0,0.0,0.0,2.4917449319773737,-0.6511533329533372,1.8643559310783433,1.119392024,-0.3088797170653136,-0.4343200415045911,0.1017919439928841,-8.947244354355197,2.698879742600301,11.137111792077969,0.0902195621036145,0.0761234728816783,-0.648772565963663,-0.0380217064471537,-0.0040542611876333,-0.019635255381976,84.95479648362425,-65.2273583517248,66.66561502852136,-0.0004891062919251
368,1724815777630547362,-2.097344875335694,-1.1461747884750366,0.1781888455152511,0.0538640618324279,0.0211797337979078,-0.3190765678882599,0.9459600448608398,0.0,0.0,0.0,2.022263754278491,-0.7440268366965507,1.3408054121945778,1.128639071,-0.1703350598405167,-0.1595864564941953,0.1704706260606872,2.7068843872831696,19.222876667178458,-0.4232035710686848,0.088753008776696,0.074512815868298,-0.647330441130039,-0.0125317826314415,-0.0137451575066194,0.000682485461148,-65.27893466508775,35.05180290063709,-72.07514974308403,3.706438760756077e-05
370,1724815777640352121,-2.0974345207214355,-1.1463098526000977,0.1781763136386871,0.0524887666106224,0.0212102495133876,-0.3186763525009155,0.9461714625358582,0.0,0.0,0.0,1.231392751105466,0.068464166330614,0.473433103806717,1.13844383,-0.2714142080521173,-0.0801403431393779,0.0847086817381588,7.047488894389937,9.844739390697963,-3.9619219386138225,0.0861481557354751,0.0736575088477159,-0.6465694973835218,-0.0003376664565308,-0.0178800335507602,0.0049254435645655,248.6487285659682,175.11864139957697,-79.9941098638867,2.1906648829198095e-06
372,1724815777651101185,-2.097334384918213,-1.1465504169464111,0.1783023625612259,0.0526242703199386,0.0214022360742092,-0.3181633353233337,0.9463322758674622,0.0,0.0,0.0,7.78483492412837,3.0379480832957113,-0.2866119045259429,1.149192894,0.0088763170671066,0.0462088198354687,0.0985102607760062,18.98636924815639,5.693487862477377,-0.9037420360101326,0.0863247985828345,0.0740611666536668,-0.6454687902292238,0.0127536957568779,-0.0113676070858979,0.0104938905641107,46.845885098784265,59.253686971676856,15.272668223698162,0.0001531747975206
374,1724815777669350762,-2.0969951152801514,-1.1464166641235352,0.1784556806087494,0.0536895021796226,0.0206760317087173,-0.3180847764015198,0.946315050125122,0.0,0.0,0.0,-8.79886225726591,-2.604230325452278,2.6561179008307363,1.167442471,0.1357116440215063,-0.0376786961395759,0.0142333778153117,-5839.15168992861,-1162.2522603719146,-881.6539507922623,0.0888161550698417,0.0733534714208398,-0.6452696940220309,0.3582921452270966,0.1194290431751596,-0.019667850403124,-2910.571317459552,-1012.7465031382015,288.87933244287024,0.0001386409015503
376,1724815777670468344,-2.096571445465088,-1.146275520324707,0.1784317791461944,0.0498349592089653,0.0211650282144546,-0.3185915946960449,0.946344554424286,0.0,0.0,0.0,-12.188670030655828,-3.784210081974155,2.987699168190369,1.168560053,-6.790122691098584,-1.4158201185549033,-1.0311109932513371,-5580.184251165319,-1110.0452295157654,-842.9172251758624,0.0811343186607218,0.0718746844064477,-0.6465555346171927,0.3465606719713534,0.1158498581608622,-0.0164045255767222,-2772.640904107046,-976.661474121106,274.0959963834103,-3.545927014872885e-05
378,1724815777681664142,-2.0963404178619385,-1.1461498737335205,0.1788069158792495,0.049408059567213,0.0211146753281354,-0.3191224336624145,0.9461892247200012,0.0,0.0,0.0,-14.010989835597796,-5.83900538756718,3.5217331960082476,1.179755851,-0.0659133138576584,-0.0369468255984221,-0.0997462284007768,346.9578737052668,69.09465362748892,50.5420915276015,0.0803140135299306,0.0715524364653434,-0.6477049831638244,0.0203858360890976,0.0082520109539458,0.0246396286196812,305.986327754663,64.6629458908687,-87.83627806380196,0.0003614754833573
380,1724815777696476206,-2.096043348312378,-1.1460858583450315,0.1789981126785278,0.0499569997191429,0.020356947556138,-0.3191010653972626,0.9461840987205504,0.0,0.0,0.0,-0.2928037023638232,-0.0174741947834673,-0.435315642403939,1.194567915,0.1027556009926546,-0.0729960034718373,0.0091292007373358,132.47406057479066,46.193248331807794,54.90724523745572,0.0818393769410689,0.0704637998685995,-0.6476575205126676,0.1092043831473574,-0.0043269222200876,0.0739760294543074,-440.250395238617,160.59606925738672,-494.4004972184073,0.000185173083899
382,1724815777700793498,-2.0954596996307373,-1.1461154222488403,0.1793943345546722,0.0517888404428958,0.0201374292373657,-0.3184915482997894,0.9462957382202148,0.0,0.0,0.0,-3.9129255736649577,0.3833833935109621,-2.855750939879866,1.198885207,0.8270564101556948,0.1876243673186031,0.3060236976997166,99.13218086556732,38.47471654621163,40.982541198870514,0.0855082234927493,0.0711605851869118,-0.6462698595554737,0.1000261822835852,-0.0033557023530725,0.0673574575441815,-606.777995210799,62.65381347728861,-400.6816768738741,0.0004000422719358
384,1724815777711573115,-2.095327854156494,-1.1460576057434082,0.1794632077217102,0.052057959139347,0.0201215036213397,-0.3184934258460998,0.946280598640442,0.0,0.0,0.0,-4.216497778218593,0.2460540880893463,-2.869729603889016,1.209664824,0.0483430756157832,0.0131450540413997,-6.575639574803727e-05,-30.148928728373452,-4.147705088118061,-12.021160374324184,0.0860301460958861,0.0713018129178149,-0.6462583071433756,0.0097488905152403,0.0050409862262625,0.0009726625040453,199.84913488896927,-38.07380705943234,182.4465935839311,6.265561393734472e-05
386,1724815777720539964,-2.095258951187134,-1.1460148096084597,0.179431527853012,0.0525432415306568,0.0202658027410507,-0.3184258043766022,0.9462735652923584,0.0,0.0,0.0,-0.7237645846432879,-0.28431310552763,0.1367698533371188,1.218631673,0.0919521421357147,0.0657462762960423,0.0142751379502795,-1.9248885507254343,1.0271900118477333,-0.4018161508129657,0.086867480584044,0.071878111337285,-0.6460795485411992,0.0029567736285542,0.0032725492425669,-0.0002300912775305,226.5447687130041,-26.20462263547994,199.73748026840724,-3.5949880049580076e-05
388,1724815777732887353,-2.0953028202056885,-1.1459999084472656,0.1794848442077636,0.0522566549479961,0.020344203338027,-0.3185654580593109,0.9462406635284424,0.0,0.0,0.0,-0.6974352485495177,-0.0477626364616885,0.2982782977280586,1.230979062,-0.0472318675925768,-0.0038452222100265,-0.0247104367634136,-3.709425348485459,12.936416128372834,-1.109942666861037,0.0862620979330905,0.0718571779474029,-0.6463883214380016,-0.0054067602761165,-0.0017187771210416,0.006064666335753,36.90669168230991,-4.514552823443504,-14.33687245902368,5.10858260141842e-05
390,1724815777740433852,-2.0953521728515625,-1.146026372909546,0.1795386672019958,0.0523264817893505,0.0210380312055349,-0.3186113238334656,0.9462062120437622,0.0,0.0,0.0,-0.258529988784837,-0.1910159054272274,0.0636290239868902,1.238525561,-0.0403427268058055,0.1794412634260748,-0.0236431928432026,2.2735720581077192,11.741424812056175,0.975257287684886,0.0859532003955729,0.0732216619434833,-0.6464498117200309,-0.0107625823303862,-0.0004350368145082,0.0073400034218309,40.211376017133105,-3.806730474910502,-19.85617779589279,5.613672428299551e-05
392,1724815777752662603,-2.095567464828491,-1.1459708213806152,0.1796325445175171,0.0525554940104484,0.0214388724416494,-0.3185615241527557,0.9462012648582458,0.0,0.0,0.0,-0.1224695266547362,0.0631623105355837,0.0434987223531306,1.250754312,0.0144236170852305,0.0744073169405346,0.0048063604420139,1.503914569584039,2.7467940382649356,3.2950744538747876,0.0861396725785086,0.0741231494262292,-0.6463126550143272,-0.0049834525242857,-0.0099270521322267,0.0060301184969464,-18.03769633489136,63.38289654895127,-1.2186386227148516,8.546299382588011e-05
394,1724815777762305623,-2.095519542694092,-1.14617657661438,0.1796781718730926,0.0528761520981788,0.0222715809941291,-0.3183141350746155,0.946247398853302,0.0,0.0,0.0,-0.5181712237390568,0.998278435577447,0.0349981413271615,1.260397332,0.0063071205398321,0.1870932154352255,0.043946297513988,-8.849050114898736,-9.984377037887882,-5.35931324329891,0.0862438853779572,0.0758841119366246,-0.6457334882668633,-0.0106892467227623,-0.0029354008546391,0.0075948507733691,32.38954729507486,13.592580241761585,-11.908354076132696,6.924046737234652e-05
396,1724815777770804508,-2.0957276821136475,-1.1460636854171753,0.1797641664743423,0.0522698201239109,0.0222205240279436,-0.3186055123806,0.9461843371391296,0.0,0.0,0.0,0.3070907114842577,0.4892363801379911,-0.1488060454985314,1.268896217,-0.1288790248136026,-0.0600829370153652,-0.0721489298044066,-4.265453875767253,-15.849297649711769,-6.09994366522617,0.0850989546205931,0.0754278315519117,-0.6463901285887439,-0.01454234206318,0.0075954863294356,0.0069389975501419,66.2359327439241,-50.84683953025985,-17.462962131635337,7.085518225321007e-05
398,1724815777783028700,-2.0957305431365967,-1.1460708379745483,0.1797930896282196,0.0523635707795619,0.0220566038042306,-0.3186952173709869,0.9461527466773988,0.0,0.0,0.0,0.5740650311059701,0.0267660758042678,-0.2890653122237936,1.281120409,0.0236540473981019,-0.0211410585886871,-0.0137908636920491,10.517521464835184,11.492758761043172,4.157268026143313,0.0853737680547532,0.0751846848762767,-0.6465806040636984,0.002582233487459,0.0003917651227851,0.0038604177867167,-32.62816959632897,5.892869959469582,-2.4596359194324577,2.9521764522616117e-05
400,1724815777791086047,-2.095694780349731,-1.1460624933242798,0.1798321306705474,0.0528869070112705,0.0223678797483444,-0.3186168372631073,0.9461426734924316,0.0,0.0,0.0,0.0218971936293949,0.3064651959030686,-0.2610100070140183,1.289177756,0.0979857333545529,0.1155779405297765,0.016430415239664,-0.5931548700958664,-3.839590410989815,-0.6839892132873782,0.0861793069893655,0.0761011631274259,-0.6463682535204726,0.0028166069587882,0.0038792648399805,0.0013336372920651,-30.085132802751183,2.564543734016622,17.82754282443739,3.81379863815068e-05
402,1724815777800593567,-2.095686197280884,-1.145993709564209,0.1798054128885269,0.0525687746703624,0.0217105653136968,-0.3188327848911285,0.9461029767990112,0.0,0.0,0.0,0.1671605203673877,-0.0298223241082604,0.0694245396104757,1.298685276,-0.0178043088812402,-0.1543637937278092,-0.0398248795860162,-7.173315645708215,-9.654090456400011,-1.760946611851323,0.085972011763822,0.074671531975624,-0.6468731021880954,0.0029441215894792,0.0053752871312298,-0.0005579342680857,37.234129782631825,-38.29675304643854,19.264013534892193,-3.427427680861717e-05
404,1724815777810772425,-2.0956339836120605,-1.1459592580795288,0.1798242777585983,0.0523141548037529,0.021539568901062,-0.3189017176628113,0.9460977911949158,0.0,0.0,0.0,0.7854220372234627,-0.4515266258338363,0.0966948336460785,1.308864134,-0.0362728669580773,-0.0484283217471045,-0.0124591010980139,1.6831227075750357,6.702423173519602,2.3021766371650827,0.0855902281224225,0.0741912684227111,-0.647042185737318,0.0063211149296336,0.0030319847361468,0.003073424485005,3.726260428273611,-0.2723197056900783,4.382996895036298,1.524641558327304e-05
406,1724815777824136410,-2.0955286026000977,-1.1459249258041382,0.1798867583274841,0.0525657944381237,0.0212832689285278,-0.3188439905643463,0.9461090564727784,0.0,0.0,0.0,-0.1651273251422418,0.2669681010444091,0.1851651546534503,1.322228119,0.0475872209417386,-0.0238640242604702,0.0115289447709325,-19.098484805985137,9.155090841092292,-0.901059045387,0.086235530572995,0.0738602995405926,-0.6469156505854682,0.0247772461388251,-0.0068853377510151,-0.0001973084844557,-134.28364273022416,73.5054184688691,23.39411327370322,5.890935728098109e-05
408,1724815777830627785,-2.0953145027160645,-1.1459994316101074,0.1798701137304306,0.052146028727293,0.021625654771924,-0.3188318312168121,0.9461287260055542,0.0,0.0,0.0,-1.2359496958443197,0.8063675049792878,0.3899153587956367,1.328719494,-0.1563935358887752,0.0586363002319541,-0.0028210322858766,-15.90077340725189,3.8451334513389632,-1.472652514658752,0.0852214030842111,0.0742411149233,-0.6469013879037536,0.0188301419466512,-0.0019706788781661,0.0023602082746343,-86.68090683105669,25.623763434453924,10.280758131409378,-6.517239559112124e-06
410,1724815777841405846,-2.095364809036255,-1.1458505392074585,0.1799836754798889,0.0517899096012115,0.0214145630598068,-0.3188703954219818,0.9461400508880616,0.0,0.0,0.0,-0.7693417029255152,0.0540675910583848,0.1202428528610772,1.339497555,-0.0499882770004177,-0.058548179288602,-0.0054870136794807,5.1160213693129135,-4.3817119040839305,-0.3642443730141096,0.0846742900513197,0.0736173665475918,-0.6470141163193129,-0.000213899037746,0.0076019602831962,0.0064898772799075,56.84331732630013,-59.0356734876229,-18.57015576047005,9.584639734902382e-05
412,1724815777851971664,-2.0953209400177,-1.1458345651626587,0.1800103336572647,0.0514994300901889,0.021305575966835,-0.3189282715320587,0.946138858795166,0.0,0.0,0.0,-0.0283883525427574,-0.4582067418599096,-0.0091549214638924,1.350063373,-0.0451986607978396,-0.0376145492176196,-0.0105462897392434,8.42619739597533,5.079561318362223,-2.7627060007269972,0.0841860966163439,0.0732307505083602,-0.6471590540717488,0.0019901143963636,-0.0004660924463877,0.0050371608972383,21.468933832407913,-0.0882885147122012,4.95355307596854,2.5046356505106462e-05
414,1724815777860771141,-2.0953192710876465,-1.1458531618118286,0.180073082447052,0.0519001148641109,0.0213186610490083,-0.319144457578659,0.9460437893867492,0.0,0.0,0.0,-0.1960628437363742,-0.1043184939469373,0.1604854553389002,1.35886285,0.0873761521704226,0.0297886016181699,-0.0515938381121676,6.599197662197437,9.907595651283057,0.7489498838742294,0.0849233366921974,0.0735302832652201,-0.647590479884568,3.571819036096713e-06,-0.0022600249026467,0.005897111566119,-26.733773315567795,20.055492009754943,37.27139860642071,6.444497812102553e-05
416,1724815777870928913,-2.0953214168548584,-1.1458778381347656,0.180118516087532,0.0524212159216403,0.0219774805009365,-0.3190153241157532,0.9460435509681702,0.0,0.0,0.0,-0.5576570668803312,-0.1370074462391782,0.7500602322062557,1.369020622,0.0551272983714386,0.1567835327461998,0.0194936827099459,-9.628826286826868,-0.4523499975198954,3.3189724464369244,0.0855080906083121,0.0751002246178361,-0.6472567334985823,-0.0016398053177795,-0.0021523763859647,0.0082631696523804,-0.7570349372218477,0.1937235655398108,19.254029955763677,4.791614134145743e-05
418,1724815777881101147,-2.0953526496887207,-1.1458969116210938,0.1802411824464798,0.0519333928823471,0.0222467016428709,-0.318921834230423,0.946095645427704,0.0,0.0,0.0,-0.2104449172110141,-0.1002813382179961,0.550797305451932,1.379192856,-0.108564753275135,0.020217358078244,0.0157743939127285,-19.950664286601786,-5.9585691611377545,-5.609154452687756,0.0844170983860126,0.0752915163512854,-0.6470788538646955,-0.011345058045606,-0.0050496594757518,0.0211608086863073,77.03800251117008,12.42741328919676,-48.49978775398326,0.0001237480745144
420,1724815777891118112,-2.095547914505005,-1.1459788084030151,0.1805429309606552,0.0503358878195285,0.0229860339313745,-0.3193103969097137,0.946033239364624,0.0,0.0,0.0,0.9844566482617678,0.1111749609050339,-0.2202022261003073,1.389209821,-0.3464715303385481,0.0341837601776354,-0.0921347669023847,2.3490584220711375,-2.599056816405069,-0.0777721490286241,0.0808790652319055,0.0757089535316069,-0.647972880772668,-0.0061176880155784,-0.0042338460148414,0.0196043221292185,75.82575637701386,-6.27811742438523,-37.987476173140685,0.0003066871289693
422,1724815777901374699,-2.0954701900482178,-1.1459808349609375,0.1806335300207138,0.0500475727021694,0.0228931456804275,-0.3192195296287536,0.9460814595222472,0.0,0.0,0.0,1.3057344505988109,-0.2408435732114769,-0.2004384772362978,1.399466408,-0.0482833876421168,-0.0344114260269502,0.019384432138578,8.57348154775909,2.8215068195427095,4.051825516428099,0.080396687713448,0.0753411426990133,-0.6478026610513451,0.0088377273783777,-0.0027813289191414,0.0166650926182718,-42.76450557501241,-15.878788463777449,7.137360397111312,9.115512509452406e-05
424,1724815777910518187,-2.095379114151001,-1.1460273265838623,0.1808497458696365,0.049555703997612,0.0233908761292696,-0.3191857635974884,0.9461066126823424,0.0,0.0,0.0,0.3108079666378054,-0.2357033868594161,-0.0927069271850361,1.408609896,-0.1369860182336611,0.0689000796911442,0.0008321055033564,-4.200446672155646,6.906719397423635,0.4928379378428782,0.0791485444089142,0.0759685263324349,-0.647744759137384,0.0195345071583687,-0.0081009953809001,0.0155344595774904,-71.84872091232953,1.7604030429149926,25.242885056913696,0.000221120918396
426,1724815777921390856,-2.095042943954468,-1.1461544036865234,0.1809137612581253,0.0491382628679275,0.0240224990993738,-0.3189484179019928,0.946192502975464,0.0,0.0,0.0,0.0075213370879967,-0.2010713010790704,0.3557803800298716,1.419482565,-0.1115378295658336,0.0872084281837836,0.0387953419892484,-0.862087315244148,-4.993203825360601,-0.5061203772971253,0.0779737141506426,0.0768806727579762,-0.6472482794319714,0.0118069976944354,-0.0061891045590698,0.014926604306245,19.898155703442377,-15.967476990988274,28.804993751919817,8.214132272331182e-05
428,1724815777932361048,-2.0951249599456787,-1.146161437034607,0.18117755651474,0.0482522994279861,0.0240839011967182,-0.3189959824085235,0.9462205171585084,0.0,0.0,0.0,0.7548041695296128,-0.5882311822005727,0.5340384980407731,1.430452757,-0.1564439376379069,-0.0414739580175299,-0.0110062519351145,12.590516581415148,7.154550853839239,2.340773939707213,0.0762455575163483,0.0764363505664001,-0.6474041840372834,0.0198395146040866,-0.0125668133351695,0.0233863790056041,-42.87903389042093,31.56956918699463,-23.13257115690586,0.0002617979277595
430,1724815777940527254,-2.094796895980835,-1.146336555480957,0.1813645213842392,0.0486134588718414,0.0245208293199539,-0.3187817633152008,0.946263074874878,0.0,0.0,0.0,-0.27010542723573,0.0760184838724864,0.1057338111234914,1.438618963,0.0477934112063024,0.131750380611492,0.0499349596477531,12.60997085877637,13.182509209935548,2.0722110402863714,0.0766735477012503,0.0774779703096098,-0.6469140450298301,0.02614073101428,-0.017412156514851,0.0263060039366997,-74.44308996246289,70.47264185611857,-34.56319903444475,0.0002097615274561
432,1724815777950631670,-2.094708204269409,-1.146462082862854,0.1816729754209518,0.0489753521978855,0.0252741742879152,-0.3187270760536194,0.9462429285049438,0.0,0.0,0.0,-0.3838849650179079,0.6522165589895682,-0.0198943265508184,1.448723379,0.020175745323005,0.16455776584677,0.0034791641262871,-3.8387657156329382,-2.7139916996546325,-2.7055943204947535,0.0768901577332473,0.0791331224174468,-0.6467508520947182,0.010387131005757,-0.0082752687175684,0.0242263217557221,12.882056897760767,16.571994256855504,-5.6062459239779345,0.0003217104727523
434,1724815777966150232,-2.094508647918701,-1.1464916467666626,0.1818987727165222,0.0484453812241554,0.0252901501953601,-0.3186732530593872,0.9462879300117492,0.0,0.0,0.0,0.3914299215244767,-0.0547405761494524,0.0558115496332822,1.464241941,-0.0657454649283034,-0.0196281569428209,0.0065851232754446,-28.73329783357932,-31.77485716052625,-4.158587281147479,0.0758761099916907,0.0788216146378696,-0.6466719789613735,0.0324390681426507,-0.0041606270605996,0.0283488692739624,29.931185844575445,15.579898609490144,36.3029737752157,0.0002310255986006
436,1724815777971612057,-2.0942938327789307,-1.1465187072753906,0.1820801347494125,0.0475515536963939,0.0249278787523508,-0.3187485933303833,0.946317493915558,0.0,0.0,0.0,0.5164062396661253,0.1478756296215871,0.3144998884692667,1.469703766,-0.2672728802625109,-0.2314426344934326,-0.0245071996814544,-21.752156298145778,-24.31395435797264,-3.4886153816376773,0.0743984162554726,0.0775711283322343,-0.646901034267379,0.0325978265047979,-0.0050745272838241,0.0282503218819343,-0.0912959558635524,27.82606487316667,31.946654229437733,0.0001868048200272
438,1724815777986798879,-2.094083070755005,-1.1466008424758911,0.1822999268770218,0.0478805117309093,0.0248941276222467,-0.3186408579349518,0.94633811712265,0.0,0.0,0.0,-0.4550775913348488,0.1789847514884193,0.1486739265130516,1.484890588,0.041929850452703,0.0102094458662346,0.015583333015392,-43.967734270132155,-86.78095423052018,17.915812070603593,0.0750544634940518,0.0777080820909741,-0.6466527551002577,0.0610195487805071,0.0104813909551353,0.0470690492270406,-380.1997363820484,-146.4651574204661,-192.5741151624584,0.0002307575778643
440,1724815777990303889,-2.0938310623168945,-1.146551251411438,0.182491272687912,0.0474015735089778,0.0243529174476861,-0.3185147643089294,0.9464187622070312,0.0,0.0,0.0,-2.043490504064095,-0.4545143726925371,-0.6732467185317521,1.488395598,-0.1642141617529837,-0.3770301740526399,0.0907356580430076,-41.64488232234468,-73.34221904800066,14.985341616234546,0.0744957517424164,0.0763665226584836,-0.6464336953701687,0.0575424780331772,0.0104249293598179,0.0467080338712628,-392.5400766287512,-145.233248345721,-193.23053453243563,0.0001890470740193
442,1724815778000770542,-2.093677520751953,-1.1465585231781006,0.182733729481697,0.0471199676394462,0.0245272647589445,-0.3182758092880249,0.9465086460113524,0.0,0.0,0.0,-4.256629112726538,-0.8648070109447343,-1.4058635241500077,1.498862251,-0.0634642529720422,0.0161365530080447,0.0457946914781518,14.814659910866002,23.049431500513354,-8.710151600623398,0.0738690495499912,0.0764994206453297,-0.6459416722300596,0.0032900141936096,-0.0080348975550776,0.0218380442073637,-32.126918160764546,-15.939697729509586,-95.47316794592976,0.0002443742403462
444,1724815778011759155,-2.093772649765014,-1.1467314958572388,0.1829583942890167,0.0481125153601169,0.0248052813112735,-0.3187952041625976,0.9462766647338868,0.0,0.0,0.0,-2.5409190237447774,-0.7716174938386253,-2.748908936423355,1.509850864,0.1591901256138392,0.1019719224067092,-0.1008683113183076,-71.01255411025059,-3.6227246843923786,-17.253457701767076,0.0755394043445708,0.0776995540106946,-0.6469664207489805,-0.0327930731414767,-0.0071679863147835,0.0175829800166607,510.6196172821916,147.5907200790084,212.30523071751392,0.0002402863249693
446,1724815778020583120,-2.09423303604126,-1.1467339992523191,0.1830932646989822,0.0434140637516975,0.0263856910169124,-0.3198438286781311,0.9461073279380798,0.0,0.0,0.0,4.476551397777642,1.5164151085121194,1.4948319104128092,1.518674829,-1.1141711253186728,-0.0110133099674264,-0.2807936268153564,-92.012055551142,-2.7083882461591706,-19.24411478610398,0.0655149019372728,0.0777772245211965,-0.6494523985144309,-0.0499510499313373,-0.0200031921984731,-0.0234075548061643,458.20016313651854,172.44665379792116,389.7400221042219,0.0001242218216754
448,1724815778034161814,-2.094864845275879,-1.147417664527893,0.1819669306278228,0.0355104580521583,0.0303450487554073,-0.3228822946548462,0.9452858567237854,0.0,0.0,0.0,3.654992491245,2.043224584432271,4.881460342808017,1.532253523,-1.2708438645954074,0.1631704482087364,-0.5181487014541791,510.4710770199963,-55.6983251847957,229.35308733210132,0.0477114265631749,0.080387438360504,-0.6563731886525039,0.1450050554199435,0.0626681969436475,0.1251926269115557,-1160.5159323548571,-492.12956372282895,-840.0187802124559,-0.0010838826186185
450,1724815778040552466,-2.0933620929718018,-1.1466772556304932,0.1833930164575576,0.0460172519087791,0.025271650403738,-0.3181424736976623,0.9465882182121276,0.0,0.0,0.0,-7.069951674649145,-2.698663318044505,-3.76345840239008,1.538644175,3.5614383579713396,-0.3988829330884236,1.6899631058759093,341.4452165527054,-31.039512745782385,145.32873003805372,0.0713114504510297,0.0772004394999014,-0.6457108166053914,0.1361730688216056,0.0635593717887417,0.1381552497578271,-1138.2077166493614,-554.791582567836,-1076.165345619121,0.0013697117825101
452,1724815778050803124,-2.09359359741211,-1.146885633468628,0.1834116727113723,0.0475375093519687,0.0259628407657146,-0.3186648786067962,0.9463185667991638,0.0,0.0,0.0,-9.858310429815578,-5.307473190020721,-10.24730991159536,1.548894833,0.2428666382290927,0.2186603074182613,-0.111929822662049,-199.5167358974657,31.474814970652197,-88.19853217331293,0.0737238852053095,0.0795190829605163,-0.6466957096943077,-0.0298204092524798,-0.0107683529802926,0.0043472349703499,291.7337010180083,62.03755546694336,20.32831671740692,3.638099044773807e-05
454,1724815778061261839,-2.093982696533203,-1.146896243095398,0.1834841072559356,0.0453606583178043,0.0280429441481828,-0.3190268576145172,0.9462441205978394,0.0,0.0,0.0,-0.7913641836525049,-1.28085130658755,-3.0680511395642656,1.559353548,-0.5182115493767421,0.2408478929868862,-0.0997581473964137,-124.96255597375254,-5.95105047979097,-48.48606584845928,0.0682342319361147,0.0821056980058382,-0.6475606336856625,-0.0653234675890672,-0.045538125767166,-0.0728805250674007,652.9973716845598,400.1574069593803,736.6510268882623,6.37348113341937e-05
456,1724815778070556807,-2.0948221683502197,-1.147687315940857,0.1821474283933639,0.0361261032521724,0.0318962186574935,-0.3229324221611023,0.9451943635940552,0.0,0.0,0.0,3.511011468223141,2.5637968381606413,4.193892426513608,1.568648516,-2.110884146822287,0.1188485131995095,-0.9605776691986332,-31.19507331325947,-17.739030619347304,-19.41680882256356,0.0478776740336675,0.0837266206141942,-0.6564406479242214,-0.0511746671095494,-0.0405617827512116,-0.0657446720729577,217.97518292308564,183.05303458728005,364.5585021148997,-0.0012911791871036
458,1724815778084300025,-2.0947301387786865,-1.1473395824432373,0.18283012509346,0.0377002172172069,0.0297269020229578,-0.3213645815849304,0.9457377195358276,0.0,0.0,0.0,1.530338676535084,0.3942182470246762,0.7362793053694632,1.582391734,0.3083337256146954,-0.2186946972270488,0.2599039855047638,111.61815573668486,10.587391316784164,54.97541941217777,0.0523964542276057,0.0805457977017389,-0.6530121801195662,0.0374910677654156,0.0358909596015166,0.0615137486203991,-404.0214106408705,-353.6926421644576,-538.6596778222413,0.0006510536583918
460,1724815778090763496,-2.0943942070007324,-1.1470754146575928,0.1832637041807174,0.0402531027793884,0.0286654755473136,-0.3198823034763336,0.9461677074432372,0.0,0.0,0.0,-1.8710869135788224,-2.48713702480557,-3.61797214869472,1.588855205,0.8339763175008875,-0.0434206499047458,0.5123979328655297,5.415654275368645,12.130073246348358,-1.7828988999807227,0.0580517618696781,0.0800827760879694,-0.6497102154676387,0.0324227828217971,0.0227271538827551,0.0403632076201194,-289.2050332006655,-213.1529690325615,-323.1148115703409,0.0004160659968507
462,1724815778100375206,-2.0943620204925537,-1.1471163034439087,0.1832697689533233,0.0391192585229873,0.028347086161375,-0.320284754037857,0.9460886716842652,0.0,0.0,0.0,-1.2626105396948617,-1.2107176437444056,-1.713021941538622,1.598466915,-0.1989743384352554,-0.1410531017039073,-0.0885906649124869,-54.776714169315994,4.020927924963407,-32.08449796049211,0.0560654514224747,0.0787777747552872,-0.6506405452744821,-0.001097686208169,-0.0076175264059372,0.0006477547254366,117.73324850278176,152.94409214549964,212.6295443088564,1.0725406990573404e-05
464,1724815778110758681,-2.094423294067383,-1.1472331285476685,0.1832766830921173,0.0383388511836528,0.0289506372064352,-0.3206406831741333,0.9459818005561828,0.0,0.0,0.0,0.5703944493534263,0.6033523213762062,0.656776687527196,1.60885039,-0.1766985460799117,0.0597422413911771,-0.0802626211702081,18.312343080446688,3.137505316453943,11.87987620059067,0.0541674492421289,0.0794430798961031,-0.6514410451479486,0.0107486459820194,0.0016434690965851,0.0099946599354474,69.0361179312691,74.57781950891325,106.24266992689624,1.5675432167840375e-05
466,1724815778122158722,-2.09409236907959,-1.1470530033111572,0.1835073828697204,0.0394387133419513,0.0279014632105827,-0.3196571469306946,0.9463008642196656,0.0,0.0,0.0,0.0119892679523652,0.2003075067968912,0.3411644219689381,1.620250431,0.2344115984133624,-0.1072572280319661,0.1938200070561876,-7.836986042699074,5.521686917372421,-2.456219252993608,0.0570085271726971,0.0780994614068598,-0.6492961240812269,0.0101108540670225,0.0049102408708563,0.014435583392709,-13.36131044875572,-23.714925296598015,-28.898332500371517,0.0002220960979451
468,1724815778131486361,-2.094142436981201,-1.1470903158187866,0.1835977584123611,0.0388142876327037,0.0285995583981275,-0.3197546303272247,0.9462730288505554,0.0,0.0,0.0,0.1592216720935235,0.0679375922023149,0.0623525094023064,1.62957807,-0.1737262738606385,0.0981894703233708,-0.031326419043093,1.0375518009633282,9.344866523023546,-0.7562671827014782,0.0553691653657029,0.0790303200142153,-0.6495373134689587,0.0107411695199743,0.0061203759998136,0.0172485392522112,-20.941628602894003,-27.685206941705697,-55.73562229033143,9.191153524154744e-05
470,1724815778141237183,-2.0938735008239746,-1.1469274759292605,0.1838430017232895,0.0402873232960701,0.0283820517361164,-0.3188626170158386,0.946518898010254,0.0,0.0,0.0,-0.4193336645842889,-0.339563622036609,-0.7445557322096084,1.639328892,0.2929780192907302,0.0600524546528204,0.1996296262667704,4.208185617634774,-6.198046302280789,1.1020997614314805,0.0583829518359893,0.0795042696814685,-0.6475543039251075,0.0132278846818394,0.0061528945958997,0.0154181131257375,-59.55059289399588,-48.93704061429625,-64.5066899602607,0.0002362255717386
472,1724815778152289932,-2.093907117843628,-1.1469916105270386,0.183891475200653,0.039125669747591,0.0285693239420652,-0.3192101716995239,0.9464448690414428,0.0,0.0,0.0,-1.080244924250143,-0.9699757565129116,-1.228934894558928,1.650381641,-0.2074405920637538,-0.0371042828192495,-0.071129264574474,-27.945689394187575,-5.885410519033485,-6.006830677027783,0.0560259113642766,0.0791397879110821,-0.6483652164601487,0.0001443712543505,-0.0018962248268081,0.0002124063994148,-3.183237325385587,-18.03717166567787,21.908491997326145,5.318729827711109e-05
474,1724815778162372180,-2.093876361846924,-1.146974802017212,0.1838552355766296,0.037445344030857,0.0287597719579935,-0.31899294257164,0.9465803503990172,0.0,0.0,0.0,-0.5916727239126183,-0.7931539331313319,-0.4035058372412387,1.660463889,-0.3298144391931568,-0.0697264913005184,0.0383615330629987,-14.590021719400228,13.511007489795814,-14.535961850452992,0.0527281143149197,0.0784168130177427,-0.6480161960792804,-0.0097951418908905,-0.0138989412963042,-0.0108278606618075,111.72661867013284,94.85014928824503,116.01553466401108,-3.663819254737146e-05
476,1724815778170801414,-2.0940494537353516,-1.147201657295227,0.1837129890918731,0.0357560068368911,0.0300802141427993,-0.3199592232704162,0.9462783932685852,0.0,0.0,0.0,0.7959613739875259,0.5511976171292217,0.8150511151289487,1.668893123,-0.470080253996388,0.1621783162010907,-0.263135150914051,-0.7588017813278816,13.624350927933472,-16.44334573913772,0.048595465534643,0.0798944105360173,-0.650168817879595,-0.0120046789146854,-0.0177845693395184,-0.0093558392600554,104.89401991212544,108.13325980378318,89.49093834761621,-0.0001278006392321
478,1724815778185338394,-2.0940101146698,-1.1472313404083252,0.1837655007839203,0.0352096408605575,0.0303607322275638,-0.3200596272945404,0.9462560415267944,0.0,0.0,0.0,0.8234123975225165,0.8356778061525456,0.7352988696068763,1.683430103,-0.0829538574253234,0.0120679353388592,-0.0176964977173019,68.61838721545234,-32.61307199249629,41.26664052720045,0.0473696506206748,0.0800819901812359,-0.6504182436299767,0.0260928555325108,0.0156035807555952,0.0185480473344732,-176.71312767503878,-143.4287258950224,-124.38768449452596,5.621319304519267e-05
480,1724815778191171638,-2.0938031673431396,-1.1470990180969238,0.1839086562395095,0.0361663661897182,0.0293082669377326,-0.3193466365337372,0.9464939832687378,0.0,0.0,0.0,-0.6254512172020213,-0.3825069930022012,-0.2685978519751197,1.689263347,0.4155951667219162,-0.2303392155766949,0.2800949751507714,44.436174968232216,-18.742251493855942,26.927477118463734,0.0499185231934931,0.0786605046552595,-0.6488466763014777,0.0266890307624123,0.0170583040070226,0.020065338597381,-165.40171203396267,-139.98594240062658,-116.21114624070584,0.0001377001268426
482,1724815778202087243,-2.093691349029541,-1.1470277309417725,0.1840362548828125,0.0365566238760948,0.0293437391519546,-0.3189305663108825,0.9466181397438048,0.0,0.0,0.0,-0.7359794120242327,-0.5042229165642156,-0.3955374412237552,1.700178952,0.0625460584327237,0.0310767298353568,0.0812802937855429,-26.53826833979959,10.309187256535855,-15.31129913846726,0.0506725713371692,0.0789546873334256,-0.6479406694107684,0.0049987129414716,-2.407999889442181e-05,0.0063339688376995,45.311072918713,30.45305352136976,20.731488938459535,0.000124374396918
484,1724815778212295510,-2.0936903953552246,-1.1470905542373655,0.1840497851371765,0.0358204916119575,0.0296310056000947,-0.3191350102424621,0.9465684294700624,0.0,0.0,0.0,0.2558100052210597,0.2038306166675255,0.1250348800505782,1.710387219,-0.1529422802697112,0.0061012229134561,-0.0473120118403965,7.884923879370444,-5.970248650164042,6.362840424991084,0.0490733554060298,0.079040970159435,-0.6484214370477274,0.0094297220327916,0.0049551969381269,0.0105295408712642,22.90831155842096,-4.34990466062046,-10.152915638682082,1.89518594215114e-05
486,1724815778220734876,-2.09354567527771,-1.1469712257385254,0.1842028647661209,0.036207977682352,0.0291788931936025,-0.3186059296131134,0.9467459321022034,0.0,0.0,0.0,-0.0688797816404973,-0.3471580825855956,-0.3872784109979821,1.718826585,0.1158929606642586,-0.0688683516639672,0.1386679556967214,10.306515326332429,1.4040972511826864,5.357651990637406,0.0501413468103121,0.0784024475359294,-0.6472778695262125,0.0103449432714057,0.0046943645177108,0.0095895999651798,-17.053140498712466,-28.53529163468472,-18.0633383120935,0.0001466745677986
488,1724815778231609457,-2.093528509140014,-1.147052526473999,0.1841873526573181,0.0359782017767429,0.0297804232686758,-0.3187656998634338,0.9466822147369384,0.0,0.0,0.0,0.0458233959034705,-0.1424715933892241,0.0138087316596806,1.729701166,-0.073974612296397,0.0905529013285651,-0.0367917364533475,3.025933426677682,-2.4924030489523363,-2.8048243769210077,0.0493091814769681,0.0794058472766812,-0.6476296596875374,0.0071111196270692,-0.0035123036513624,0.0015120271955506,2.58190323047326,31.885051017467703,42.59968494403025,-7.78849743037665e-06
490,1724815778240219548,-2.0934295654296875,-1.147055745124817,0.184220403432846,0.0362902469933033,0.0294549372047185,-0.3186628520488739,0.9467151165008544,0.0,0.0,0.0,0.0137489213765527,0.2211111830833494,0.4195674211702787,1.738311257,0.091733026267379,-0.047837381760161,0.0299312498747243,7.916001385938693,-5.6526301568358654,5.36828163276775,0.0501178139325561,0.078981666192172,-0.6473919954402609,0.009845295662501,-0.0005655802208011,0.0067887966681006,-17.443470390457676,1.140391499119671,-8.274896746407844,3.6417693335632255e-05
492,1724815778250671745,-2.093347549438477,-1.1470640897750854,0.1843287944793701,0.0364929400384426,0.0295183602720499,-0.3183865249156952,0.9467982649803162,0.0,0.0,0.0,-0.3426365571434265,-0.2882998064816277,-0.36987241493231,1.748763454,0.0307160910015245,0.0252986366607596,0.0558290429899823,-5.230249506987746,2.8546020810065005,-1.1428426652485555,0.050486108636113,0.0792164096400228,-0.6467939726973434,0.0061341860674275,0.0002085758495056,0.0087216372902254,-12.76606612536964,-42.25536569746623,-60.35523940463139,0.0001113254405721
494,1724815778261973628,-2.093299150466919,-1.1470494270324707,0.1844072192907333,0.0363929904997348,0.029593477025628,-0.3183887302875519,0.9467990398406982,0.0,0.0,0.0,-0.2262430371389343,-0.6866526247852034,-0.8665720240815922,1.760065337,-0.0209719725361276,0.0069359190060183,-0.0013330371266406,0.6863714751076713,0.2750408272796301,-7.0154198343533185,0.050248205617174,0.0792954598201923,-0.6468051241230273,0.0024135147329786,-0.007478101949502,-0.0022385608419135,11.23063639858342,18.11635723832098,39.505878233182266,7.83835115472383e-05
496,1724815778270434324,-2.0932905673980713,-1.1471682786941528,0.1843301504850387,0.0364852175116539,0.0296655800193548,-0.318680465221405,0.9466951489448548,0.0,0.0,0.0,-0.1253207156433245,-0.195387720807992,-0.0037457437751092,1.768526033,0.0181493383423213,0.0212957592653055,-0.0730877864618654,0.7179296828114825,1.8160481441286496,-4.928943264045952,0.050353348498021,0.0795065109894911,-0.647415659830302,0.0011514967741206,-0.0133290140695798,-0.0089167486528607,22.73133195771504,53.36321814337553,90.64957484535344,-6.598789625998751e-05
498,1724815778285181675,-2.093270063400269,-1.1473463773727417,0.1842035949230194,0.0360931605100631,0.0302055589854717,-0.319031149148941,0.946574866771698,0.0,0.0,0.0,0.4875990965714358,0.4707343130418118,1.0418301900718958,1.783273384,-0.071666761886059,0.051131626439699,-0.0544713691691604,-0.5052036014511412,6.836042654080343,17.559612647076005,0.0492352038637191,0.080299598719298,-0.6481827568438421,-8.379447081097169e-05,-0.003456736413824,0.0112213727653163,58.441943687597565,43.123014594241255,1.128107551590844,-0.0001096926645173
500,1724815778290954296,-2.093273878097534,-1.1473468542099,0.1843131184577942,0.0360246039927005,0.0305311176925897,-0.3187864422798157,0.9466495513916016,0.0,0.0,0.0,0.8631057226494883,0.7150441815992741,0.890687299293381,1.789046005,-0.0619629649961274,0.1014687709150444,0.0837189420720786,7.754599343438165,1.0276318298878833,13.957754242578943,0.0489188229451155,0.0808609377024965,-0.6476697493899771,0.0040219829748622,-0.0011883325687946,0.0165040044223054,25.39769961940383,36.41505081422313,-30.34546014657925,0.0001089439922261
502,1724815778300632908,-2.0931589603424072,-1.147376298904419,0.1844327896833419,0.0365237854421138,0.0302875097841024,-0.3185448050498962,0.946719527244568,0.0,0.0,0.0,0.465466942334556,0.971633162573158,0.5294341857427267,1.798724617,0.1116504074159112,-0.0134132031450818,0.0568407070208459,8.374191512814413,-9.877632386272376,4.8646512550474235,0.0500434025459632,0.0807040557877604,-0.6471248589792702,0.0148398934799161,0.0109589566125265,0.0247281642540446,-90.27970935894216,-96.70246379098558,-124.5617377529804,0.0001256530537254
504,1724815778310746564,-2.092977523803711,-1.1471174955368042,0.1848135441541671,0.0368598699569702,0.0296578388661146,-0.3176819682121277,0.947016417980194,0.0,0.0,0.0,-0.9675008415711578,-1.308532803923248,-1.6522816313483482,1.808838273,0.0952730486663434,-0.0922597705632293,0.1867998304830951,-6.275585958950864,3.6651291790955383,0.7761996319961506,0.0511548083105109,0.0796766286950929,-0.6452794245956137,0.0126543634316931,0.0177903381053567,0.0266977631844991,-43.5774832218883,-110.389448623991,-82.86944997881615,0.0003620478980011
506,1724815778320211664,-2.092904567718506,-1.1470181941986084,0.1849692463874817,0.0369141101837158,0.0298476982861757,-0.3172826766967773,0.9471420645713806,0.0,0.0,0.0,-0.5109039262997677,-1.334121235527082,-1.2598431155352152,1.818303373,-0.005371727597197,0.0439557018668844,0.0871964863246418,-6.675760410545566,15.30878723199839,-16.854670121493946,0.0511716218939073,0.0800499022613214,-0.6444310544979897,-0.0031591651359121,-0.0121695394380694,-0.0053024698402897,79.54632013784652,88.14153407943647,111.35513633630296,0.0001485919314943
508,1724815778331072970,-2.093074321746826,-1.147432804107666,0.1846405416727066,0.0371208004653453,0.0310720540583133,-0.3181322515010834,0.9468096494674684,0.0,0.0,0.0,0.7432576605020632,0.7554544704538241,0.8207344978868958,1.829164679,-0.0285551583466202,0.2216636981568863,-0.1747790482680447,11.767303430370516,-12.81564729903981,11.06633261554941,0.0507169964593588,0.0825510166003726,-0.6462102858927136,0.0057470767928293,-0.0038370056450105,0.00744928645185,-0.5898039962040524,0.8939938687207132,-27.172260759045272,-0.0002958019682069
510,1724815778340595051,-2.092841148376465,-1.1471827030181885,0.1850263029336929,0.0378354378044605,0.0300812795758247,-0.3171755671501159,0.947134256362915,0.0,0.0,0.0,-0.2312291382807743,-0.8346149654650113,-1.2639648564762755,1.83868676,0.1995460928598236,-0.143938907654601,0.2243311077474389,9.169770594869632,-4.294431916822438,9.244505698324698,0.0527861915361337,0.0810717535261176,-0.6441410096032264,0.0121838147741755,0.0032586414688537,0.012314883349779,-56.43866487690604,-74.72234673976178,-80.66341101081971,0.0003689516623446
512,1724815778350382442,-2.092845678329468,-1.1473822593688965,0.1848631650209427,0.0387286692857742,0.0305937640368938,-0.3172312080860138,0.947063148021698,0.0,0.0,0.0,-0.3218478469193994,-0.637754758172147,-0.6624425586726552,1.848474151,0.140553647236305,0.1570871382040474,-0.013849205153206,-2.129447696800849,13.389140750619257,-9.116503679148146,0.0541574881160639,0.0826142813732361,-0.6441944240999538,0.0007940745174579,-0.0208029279888251,-0.0179121498136023,40.37157245429145,122.37580265170898,191.224114756618,-0.0001439819749014
514,1724815778360511581,-2.0928244590759277,-1.147597312927246,0.1846686899662017,0.0396813787519931,0.0308571904897689,-0.3169782161712646,0.9470998048782348,0.0,0.0,0.0,0.6073468337134218,1.673802429334331,2.6347984379437577,1.85860329,0.159845627179766,0.1106485417239821,0.0533456655537837,-6.375690412022056,-8.696361717224969,5.928808357560737,0.0558266852657467,0.0837036514195202,-0.6435911321705252,0.0063591816658288,-0.0081770734556485,0.0008083825787306,27.68313267224221,91.7528542634024,127.5188342102768,-0.0001724145175706
516,1724815778370905604,-2.092712879180908,-1.1475430727005005,0.1848904937505722,0.0396856255829334,0.0307102184742689,-0.3164550065994262,0.9472793936729432,0.0,0.0,0.0,0.2119213589523597,1.172068801499912,1.8483807235718377,1.868997313,0.0052603292581644,-0.023596434752576,0.1074503138340052,-20.72558664588767,-6.548622364976863,-0.6521313643115395,0.0559736018805592,0.0833963801676943,-0.6424859309600178,0.0132898433647739,0.0137781276704771,0.0365844162758923,-46.59312764947593,-90.11984546938776,-155.87470655526172,0.0002192437241953
518,1724815778383037615,-2.092515468597412,-1.1472547054290771,0.1855502128601074,0.0377730242908,0.0312638059258461,-0.3163008093833923,0.947390913963318,0.0,0.0,0.0,-0.4744142808288384,-0.5138661735710941,-1.1785739053844209,1.881129324,-0.3290657246640598,-0.0128842066742958,0.0165929839118935,-21.323926599048175,-0.685292026607978,-13.350597061551433,0.0519974455080948,0.0832294246490892,-0.6422926133167505,0.0094196164839388,0.0146835609159836,0.0364426363822669,-89.85007584180293,-187.39947773105536,-71.13421826863971,0.0006371818143382
520,1724815778390522520,-2.0924766063690186,-1.1471867561340332,0.1857401579618454,0.0360995903611183,0.0317342095077037,-0.3166415393352508,0.9473267793655396,0.0,0.0,0.0,-1.300605376573292,-2.14019276628039,-0.8873335996106039,1.888614229,-0.4598882847461544,-0.0252555606758773,-0.110402674509297,-12.293852443156682,-1.3360178278570929,-13.475103549619153,0.04848565213606,0.0830821407645483,-0.6431304078383627,0.0051510347919503,0.0081197264756474,0.022232611733317,21030.119713679695,8781.23898851061,16628.392515610714,0.0001845025949012
522,1724815778426624223,-2.0922977924346924,-1.147060513496399,0.1859952509403228,0.0359845198690891,0.0314192585647106,-0.3164623081684112,0.9474014639854432,0.0,0.0,0.0,4439.079649491449,1881.7734624389896,3488.12245509961,1.924715932,-0.0009787156463621,-0.0183203238852278,0.0111438879201243,-26300.827256619858,353.0190689489942,-14312.945999930129,0.0484809784649055,0.0824020127712538,-0.6427592616960817,-0.1689711747731053,-0.2891122864525641,0.1662693625189604,-367944.5867573283,-94809.8562945677,-371493.5647352822,0.0002493833772347
524,1724815778426909743,-2.092346429824829,-1.1471437215805054,0.1860430836677551,0.0349460057914257,0.0317935906350612,-0.3169832825660705,0.9472537040710448,0.0,0.0,0.0,4332.915511549697,1854.3714248554516,3380.9965058818443,1.925001452,-7.569809818374093,0.0832704033078966,-4.107816284386408,117438.92051744155,13138.086730145114,30854.469208033657,0.0462229373172749,0.0824812826936557,-0.6439337073455752,1.1085096746201089,0.2524395182731496,1.1700656459989318,-732391.1508424319,-249357.21609431133,-657788.8262300342,5.295313168723239e-05
526,1724815778427152225,-2.0918142795562744,-1.146970510482788,0.1865332573652267,0.0410265512764453,0.0304741635918617,-0.3156883418560028,0.947485625743866,0.0,0.0,0.0,4081.0724435656343,1762.3200439623477,3163.2998230936287,1.925243934,50.55039135080763,5.901291613728961,12.698540562968054,232446.6383810294,23265.500822115537,67222.46528291168,0.0587430061009327,0.0837487376770947,-0.6407727735967588,2.130063547455486,0.6933700868537453,1.96216136969595,-1023445.4258739768,-375062.3282933157,-883358.370835322,0.0004877603647963
528,1724815778435147455,-2.091796398162842,-1.1469511985778809,0.1865821778774261,0.0403598099946975,0.0305617451667785,-0.3160026669502258,0.9474067091941832,0.0,0.0,0.0,-105.150051245114,-34.48908885334159,-96.19125952285142,1.933239164,-0.1617363839424773,-0.0345183128236981,-0.086712476356236,-2490.38624429453,-263.06624429538044,-627.2740057229075,0.0573905316599129,0.0835134635980598,-0.6414834513277391,0.0048890016553571,-0.0018252210759328,0.0168504672884601,-195425.03005927248,-85096.52701075023,-150526.03612557697,4.739925282837572e-05
530,1724815778440397184,-2.091761589050293,-1.1469753980636597,0.1867076307535171,0.0406625419855117,0.0311174821108579,-0.3160551190376282,0.9473581314086914,0.0,0.0,0.0,0.1101324164220755,0.1131942255010242,-0.0011777906135823,1.938488893,0.0437201921296491,0.2367896291240638,-0.0298002387548636,26.80672586783052,29.66342778001377,8.169345332934576,0.0576128987867801,0.0847634741434123,-0.6415684456781022,0.0066603310810791,-0.0020458584166149,0.0189888331063921,13816.199198895503,4546.364106299619,12621.362271676942,0.0001282930848283
532,1724815778452058887,-2.091683149337769,-1.14693284034729,0.1868019253015518,0.0408886112272739,0.0311186108738183,-0.3160795569419861,0.9473402500152588,0.0,0.0,0.0,-0.2727387162000587,0.1583160386202343,-0.5132378708915383,1.950150596,0.03692416658114,0.0123622425495018,-0.0037411596098519,-13.26397617876733,-6.797132086822029,-1.0790701352367362,0.058040506356014,0.0849099257967134,-0.6416038410947591,0.002056899126984,0.0032952514557109,0.0083926502186475,1.033275342917876,-13.620708234917348,-4.218948942499445,9.225972549848458e-05
534,1724815778461575726,-2.0916998386383057,-1.146904230117798,0.1868841797113418,0.0401028580963611,0.0316087007522583,-0.3162221312522888,0.9473099708557128,0.0,0.0,0.0,0.0001043925950364,-0.1071450677560888,-0.245133242852026,1.959667435,-0.1877951643108389,0.0443495884137868,-0.0397458959916337,3.172114072460441,0.2307735072292405,-1.4744673047490446,0.0562231129833621,0.0853528938427435,-0.6419585943125405,0.0004088683595284,0.0024744010574764,0.0065790541733434,58.16903085823741,-6.368936181863465,43.547769360789474,7.850356662872193e-05
536,1724815778470752539,-2.091676950454712,-1.1468862295150757,0.1869262903928756,0.04046580940485,0.031582660973072,-0.316372811794281,0.947245180606842,0.0,0.0,0.0,0.794950077787088,0.0248808142452741,0.2905591846601381,1.968844248,0.078332823880319,0.0187670183633326,-0.0328463926546474,18.23750250148869,-1.5471085800968498,0.7043061427417563,0.0569170247246309,0.085541896713573,-0.6422509673011102,0.0019431200925552,0.0013062731126751,0.0038466596129418,20.546024779141863,12.010352484943034,16.233822495447168,4.093250652096734e-05
538,1724815778488862372,-2.0916614532470703,-1.1468859910964966,0.1869694292545318,0.0407657101750373,0.0318229161202907,-0.3165536522865295,0.9471637606620787,0.0,0.0,0.0,-1.1941591866910564,0.1574519488637866,-0.921498160731378,1.986954081,0.023973220589059,0.0350875219956167,-0.0217903496125364,175.3044376528919,-69.06743358896016,-40.42860226275436,0.0573203733282992,0.0861988012540609,-0.6426098773672347,0.0387748488060424,0.0071952702361386,0.0301339531668247,-321.0551218850495,-52.24544796193648,-229.6195904218539,4.3419143381048664e-05
540,1724815778490614936,-2.09158706665039,-1.1468721628189087,0.1870269477367401,0.0410357899963855,0.031645018607378,-0.3166498839855194,0.9471259117126464,0.0,0.0,0.0,-1.7926522373829337,0.0557859166142584,-1.351514134670082,1.988706645,0.3614467024318242,-0.0978244595847103,-0.0996044140303876,157.5862226648894,-64.13870542047921,-36.85297239526555,0.0579379362820326,0.0860377000103394,-0.6427947341183534,0.0361345375634272,0.0074427672961938,0.0281164930881767,-298.1878764216084,-49.771609970130974,-214.19982352963396,5.8383384950942494e-05
542,1724815778500870772,-2.09159517288208,-1.1468226909637451,0.1870330423116684,0.0403556041419506,0.0315877087414264,-0.3167608976364136,0.947119951248169,0.0,0.0,0.0,-2.251649323811083,0.0397659978724083,-1.6779627780369353,1.998962481,-0.1213585832874289,-0.0534383242459157,-0.0246111626779281,-27.100636622469388,5.019011958636628,4.91568754513021,0.0566689389677349,0.0855050043866592,-0.6430791866730851,0.0005781496288008,0.0028874733319383,0.0022303626418924,26.399615102374305,-3.7359529962039617,22.77716140032419,1.012980271926247e-06
544,1724815778517352199,-2.0915493965148926,-1.1468263864517212,0.1871131360530853,0.0401740409433841,0.0320631228387355,-0.3167900741100311,0.9471019506454468,0.0,0.0,0.0,0.0680572320181545,-0.079386664548033,0.1437837855870801,2.015443908,-0.0389416135919412,0.0475872894363835,-0.0070693266906383,-127.43931662549056,-99.47532585968096,-48.34249366433977,0.0560209132978629,0.0862946299246401,-0.6431516293128611,-0.0043438425690283,0.0163603617687044,-0.0030155700350675,54.73011645476828,-84.38004516617909,62.26576191312334,8.164183578540947e-05
546,1724815778520214607,-2.0915653705596924,-1.1467713117599487,0.1871005892753601,0.0393984094262123,0.0318931639194488,-0.317015528678894,0.9470648765563964,0.0,0.0,0.0,0.1819558964695053,-0.3592704748368408,0.2980186523739319,2.018306316,-0.4695645280138762,-0.2896508812174794,-0.1700067896683118,-118.6806188327574,-94.1108838110756,-45.42449380034877,0.0546310469819503,0.085493715927353,-0.6436853771657366,-0.0039667401644258,0.0156872776867853,-0.0023742905519834,30.590183419133755,-80.09025665551684,42.11682787460607,-1.8271928997415048e-05
548,1724815778534462165,-2.0915074348449707,-1.1467998027801514,0.1872092336416244,0.0401320233941078,0.0320276357233524,-0.3170338571071625,0.9470233917236328,0.0,0.0,0.0,-0.0347160212511305,-0.2459210337741192,0.0636674690651085,2.032553874,0.0918570550730791,0.050608183366347,-0.0017420882232597,-5.495730569211688,5.916528415607642,1.876042602245612,0.0559410812868174,0.0862150275708914,-0.643670251942925,0.0021866219528305,0.0017660433490505,0.0071184360821412,-17.718221423799285,31.654600478669483,-37.43128031052697,0.0001128559920738
550,1724815778540847579,-2.091498851776123,-1.1467777490615845,0.1872532367706298,0.0399507023394107,0.0322143658995628,-0.3170767724514007,0.947010338306427,0.0,0.0,0.0,-0.1550389188402373,0.0240279310481376,-0.235395007435316,2.038939288,-0.0717312083932399,0.0369744927921193,-0.0181918837373874,-14.058112718599762,-1.6423815701666835,-2.17412098872062,0.0554741451801512,0.0864572235104051,-0.6437734520272265,0.0006296207252916,0.0022882050648149,0.0058004563935387,1.6134480215011928,13.5643717520771,-20.018668007374146,4.195829714584886e-05
552,1724815778550462645,-2.091503143310547,-1.1467726230621338,0.1872932165861129,0.0398087911307811,0.0324099175632,-0.317216694355011,0.9469627737998962,0.0,0.0,0.0,0.1566534178609709,-0.2612414960490764,-0.0396191376908747,2.048554354,-0.0395189260697271,0.0283170144075571,-0.0332755064592382,0.7431084185387098,-1.933618979928066,-0.4869310483592584,0.0550677380234085,0.0867467510659452,-0.6440790043356261,0.0004245526980994,0.0016831723492671,0.0031173900306402,16.013693553893116,-18.22927509302447,15.435001749326409,3.9122200095067e-05
554,1724815778566118927,-2.0914742946624756,-1.1467169523239136,0.1873154938220977,0.0390357375144958,0.0324385836720466,-0.3173002004623413,0.9469659328460692,0.0,0.0,0.0,-0.0108070432562417,-0.255008447690161,0.076446647708334,2.064210636,-0.0943475209269476,-0.0282961735590464,-0.013320000234767,63.854076432262616,35.79312431220244,2.576839236639362,0.0535704494063381,0.0863157031460329,-0.6443120888444757,0.0074144798629731,-0.0074626153906081,0.0086009223929117,-43.86196342887779,51.19694676310869,-19.625950466269735,1.795837203287971e-05
556,1724815778571572641,-2.091423273086548,-1.146778583526611,0.1873760372400283,0.0402312241494655,0.0327321514487266,-0.3172997236251831,0.9469059705734252,0.0,0.0,0.0,-0.3130245272026428,0.1207100502841171,-0.0819555752707644,2.06966435,0.3818539827034786,0.241776718512086,0.0032072697535137,51.810412143504855,29.446030647027236,1.9174492993933705,0.0556607733581219,0.087631366111229,-0.6442223234891202,0.0064868461625167,-0.0082280516985946,0.0084976928271487,-34.79981055885891,53.20636040315141,-18.070667412006113,6.805373240666534e-05
558,1724815778583286406,-2.0914194583892822,-1.1467976570129397,0.1874100714921951,0.0409116856753826,0.0330080576241016,-0.3173116445541382,0.9468632340431212,0.0,0.0,0.0,-0.2019954420111653,0.3493095424088263,-0.0175274176669149,2.081378115,0.0954257950412061,0.0816281910912792,-0.002334921610757,-26.70327417156178,-9.810988551910608,-1.8198599481142237,0.0567809020118237,0.0885875643920897,-0.6441957903775858,-0.000775946647991,-0.0002459278153423,0.0059519548227573,22.40492106633976,-19.455504756328743,2.334537028246279,3.586283969752686e-05
560,1724815778590610966,-2.091430187225342,-1.1467931270599363,0.1874676197767257,0.0405578576028347,0.0332348942756652,-0.3173698782920837,0.9468510746955872,0.0,0.0,0.0,0.0213138406569208,0.0283190690192083,-0.0149267761328237,2.088702675,-0.1104735470905167,0.0274496854339324,-0.0218326111603473,-11.70741179158761,-4.0447375076053795,-0.4552689504317734,0.0559585488199692,0.0887973233482933,-0.6443447890634797,-0.0003409075960121,0.0007914902665362,0.0067386666523727,14.1176337869467,-31.41225914095656,-4.220856083667296,5.638930338207005e-05
562,1724815778600779111,-2.0914177894592285,-1.146782636642456,0.1875203549861908,0.0406226962804794,0.0333925895392894,-0.3173407316207886,0.9468525648117064,0.0,0.0,0.0,-0.0662112580030243,-0.1158871397212263,-0.1224372049675278,2.09887082,0.0020290274243178,0.0336392480166238,0.0046871085258451,6.324295098075638,3.081179884136561,1.021419261193784,0.0559851370090082,0.0891361785300748,-0.6442778603330079,-0.0006617208305499,-0.0005200969409813,0.0048600587070719,6.294568211011034,1.0720282134082946,-5.147423924904686,5.187856102152315e-05
564,1724815778610923382,-2.0914435386657715,-1.146803617477417,0.1875663548707962,0.0408547259867191,0.0337953120470047,-0.3173300921916961,0.9468318223953248,0.0,0.0,0.0,0.148461006982149,0.0493670503742558,-0.1197421608473815,2.109015091,0.0182142220016024,0.0899179766326062,-0.001009445477271,0.7539518626761923,2.761354368642019,0.0168865008003398,0.056173577488531,0.0900474647210815,-0.6442367520010198,-0.0016841651883581,-0.001563082416915,0.0042486991903372,11.719283545361131,8.611551778293137,3.8172643485392066,4.6834221742928414e-05
566,1724815778625156019,-2.0914504528045654,-1.1468157768249512,0.1876211166381836,0.0411052666604518,0.0342605151236057,-0.3172389268875122,0.9468348026275636,0.0,0.0,0.0,0.1267000661082031,0.0185955683300348,0.0055082863173905,2.123247728,0.0121402985314077,0.0735769467792717,0.0107815978862263,11.533405164627272,-16.657360557175217,-7.766495106622191,0.056365627126301,0.0910843701107455,-0.6440237695381303,0.0054060527489241,0.0021784238101645,0.001356800172843,-27.945888869569252,-17.03032998212918,12.123145652010948,5.5390697437591434e-05
568,1724815778630745843,-2.091407299041748,-1.146796941757202,0.1876232326030731,0.0413250401616096,0.0340334214270114,-0.3173911869525909,0.9467823505401612,0.0,0.0,0.0,-0.087507920211201,-0.1092426224301162,0.0805696243460529,2.128837552,0.1028671834762381,-0.0535834977166748,-0.0515009675695716,7.132233199242332,-9.92881484703398,-5.231230439842113,0.0569128741976801,0.0908016166884425,-0.6443293545763068,0.0052987723767614,0.0017460664152153,0.0018457591210756,-24.348623289007744,-12.022629551499035,5.238916492264594,1.8720467777983385e-06
570,1724815778641056975,-2.0913987159729004,-1.1468098163604736,0.1876701712608337,0.041486419737339,0.0344553664326667,-0.3173389136791229,0.9467775225639344,0.0,0.0,0.0,-0.0728115480294486,-0.026894323269508,-0.0211730555058617,2.139148684,0.0033536930437447,0.0878729992048741,0.0069855492927458,-0.96431763635191,1.690865068940401,1.4288480337597569,0.0569587496523729,0.0917021144138457,-0.6442053310157623,0.0030970873499853,1.2995272726357143e-05,0.0025452187939709,6.257595613240338,10.852989265531548,3.3992559360633763,4.829255497583593e-05
572,1724815778651589105,-2.091341733932495,-1.1467961072921753,0.1876753866672516,0.0418745130300521,0.0341974906623363,-0.3174775242805481,0.9467233419418336,0.0,0.0,0.0,0.0450795324706748,0.1182496980687602,0.1573477946871452,2.149680814,0.0866483156043578,-0.0237136312312297,-0.0236147450743235,1.854981679809658,-5.314375468506599,-1.2901716336850173,0.0578472232687561,0.0914670443114604,-0.6444690986933699,0.0038440035209248,0.0012485722025168,0.0013646805994858,2.342554926587376,2.67673940595941,7.800468205048255,5.9748758124881325e-06
574,1724815778667396366,-2.091318130493164,-1.146777629852295,0.1877175867557525,0.0417101457715034,0.0344001278281211,-0.3175067901611328,0.9467134475708008,0.0,0.0,0.0,-0.1278746084891369,-0.1028830571167853,0.0635809716955302,2.165488075,-0.0276490562650765,0.0175579175468428,-0.0056877928592867,-4.562018476036046,2.692711175317501,4.448773032897708,0.0574033907174426,0.0917493053417591,-0.6445431904515313,0.0039435859859509,0.0031399510631615,0.0102441761608957,9.366742009657775,-5.916489052372999,-34.64155932394633,4.100270541546842e-05
576,1724815778671277956,-2.0913004875183105,-1.146763563156128,0.1877645701169967,0.0416497737169265,0.0344769246876239,-0.3174745738506317,0.9467241168022156,0.0,0.0,0.0,-0.0721599517434874,-0.1181538021096259,-0.0982480775415837,2.169369665,-0.0428132907790771,0.0280878745262022,0.0147399149334085,-2.547058278699839,2.5206776709817698,3.9045973651633896,0.0572430407570987,0.0918548741216613,-0.6444795569139442,0.0033193404287317,0.0025284907118283,0.0100161541043397,11.057527732875071,-2.8227743766542197,-34.72991813459145,4.597656480227547e-05
578,1724815778684937576,-2.0913140773773193,-1.1467816829681396,0.1878010183572769,0.0416867695748806,0.034847218543291,-0.3174384534358978,0.9467210173606871,0.0,0.0,0.0,-0.0795564772032362,-0.1032889589657606,-0.2380105891495809,2.183029285,-0.0122478140476296,0.053284444810957,0.0027914278684443,3.357880315823232,-7.772610215655464,0.6022309566336663,0.0570831035329918,0.092579347649623,-0.6443995369730359,0.0065955893913951,0.0028072592124317,0.0067752142636905,-36.98446871067463,-15.28115848574616,-13.260870562609592,3.75271359750632e-05
580,1724815778690813088,-2.0912561416625977,-1.1467547416687012,0.1878512054681778,0.0417009182274341,0.0347899533808231,-0.3174135684967041,0.9467308521270752,0.0,0.0,0.0,-0.3889606670863221,-0.234443571871019,-0.3235802909854572,2.188904797,0.0103125789870017,-0.0166889789396195,0.0100625337171149,3.813023281319622,-3.915837329042204,0.2462488732308048,0.0571486539368365,0.092478077683736,-0.6443458881527275,0.0053209277783423,0.0018877666845042,0.005374894049396,-40.25873518064287,-18.605744383592647,-13.680206652153856,4.945150117204134e-05
582,1724815778700978326,-2.0912818908691406,-1.1467829942703247,0.187850147485733,0.0420695804059505,0.03511718288064,-0.3174277245998382,0.94669771194458,0.0,0.0,0.0,-0.5801012562022101,-0.3582136696821359,-0.4471034153463415,2.199070035,0.0486031397135885,0.0840864254747911,-0.0048678041338506,1.0249062462882903,4.599067574141146,-0.3590405076539864,0.0576426819716362,0.0933342669605116,-0.6443462563392928,-0.0016581769475365,-0.0018662692427753,0.00058636297776,6.741000693145544,4.1993733167964695,2.1901018760509094,8.043168801679388e-07
584,1724815778717163805,-2.0912861824035645,-1.1467896699905396,0.1878774315118789,0.042088147252798,0.0352903120219707,-0.3172815442085266,0.9467394948005676,0.0,0.0,0.0,0.1873121584924622,0.1317625059213334,-0.0420556004589458,2.215255514,-0.0054703390268261,0.0215597011923542,0.0179197938984412,-6.6126773596730795,13.761862696640977,-16.932895125276698,0.0575831839257946,0.0936659490575703,-0.644035295733121,-0.0083036815012746,-0.0073783874337323,-0.006032593100798,56.44690241567449,54.79216409308874,55.56810593208179,2.7628758071234665e-05
586,1724815778720137734,-2.091315269470215,-1.1468154191970823,0.1878552734851837,0.0420820415019989,0.0354071967303752,-0.3173353970050812,0.946717381477356,0.0,0.0,0.0,0.3601172648935908,0.3081087830604583,0.1398895034916759,2.218229443,-0.0269237936794145,0.0721173567945471,-0.0424594221379176,-4.586411029664361,11.735165494847498,-15.333192274134504,0.0574924211519252,0.0938873325597362,-0.6441495596116884,-0.0074199190181758,-0.0067284435436931,-0.0059571840820593,42.267571075831675,45.5206219424029,49.378285273432866,-2.0566837257117795e-05
588,1724815778731077215,-2.091301441192627,-1.1468113660812378,0.1878502070903778,0.042208582162857,0.0353009365499019,-0.3173964619636535,0.9466952681541444,0.0,0.0,0.0,0.1851301319160792,0.2516967319867919,0.2051542641715442,2.229168924,0.0286322673700785,-0.0113770107188723,-0.010215567353141,-0.6955973299333102,-1.0554852845263183,1.3542725858825753,0.0577944720109103,0.093769522986272,-0.6442688477566578,-0.0009473967345599,0.0002461046783395,0.0001819862548053,-22.111108407986176,-19.17486086240048,-12.351500070262157,-4.896705225280347e-06
590,1724815778740563630,-2.0913286209106445,-1.1468100547790527,0.1878572404384613,0.0421417206525802,0.0354882664978504,-0.3174326419830322,0.9466789960861206,0.0,0.0,0.0,-0.0749306851735479,-0.0455220201630131,-0.0627033377396331,2.238655339,-0.025466170014862,0.0327141666105159,-0.0104746324925953,-4.848400259648066,1.4417786426468169,1.0484046573502337,0.0575452164636569,0.0940850538025228,-0.644350389312101,-0.002535486910304,-0.0005404239152895,-0.0008007444421203,-4.542872259532923,-13.31756251838862,-6.4985981643054505,5.757394226063781e-06
592,1724815778750723223,-2.091350793838501,-1.1468229293823242,0.1878323256969452,0.0418493412435054,0.0356512330472469,-0.3173610270023346,0.9467098712921144,0.0,0.0,0.0,0.1277661019268252,0.0151727815633347,0.1077873162831386,2.248814932,-0.0654284032077434,0.0124785534355287,0.0118810796955848,0.5686865998272141,-1.1037259755907711,-1.4615350065319863,0.0568925560263882,0.0942047236243666,-0.6442220821507574,-0.0022905622235782,-0.0005960962703071,-0.0009928780051939,11.66840581344558,1.2928094457416388,6.400850686200393,-2.436040162364975e-05
594,1724815778761431957,-2.091376543045044,-1.1468217372894287,0.1878381669521331,0.0418156944215297,0.0357299707829952,-0.3175856471061706,0.9466331005096436,0.0,0.0,0.0,0.159226650818837,-0.023823618442476,0.0591629937315728,2.259523666,-0.0085203866004742,0.0106829381288288,-0.0451050137251625,6.659439663066729,1.6383661929265416,2.0607483269377767,0.0567563336060094,0.0943463791259068,-0.6446999893547414,0.0002477007880372,-0.0002004980023428,0.0015915082557906,-9.701856130261415,1.3803828212111915,-20.033233303489872,4.626545927209085e-06
596,1724815778770608029,-2.091353416442871,-1.1468260288238523,0.1878609955310821,0.0421534106135368,0.0358051881194114,-0.3174499869346618,0.9466607570648192,0.0,0.0,0.0,-0.0291812866240808,0.0283291764954842,-0.2464782081386058,2.268699738,0.0631646672886286,0.0399172090474332,0.0318491525048592,4.338803747851626,0.7131646476798725,2.751729880491543,0.0573655759458697,0.0946953945436983,-0.6443858944818973,0.0010970469817266,-0.0008968884586337,0.0007020202655656,-6.9569258134292635,2.7516281055608323,-12.76525951331594,2.407781014274289e-05
598,1724815778781281301,-2.0913593769073486,-1.1468409299850464,0.1878463178873062,0.0425154641270637,0.0357797667384147,-0.3175029754638672,0.9466277360916138,0.0,0.0,0.0,0.0651033760396621,0.0212987667809236,-0.1276858764718296,2.27937301,0.0663528637099062,0.0168302905213883,-0.0087339058937683,-8.444652893443582,-6.186975665406429,-1.201821812075735,0.0580659132029193,0.0948801033180386,-0.644468946560143,-0.0007258138656283,0.0006993574813094,-0.0037852444139137,4.8802544370423835,-4.24721353384416,23.060807022202923,-1.3291853468718169e-05
600,1724815778790581227,-2.091367483139038,-1.1468174457550049,0.1877915859222412,0.0420419238507747,0.0355794019997119,-0.317498505115509,0.9466579556465148,0.0,0.0,0.0,0.0784533267867377,-0.0472788290200306,0.1834576177338371,2.288672936,-0.0830317801236907,-0.0733150899060035,0.0011617282928708,3.89947902491932,3.401807390641333,1.9959796453285443,0.0572910216223652,0.0941987928671349,-0.6444976152339691,0.0017911345575924,-0.000141866683208,-0.0026005981544745,-12.07234674926328,-0.7928391194852301,10.895415040172749,-5.712945547764119e-05
602,1724815778800220493,-2.0913236141204834,-1.146845459938049,0.187799334526062,0.0428878292441368,0.0357497408986091,-0.3173709213733673,0.946656346321106,0.0,0.0,0.0,-0.1728718695429262,0.0108310202894755,0.0630733338766244,2.298312202,0.1540011512232709,0.0903071865567585,0.0297123534356104,4.118664168593533,3.526921020869227,-0.2000350651625679,0.0588074065404247,0.0950512003253936,-0.6441596452235846,0.0006272146252399,-0.0001662279758818,-0.0002719538688316,-8.906072966652841,1.0186959051446276,-13.046633047007248,1.23858007843805e-05
604,1724815778811372390,-2.091367244720459,-1.1468119621276855,0.187782421708107,0.0424687191843986,0.0356349982321262,-0.3174388706684112,0.9466568231582642,0.0,0.0,0.0,-0.0507047503487931,-0.0424439355020735,-0.0896165791685202,2.309464099,-0.0641914990596186,-0.0438609617366007,-0.0133134854616344,-0.1009233465876366,-0.3781467651476329,-0.8468419082502393,0.0580747420358741,0.0945715812239659,-0.644337273182803,-0.0019731342872546,0.0001269060723529,-0.0018716281315782,8.041332060022016,0.4847871936763345,-1.3467211612951189,-2.202744360682637e-05
606,1724815778820247324,-2.0913710594177246,-1.1468311548233032,0.1877633035182953,0.0428222976624965,0.0356803312897682,-0.31744185090065,0.9466382265090942,0.0,0.0,0.0,8.387998450166967e-05,-0.0009766519872731,-0.0143766588731954,2.318339033,0.0723888156539305,0.035085449880689,0.000439434265761,3.918162183728269,3.605046098670293,1.30335094376606,0.0587192888890948,0.0948822108255989,-0.6443151512574588,-0.0011343676768973,-0.0007352090038565,-0.002286792035683,7.748329876632063,5.1557293299836715,13.102411419724016,-1.716257137034043e-05
608,1724815778831767414,-2.0913946628570557,-1.1468182802200315,0.1877349764108657,0.0425256453454494,0.0357625782489776,-0.3173671364784241,0.9466734528541564,0.0,0.0,0.0,0.119635779186271,0.0656452709809052,0.2057190168535588,2.329859123,-0.0540109250244794,-0.0024946314532883,0.0117712947743205,0.1153107277474763,-1.050514321977713,-2.0422438247827897,0.0581097889722828,0.0948455876821962,-0.6441807429460069,-0.0025454088402057,0.0006915376598755,-0.0019678741679332,10.438762030437594,-0.5803637219884539,9.241534332796576,-3.0442148912943904e-05
610,1724815778840498808,-2.0914201736450195,-1.146815061569214,0.1877210438251495,0.0426098741590976,0.0357514694333076,-0.3174775838851928,0.9466331005096436,0.0,0.0,0.0,0.2111848972050847,0.0184659311666372,0.2211339001030084,2.338590517,0.0203698626779601,0.002968894345546,-0.0260850642768893,2.937373882292265,-2.681797273243124,-1.5058003840268814,0.0582661604434059,0.0948847206989708,-0.6444076858027747,0.000101478239685,0.0008795366715617,0.0010065358856454,-6.264495722995747,-7.851937796645764,-8.634871815026141,-1.521564342127552e-05
612,1724815778850448383,-2.0913848876953125,-1.146800518035889,0.1877605617046356,0.0424471497535705,0.0354867130517959,-0.3175304234027862,0.94663268327713,0.0,0.0,0.0,-0.0410457416176762,-0.0874181696743174,0.0173046706852484,2.348540092,-0.0136848505768705,-0.061213684792742,-0.0089829965300871,0.0321777383119399,0.8667213349770593,1.3905480338253136,0.0581181807382225,0.0942819054565087,-0.644532930490461,0.0011600496978303,0.001028509594029,0.0018516061207769,-8.897645043148152,-5.506314058699936,-11.24429132362411,3.919894398137679e-05
614,1724815778860646051,-2.091398000717163,-1.1467945575714111,0.1877572834491729,0.0425963252782821,0.0355658493936061,-0.317520797252655,0.9466262459754944,0.0,0.0,0.0,0.0401875362852812,-0.0898910537838686,-0.0007646790688356,2.35873776,0.0227538052414561,0.0241070520098681,0.0017657029239353,-0.9293341050821432,4.889018134939091,1.0813383629387432,0.0583532738133298,0.0945262772422734,-0.6445005074702366,-0.0007995497362855,-0.0009331368092162,0.001321201537495,9.93390258649552,7.923654128249925,-2.824397107076394,-4.4016266248738885e-06
616,1724815778871326170,-2.0914011001586914,-1.1468214988708496,0.1877897679805755,0.0424726232886314,0.0358155667781829,-0.3174362778663635,0.9466506838798524,0.0,0.0,0.0,0.1682960409501731,0.0860761172698668,-0.0427020601777528,2.369417879,-0.0375345970973279,0.0374232040646788,0.0136199237026249,2.4238469093563566,-1.668720037288655,-0.033705439852305,0.0579683978757637,0.0949168210950393,-0.6443312414234749,0.0022285738977814,-0.0007470031369649,0.0018862599991287,80.96626275599137,51.683135459843825,20.106618564752974,3.493643966018833e-05
618,1724815778880859081,-2.091358423233032,-1.1468135118484497,0.1877979189157486,0.0427129380404949,0.0357179380953311,-0.3174301087856293,0.9466456770896912,0.0,0.0,0.0,1.527011530682862,0.8783407032891124,0.3534701936461996,2.37895079,0.0542282860471202,-0.0032926565601192,0.0035674691550634,5.79999968927668,-2.953351964794358,-0.845781377853716,0.0584884144324994,0.0948835152891716,-0.644299027526485,0.0028524156794702,0.0006576744539525,0.0006656498885595,-230.90053048792805,-97.6053668242148,-138.2982728210777,9.002133819677268e-06
620,1724815778905792096,-2.091393232345581,-1.1468088626861572,0.1878021657466888,0.0421490371227264,0.0360267013311386,-0.3174488246440887,0.9466529488563538,0.0,0.0,0.0,-28.581921944870945,-13.339864901311955,-14.823440697833632,2.403883805,-0.0506530975326403,0.0090026104693367,-0.0039095610261201,1362.4392580422873,-5996.672601232538,-39.01427496293228,0.0572174409706255,0.0951132332490235,-0.6443837138226447,0.1362366047105752,0.0702263205803319,0.0408788307150871,-1291.912548273729,-791.5677916073982,6.733650507761922,2.300556733779449e-06
622,1724815778906128760,-2.091346740722656,-1.1467849016189575,0.1878161132335662,0.0421060845255851,0.035680066794157,-0.317468523979187,0.946661412715912,0.0,0.0,0.0,-29.01724569825984,-13.607363337759674,-14.81837599511005,2.404220469,0.4142437690531298,-2.037123607119008,-0.0172202541047324,1282.7410113157864,-5688.9153728127285,-39.18822412670623,0.0573526225854307,0.0944288694002154,-0.644429005428676,0.1264598512418118,0.065661942763846,0.0358135943747814,-1074.3663626037726,-689.6218852728159,118.68932188764308,1.3307254192190996e-05
624,1724815778911376046,-2.091634750366211,-1.1468909978866575,0.1875448226928711,0.0398169122636318,0.0361982025206089,-0.3178782761096954,0.946603298187256,0.0,0.0,0.0,-16.76965818827184,-8.643978565841328,-5.718946296481636,2.409467755,-0.8821687528017549,-0.0958288029020857,-0.1943254285236602,-99.288961484103,244.5503603471054,-9.639763246536877,0.0526248160527409,0.0939828323937071,-0.6454794489629236,-0.0239334704328797,-0.0098043337124593,-0.02337753458053,2225.1573694965687,967.1997663167904,1414.9330898953106,-0.0002717269192606
626,1724815778920749629,-2.0913407802581787,-1.1468085050582886,0.1877999603748321,0.0429157838225364,0.0356183536350727,-0.3174426555633545,0.9466360211372375,0.0,0.0,0.0,2.264158864015593,0.778879794269242,2.1993483805608567,2.418841338,0.661572377365021,0.0965132830497322,0.1190629310755281,77.73483397573055,9.833692369597314,16.81145080282848,0.0589364111040196,0.094823872551806,-0.6443094488392388,0.0179940457424905,0.0052512667956179,0.0161390034042439,1142.925301135136,576.229956179011,435.7255474732268,0.0002567966588545
628,1724815778934730647,-2.0913679599761963,-1.1468091011047363,0.1877945512533188,0.0425128191709518,0.0358340367674827,-0.3173735439777374,0.9466692209243774,0.0,0.0,0.0,-0.2670063249367588,-0.111406672584355,-0.2381309054169922,2.432822356,-0.0649186370451845,0.0111635231859161,0.0074892109958799,8.339912213494166,-1.58758029884092,-1.6566670777158352,0.058039598553387,0.0949735596844139,-0.6441952661786767,0.0035891230685933,-0.0011108919317166,0.0048401004508065,-23.097923280984023,2.663613037864973,-37.26147692341046,-6.424736323122325e-06
630,1724815778940613292,-2.0913331508636475,-1.1468182802200315,0.1878359615802765,0.0428978204727172,0.0357440412044525,-0.3173486590385437,0.9466636180877686,0.0,0.0,0.0,-0.0119410280230963,0.0684703045011302,-0.1180280975876933,2.438705001,0.1334017462321294,0.0130050000331299,0.0133959230205687,18.86002466694153,0.0382491582567985,0.3933774693660717,0.0588322785966151,0.0950453342285881,-0.6441117757432056,0.0039077571184407,-0.0009156622525559,0.0048501851192535,25.776095745241744,20.94000093045831,14.103181808337483,4.351383152496738e-05
632,1724815778953266462,-2.0913383960723877,-1.1468123197555542,0.1878377497196197,0.0427174717187881,0.0358441993594169,-0.3173292577266693,0.9466745257377625,0.0,0.0,0.0,-0.164328532573727,0.071130616398971,-0.1114011112514843,2.451358171,-0.0321936804427918,0.0060103573482086,0.0017521434314603,-2.286015904577359,-2.411534457937785,-1.797075641552379,0.058427466208468,0.0951199610083263,-0.6440851076834523,0.0019575136578851,0.0009109676086183,9.783308747302044e-05,2.297710887666769,-8.098824048287764,8.880665337320346,9.45581857772236e-07
634,1724815778960370026,-2.0913150310516357,-1.1468040943145752,0.1878382712602615,0.0426767207682132,0.0357901230454444,-0.3173801600933075,0.9466612935066224,0.0,0.0,0.0,-0.0908143959744501,-0.0195363356993941,-0.0149894687768466,2.458461735,-0.005357335613,-0.0185327420031637,-0.0145103583681614,-3.262401637058682,-1.8949276011226712,-1.9131632379055177,0.0583788606875232,0.0949945440586989,-0.6441961336237683,0.000749527107402,0.0011242052398401,0.0003600524322768,11.649634117625094,-7.9843666323682685,9.222145482754389,6.171356179086712e-07
636,1724815778970680592,-2.0913453102111816,-1.146793007850647,0.1878462731838226,0.0419428423047065,0.0359607450664043,-0.3174962699413299,0.94664865732193,0.0,0.0,0.0,0.0487658161718129,-0.0303366773130934,0.0149943352927242,2.468772301,-0.1443551252558629,-0.0147227878918962,-0.0286064532428417,4.346653686121883,1.8564130828873264,1.9186196329611025,0.056861604784666,0.094859974938681,-0.6445006656047885,0.0009990265529324,0.0001811674480691,-0.0005712509314044,10.058883490558449,1.455865031140169,5.652801674551783,5.5644363004466206e-06
638,1724815778981659797,-2.0912883281707764,-1.146801471710205,0.1878242492675781,0.0425700657069683,0.0358785279095172,-0.3173525631427765,0.9466720819473268,0.0,0.0,0.0,0.1185340920243469,0.0149149443941549,0.1091468742571069,2.479751506,0.1117956233284144,0.0230427310665389,0.0308730770946235,2.96578031346981,0.2197672410485188,1.6655814167495833,0.0581226667290909,0.0950930918950774,-0.6441462618927281,0.001821658870341,0.0005627380557342,0.0008246865951546,0.8630708056871437,-0.5893774322242713,-1.0490060152949847,-1.8681274073266956e-05
640,1724815778994218641,-2.09131383895874,-1.146775245666504,0.1878752708435058,0.0416756905615329,0.0360434725880622,-0.317338079214096,0.9467104077339172,0.0,0.0,0.0,0.0504835397443028,-0.0601633468578734,-0.0422911978806377,2.49231035,-0.1435126976299935,-0.0204544643725178,-0.0021078774277456,28.531385148778387,2.230143610454032,0.7611241971473426,0.0563163897131501,0.0948381311689381,-0.6441875006502126,0.0039367674190771,0.0004650504086924,0.0019369061629745,-26.922590632065685,-0.2651259015376772,-10.97290798592896,4.697612037042103e-05
642,1724815779000962427,-2.0912656784057617,-1.1467779874801636,0.1878806352615356,0.0424147062003612,0.0358481965959072,-0.317314475774765,0.9466928839683532,0.0,0.0,0.0,-0.2089480967783935,-0.0412631442803768,-0.112359739038314,2.499054136,0.2258321572293664,0.0152031206739768,0.0152909998364759,27.772302205220168,3.769502618190367,1.192664224313104,0.0578497052926196,0.0949346024507821,-0.6440781757380786,0.0038501557856278,-0.000130377067272,0.0011778567378915,-22.531779500119747,3.4269663180687457,-6.786006855627367,7.586399496231548e-06
644,1724815779013053225,-2.0912904739379883,-1.1467735767364502,0.1879031658172607,0.0423331595957279,0.036053042858839,-0.3173042833805084,0.946692168712616,0.0,0.0,0.0,-0.135882759249523,0.0137060008418756,-0.1162810199125523,2.511144934,-0.0235774870187886,0.0278738474269068,-0.0003622071362119,-6.146595747995979,-2.5246956861351424,-4.698127433585792,0.0575660715049458,0.0952713106316399,-0.6440630388231238,-0.0029272280569898,0.000390195929782,-0.0001764210990273,23.14582956287181,-3.4136342629238765,6.842289209184925,2.0910312837056283e-05
646,1724815779021246230,-2.0913193225860596,-1.1467702388763428,0.1878903955221176,0.0423332527279853,0.0360056199133396,-0.317531406879425,0.9466179013252258,0.0,0.0,0.0,0.1487018197688906,-0.0584539913128914,-0.0204347465116778,2.519337939,0.0064611550267696,-0.0126455848334905,-0.0577493793956433,3.619843426577815,-3.443623085235396,-1.99176335734903,0.0575733273501529,0.0951951162820972,-0.6445436343110248,-0.0016829131651547,0.00033954867299,-0.0011528295126179,-5.0441179516979595,-9.522251625148838,-12.259359092942574,-1.4226209166159432e-05
648,1724815779032303013,-2.091310501098633,-1.146767497062683,0.1878837049007415,0.0425221994519233,0.0357782505452632,-0.3175731599330902,0.9466040134429932,0.0,0.0,0.0,-0.5006375635244265,-0.1744044902337949,-0.5134732894187329,2.530394722,0.0457906301339113,-0.0283089386344535,-0.0049753346829805,-3.008061143928545,5.081915954363984,3.3730310073626075,0.0580726610411356,0.0948858066885166,-0.6446169350079107,-8.610233629724462e-05,-0.001086747760624,9.459979022352628e-05,10.18149300919934,13.14174782414668,6.608574911968519,-6.5730482764911866e-06
650,1724815779040586585,-2.0913166999816895,-1.146784782409668,0.1878888309001922,0.0425175949931144,0.0360140427947044,-0.3175047039985657,0.9466182589530944,0.0,0.0,0.0,0.0113468155111164,0.0810932450628049,-0.140986860754003,2.538678294,-0.0198694169446606,0.0541169569354971,0.0142772971567639,-17.10261326572153,1.1177084885011843,-1.7224603401286884,0.0579218148816947,0.0953264823731082,-0.6444722474202258,-0.008236342958753,-0.0028132328073127,-0.0080455240094741,71.96690226998517,24.632137692370524,66.37335526658022,6.625576460853694e-06
