seq,stamp,px,py,pz,ox,oy,oz,ow,lx,ly,lz,ax,ay,az,timestamp,wx,wy,wz,aa_x,aa_y,aa_z,roll,pitch,yaw,vx,vy,vz,jx,jy,jz,fw
4610,1724818862567580427,-1.7528399229049685,-0.372732400894165,0.1431004405021667,-0.0352129451930522,-0.0386932380497455,0.2972461581230163,-0.95336651802063,0.0,0.0,0.0,0.3430439190909787,0.2615727556698413,0.0940178656217677,0.0,0.0,0.0,0.0,27.19656927266252,-12.16216872031425,7.206587556363219,0.0443527038089479,0.0948536731876728,-0.6023628181818926,-0.0187131366225798,-0.0141332046215981,-0.0044766622386415,-68.01321196148916,-34.362236868149076,-13.637520112984866,0.0
4612,1724818862576670921,-1.7530100345611572,-0.3728608787059784,0.1430597454309463,-0.0361463837325573,-0.0378696098923683,0.297023206949234,-0.9534341096878052,0.0,0.0,0.0,-0.2752297761656667,-0.0507969524066466,-0.0299539291402004,0.009090494,0.247230249793723,-0.1105601217790043,0.0655114409415945,19.929844242628917,-8.877861673582204,5.197129037676953,0.0466521117011676,0.0938225729171383,-0.6018111329609307,-0.0155946979343468,-0.0117553790556179,-0.0036219933953141,297.55421601026717,497.1297364333779,192.26007899960612,-3.7357638657550146e-05
4614,1724818862608992326,-1.7531557083129885,-0.3729675710201263,0.1430408954620361,-0.0369191132485866,-0.0372885130345821,0.2970297336578369,-0.9534253478050232,0.0,0.0,0.0,51.35289403887542,77.09582094469347,29.84577022923646,0.041411899,0.0563038521796063,-0.0200748125968663,0.0025643839556379,1169.5991159084133,-178.0502539754778,61.7874616642336,0.0484767999677119,0.093170515520317,-0.6017589392887699,-0.0955420922200573,-0.049294516602913,-0.0188368985356532,6612.731288851937,-1743.4687020884012,-1516.6495559668983,-1.6034695249783782e-05
4616,1724818862609653216,-1.7532200813293457,-0.3730007708072662,0.1430281996726989,-0.0371721722185611,-0.0371608510613441,0.2970279157161712,-0.953421115875244,0.0,0.0,0.0,55.79095761726906,75.88776470201043,28.810445471996935,0.042072789,0.8451654257910282,-0.1401903603374324,0.0442603829311873,-930.84244974073,11.649320182533856,-645.3549492415613,0.0490376729360109,0.0930765584937897,-0.6017341852043661,-0.0608760944603545,0.0027148705902959,0.0012975549495024,1959.945254803286,-8722.677898351663,-4249.704977272308,-1.2679441522534755e-05
4618,1724818862610292239,-1.7532364130020142,-0.372966319322586,0.1430417001247406,-0.0368377231061458,-0.0372672006487846,0.2972609102725982,-0.9533572793006896,0.0,0.0,0.0,54.10518173704385,66.05364526879067,24.436926782561468,0.042711812,-1.0623355406754953,-0.0132498291349503,-0.8058703160970109,-2705.443449234526,181.53134254705012,-1202.4051548982695,0.0483107551689215,0.0930931487134481,-0.6022511421391522,-0.023162246522574,0.049473758031409,0.0186853658685337,-3105.870137306096,-14978.053941159198,-6600.75684951507,9.440342512751291e-06
4620,1724818862616859713,-1.75322687625885,-0.3729410171508789,0.1429996341466903,-0.0369798429310321,-0.0373096093535423,0.2974700927734375,-0.9532849192619324,0.0,0.0,0.0,2.13144510329362,-4.55643650026546,-2.490567017478158,0.049279286,0.0406079246636427,0.0236523707406235,-0.066144549017998,104.08539249692905,-0.1380413536470306,73.22995432300455,0.0485376058707812,0.093269339323671,-0.6026794289896874,0.0005760799467964,0.0027851368738378,-0.0079975314796918,-4980.711089622796,-6502.352462114664,-2440.357042233907,-4.371080254836956e-05
4622,1724818862627538666,-1.753235936164856,-0.3729298114776611,0.1428865790367126,-0.0370831452310085,-0.0368385910987854,0.2973330318927765,-0.9533420205116272,0.0,0.0,0.0,-0.1259375049995023,-0.2112940334860572,0.2698748033224479,0.059958239,0.0433310429352196,-0.0777879984451689,0.0316353736429164,-6.334996376098793,-0.1917181182625839,3.4379654983685692,0.049027987331467,0.092423165983905,-0.6023812624550801,-0.0024151362165838,-0.0015479958943593,-0.0072918559161898,-86.81189267185114,201.17560112368056,114.90102003108754,-0.0001139116814827
4624,1724818862636276724,-1.7532682418823242,-0.3729619085788727,0.1428464204072952,-0.0368233695626258,-0.0368582494556903,0.2972389757633209,-0.9533805847167968,0.0,0.0,0.0,0.0061909900655167,0.075759775659107,0.2472106023640794,0.068696297,-0.0591424585990744,-0.0129162574286788,0.020790731582044,-2.4802537434512177,4.983262796692236,-1.6122945276829836,0.0485274877907327,0.0923015660719391,-0.6022044768179698,-0.002413308225087,-0.0020038520312919,-0.0034765646596239,10.55861008629908,17.704726660752932,-6.916348680632277,-3.8546918029420013e-05
4626,1724818862649752035,-1.7532740831375122,-0.3729542195796966,0.1428228318691253,-0.0374680086970329,-0.0366834960877895,0.2973183393478393,-0.9533374905586244,0.0,0.0,0.0,0.0536605820417163,-0.0004151804048514,0.0641831839600546,0.082171608,0.0995957751010938,0.003513291620074,-0.0086495497100504,-10.005188194892307,-8.745988943177204,6.980988971455864,0.0498590113582351,0.0923545882225591,-0.6023190837536999,-0.0022055761842523,0.001675500235116,-0.0040815985661506,4.904258733679288,-13.952224267629347,8.058219021282993,-2.4454258578181186e-05
4628,1724818862655948426,-1.7532927989959717,-0.3729406893253326,0.1427908986806869,-0.0373297855257988,-0.0364654324948787,0.2971453666687011,-0.9534052014350892,0.0,0.0,0.0,0.0879857438586062,-0.110515839173071,0.1757758432793391,0.088367999,-0.0244727165189024,-0.0790742262727118,0.0607233870960013,-10.822070130545496,-4.851622376252512,3.858575000528487,0.0497398251778345,0.0918464899482211,-0.6019661741192627,-0.0017641030759065,0.0008937593158133,-0.0033730848767969,2.016202591088272,-6.245434881140526,8.191931997128622,-3.390173160190948e-05
4630,1724818862666247584,-1.7532894611358645,-0.3729535639286041,0.1427866369485855,-0.0374555476009845,-0.0365161374211311,0.297269731760025,-0.9533595442771912,0.0,0.0,0.0,0.0484368148611962,0.0224187754373229,0.0920876632177296,0.098667157,0.0215697014215298,0.0160662345785391,-0.0251368069950658,-0.3235305035697453,4.188934864894861,-3.422637331191045,0.0499388949310206,0.0920246481238412,-0.6022175432596766,-0.0005713793160282,2.3354815759546455e-05,-0.0005111055005269,-4.366122917720656,5.948271276235549,-9.733124024885647,-2.881357673863121e-06
4632,1724818862677391975,-1.7533066272735596,-0.372937947511673,0.1427797675132751,-0.0372461378574371,-0.0365928933024406,0.2972825765609741,-0.9533607363700868,0.0,0.0,0.0,-0.0065652874650891,0.0047894309568408,-0.0357656227726351,0.109811548,-0.0398470559582887,0.0018664338055217,-0.0040223120280945,2.225858366194098,-0.4214216301370955,-1.025731400536304,0.0494907808702403,0.0920476390594071,-0.6022613970323594,-0.0008440076860694,0.001562678054821,-0.001725370424678,1.366788058953795,-10.765046757468689,-5.603327733117221,-9.09836494977298e-06
4634,1724818862686501800,-1.75330913066864,-0.3729225099086761,0.1427557915449142,-0.0374114215373992,-0.0365663468837738,0.2974406778812408,-0.9533060789108276,0.0,0.0,0.0,0.0528164523902168,-0.1616623579160417,-0.043105500154793,0.118921373,0.0380441825357477,0.0043774838702617,-0.0351135925865956,3.8016842521162224,-0.249615384134864,-1.3286637186507555,0.0498080498506007,0.0921033627354332,-0.6025803728844609,-0.0007705353565725,0.0006133964210013,-0.0015061512396381,1.480842380792912,-4.069334546717725,5.311916866743413,-2.5400513512670832e-05
4636,1724818862703282099,-1.7533373832702637,-0.372945636510849,0.1427653133869171,-0.0370140969753265,-0.0365479364991188,0.2973757684230804,-0.9533424377441406,0.0,0.0,0.0,-0.0780428866794209,0.2090376737106847,0.2351216992254776,0.135701672,-0.044937180253518,-0.0160464808521799,0.0070145624901561,25.884707426139528,0.1273312197441281,7.88747860275826,0.0490635956338091,0.0918285916954997,-0.602475558239491,0.0014989717689672,-0.0038753398149182,-0.0043056387502637,-22.16327309817514,29.562173062025984,27.13489330177238,1.0258321568618365e-05
4638,1724818862707900162,-1.753326416015625,-0.3729667067527771,0.1427392363548278,-0.0372593663632869,-0.0364352427423,0.2972758710384369,-0.953368365764618,0.0,0.0,0.0,-0.1986509691681322,0.3550524656494294,0.3738460810852348,0.140319735,0.1137824941833588,-0.0137497354592091,0.0502730815379552,15.274028518262936,2.988468894733516,1.3145594315617846,0.0496101080505772,0.0917537245405742,-0.6022458553080916,0.0008674876285823,-0.0023043464277883,-0.0027089790731906,-13.304268751777888,17.469313176239044,16.826288192689333,-2.346307740428233e-05
4640,1724818862716324034,-1.7533422708511353,-0.3729514181613922,0.1427615582942962,-0.0371073484420776,-0.036708440631628,0.2975107729434967,-0.953290581703186,0.0,0.0,0.0,-0.1138489305935412,0.2847986674344579,0.3125527797303918,0.148743607,-0.0509711745032411,0.0497036874154155,-0.0623915843131457,-10.656449843198848,2.9072493277507805,-6.800191232051362,0.0491342253635634,0.092197858246208,-0.6027523196994271,-0.0017572189146903,0.0009150329661924,0.0008720981352583,11.4140006275036,-16.284588932477735,-13.560806756671903,2.0025158033161507e-05
4642,1724818862730413991,-1.753364086151123,-0.3729597330093384,0.1427319496870041,-0.0371262468397617,-0.0365679748356342,0.2975397706031799,-0.9532862305641174,0.0,0.0,0.0,0.0787218744381913,-0.1318856503534371,-0.0266301804477256,0.162833564,0.0086631449850764,-0.0183390973019482,-0.003269231079884,-2.0455864164840083,6.0226741520546625,-0.4646745357834745,0.0492508710375352,0.0919420452003954,-0.6028113226088009,0.00129860801988,0.0026329874645441,0.0026232834120527,-11.0354663131945,-18.70074234893528,-15.315931408148424,-2.9717287821030437e-05
4644,1724818862737022154,-1.7533466815948486,-0.3729323446750641,0.1427639275789261,-0.0371013209223747,-0.0367679484188556,0.2975955307483673,-0.9532620906829834,0.0,0.0,0.0,-0.0707613008376698,-0.2217672864526543,-0.100701312045475,0.169441727,-0.0243112553778981,0.0550919198790707,-0.0207845091739822,0.4992064390511377,3.150264073964497,-0.3410889953992439,0.0490791960758423,0.092312409436202,-0.6029311068197846,0.0013906337901659,0.0009748435694731,0.0019795848247978,-14.745283303081354,0.431126727973014,-4.2500196752057615,3.0102436361314796e-05
4646,1724818862746757452,-1.7533509731292725,-0.372968316078186,0.1427421867847442,-0.0373367927968502,-0.0365485250949859,0.2975693941116333,-0.9532694220542908,0.0,0.0,0.0,-0.1013555828024181,-0.0163089487637718,-0.0422684731014608,0.179177025,0.0592756005649085,-0.028431058757638,0.0090178156238006,-1.5467539808564896,-0.8167325911063568,0.1480795794870685,0.0496630972930343,0.092031616583625,-0.6028566885122121,-0.0005128573683919,-0.0007659598004323,0.0009520170932342,3.036135743601111,16.096336448450216,1.39868406287727,-1.8482755643958823e-05
4648,1724818862756353601,-1.7533565759658811,-0.3729479610919952,0.14278145134449,-0.0371516905725002,-0.0367949530482292,0.2976320087909698,-0.9532476663589478,0.0,0.0,0.0,-0.0137756484115587,0.0907819823549762,-0.0723907422343214,0.188773174,-0.0514124874671381,0.0371584024146544,-0.0171169770261528,-4.482381600640231,2.2240652698420376,-0.3209096383083206,0.0491561965025732,0.0923958786514577,-0.6030038024080158,-0.000594736070056,0.0006146664842603,0.0011449886154766,10.44744388783636,4.362979985994773,5.119686562588155,3.68931600051149e-05
4650,1724818862769073975,-1.753364324569702,-0.372965544462204,0.1427463293075561,-0.0371964871883392,-0.0366959795355796,0.2975202798843384,-0.9532846212387084,0.0,0.0,0.0,0.141391981766025,0.0316747078335328,0.1319894613637061,0.201493548,0.010483333078831,-0.0122987262015883,0.0193122619354376,1.1749104411786604,0.0999174175000576,-0.815970975977665,0.0493115507935292,0.0922275355154687,-0.60276513351455,-0.0008583769271837,0.0008742403217105,-0.0013355612054972,3.9823636390214703,-5.204602953234888,7.500003056069052,-3.36699590210012e-05
4652,1724818862779317000,-1.7533751726150513,-0.3729379773139953,0.1427444070577621,-0.0371870882809162,-0.0368172973394393,0.2976093888282776,-0.9532525539398192,0.0,0.0,0.0,0.1144167024798404,-0.0262381539451931,0.1381490313417102,0.211736573,-0.0079257074949175,0.0216178779973707,-0.0193974642967624,3.3321659800565757,-0.0538501339988564,-1.238072810294919,0.0492130054177414,0.0924584937376913,-0.6029535442701414,0.0019270771676644,0.0012916299231591,0.0027135183448674,-19.495864567905507,-8.449840855372868,-21.15581991055794,-4.9916109036295395e-06
4654,1724818862786782847,-1.7533445358276367,-0.372935950756073,0.14278045296669,-0.0373479202389717,-0.0367798432707786,0.2976678311824798,-0.9532293677330016,0.0,0.0,0.0,-0.1228952398052203,-0.1045379753204853,-0.1381917663303569,0.21920242,0.0448640520778154,0.002904497405377,-0.0148132021624731,0.8895601487449225,-2.2633157021087613,0.9739698283140332,0.0495378001998427,0.0924855931788106,-0.6030632971447594,0.0019241275548296,0.0007312216127033,0.0023455882038243,-17.512310163047395,-3.585443024327902,-20.150920641236976,3.712619148874018e-05
4656,1724818862796949001,-1.7533551454544067,-0.3729221522808075,0.1427699327468872,-0.0371692031621933,-0.0367466360330581,0.2976647615432739,-0.9532386660575868,0.0,0.0,0.0,-0.1033308541186026,-0.0454388258279155,-0.1096114539522211,0.229368574,-0.0316607074027416,-0.0167378509389248,7.100375311073568e-05,-2.8877895816301673,-0.0165044133363362,0.5954598026482295,0.0492152280966949,0.0923156183776807,-0.6030710875298422,-0.0010210299487027,-0.0007395544885575,-0.000290083196222,8.260659990225292,10.915453103266533,7.579568728008412,-1.225089710929766e-05
4658,1724818862806731099,-1.75336492061615,-0.3729491233825683,0.1427741050720214,-0.0370947271585464,-0.0367759652435779,0.2976722419261932,-0.953238010406494,0.0,0.0,0.0,0.0371155091213264,0.1093612533993154,0.0094140133789964,0.239150672,-0.0162387311777297,0.0011316404202414,-0.0022802144172707,3.025154635528825,0.1159588885111417,1.209249381638279,0.0490543584930386,0.0923277545132962,-0.6030928176603861,-0.0002775924233873,-0.0002499873243273,4.625610126840485e-05,5.7848020992094575,4.9097285817567435,9.207509851718742,6.177989052507247e-06
4660,1724818862816569996,-1.7533605098724363,-0.3729267716407776,0.1427707970142364,-0.0372082516551017,-0.0366620607674121,0.29756760597229,-0.9532707333564758,0.0,0.0,0.0,0.0091960516095053,0.0496514001639583,0.0707118048017003,0.248989569,0.0278608728009058,-0.0146575293437267,0.0239628305498688,-0.3434466388321807,-0.0352635272200052,0.0465501725793282,0.0493496162298967,0.092172135590085,-0.6028635513948388,-0.0002972167318802,0.0014129796307429,-0.0001082155650333,-0.891286837911051,-7.783941153860744,-1.8583833752794412,-5.152677468465823e-06
4662,1724818862826404802,-1.753370761871338,-0.3729213178157806,0.1427719742059707,-0.0371010191738605,-0.0366978868842124,0.2975696623325348,-0.953272819519043,0.0,0.0,0.0,0.0195646746592358,-0.043763662293925,-0.0270811025957458,0.258824375,-0.0229561233638,0.0004250372242882,-0.0013429618339381,-3.039317816604123,2.069059343376396,-2.3384687506407524,0.0491226399569939,0.0921769478719983,-0.6028765136438645,-9.676357782950618e-05,0.0007278160440264,0.0014367122723157,-1.5362298693933056,-3.0362082571757103,-10.818288512401274,1.749651993187767e-07
4664,1724818862837185810,-1.753360629081726,-0.3729114234447479,0.1428030282258987,-0.0369858071208,-0.036901019513607,0.2976800203323364,-0.9532350897789,0.0,0.0,0.0,-0.0276126891591978,-0.000125121702053,-0.1540510037857358,0.269605383,-0.0305769014168772,0.0290598819892834,-0.023781259438918,2.2705886371207837,-3.8263744920375222,2.545436949368521,0.0487707044340258,0.0925024277418844,-0.6031183925887348,0.0001045038201539,0.0005621341990718,-0.0010318020328012,-0.7223012621394288,2.5864025503085046,7.3259325349541555,3.04591650996932e-05
4666,1724818862847166570,-1.753367304801941,-0.3729090988636017,0.1427565813064575,-0.0369846522808074,-0.0365353487432003,0.2974852323532104,-0.953309953212738,0.0,0.0,0.0,-0.0010622286214218,0.0121866627699296,0.0955784833972736,0.279586143,0.0195967619344622,-0.0690272341701697,0.0443745965413513,1.2934175177458611,1.4612710884277398,-0.5396294812225116,0.0490040554502329,0.0917926504664196,-0.6027078760544283,-0.0005987277825738,0.0007017276626122,-0.001877114387085,2.6737575278698955,-2.3911427623394355,16.14522583954739,-4.672843191232616e-05
4668,1724818862856058704,-1.753372073173523,-0.3728991448879242,0.1427618861198425,-0.0370322130620479,-0.0366779938340187,0.2975596487522125,-0.9532793760299684,0.0,0.0,0.0,0.0228208712253687,-0.0377914251169201,0.1689065866027303,0.288478277,0.0015193369139979,0.0333999686256036,-0.018797778694356,-0.2377830184634168,6.161018044075531,-3.1746235189169982,0.0490035106041695,0.0920974738507613,-0.6028608957966918,-5.8397085865635745e-05,0.0007958362794173,0.0004009469373684,2.770173530537367,-2.9672673493493305,-0.4546502832078261,4.127567928014108e-06
4670,1724818862866935244,-1.7533663511276243,-0.3728947937488556,0.1427636444568634,-0.0371974259614944,-0.036792304366827,0.297563761472702,-0.9532672762870787,0.0,0.0,0.0,0.0540723553607086,-0.0347671918004034,0.0482045666726958,0.299354817,0.0228158539937846,0.0291309657062731,-0.001047108945542,-0.8825921907416407,-1.3971584521350653,-0.1028264996072035,0.0492520573128672,0.0924144987632777,-0.6028567168507525,-0.0003149861150717,-0.0002587718045141,0.0010768872693018,3.1990146715046706,4.484668817428495,-11.13929460666643,1.6195702056825878e-06
4672,1724818862878020325,-1.7533793449401855,-0.3729051053524017,0.1427859216928482,-0.0370960608124733,-0.0368403457105159,0.2976745069026947,-0.9532347917556764,0.0,0.0,0.0,0.0932135741255445,0.0624704962847187,-0.075747993465021,0.310439898,-0.0190599458737007,0.0022930606743194,-0.0217865228957811,3.423885981305854,-0.993140446459083,0.3781472616931681,0.0490185318653438,0.0924517480239874,-0.6030977080746542,0.0011618220323299,5.8481292295908816e-05,0.00145372662978,-9.281650092864409,-0.0016439573986233,-12.289076912866191,2.248522874201036e-05
4674,1724818862886928935,-1.7533522844314575,-0.3728975057601928,0.1427948921918869,-0.0373680479824543,-0.0367727689445018,0.297694057226181,-0.9532206654548644,0.0,0.0,0.0,-0.0812047115589528,-0.0003583964397274,-0.193153200380838,0.319348508,0.0630014748941423,0.0036688776465808,-0.0023155475373302,0.2734827909080097,0.6092052952926449,2.081114062188659,0.0495780255681661,0.0924854082592758,-0.6031167748950212,0.0017057658517245,0.0008573595170702,-6.785953954313584e-06,-29.16483792085123,-31.68978219742117,-37.718762150505555,9.5084302816162e-06
4676,1724818862896609169,-1.753349781036377,-0.3728891611099243,0.1427841633558273,-0.0372608229517936,-0.0368768200278282,0.2976092100143432,-0.9532473087310792,0.0,0.0,0.0,-0.4643616519373404,-0.5662738149382484,-0.8164074701528565,0.329028742,-0.02836711971519,0.0143496977695102,0.0167306934052017,-2.4050636794608744,-1.880698532958116,0.9430830839902764,0.0493190736218789,0.0926161366078571,-0.6029473942556919,-0.0005767347479945,-9.314184151065774e-05,-0.0021837974099465,-7.328054983129504,-25.1637777894185,-15.733844345858804,-1.132533006321539e-05
4678,1724818862906517297,-1.7533639669418335,-0.3728997707366943,0.1427516192197799,-0.0373031124472618,-0.0366825684905052,0.2975450158119201,-0.9532732367515564,0.0,0.0,0.0,-0.2098755874827501,-0.4779205022746051,-0.4789181684433811,0.33893687,0.0191337893251597,-0.0345470357196893,0.0156854741160255,1.6256010365422358,-12.245142681377745,8.711273951388547,0.049521480699546,0.0922665890585596,-0.6028085386090094,-0.007495724901716,-0.0104508753145182,-0.0162716500234809,47.86611768085122,56.4840031556579,90.08488913553052,-3.205703193568982e-05
4680,1724818862916413147,-1.753498077392578,-0.3730958998203277,0.1424622386693954,-0.037020169198513,-0.0355666056275367,0.2966958880424499,-0.9535912275314332,0.0,0.0,0.0,0.4830335371024356,0.5511668155764335,0.9662568433717734,0.34883272,0.0039040057753473,-0.2279734421590657,0.189032200752466,-0.5965630794689949,1.3316242557586646,-1.874505352678648,0.0497205642850307,0.0899205999225548,-0.6010448619586074,-0.0047450929414623,-0.0095717947931497,-0.0116914225217081,20.328223317937972,52.87855323030405,44.204648393941625,-0.0002760193221478
4682,1724818862926911932,-1.75344979763031,-0.3730822503566742,0.1425349861383438,-0.037081092596054,-0.0356558673083782,0.2969272434711456,-0.9535134434700012,0.0,0.0,0.0,0.1429636097390383,0.537004672263055,0.296080189973105,0.359331505,0.0081381893597106,0.0185538755699647,-0.0466405136407582,-1.3854236325929794,11.202465762168066,-9.51850076745992,0.0497627233939593,0.0901394870713575,-0.6015261138074035,0.0026103956425913,0.0013644690196734,0.0040603501796185,-45.71484587064448,-10.77910630623721,-119.84330505685035,7.332790928280992e-05
4684,1724818862936923704,-1.753442645072937,-0.3730679750442505,0.1425482481718063,-0.0369889475405216,-0.0357575379312038,0.2970089614391327,-0.953487753868103,0.0,0.0,0.0,-0.4419269889355748,0.33905353625999,-1.438506649484204,0.369343277,-0.0228099488176593,0.0134780779726585,-0.0184987619332002,-2.7608627251295,-6.974516984232192,4.068652251258085,0.049518227609288,0.0902834484470967,-0.6017051122336053,-0.0012822714797806,0.0019226257254274,-0.0044728760691876,-62.792357176863,12.706255154226362,-120.1964884084957,1.2212242823240452e-05
4686,1724818862946443146,-1.753472924232483,-0.3730451762676239,0.1424531936645507,-0.036627534776926,-0.0353113189339637,0.2968772053718567,-0.953559398651123,0.0,0.0,0.0,-1.0792482032023796,0.7539796884846226,-2.1024629135668698,0.378862719,-0.0461020595386387,-0.1114551675957279,0.0316171640565162,1.2474282562609007,-10.584741801649576,0.8410624362588448,0.0491017102207132,0.0892089175463887,-0.6014558293357811,-0.0059699578045524,0.0077144974607463,-0.0234724275918765,-43.283286514699114,-23.36569969715178,-49.96328246598033,-9.80135676876946e-05
4688,1724818862956517761,-1.7535628080368042,-0.372910737991333,0.1420729160308838,-0.0363687165081501,-0.034386321902275,0.2969473302364349,-0.9535812735557556,0.0,0.0,0.0,-1.2629783106251329,-0.1952840162575355,-2.3948822830266745,0.388937334,0.0058537062983121,-0.1910182751945784,-0.007073802151359,-55.977923397467606,-7.661208643319595,-14.570931927552806,0.0491460249017469,0.087290302401853,-0.6016221527199049,-0.0230996900220645,0.0168624748731964,-0.0457904625426506,70.48949348484936,-68.30804025941856,22.3237020286999,-0.0003943958140285
4690,1724818862966143434,-1.753915548324585,-0.3727160692214966,0.1415581703186035,-0.0309257488697767,-0.0347889475524425,0.2979365289211273,-0.9534501433372498,0.0,0.0,0.0,0.2315241053798395,-0.6144588439013936,-1.70775778944268,0.398563007,-1.0952141595263387,-0.2625905179106991,-0.2460143255009797,-25.654317809901695,-27.38974556788704,25.744610314208224,0.0383900912508763,0.08486871856605,-0.6041077119356809,-0.0312348976961232,0.0048359150631362,-0.070494624263846,100.4928940071677,12.004288172325454,67.49249361999094,-0.0005449308763031
4692,1724818862976044583,-1.7541697025299072,-0.3728249073028564,0.1406868696212768,-0.0278257001191377,-0.0318866558372974,0.2954960763454437,-0.9544061422348022,0.0,0.0,0.0,0.6687215367273364,0.0701659592887281,-1.0791434034475111,0.408464156,-0.4455056609303646,-0.7370040766149922,0.5238957544454516,43.248466310316054,-6.463144023363025,22.321744574562658,0.0343789199487884,0.0773876314210041,-0.5991731973535153,-0.0179770719042835,0.0052188884243076,-0.0786576564461798,-84.96528059288805,-44.32188147902177,-263.1076607877334,-0.0008716375415913
4694,1724818862987858073,-1.7542736530303955,-0.3725347518920898,0.1398893296718597,-0.0260180849581956,-0.0310303308069705,0.2954511940479278,-0.9544992446899414,0.0,0.0,0.0,-2.1550068112572833,-2.052781079516462,-8.790804587654284,0.420277646,-0.2499143120674819,-0.2290846990834414,0.0061855373126372,17.643986808160474,13.869665141284916,-18.87798954862209,0.0314253373705787,0.0746804012693982,-0.599189233957735,-0.0195251035639003,0.0064915981522801,-0.0949960148327724,-91.286742501323,-69.37548575482543,-218.15947401207043,-0.0008192156914132
4696,1724818863001443984,-1.7547065019607544,-0.3727288842201233,0.1381692886352539,-0.0250964276492595,-0.0277777407318353,0.2946341335773468,-0.9548766016960144,0.0,0.0,0.0,-1.0869084212998956,-1.2714887632487688,-4.964010258931047,0.433863557,0.0067847717933174,-0.495712166290789,0.1394681613598559,-14.741927514667102,-300.18151766766937,133.05901778458002,0.0316375875310828,0.0678892955629133,-0.5975034075931128,-0.0804258181215118,-0.0551537346197577,-0.3301681308354958,333.81165812342454,310.91675612377287,1126.4077902085592,-0.0017192987998079
4698,1724818863006328674,-1.7551846504211426,-0.3730700612068176,0.1361990123987198,-0.0231078378856182,-0.022080173715949,0.2924241125583648,-0.9557544589042664,0.0,0.0,0.0,0.9918406257174122,0.6922920271891506,2.0217030718396565,0.438748247,-0.1242988133286758,-2.4547314607233033,1.0058751346574075,-17.685789323449633,-259.9471560431768,116.8367604846214,0.0313110412753196,0.0557499013784278,-0.5929610625007568,-0.0797712945130655,-0.0556287406587951,-0.3327331924051027,321.56752614694915,307.2735594798559,1081.3718213854347,-0.0019604940320187
4700,1724818863019556695,-1.7555909156799316,-0.3732966184616089,0.1343275308609008,-0.0213487315922975,-0.0167791433632373,0.2901220321655273,-0.9566044211387634,0.0,0.0,0.0,1.5201498244127063,1.3626067553150871,3.833021028791986,0.451976268,-0.0304801015203602,-0.8385925160511207,0.3828882687466723,-26.84284454697452,2.2684617717271323,-23.345905035562495,0.0311444509657213,0.0445041697641616,-0.5882391855836399,-0.0359212504968127,-0.018188143334882,-0.214757056831921,-90.11599152889433,-19.049768494404987,46.587543358198275,-0.0018652717523578
4702,1724818863026038685,-1.755840301513672,-0.3734178841114044,0.1327027231454849,-0.0192643087357282,-0.013316229917109,0.2892341017723083,-0.9569719433784484,0.0,0.0,0.0,0.5229260278192345,1.0176630579722434,3.848044849911405,0.458458258,-0.3122638198844614,-1.2047491058575348,0.3069978258556111,-24.348471639647805,-11.004765437848285,-15.444741925157562,0.0291915241458517,0.0366385034932292,-0.5864842308419256,-0.0317684383458853,-0.0140178967298041,-0.2060649592371479,-153.0692055901386,-28.859742085934265,11.673416352611923,-0.0016211971099864
4704,1724818863036801128,-1.756062388420105,-0.3734849393367767,0.1312819421291351,-0.0172773376107215,-0.0110420184209942,0.2888879179954529,-0.9571433067321776,0.0,0.0,0.0,-1.1106038454191325,1.1422916631949098,4.14086026129126,0.469220701,-0.2325879280259897,-0.5104174445040767,0.0739988932713967,14.965504830461638,37.945502468239,-12.002063223087845,0.0267100758744978,0.0311250414790179,-0.5858412151446486,-0.0282444953129328,0.0036232852442807,-0.1198501658071444,-108.06147294621202,-45.36999819651748,-197.147599339508,-0.0014194181769101
4706,1724818863046217748,-1.7563910484313965,-0.3733696341514587,0.1302535682916641,-0.0166411325335502,-0.0094022033736109,0.2887338697910309,-0.9572186470031738,0.0,0.0,0.0,-1.7679720075478322,0.2458438638155749,0.4359173438329096,0.478637321,-0.0293564694754587,-0.3720019121230015,0.040464147818868,16.038798033596972,-11.75134958148316,-2.8986379910173543,0.0264420958676463,0.0276131549475727,-0.5855533542434369,-0.0505507165842971,0.010286209949232,-0.1127412844961632,55.90963027967553,-65.3955145161272,-164.44170328808934,-0.0010346794606325
4708,1724818863056084330,-1.7570515871047974,-0.3732883930206299,0.1291046738624572,-0.0158953815698623,-0.0057031558826565,0.2887092530727386,-0.9572678804397584,0.0,0.0,0.0,0.0833534517801961,-0.0912820695304503,1.180909060572576,0.488503903,0.0715836176309815,-0.7613931651000834,0.018714399731103,-3.555520093439638,-13.622515779510604,-2.3404867742761786,0.0271479856842763,0.0200985364784515,-0.5855699937372607,-0.0617830258939307,0.0079384954976635,-0.1117382290692257,-504.1567568923376,408.21267067815586,-1949.5483995497775,-0.0011521287522798
4710,1724818863067406121,-1.7576839923858645,-0.3732023537158966,0.1279007196426391,-0.0141464667394757,-0.0028031326364725,0.2888067662715912,-0.9572787880897522,0.0,0.0,0.0,-14.612116637577932,10.277667066140074,-47.200228878630135,0.499825694,-0.1477740925864981,-0.5798798472788329,-0.0095522822390298,-11.547645734375678,14.491871907094108,-0.3317238783832972,0.0254701854112626,0.013538363017071,-0.5858508457531159,-0.0449664973206367,0.008810423001238,-0.0843470470660021,859.1737787695406,-446.442541415307,2656.959078584325,-0.0012041495018445
4712,1724818863090149413,-1.7582091093063354,-0.3729466497898102,0.1269871592521667,-0.0125210182741284,0.0005272759008221,0.2879639863967895,-0.9575592875480652,0.0,0.0,0.0,103.48200157941574,-62.11434818874727,329.8486012289359,0.522568986,-0.0528061915592993,-0.3206601650422231,0.0818124838420522,-35476.8377057681,-62821.52419707437,9279.703505863565,0.024285761771672,0.0062014485491696,-0.5841721193791006,-1.1127360086002227,0.7085944764673968,-3.424798707811078,13583.55602825206,-8634.299107043305,42128.13522498589,-0.0009150103815645
4714,1724818863090498972,-1.7586039304733276,-0.3726952075958252,0.1257718056440353,-0.0092659685760736,0.0036836466751992,0.2874467074871063,-0.9577447175979614,0.0,0.0,0.0,108.27533805533191,-65.16183298414867,344.71213921076446,0.522918545,-12.644680774388286,-22.61806793956981,3.375451274282185,-34101.98161345797,-60398.00624189514,8925.77849854562,0.0198679058903593,-0.0017290428331171,-0.5831669521602534,-1.0757547334179345,0.6863828193579784,-3.3069358896270034,12892.431958674792,-8206.579167093472,39923.50947453277,-0.0012141532194001
4716,1724818863097050191,-1.7590546607971191,-0.3722416460514068,0.124965488910675,-0.0062845097854733,0.0102429250255227,0.2847101986408233,-0.9585383534431458,0.0,0.0,0.0,92.04637743931887,-56.122903587508915,287.36392169852934,0.529469764,-0.2953059316840289,-2.1708463188677753,0.8916708816074481,1112.0157948618482,1876.0706883159687,-245.97356732424336,0.017883676769447,-0.016058635108647,-0.5775947205397058,-0.0617739736043603,0.0606047351094218,-0.1233416441119787,-5390.307438017257,3292.004795407095,-17571.928269302145,-0.0007984391907221
4718,1724818863106421538,-1.7595393657684326,-0.3717893660068512,0.1238060891628265,-0.0034938030876219,0.0156871005892753,0.2830844223499298,-0.9589603543281556,0.0,0.0,0.0,2.4809476396291363,0.3625179775598517,4.4804848468173715,0.538841111,-0.2371028329108186,-1.2801690106221488,0.3716255216707408,-8.869679657032753,86.87019779781858,-52.40196235812078,0.0155891757131037,-0.0281122353144037,-0.5743125279810287,-0.0401142681847801,0.0628055254669135,-0.0925536741614792,-5012.785414684451,3065.1774393095397,-15763.610566266902,-0.0011422726109004
4720,1724818863116627137,-1.759819746017456,-0.3709867596626282,0.1232078820466995,-0.0003809688205365,0.0173398628830909,0.283761203289032,-0.9587381482124328,0.0,0.0,0.0,1.8315154932154736,-1.2786692444122,3.8954744546678817,0.54904671,-0.4952288991087909,-0.4844357914298062,-0.1288123134771925,-3.266478732510805,70.75018553736759,-29.536298997395956,0.0105772287625393,-0.0330385779219358,-0.5756923646716715,-0.0129088850197831,0.0679242390631493,-0.0335445541637042,-99.34282732013658,-166.79459091856248,-118.56578996489174,-0.0005811523408156
4722,1724818863127777806,-1.7597862482070925,-0.3703599572181701,0.1231392845511436,0.0006625972455367,0.0157654695212841,0.2849646210670471,-0.9584081768989564,0.0,0.0,0.0,0.288737560136646,-3.2114226567438937,1.8272438652617624,0.560197379,-0.263302541399206,0.2165120840110193,-0.2205966460433904,24.755239902780573,6.892544721995765,14.59568738924566,0.007718815437919,-0.0306019194607567,-0.5781312033300187,-0.0026497244010386,0.0319772419239825,-0.0130918442034833,-69.58102727634356,-20.751099864459803,-64.0766304783393,-6.313493885924089e-05
4724,1724818863136557373,-1.7598485946655271,-0.3702467381954193,0.1229763701558113,0.0008828805875964,0.0162042304873466,0.284690648317337,-0.9584821462631226,0.0,0.0,0.0,0.1532742553428628,-2.338877157454375,2.1039019459735675,0.568976946,-0.0186163356118737,-0.1098688417114074,0.0653422939667841,23.75817566228671,-4.0489992268725725,8.860816754463013,0.0075377627555444,-0.0315708712171364,-0.5775646758609824,-0.0044787749568939,0.003867573618308,0.002902385558837,2.0999357538400893,129.38689898516634,-30.0440924508121,-0.000159687043736
4726,1724818863147005948,-1.759862780570984,-0.370318591594696,0.123273529112339,-0.000408809952205,0.0151696763932704,0.2853616774082184,-0.9582998156547546,0.0,0.0,0.0,0.3931902863151854,-0.6138822468249394,1.0245475171967455,0.579425521,0.178493231646938,0.2597429328060625,-0.1368788922577748,10.816877389237147,18.519165298809774,-11.176749531756588,0.0094452830806514,-0.0288448785816849,-0.5789723906994073,0.0016192270092147,-0.0098410930790464,0.0283936079545634,5.328146087887294,113.39997401779196,-118.86815404147872,0.0002968720614901
4728,1724818863156992397,-1.759818196296692,-0.3704451620578766,0.1235566362738609,-0.0018295241752639,0.0141100883483886,0.2861602306365967,-0.9580761194229126,0.0,0.0,0.0,0.2780923927070116,0.0251755716486081,-0.3111023763170985,0.58941197,0.2097005675180064,0.2838046969319017,-0.1704455084370575,-3.490223289928225,-3.5858835055216645,-0.0132724657850151,0.0115853116755295,-0.0259929301046628,-0.5806451923739527,0.0037281911946394,-0.0093081043847877,0.0251180572379361,-7.568535008700614,23.0617728511776,-95.2848777840926,0.0002811620171396
4730,1724818863170188562,-1.759781837463379,-0.3705092966556549,0.1238317564129829,-0.0023943590931594,0.0133658396080136,0.2868634760379791,-0.9578752517700196,0.0,0.0,0.0,0.2472147452100423,-0.3842272614334185,-0.8978272808397774,0.602608135,0.0482905590431865,0.1319412678833323,-0.1122408594761313,2.07288605849274,0.2454929345710965,5.570622841760086,0.0122592437897774,-0.0242342776776836,-0.5821059723859073,0.0085646843866129,-0.0094675447170402,0.0213073434190533,-28.890512589009504,-2.878462644255898,-14.154076022532353,0.0002738401288904
4732,1724818863176554299,-1.7597094774246216,-0.370583713054657,0.1239688023924827,-0.0028737026732414,0.0129444589838385,0.287080854177475,-0.9578145742416382,0.0,0.0,0.0,-0.0182259406235948,-0.3161206908399254,-0.8948599317043815,0.608973872,0.1054119842885456,0.1695969373646551,-0.073217939335389,2.85511113435536,-2.3152098906613108,7.842963456093046,0.0129409895854286,-0.0231488803168493,-0.5825585248960582,0.0097720658947082,-0.0130562121261146,0.0137217394223094,-31.24387784001302,21.708735458366768,37.56944785973094,0.0001349406813002
4734,1724818863186819694,-1.7596355676651,-0.3707403540611267,0.1239804252982139,-0.0030498544219881,0.012947155162692,0.2869032323360443,-0.9578672051429749,0.0,0.0,0.0,-0.1658935937019275,0.0889842523816624,0.1050129433704852,0.619239267,0.0334410330309132,0.0095815243346392,0.035647078649693,0.6000076554679978,-1.7507461602655097,2.7414563390393063,0.0132757904602159,-0.0230553269250867,-0.5821912295599274,0.0061434828475199,-0.0122021070020323,0.0094483790513635,1.3363202166393655,20.13740366769933,53.925132472472704,9.407738932175576e-06
4736,1724818863197837152,-1.759580373764038,-0.3708386421203613,0.1241828575730323,-0.0039812615141272,0.0123400976881384,0.2870343625545501,-0.9578325152397156,0.0,0.0,0.0,0.034727811608057,0.0823275329036382,0.1850301411428782,0.630256725,0.1300491624118346,0.1539111995217759,-0.0271330265745858,-2.3988461897433053,2.0780566519126715,-4.340261311297218,0.0147147137729916,-0.0213555990999396,-0.5824664757336352,0.0065338617093573,-0.0111533581053606,0.0167695391411415,7.5610138861780225,-4.733363872199381,-52.68934161966753,0.0002009866439202
4738,1724818863206528011,-1.7595131397247314,-0.3709508776664734,0.1243176013231277,-0.0042403498664498,0.0119785768911242,0.2872621119022369,-0.9577677845954896,0.0,0.0,0.0,0.0274386220035625,0.0128827167627572,-0.6838917661454552,0.638947584,0.0326415644476715,0.0964089101396828,-0.055543907490704,-6.64517171978802,-1.8614594083482912,-0.3826519932563856,0.0150082436605016,-0.0205106444493001,-0.5829368729841512,0.0068308434473607,-0.0105260389335093,0.0150905306701467,-1.9375324806510352,-23.968606966201015,-87.28890866314404,0.000133132965805
4740,1724818863216487175,-1.7594554424285889,-0.3710284531116485,0.1244631707668304,-0.0045193387195467,0.0113743338733911,0.2873841226100921,-0.9577372670173644,0.0,0.0,0.0,-0.0043978548649084,-0.4081750050679867,-1.408365583603329,0.648906748,0.0185353511487522,0.1321364922486375,-0.0264135745791518,-3.8995112986749376,-9.404766059585912,8.466127377065279,0.0151976675455012,-0.0191908524317318,-0.5831800679357682,0.0070272671198523,-0.0110744886629881,0.0026794053184957,-7.701462211790739,-1.8574606696154563,32.39776985867598,0.000144283280963
4742,1724818863226632137,-1.7593713998794556,-0.3711747527122497,0.1243669912219047,-0.0041436096653342,0.0117828026413917,0.2868218421936035,-0.9579026103019714,0.0,0.0,0.0,-0.1290821102604389,-0.009299530722869,0.0068719547812809,0.65905171,-0.0466860213247824,-0.0975385655915725,0.1167384600531687,-4.556063214097914,-9.964905352450852,1.8910997670684953,0.014701007358929,-0.0201979725917031,-0.582010500990473,0.0067333816316761,-0.0188644770750983,-0.0132842500929495,-8.565967318107035,69.03144756145836,164.43035705604936,-9.807392140833504e-05
4744,1724818863237040979,-1.7593178749084473,-0.3714185655117035,0.124188095331192,-0.0036754163447767,0.0120008587837219,0.2867982387542724,-0.9579088687896729,0.0,0.0,0.0,-0.1784699709790694,1.026569571463832,1.984631300014462,0.669460552,-0.0741077936442941,-0.0659041750601559,0.0059228560011412,4.927037866144096,18.545975819807655,-10.513587489141235,0.0139285659431239,-0.0208847704532351,-0.5819586525333138,0.0043206156711619,-0.0108600808345258,0.0036655839278987,12.551672364794708,25.31659774850653,44.19461286334989,-0.0001801445186292
4746,1724818863246266015,-1.759284734725952,-0.3714160323143005,0.1243923977017402,-0.0041337921284139,0.0110182939097285,0.2871898412704468,-0.9578014612197876,0.0,0.0,0.0,0.0787332750814612,0.6534538910749095,1.2001806630697944,0.678685588,0.033166169563635,0.23196455580816,-0.0899803671666321,10.635611107612885,13.069269606444257,0.2839086349496178,0.0142503711039413,-0.0187334055025311,-0.5827586367514371,0.0031102400534166,0.0007159170762633,0.0248863187437118,25.843327363501064,-58.35381607352163,-103.38051315884628,0.0002034635885864
4748,1724818863256553303,-1.759258270263672,-0.3714036047458648,0.1246798411011695,-0.0049936422146856,0.0104939229786396,0.2870044410228729,-0.9578587412834167,0.0,0.0,0.0,0.3212151157516425,-0.1522846833562486,-0.0737819263081707,0.688972876,0.1311866986006996,0.1459239769453602,0.0354583557925453,1.4925827680673682,2.531505458377888,-4.543156048652579,0.0155929610840781,-0.0172378503990458,-0.582371358043915,0.0063285797441707,0.0005391031426285,0.0246120329371501,10.59527744029473,-59.26200050517117,-65.30826883867825,0.0002867138443862
4750,1724818863269167429,-1.7591203451156616,-0.371407151222229,0.1249388009309768,-0.0057946010492742,0.0084390453994274,0.288686603307724,-0.9573689103126526,0.0,0.0,0.0,0.254166121538698,-0.6049905585749534,0.0077141516844965,0.701587002,0.0257235403048146,0.3463768839857487,-0.2807208420950473,0.4160830792760794,14.327028541299253,-9.723022553339822,0.015969610132315,-0.0128132626174358,-0.5858434116546379,0.0105098707966249,-0.003471416757879,0.0229525314174878,-26.94989329454492,-79.39124946495707,-80.99747962029396,0.0002562375023952
4752,1724818863280709565,-1.759003520011902,-0.3714809119701385,0.1252293139696121,-0.0073116677813231,0.0059004439972341,0.2899383306503296,-0.9569992423057556,0.0,0.0,0.0,-0.2853805545040058,-1.9807752564496168,-1.8508372272550575,0.713129138,0.1232200006880043,0.495222373802654,-0.2309097416000042,4.741133250000805,-25.296106913113483,18.652121333753005,0.0174173647063973,-0.0070536338583123,-0.5884129899227762,0.0126269927686166,-0.0134859248107659,0.0245124671578782,-30.464089059674137,42.64462981345325,-10.533794189524542,0.0002894269397504
4754,1724818863286865057,-1.7589175701141355,-0.3715872168540954,0.1253780424594879,-0.0079170642420649,0.0053933109156787,0.2901341915130615,-0.9569380283355712,0.0,0.0,0.0,-0.4194529503376311,-1.1869900131169056,-1.4216571423242177,0.71928463,0.1402385204310314,0.2141373442913151,-0.0690333348124059,-5.245845966364325,-65.3643339237822,39.12878927721578,0.0182831660095923,-0.0057281378864523,-0.5888143069093489,0.0093313565244841,-0.0293327034573565,0.0066001260785988,2.4344659672993254,178.35314725601964,153.29200944443429,0.0001486972242949
4756,1724818863296315842,-1.7588965892791748,-0.3720394670963287,0.1251855939626693,-0.0068436968140304,0.0084941014647483,0.2879564166069031,-0.9575814008712769,0.0,0.0,0.0,-0.0450752927103803,1.2153546739380006,1.239672908170988,0.728735415,-0.0255743741458077,-0.6894609269560089,0.4869432872699825,0.4519910167524017,7.958531325030798,-4.185788998418786,0.0180009952239256,-0.0123265264907438,-0.5843310968331827,0.0070495767827907,-0.0204189244819392,0.0147601510423873,23.80747103342068,96.09371082562242,101.04761265380382,-0.0001891114955669
4758,1724818863307758752,-1.758749008178711,-0.3718930184841156,0.1258411258459091,-0.0094972644001245,0.0042708693072199,0.290285974740982,-0.9568833112716676,0.0,0.0,0.0,0.008361141520026,0.1244567963442936,-0.1055772001265923,0.740178325,0.2289435428973124,0.836557824094694,-0.4340160175685438,4.004765733837295,34.402719479524805,-22.736512918370614,0.0206566365741638,-0.0026596049573271,-0.5891117162043006,0.0092543821282617,-0.0027407445959788,0.0341585418978276,20.683743648275513,-90.63456053301088,-86.23358723395316,0.0006510710704334
4760,1724818863319102858,-1.7586849927902222,-0.3720988631248474,0.1259685158729553,-0.0100618693977594,0.0037641997914761,0.2905088365077972,-0.9568120837211608,0.0,0.0,0.0,0.4230946889866466,-0.8508611360345061,-0.7314972198507342,0.751522431,0.069270632493786,0.1139445867914146,-0.0425158920099842,-3.301374650910372,-33.70705867201047,19.46363668482473,0.0214433661010138,-0.0013571401649804,-0.5895667640820973,0.0072763676321443,-0.0173034458617351,0.0127086797460451,14.57795263657531,18.669017645731135,48.901367190461414,0.0001300385289334
4762,1724818863331540342,-1.7585722208023071,-0.3723025918006897,0.1261467486619949,-0.0112913679331541,0.0034632140304893,0.2905315160751343,-0.9567925930023192,0.0,0.0,0.0,0.3046635349161408,0.808296050419997,1.2959343733992874,0.763959915,0.1751271840829286,0.1036970879868295,-0.0056311819469687,10.64813195292463,3.907333982678807,7.9023802270604575,0.023621536754153,-6.61585763931717e-05,-0.5896077027150646,0.0206857070716921,-0.0219833934186581,0.0194197441783003,-82.71015527541165,98.20607745691268,38.43165695509643,0.0001806878038414
4764,1724818863336672678,-1.75844144821167,-0.3724272847175598,0.1262571960687637,-0.0119659770280122,0.003310766769573,0.2904140651226043,-0.9568206071853638,0.0,0.0,0.0,-0.2748349304220833,1.23778731277215,1.2293392856868102,0.769092251,0.2343029336486594,0.1337709823309685,0.0453818887529761,6.759286599299171,6.847572999466817,5.247140218107063,0.0248241274833057,0.0006145563609977,-0.5893582453408617,0.0206112280339993,-0.0153261830051771,0.0276727609138145,-74.7263832663505,20.794265444979313,-69.48290151235172,0.0001112914476129
4766,1724818863348663633,-1.7583307027816772,-0.3723597824573517,0.1267613917589187,-0.0134328370913863,0.0022282933350652,0.2905253469944,-0.9567704796791076,0.0,0.0,0.0,-0.1011221014452571,-0.2747158004418476,-1.1868860940635453,0.781083206,0.181701594619622,0.2435556010400762,-0.0231580895451327,-7.644174469141659,0.8322420300240516,-4.326932985895491,0.0270024859383469,0.0035412361494638,-0.5895601614633823,0.0100227092129898,-0.0021458962609024,0.0318042848178592,37.957448785679176,-91.28627395169522,-109.16737231586664,0.0005010244327422
4768,1724818863356740604,-1.7582454681396484,-0.3724194169044494,0.1269625425338745,-0.0140688372775912,0.0015534274280071,0.2907084822654724,-0.956707000732422,0.0,0.0,0.0,0.3331514611470082,-0.8224250557427514,-1.5662652207554622,0.789160177,0.1022376271139607,0.204993796913453,-0.0505494505122724,-3.8471114746032926,-15.380100986285829,5.19177819480782,0.0278266675495762,0.0052075344100562,-0.5899228668235742,0.013460028699427,-0.0118395558957864,0.0138859583229331,33.67208304469835,-42.25502088182933,-17.43712700114139,0.0002016710899817
4770,1724818863366339359,-1.7580831050872805,-0.3725838959217071,0.1269701421260833,-0.0145930275321006,0.002038579666987,0.2902653813362121,-0.9568327069282532,0.0,0.0,0.0,0.4271349443405325,-0.9364944774671295,-1.3967454437258668,0.798758932,0.1336536128673653,-0.0636192505845831,0.097194449663957,-1.1820864491694008,-10.57811604120043,4.686115690979162,0.0291140471387488,0.0045705579139481,-0.5890076054082629,0.0156036216239741,-0.0154248892965593,0.0062913605726739,21.227401034284732,-15.293277627227903,-5.357896427465107,9.986012127926714e-06
4772,1724818863379201874,-1.7579050064086914,-0.3727528154850006,0.1271458566188812,-0.015037047676742,0.0014964174479246,0.2904218435287475,-0.9567793607711792,0.0,0.0,0.0,0.89728697426081,-1.191970772501976,-1.8624086413321452,0.811621447,0.0416623957228005,0.1003303339650876,-0.0270568616588171,-3.524677063919575,-37.443678511479014,11.22510490306612,0.0296483125988257,0.0058707252792465,-0.5893175741700218,0.0246106107094874,-0.0371739889553417,-0.0221113766824103,9.994326944834285,109.90640902772518,137.77665383494156,0.0001782824313673
4774,1724818863386813058,-1.75766921043396,-0.3731440305709839,0.12681645154953,-0.0146957356482744,0.0030350163578987,0.2898897230625152,-0.9569424390792848,0.0,0.0,0.0,0.8537448549957635,0.2289977095996804,-0.0301960542179285,0.819232631,0.0311716246831758,-0.4107057708887945,0.1524414894854346,-3.7049450468276017,-24.38464317201991,3.5864763854595676,0.0298901467535273,0.0027116168852349,-0.5882509254731271,0.0323274364383223,-0.0439992676641338,-0.034729232349532,-23.285996631348443,156.01406560305847,216.3292236465416,-0.0003223205348853
4776,1724818863396465789,-1.757340669631958,-0.3734781444072723,0.1265858858823776,-0.0143722342327237,0.0035510850138962,0.290165513753891,-0.956861972808838,0.0,0.0,0.0,0.4139404235053967,1.3593695775452592,1.7593049390541275,0.828885362,-0.0330732830107711,-0.1226440263814913,-0.057740409652635,7.215372595417168,16.049975051328843,-4.69520341390699,0.0295696378112634,0.0015448576503308,-0.5888432084306093,0.0386080527514991,-0.0280076251412424,-0.0150957154062352,-25.329693618679485,12.10224493038364,46.971886503669026,-0.0002269364549029
4778,1724818863406311827,-1.7569146156311035,-0.3736875653266907,0.1265255361795425,-0.0150588145479559,0.0042949458584189,0.2898513078689575,-0.9569436311721802,0.0,0.0,0.0,0.3677476974756177,0.4239750195817419,0.8316484470806443,0.8387314,0.1772789253345099,-0.1031367965300743,0.0675599547966039,9.543084298799783,5.047695670391626,3.5134371580534607,0.0313157869639543,0.000509592034531,-0.5882092704443748,0.040306330845226,-0.0176093359199729,-0.000532210517627,26.252267365152136,-47.234886789784646,-24.047903902853346,-6.202730361478e-05
4780,1724818863418504711,-1.7564679384231567,-0.3738470077514648,0.1266035586595535,-0.0157396588474512,0.0044683064334094,0.2900152206420898,-0.9568821787834167,0.0,0.0,0.0,1.1550619844623715,0.5692883925326601,1.5979143494642711,0.850924284,0.115149099959556,0.0047101318761141,-0.0287021387601285,4.988950476063875,-19.745653800600312,21.915552019993264,0.0327195951232539,0.0005781957082201,-0.5885571737371262,0.0477385531812473,-0.0219842119008149,-0.0001683131465881,10.06891855586153,-24.510657246409355,-31.334772111176015,7.447259970385762e-05
4782,1724818863427269802,-1.7559795379638672,-0.3740958273410797,0.12656070291996,-0.0162225123494863,0.0062367273494601,0.2885611951351166,-0.9573037028312684,0.0,0.0,0.0,0.8998978645867868,0.1249156339342461,0.7298375390793252,0.859689375,0.2224198881757294,-0.348511208879894,0.3512242575395241,6.117785914335408,27.64975800386045,-16.143034747352118,0.0346661553782073,-0.0025785121243524,-0.5855832949570993,0.0612999975737267,-0.0111464678559087,0.0237178864368452,-65.28297045556289,-113.45504007524563,-221.0014844562238,-4.6401688427518894e-05
4784,1724818863436808811,-1.755336880683899,-0.3740231692790985,0.1270839273929596,-0.0180809516459703,0.0036694318987429,0.2904238998889923,-0.9567202925682068,0.0,0.0,0.0,-0.0983434136842293,-1.6088299863361195,-2.644432632201271,0.869228384,0.2172376973335976,0.6206302109781282,-0.4203292569011265,-2.078125377229563,-9.57217825621031,-1.5407154003158858,0.0367366933254647,0.0034810480923812,-0.5893790279308264,0.063164206109306,-0.021494198707618,0.0099659408887688,-29.95874265415132,-23.76970113524109,-96.68335122832332,0.0005092477822455
4786,1724818863446246277,-1.7547800540924072,-0.3744978308677673,0.1267588883638382,-0.0182072911411523,0.0062387306243181,0.2890815436840057,-0.9571110606193542,0.0,0.0,0.0,0.3162988598678589,-0.3580629779374706,-1.156797158568473,0.87866585,0.1832944438889164,-0.5077005300237916,0.3059591577610619,-5.684475832355261,-45.46778368765416,23.873530124286795,0.0384693294461347,-0.0014155329834673,-0.5866737183100165,0.0594931299622913,-0.0415705292144537,-0.0262211558085123,42.7330250742217,134.98940499755884,181.456351833196,-0.0003224784357239
4788,1724818863457563557,-1.7541000843048096,-0.3748498857021332,0.126573696732521,-0.0186758115887641,0.0064628035761415,0.2898614108562469,-0.956864595413208,0.0,0.0,0.0,0.7835974735633879,1.2029995548716492,1.220144080541728,0.88998313,0.0906266417196771,-0.0167458938929671,-0.1442946096618769,-4.054900432997738,26.00744353379112,-21.683678613597863,0.039497396238033,-0.0015412622764387,-0.5883128310128835,0.0726446142786301,-0.021611566745463,-0.0029736825133017,-62.55976637969496,14.371253276616429,22.486117463970302,-0.0001895551981349
4790,1724818863466159142,-1.7533936500549316,-0.3749736547470093,0.1266355514526367,-0.0191383622586727,0.0061648157425224,0.2907253801822662,-0.9565953016281128,0.0,0.0,0.0,-0.4321210347366602,0.5198436936452782,0.1890737403236711,0.898578715,0.0827561595149045,0.0933813990409383,-0.212507717586043,-0.401781996444905,0.0348690185726678,0.3903252480668904,0.0402107158132126,-0.0006664523112978,-0.5901060591500058,0.0769092538443629,-0.0149308120693483,0.0020693719129525,41.35548449894912,-159.81360454347816,-139.90808539214794,4.969966998469146e-05
4792,1724818863476897151,-1.752638578414917,-0.3751411139965057,0.1265890002250671,-0.0194586366415023,0.0066868565045297,0.2912266850471496,-0.9564327597618104,0.0,0.0,0.0,2.4639869568369375,-2.273898547599105,-1.5809401027468803,0.909316724,0.0853349632782967,-0.0776430795031258,-0.0966257993725291,-0.7069945633605939,-8.126123576996003,7.155326272494307,0.0411281747777374,-0.0014573092680604,-0.5911765900889536,0.0598170048873498,-0.0128014280334145,-0.0012343190805044,101.2107751086115,-44.595308707220134,-14.791637105429032,-5.914685915077336e-05
4794,1724818863493984640,-1.7519019842147827,-0.3752838969230652,0.1266522258520126,-0.0198400635272264,0.0068286601454019,0.2918231189250946,-0.9562422037124634,0.0,0.0,0.0,-0.3882147943537362,2.825960184077722,2.246243771092592,0.926404213,0.0474997662192618,-0.0043802774223938,-0.0732389817831127,135.75137314632696,-315.77966054092815,253.899580251665,0.0419416754128717,-0.0014801281557496,-0.5924301935903209,0.2122018748838172,-0.1188794574884326,-0.0628708880613757,-1205.3910523601978,887.9336448020152,549.6587675182868,4.9869465697575575e-05
4796,1724818863496884039,-1.751203536987305,-0.3756829500198364,0.1264371871948242,-0.0200819913297891,0.0085601899772882,0.2907572388648987,-0.9565478563308716,0.0,0.0,0.0,-4.394021158928424,5.690438963118101,4.0001497739990235,0.929303612,0.5089719465552165,-1.077414629982226,0.7871545911320669,116.5264244165761,-256.10926962294286,203.23377321068844,0.0434107581968081,-0.0046985113325805,-0.5902832556735438,0.2064979553493913,-0.1062414749005036,-0.0534784592689296,-1128.0827229051715,742.9286167938595,447.2023520677088,-0.0002210835444366
4798,1724818863506799193,-1.750322341918945,-0.3756719529628753,0.1266084164381027,-0.0214921701699495,0.007663014344871,0.292470246553421,-0.9560023546218872,0.0,0.0,0.0,-6.983132075563282,4.7485153172534105,3.086460017097823,0.939218766,0.2187226393627361,0.247931788049102,-0.3685814411112421,-17.74192591864873,62.85031419096099,-55.621967529511416,0.0455914291493644,-0.0020800803972417,-0.5938247553135237,0.0806466291736143,-0.0046688115938096,0.0119771252792695,146.89425894852204,-273.3860058102146,-158.3276399194505,0.0001466592464493
4800,1724818863517577363,-1.7495495080947876,-0.3757899701595306,0.1266755014657974,-0.0224910546094179,0.0073972647078335,0.2937610745429992,-0.9555855989456176,0.0,0.0,0.0,-0.6193842186570855,-0.2881289116529396,0.6046303436890257,0.949996936,0.1626022534018098,0.0956126981667111,-0.2540856629743421,8.901103839172364,-26.252963923446742,31.72665868963487,0.0473480219141653,-0.0009234466446983,-0.5965125047730812,0.0722777505804828,-0.0178774273139765,0.0040594208033217,274.8564537814602,-171.00343961063552,-62.975870937562576,5.04316765202295e-05
4802,1724818863526758047,-1.748881459236145,-0.3760082721710205,0.126695841550827,-0.0237158816307783,0.0089499419555068,0.2928861379623413,-0.955811321735382,0.0,0.0,0.0,-0.5637843007026411,0.4589764668727968,1.3346605363228694,0.95917762,0.3546442930406819,-0.2401915888012628,0.2022172519623542,2.374308320557021,-0.1071267716364339,6.878633579475597,0.0506002958711435,-0.0032168112893316,-0.5947662658256293,0.0678197516361365,-0.0131924575901081,0.020083125231685,1.1354022528373768,17.821523793691725,-37.67934705317927,8.356175434616838e-06
4804,1724818863536843567,-1.748252272605896,-0.3760240375995636,0.1270963549613952,-0.0247999504208564,0.0083966944366693,0.2938363254070282,-0.9554970860481262,0.0,0.0,0.0,-0.6068531620249789,-0.0654600375079836,-0.3438481098392596,0.96926314,0.173134344655185,0.1628001410560554,-0.2028766587481906,-11.478927003730432,16.93390492016196,-22.830454921438065,0.0523510342730253,-0.0014717820608144,-0.5967251357394313,0.0612672776539682,-0.009132162627619,0.02899338381886,-4.625247662823664,-38.51434276432536,-128.100255119038,0.0003813677673913
4806,1724818863546913237,-1.7476465702056885,-0.3761920928955078,0.1272805482149124,-0.0255536194890737,0.0080565465614199,0.2950615882873535,-0.955102562904358,0.0,0.0,0.0,-0.6569958052338374,-0.317714555595699,-1.248438466017416,0.97933281,0.1230778750768579,0.1018437554027435,-0.2584840063201242,-1.930814977611268,-4.666037450843969,4.495698487247266,0.0535926632285998,-0.0003098734370264,-0.5992701106305128,0.0555871539534535,-0.0144969916645241,0.013191676672565,32.85161913957019,42.546419473782485,50.59631514377192,0.0001728776084327
4808,1724818863558200911,-1.7470768690109253,-0.3763279914855957,0.1273649185895919,-0.02642173320055,0.007917882874608,0.2954819798469543,-0.9549500942230223,0.0,0.0,0.0,0.1925008061579167,1.0178450538434078,1.0995311891282076,0.990620484,0.1397511171119631,0.0667301618025544,-0.0809807343663425,-2.5204902124964117,-3.832424026897315,1.82966847706515,0.0551700461982754,0.0004919260997058,-0.6001418692298572,0.0469955658086433,-0.0153621386306532,0.0031587862573996,38.079071377325725,72.15739752653948,130.01025432470257,7.295322463249355e-05
4810,1724818863568602087,-1.7466213703155518,-0.3765196204185486,0.1273564100265503,-0.0268339812755584,0.0079075675457715,0.2964450418949127,-0.9546401500701904,0.0,0.0,0.0,0.23222638938164,1.3259288638681757,1.7042002267757952,1.00102166,0.0752207622487367,0.0199520961186333,-0.1951309709980581,7.602081926009772,43.07405818160347,-45.930837435561514,0.0559511168131694,0.0008118385588874,-0.6021567983019726,0.0581378555336726,0.0057145714501807,0.0336523122767271,178.36954841655418,38.502209913388654,105.01455588995864,-1.3699638492930813e-05
4812,1724818863576560448,-1.7460713386535645,-0.3763271570205688,0.1278341263532638,-0.0284626148641109,0.00560581125319,0.2993043065071106,-0.9537166357040404,0.0,0.0,0.0,2.7146380275740674,1.6864289015635137,2.8254079283814284,1.008980021,0.2197906106434983,0.6524260760901658,-0.7735220527964713,10.46499058645514,43.68326393839414,-38.33664202841277,0.0576793630092195,0.0063452980888288,-0.6080080182805505,0.054876942920945,0.0120015745065833,0.0397401491329412,98.53425032569008,-17.604006817526823,12.01982571586057,0.0004518564414189
4814,1724818863595756875,-1.74567711353302,-0.3766608536243438,0.1276576370000839,-0.0285675544291734,0.007333468645811,0.2986074686050415,-0.9539201855659484,0.0,0.0,0.0,-5.274670504369325,-1.5641234645497235,-2.910774125834251,1.028176448,0.0641047093974206,-0.166209247320634,0.0806498652524165,435.4883691907332,939.0790624807828,-1095.2725595300565,0.0589163466437962,0.003069887503631,-0.6066483400137903,0.2516593598860481,0.0858836937003104,0.1893845198592174,-1670.5952492321185,-664.1790685087577,-1271.7166973933588,-0.0001716980365693
4816,1724818863597747275,-1.745128512382507,-0.3764685988426208,0.1280755698680877,-0.0301213786005973,0.005761896725744,0.3007606565952301,-0.9532064199447632,0.0,0.0,0.0,-8.85870366549479,-2.988230490580514,-5.6427831066525735,1.030166848,1.0224490863925757,1.9055385723446925,-2.3346022102960537,388.0694445371373,842.0556729007677,-981.7514045060404,0.0609289272631949,0.0071341578276385,-0.61105967130513,0.2379565232535938,0.0816533736555849,0.1813814060350664,-1507.3224928086406,-600.7764321577197,-1148.6414341910397,0.0003908070268039
4818,1724818863607942616,-1.7446695566177368,-0.3764162063598633,0.1284316033124923,-0.0307826306670904,0.0053545250557363,0.3019256293773651,-0.9528193473815918,0.0,0.0,0.0,-8.90737203358938,-3.122758081505576,-5.658119027643197,1.040362189,0.1005822268024909,0.1078663359045908,-0.2438283124932691,-38.31619459131223,-83.77781256171214,93.91544024157216,0.0619356746481398,0.0083844383734713,-0.6134735014192666,0.0445379707340833,0.0061256127872759,0.0391492024847268,536.2682858950883,153.578220094292,295.1139376457663,0.0003392201069536
4820,1724818863616684507,-1.7442837953567505,-0.3763552606105804,0.1288055330514907,-0.0315303355455398,0.0052380906417965,0.3029786348342895,-0.9524612426757812,0.0,0.0,0.0,-0.1639152290685661,-0.5301210953146104,-0.8549207836842153,1.04910408,0.1561808998543742,0.0691750719899088,-0.2560161692723052,2.5894652202190565,6.519489598909535,-6.793250823776898,0.0632817665164269,0.0091280061528474,-0.6156694510919929,0.0421060927013883,0.0109479508667789,0.0518448309853853,552.1204173512104,133.0589919460543,227.47848364458815,0.000358479041427
4822,1724818863626977313,-1.7438749074935913,-0.3761943876743316,0.1294490844011306,-0.0326323248445987,0.0040701958350837,0.304848700761795,-0.9518328905105592,0.0,0.0,0.0,0.0889872481524123,-1.1422150073795727,-2.41541356703203,1.059396886,0.1371387943783178,0.2689254185037958,-0.3913683078033297,-1.207063881063772,-29.8167152037881,16.62976753955307,0.0646524260804261,0.0121478499048068,-0.6195127386571043,0.0418037866521814,-0.0076181530261649,0.0150846892830234,-0.2886578967624515,62.810491974291295,85.16808117065165,0.0006212617059643
4824,1724818863636340688,-1.743465781211853,-0.3764637410640716,0.1291862428188324,-0.0326040275394916,0.0061744544655084,0.304830938577652,-0.9518283009529114,0.0,0.0,0.0,-0.1254652134442739,0.4874566721513761,0.3988925974668039,1.068760261,0.1313133923060845,-0.4295391416687734,0.0180040930000271,3.1554070527869964,-19.73859602355503,10.355514763219237,0.0658810209310393,0.0081234809718513,-0.6196069198838471,0.0436451646157678,-0.0126778942963419,0.0023151522261768,5.743804889619292,97.00204351768583,212.74818021021267,-0.0002595000076979
4826,1724818863646631415,-1.7430171966552734,-0.3764122426509857,0.129553735256195,-0.0336041934788227,0.0065158731304109,0.3060640096664428,-0.9513953924179076,0.0,0.0,0.0,0.2576396336751398,0.6143003415975653,1.5950204024104333,1.079050988,0.206508682871776,-0.0122375189784465,-0.25278675256642,1.7656464192146473,20.360145981198514,-11.387040463800648,0.0679849247790954,0.0081718159978355,-0.6222109102492737,0.0387108528068083,0.0039630966830621,0.0263556844765897,33.9695310993097,-5.14764119748761,55.816144080237194,0.0003487546416055
4828,1724818863660316910,-1.742576241493225,-0.3763769567012787,0.1297441571950912,-0.0342437028884887,0.0074142981320619,0.3069727122783661,-0.9510732293128968,0.0,0.0,0.0,0.66322191938416,0.2258291377178245,1.2592859920032158,1.092736483,0.1298172853132425,-0.101079571497758,-0.136949978695758,0.3176343364512028,-11.662178706772382,3.778360693143231,0.0697467161375487,0.0069207390197158,-0.624175980037778,0.0556526681783111,-0.0058807490460637,0.0346959231256569,-90.6652029303896,93.98466147051433,-4.605300374896501,0.0001723272659668
4830,1724818863666077589,-1.742198824882507,-0.3764313459396362,0.1299944221973419,-0.0344865061342716,0.0080261947587132,0.3073340058326721,-0.9509428143501282,0.0,0.0,0.0,-0.1507847165700422,1.0639755115039842,1.2810761380955742,1.098497162,0.1460058396879885,-0.1807993447824414,-0.1265465656519713,3.589015806510784,-0.0956193961695928,-2.5283879970649377,0.0705826682558708,0.005932882495379,-0.6249762327692377,0.058079666442893,-0.0022880363068864,0.043526095864756,-109.55516981736872,101.36345877038136,-8.940037249701628,0.0002391748865935
4832,1724818863677280134,-1.741710186004639,-0.3763011395931244,0.1304838210344314,-0.0357821881771087,0.0077018090523779,0.3086294531822204,-0.95047789812088,0.0,0.0,0.0,-0.68643106188471,1.2381075050584511,0.9037616911757884,1.109699707,0.2031789371826276,0.1175219466395833,-0.2492946453874346,5.7812109087452175,7.193123769593398,-2.512503169233346,0.0728407815434658,0.00744614459034,-0.6276674555947536,0.0439274749798812,0.0192234892145819,0.0523928060753711,27.092741542279903,-66.60647374178167,-95.39085330630152,0.0004619033096824
4834,1724818863686934228,-1.7412835359573364,-0.3760523200035095,0.1310620605945587,-0.0370414443314075,0.0079450355842709,0.3095475435256958,-0.950128972530365,0.0,0.0,0.0,0.1983303754829091,-0.0883826051682359,-0.5305553474420743,1.119353801,0.2646289499341132,0.0252583941716817,-0.2032937874994998,2.1738794061208733,-3.7924427703795582,-0.0239015152663686,0.0753807111032302,0.0078346393602308,-0.629606617613276,0.0420999790853926,0.0255012116984332,0.0620518645080228,65.97621267233275,-99.4500262139154,-128.59429981556184,0.0005440642667165
4836,1724818863696979458,-1.7408825159072876,-0.3757990002632141,0.1317079216241836,-0.0382832176983356,0.0080488473176956,0.3107387125492096,-0.9496899843215942,0.0,0.0,0.0,0.5927679923198386,-0.6907007375902556,-1.613515416177635,1.129399031,0.242657738513574,0.0474141381967909,-0.2535875274386215,1.4929137502568928,-5.976905310679047,6.205838967247828,0.0777978190772875,0.0085044387079733,-0.6321101743697469,0.0481438224384049,0.0168928827802403,0.0407192488330974,9.375420968871918,1.150488556869865,21.505175943550064,0.0006110595023761
4838,1724818863706871706,-1.740326166152954,-0.3757129907608032,0.1318810582160949,-0.0395235680043697,0.0089133121073246,0.3111337125301361,-0.949502170085907,0.0,0.0,0.0,0.3943284753345715,-0.0840001841194769,-0.1410603946959476,1.139291279,0.2932764680381904,-0.091421536069468,-0.0829695284608362,-3.8136380297240304,-2.5218531619000246,0.0469643033892825,0.0806917983164361,0.007667885654706,-0.6330000421887172,0.0539209787239087,0.0116798998905132,0.0297275401910912,-22.84293137265901,49.039219610594046,102.99795686174048,0.0001434897305372
4840,1724818863716503121,-1.7398285865783691,-0.3755725026130676,0.132282018661499,-0.040312509983778,0.0091612357646226,0.3122422993183136,-0.9491026401519777,0.0,0.0,0.0,0.148222866167909,0.2730520798764599,0.420985771073683,1.148922694,0.1727989496686815,-0.0077484033040872,-0.2438158985530935,4.500111724638353,0.6504719972027377,2.5283676450312123,0.0823379660733887,0.0077847141424152,-0.63534667446419,0.0559402037662692,0.0150248523422789,0.0374658455077003,-11.83731971114125,24.50729070611179,45.60747925896981,0.0003684641286179
4842,1724818863726145100,-1.7392479181289673,-0.375423401594162,0.1326030641794204,-0.0419353507459163,0.0100889429450035,0.3123951256275177,-0.9489726424217224,0.0,0.0,0.0,0.166473079419152,0.3880728805662221,0.7376810342365707,1.158564673,0.3803684558817308,-0.0790546329049696,-0.0338328190946423,3.785554620686532,1.3910579075722678,2.9424748372592244,0.0860025902780319,0.0070525951022925,-0.6357358573420421,0.0567764378815809,0.0169409707214889,0.0378332798104503,7.061308063393247,5.709136489513771,27.46116283537273,0.000282590983554
4844,1724818863737112913,-1.7386682033538818,-0.3752191662788391,0.1330746114253997,-0.0430704876780509,0.010139619000256,0.3136040568351745,-0.9485223889350892,0.0,0.0,0.0,0.3084024349094276,0.3730887547818995,0.9716956336794844,1.169532486,0.2005376179468471,0.0458216270645661,-0.2365515988919207,-16.602776957017532,9.86453926228219,-15.717382101949472,0.088183204671614,0.0077789265098208,-0.6382768066840878,0.0595971738215439,0.0235595568163091,0.0546518739095578,-7.144468512296186,-14.02785178150963,-43.08643351791484,0.000427500762901
4846,1724818863746271171,-1.7380708456039429,-0.374965637922287,0.1336642801761627,-0.0434696674346923,0.0095952013507485,0.3151376247406006,-0.9480014443397522,0.0,0.0,0.0,0.089376365126879,0.1477910881988386,0.0844403008453325,1.178690744,0.0469056225295623,0.1245308929465477,-0.3593455646352775,-5.592233914609877,4.015536152288345,-5.542212397482032,0.0885857979233232,0.0092054560206031,-0.641454407013011,0.062813290473116,0.0252147267679703,0.05925503208692,-11.910710906444564,24.79931440603241,-11.880657390856882,0.0005407356979022
4848,1724818863756569573,-1.7374519109725952,-0.3747345507144928,0.1342150866985321,-0.0442488119006156,0.009164254181087,0.3166940212249756,-0.9474508166313172,0.0,0.0,0.0,0.1057385885418411,0.975258209416157,0.9464264303821088,1.188989146,0.1188192259975161,0.1128596173056852,-0.325331794483131,2.4744479160647,1.0358065127418463,-1.443698105926476,0.0897773222098695,0.0106615101123395,-0.6446881066980372,0.060702012389072,0.0263552927306491,0.0552818641839216,27.21139229451389,34.101465712856125,31.285943489486954,0.0005024277445339
4850,1724818863767493436,-1.7367818355560305,-0.3744012713432312,0.1348398029804229,-0.0450111925601959,0.0084577556699514,0.3187021315097809,-0.9467477798461914,0.0,0.0,0.0,0.6998889081344966,0.8118924824498801,0.6808407184043657,1.199913009,0.0936079175311727,0.1493088454231377,-0.3961019367689851,-3.489185060277236,16.485598737333085,-18.361362945549203,0.0907513005775999,0.0126759426734563,-0.6488506294206599,0.0654578296903451,0.0470261847676027,0.0810574682810676,47.00850808333107,-127.6842801957757,-205.21314231387117,0.0005655316052796
4852,1724818863778611891,-1.7360074520111084,-0.3736914992332458,0.1360111534595489,-0.0461162589490413,0.0058135217987,0.3224429190158844,-0.945447027683258,0.0,0.0,0.0,1.139016676240407,-1.8834625139154983,-3.647977638106395,1.211031464,0.0414456718281295,0.4814033622191194,-0.7347246096048096,2.5571302130842195,-20.05397625269177,19.453169909372303,0.0910919280462007,0.018748066763056,-0.6565009146771535,0.0762330534832074,0.0438270746118796,0.0696300186995841,-22.120200453354073,-63.27308538962325,-103.67213890986,0.0010755146668307
4854,1724818863788207893,-1.7352213859558103,-0.3734366595745086,0.1363834738731384,-0.0464990325272083,0.0065434165298938,0.3230778276920318,-0.9452067613601683,0.0,0.0,0.0,0.4164496656408785,-1.0069187825689274,-2.2769395432228516,1.220627466,0.1260172013297783,-0.1244957182558945,-0.1347040034763293,13.135035411936151,-46.7709597375834,65.6865602281728,0.0922757573409219,0.0176767703015152,-0.6578977493752481,0.0885700678018963,0.0125374755698857,0.0129235839360681,-106.51725474473228,224.88354260610691,334.28817078320543,0.0003160136720456
4856,1724818863796232870,-1.7344659566879272,-0.3734301328659057,0.1363135278224945,-0.0469702035188674,0.0084371929988265,0.3215740025043487,-0.9456811547279358,0.0,0.0,0.0,-0.6478610364357076,1.6939664671873915,1.6903122673389477,1.228652443,0.2604300340655591,-0.3899711744374115,0.4136254644977898,2.0171491202733702,5.159548804159309,9.238210909117171,0.0944138144250068,0.0142514862718838,-0.6548841738618361,0.0860787886094556,0.0195823911394015,0.0190290757622069,-58.404754310699275,204.90893707396629,276.17274887504647,-0.0001050474504498
4858,1724818863806726567,-1.7336732149124146,-0.3729670941829681,0.1368939280509948,-0.0476963333785533,0.0075599057599902,0.3230131566524505,-0.9451616406440736,0.0,0.0,0.0,-0.2423056040342679,2.037721957055828,1.594407363432162,1.23914614,0.0794446068719075,0.1889053763502816,-0.3002518631583118,-9.736420182177488,10.683287952645038,-30.74855200181858,0.0952021079375343,0.016523172384264,-0.6578334971460146,0.0746502933221506,0.0485566805331245,0.049521192621154,56.42281461798623,-47.29118295347545,-78.72400074878338,0.000502450682055
4860,1724818863816727167,-1.7329351902008057,-0.3724392652511596,0.1373340040445327,-0.0477523654699325,0.0081921843811869,0.3242344558238983,-0.9447352886199952,0.0,0.0,0.0,0.4913668644533873,0.8018564311713985,0.143930927022986,1.24914674,0.0536560243124313,-0.1281885226492696,-0.2524465866390376,-3.193093244806912,-4.66107450091285,-3.2985070741375644,0.0956965209889031,0.015487652269635,-0.6604691558708562,0.080297440175741,0.0620407132420588,0.0529681927400575,6.843326276262747,-92.74146993058676,-65.19407196131907,0.0003589122715109
4862,1724818863826198767,-1.7321163415908811,-0.3717685639858246,0.1379161030054092,-0.0479541234672069,0.007824650965631,0.3258108496665954,-0.9441856145858764,0.0,0.0,0.0,-0.0405347124087649,0.2000781662328909,0.2426937363749282,1.25861834,0.017900888793105,0.0702857206678933,-0.3561598002424996,2.748442654680769,10.591680591100207,-1.1848857447456569,0.0958134095511191,0.0164728466491481,-0.6637637927150574,0.0842938018272008,0.0647334588570665,0.052530618803507,-31.508298580369825,-39.91825104770893,-19.53502474627097,0.0004843482106917
4864,1724818863836571676,-1.7312664985656738,-0.3711661398410797,0.1383595913648605,-0.0486601777374744,0.0076585300266742,0.3270511329174042,-0.9437219500541688,0.0,0.0,0.0,-0.0873526095015848,0.0542959030926879,-0.3003123939385523,1.268991249,0.1205162647236858,0.0624288583427737,-0.2575199205364946,2.6365313064391893,18.560312300304684,-9.8272484646135,0.0970195706958616,0.0173745608768224,-0.666360662814352,0.078619735046459,0.0658521289350595,0.0583298708057231,30.48136009900522,-12.026326888608196,-74.44108842775188,0.0003496913601935
4866,1724818863847226271,-1.730465054512024,-0.3703794181346893,0.1391515284776687,-0.0498527511954307,0.0052593448199331,0.3298084735870361,-0.9427160024642944,0.0,0.0,0.0,0.6203950120655373,-0.0516475486194423,-1.3352318953947302,1.279645844,0.0691971720347384,0.4715936129846834,-0.5738439332240266,3.6863018283043143,-21.25736985153832,20.98929621387643,0.0976439298804506,0.0229696022537703,-0.6719586728399277,0.0827194677087561,0.065844588289746,0.0457250691211896,-9.719175758940043,1.3922916186660674,21.215721549142167,0.0006824373728481
4868,1724818863856117028,-1.729673981666565,-0.3698533177375793,0.1393458545207977,-0.0503100827336311,0.0061694090254604,0.3298870623111725,-0.9426586627960204,0.0,0.0,0.0,-0.0309344113681895,0.0448299216277985,-0.2685840002825579,1.288536601,0.1650536306416189,-0.160013305162186,-0.0112552881993154,17.70516604530935,-23.88789713412108,28.850944269357868,0.0991060473142718,0.0215636681868042,-0.6721980095129952,0.0899832172069921,0.0650074842274861,0.0327247404719095,-35.99498196917779,64.61104088487149,157.93302728509155,0.0001101085972119
4870,1724818863866593244,-1.728718876838684,-0.369100272655487,0.1398228406906128,-0.0527640059590339,0.0060391477309167,0.3304882049560547,-0.9423146843910216,0.0,0.0,0.0,0.0519785205990954,1.3853394705255415,1.854554461632861,1.299012817,0.4360042514639961,0.1718070307101009,-0.1339871304482266,-1.6474529529415882,18.009219750861437,-13.652744617878586,0.1036463591600729,0.0234963699725861,-0.673412595471268,0.0791918947477157,0.0671928111080042,0.0446458415417394,29.08167181048048,57.163718680883434,68.25908221365383,0.0003582375963309
4872,1724818863879288699,-1.7278977632522583,-0.3683193624019623,0.1403760313987732,-0.0531270094215869,0.0047713033854961,0.3324403464794159,-0.9416146874427797,0.0,0.0,0.0,0.7468380479744319,1.0219113782426863,0.6533602832245524,1.311708272,-0.008160201668415,0.190217131247489,-0.3371224011279616,-4.412378255578637,25.14310313454324,-39.693290021795534,0.1034428941656495,0.0263407100503341,-0.6774213132554213,0.0964990223065456,0.1028842547971748,0.0792155303884332,-128.87668442863185,-243.25049360726243,-255.55554174707504,0.0004380073827613
4874,1724818863886455107,-1.7270774841308594,-0.3674146831035614,0.1410879045724868,-0.0539775006473064,0.0031615274492651,0.3347691893577575,-0.9407476782798768,0.0,0.0,0.0,-0.919507787272551,-1.589546927221372,-1.8291094813233508,1.31887468,0.0838999252457439,0.4662489329409341,-0.717425527127294,13.667434483672425,7.274913802975273,-7.773515514111452,0.103909351313455,0.0301961977135133,-0.6821912614991533,0.099357558452823,0.1029687807247121,0.075525396222118,-181.33694943749407,-268.0255072316421,-243.7562751387736,0.0005832237103001
4876,1724818863896491187,-1.726292610168457,-0.3667083382606506,0.1415112465620041,-0.0552462898194789,0.0030364778358489,0.335487812757492,-0.940418303012848,0.0,0.0,0.0,-2.0200242149633008,-2.924904095420613,-2.8327721374804855,1.32891076,0.2326116603933771,0.1001508222638732,-0.1588407353029836,13.222224947919957,-33.17080955914938,50.604403735892795,0.106198280707681,0.0313629365564451,-0.6836718263320817,0.0715995428171669,0.0645093185604716,0.0386975649481993,-160.12547454472983,-187.36365460663103,-154.20885349312982,0.0003152163905923
4878,1724818863994230693,-1.725582242012024,-0.365991860628128,0.1419768035411834,-0.0556394979357719,0.0027903907466679,0.3365187346935272,-0.9400274753570556,0.0,0.0,0.0,-65.71082089428535,-72.93171803137596,-69.4994916362549,1.426650266,0.0062550407506677,0.006245171366442,-0.0228240388162318,1422.4032345975204,1703.1746663003555,-2183.065156456513,0.1067411822105827,0.032206946638906,-0.6858262414924234,0.5840639543300767,0.6421792393626333,0.5583185868826064,32089.274727899232,41124.68628137895,26142.72319741022,0.0003587372922823
4880,1724818863995437335,-1.724868893623352,-0.3652075231075287,0.1426587402820587,-0.0570565350353717,0.0018706658156588,0.3379702270030975,-0.9394239783287048,0.0,0.0,0.0,-26.50282644635898,-22.68565710309759,-37.55498577032163,1.427856908,1.7438099753338796,2.086753056506844,-2.689543092728484,1104.512965889007,1329.2174307646235,-1701.1435545148104,0.108745912689658,0.0350593053285314,-0.6887837563576943,0.5037175458527656,0.5530022883664536,0.4733430801590383,36119.79672928735,81295.76593293325,76479.03875789387,0.0005643835110658
4882,1724818864000486968,-1.724173665046692,-0.3644651770591736,0.1431088298559188,-0.0579943023622036,0.0009212428703904,0.3391506373882293,-0.9389423727989196,0.0,0.0,0.0,232.5203773018552,1225.8088507792927,1405.3463633111296,1.432906541,0.2318406165407719,0.451754441239396,-0.525820067759413,5762.335966179662,7310.420874620599,-7889.349858718312,0.1098297066521611,0.0376164918867044,-0.6911758122103213,1.2169433117560402,1.5208179680003011,0.9782747586626216,402443.1544296442,-30641.503410931677,-231313.79540146375,0.0003381273162878
4884,1724818864000930883,-1.7235913276672363,-0.3637364506721496,0.1435777992010116,-0.0589265674352645,0.0002604764595162,0.3400053381919861,-0.938575565814972,0.0,0.0,0.0,424.8743719176541,1201.362199554672,1282.484670370346,1.433350456,3.026386395946104,3.994882715267604,-4.352622248364179,-15120.532839500343,4682.500949594023,-14763.187512707707,0.1111065450511445,0.039592084137797,-0.6929020162956744,1.3237246658841286,2.1053302527270716,1.6530701136789787,736790.2732346569,-2268815.4438372073,-3713151.007117328,0.000361614722624
4886,1724818864001263115,-1.7231485843658447,-0.3629216849803924,0.144275352358818,-0.0580524392426013,-0.0009961535688489,0.3416399359703064,-0.9380358457565308,0.0,0.0,0.0,745.1184518705309,-102.85175961084089,-805.5888725093982,1.433682688,-7.322101450930304,4.730261790194029,-10.78476751160469,-8548.49020485401,6764.4979015513145,-12074.49958742213,0.1085363333834535,0.0415468703668995,-0.6962940519977385,1.510714561175064,2.475777561521454,2.020070146920176,30622.03389387671,-3725174.477997647,-5737173.651318744,0.0005868245429666
4888,1724818864001588077,-1.722601056098938,-0.3621097207069397,0.1449065208435058,-0.0580706186592578,-0.0025514080189168,0.3434482216835022,-0.9373711943626404,0.0,0.0,0.0,458.4206253893571,-1249.6825928787434,-2495.8294766405593,1.43400765,-2.9166371534629936,8.375021919717742,-12.39268888655478,28228.222236501548,-5464.197548670733,17686.82148614369,0.1074284518109829,0.0446866050926992,-0.7000078742672153,1.8107905564424984,2.055250890397133,1.15111292239078,-1845245.6369097824,107351.53979581002,1455370.9128282752,0.0005178628005205
4890,1724818864001909317,-1.7219793796539309,-0.3615902960300445,0.1450250595808029,-0.0597713179886341,-0.0021497537381947,0.3433679640293121,-0.9372946619987488,0.0,0.0,0.0,-440.15548495318853,-60.39587093664477,85.60588205451336,1.43432889,10.810444040415488,1.3227424005058337,0.4769630143229601,15642.641027069878,-7033.958535014103,11926.8176952991,0.1109101143047671,0.0450922965255943,-0.699809025902603,1.8103885088971765,1.6679015725256932,0.4059412403122451,-1966770.1129165336,2915639.9150434826,6820793.991360951,3.571128985544834e-05
4892,1724818864002227648,-1.721442461013794,-0.3610432744026184,0.1451659351587295,-0.0610576197504997,-0.0023629784118384,0.3440204858779907,-0.9369718432426452,0.0,0.0,0.0,-804.278132526334,619.6314854587763,1873.5897256440385,1.434647221,7.244832057532258,3.7898982846618328,-4.601690393885414,-24067.86186601265,14492.371885756744,-20119.29082234383,0.1131558561815123,0.0464549394681971,-0.7011311270457695,1.5318218540264752,2.009989688259111,1.191933411934599,-298263.88558398304,-659538.7204126085,-133868.44759133065,5.616634250477712e-05
4894,1724818864002543931,-1.7210066318511963,-0.3603159189224243,0.1457784175872802,-0.0609700754284858,-0.0042761354707181,0.3457350432872772,-0.936339557170868,0.0,0.0,0.0,-632.8902983670885,-467.53375583111074,24.12983143183897,1.434963504,-4.4108247425987805,10.49227773657095,-12.274014470072636,-32984.52235833053,9004.556102402597,-13951.474820740415,0.1115922490078765,0.0501878793338704,-0.7046207600900627,1.2996932544810988,2.0629860678689624,1.597378888252166,466444.4158424968,-2676948.107169979,-4840005.603773587,0.000507824130122
4896,1724818864002901501,-1.7205735445022583,-0.3596739470958709,0.1462125033140182,-0.0590515993535518,-0.0067946487106382,0.3478178679943084,-0.9356759190559388,0.0,0.0,0.0,-496.59885560083586,-1117.3532105015088,-1299.2411842362771,1.435321074,-14.6416915062017,8.785675475983316,-13.096354403542549,-25619.331955817448,-4577.347011266611,-1756.4555862482264,0.1061322358471097,0.0538195591643504,-0.7089403211490178,1.114234363225954,1.6390755763096363,1.0975548293782862,353450.75492703443,-1630960.1404662658,-3335004.714594251,0.0003447582111132
4898,1724818864006448735,-1.7200331687927246,-0.3593598902225494,0.1460085064172744,-0.0583624579012393,-0.0059872502461075,0.3482182323932647,-0.935575783252716,0.0,0.0,0.0,-217.91922181903897,-344.723364576134,-249.4913907644116,1.438868308,-0.2003543800138833,-0.5740364360007197,-0.2066086714165942,3177.9812669308526,-2043.6479891535448,2830.1044647512995,0.1053716185355688,0.0518720555156657,-0.7098854059178177,0.1291734146096814,0.0747519365501014,-0.0416271259642457,65035.8335372043,175840.54672877846,235149.2763786291,-0.0002541088051684
4900,1724818864018999600,-1.7194405794143677,-0.3590337932109833,0.1461913138628006,-0.0589090846478939,-0.0072294524870812,0.3503424823284149,-0.9347394108772278,0.0,0.0,0.0,-2.3510757333028582,-1.6210812439970042,2.497511602046249,1.451419173,0.0223704806836273,0.1965682616067129,-0.3741355025311661,10.06232128872281,30.458208578874597,-3.2904912849607015,0.1054169191362195,0.0548194710985602,-0.7143019272691314,0.0487463616316006,0.023509516583001,0.0090749726966459,7939.99092242525,12520.429485848606,9036.68499930981,0.0001275037407765
4902,1724818864029505550,-1.7189149856567385,-0.3588085472583771,0.1462383717298507,-0.0596438236534595,-0.0084175337105989,0.3518408536911011,-0.9341198801994324,0.0,0.0,0.0,-0.1535014816863986,-0.3816586154743338,0.3419524523378656,1.461925123,0.0605147692251894,0.2444648627072322,-0.3202588432276254,0.8034334466816828,21.861923215224508,-17.83833278970822,0.1058794598507388,0.0577282972838146,-0.7173818391971684,0.0597243131591653,0.0281272218743424,0.0217511120307509,-17.652635790329484,-41.99552121908272,-201.48657410123303,6.489439872782409e-06
4904,1724818864036874056,-1.7184247970581057,-0.3585667312145233,0.1464879065752029,-0.0604458749294281,-0.0101791406050324,0.3536953330039978,-0.9333500862121582,0.0,0.0,0.0,-1.4558192296679853,-1.517824239682865,-1.1236403244981994,1.469293629,0.0518233593551728,0.4949763104103482,-0.5703920562864389,-3.9038711031939433,10.54715677000835,-12.85804086731481,0.1060343188739274,0.0617995811072305,-0.7211822085722582,0.0523997428752238,0.02107104272533,0.0198024486327295,-112.38538509729209,-83.74860929048555,-106.19308584413236,0.0002069876752997
4906,1724818864047689064,-1.718082308769226,-0.3585253059864044,0.146478846669197,-0.0607081912457942,-0.0115610947832465,0.3555062413215637,-0.9326286911964417,0.0,0.0,0.0,-1.649714209135713,-1.3053769199544751,-0.8005375420321674,1.480108637,-0.0336419433961594,0.236802109045387,-0.374706844300247,-4.377322771724771,-10.98626902169964,-0.4764964520167609,0.105432233235293,0.0647739847005244,-0.7249493087101767,0.0293249256227738,-0.0042367791297515,-0.0059880032939272,17.07472496470305,73.09292000250535,86.29396703953245,-2.141976700101714e-05
4908,1724818864056279041,-1.717846393585205,-0.3586167395114898,0.1463922709226608,-0.060845598578453,-0.0126876002177596,0.3574676811695099,-0.931855082511902,0.0,0.0,0.0,-1.2642269199144185,-0.3128420298594669,0.3256533304366037,1.488698614,-0.0471919578060587,0.230344912751235,-0.5055001479296327,0.8205836499541956,-0.497937090387051,-5.134223789384423,0.1047552208796133,0.0671972393204791,-0.7290690546203864,0.0184552799204169,-0.0083905560545289,-0.0020563768299952,48.26061679399649,43.64792949084388,27.95945829417081,-7.939304339903224e-05
4910,1724818864067102957,-1.7177695035934448,-0.3586768209934234,0.1464794278144836,-0.0612299479544162,-0.0139897717162966,0.3595262765884399,-0.931018888950348,0.0,0.0,0.0,-0.6957014030417229,-0.8210012959802012,-0.7785024852763884,1.49952253,-0.0056040666150348,0.228416485958755,-0.4234289531584239,2.0922838129844084,-4.302009727791489,8.790939392102722,0.1043988240863826,0.0701345165741871,-0.7333792115284794,0.0047872168149893,-0.0094483279520112,-0.0003324838680036,41.67012028732509,-46.93041222053415,-58.387401392657154,9.254134281414774e-05
4912,1724818864076691962,-1.7177432775497437,-0.3588005304336548,0.1464050114154815,-0.0614682212471962,-0.0147660812363028,0.3609490394592285,-0.9304405450820924,0.0,0.0,0.0,-0.388337937811813,-1.2708693698146574,-0.9677998045058248,1.509111535,-0.0004068497566975,0.1521324764606884,-0.3288660142063838,0.9087662845184994,-5.329360939108303,4.471888166453951,0.1041826002940249,0.0719136806838958,-0.7363712972174904,0.0029333306467691,-0.0234651319328911,-0.0157638871750736,1.9750368745992264,16.67435538858743,58.0569239696254,-5.879551396878476e-05
4914,1724818864086783986,-1.7177115678787231,-0.3591495454311371,0.1461609154939651,-0.0617320723831653,-0.015441458672285,0.3625110983848572,-0.929804503917694,0.0,0.0,0.0,-0.6878846587945039,-0.4271815739362961,0.4444381484027334,1.519203559,0.0126600503503955,0.1262403291195385,-0.3409820681977599,0.3897372130833683,1.4331614670386248,-4.149647778303159,0.1040706433577317,0.0735384619590236,-0.7396700267267423,-0.0030569998136513,-0.0342632667050679,-0.0187174984868265,-18.009487792769697,74.43235951743401,113.30841049022968,-0.0001986543624553
4916,1724818864096343322,-1.7177969217300415,-0.3594741821289062,0.1460315138101577,-0.0620434843003749,-0.0163302570581436,0.3642692863941192,-0.9290812611579896,0.0,0.0,0.0,-0.7543557985590371,0.2013363850652614,1.2864843199813931,1.528762895,0.0081907751690368,0.1761482914999338,-0.4073532657509697,1.019444954718157,7.202205122057248,-6.634370272444055,0.1038726399731451,0.075617385778618,-0.7433786953509296,-0.0104867104833772,-0.0325265660742033,-0.0077946430575668,17.04506071510896,31.493678105693828,51.4880989311247,-8.577971944556705e-05
4918,1724818864106391891,-1.7179187536239624,-0.3597858846187591,0.1460138410329818,-0.0626571401953697,-0.0176722351461648,0.366384208202362,-0.9281834363937378,0.0,0.0,0.0,-0.3295840390276622,0.1559679902838693,1.4172854895439122,1.538811464,0.0341414157201101,0.2694487703898174,-0.4707583826033042,-4.262326643721226,-2.7818450592071926,-9.515477384941914,0.1038734352285272,0.0788008532685631,-0.7478160841232451,-0.0178253919529396,-0.0302957525778566,0.0066521147745408,41.76950096849835,-47.60637047365551,-73.8065799746424,2.4365881123934776e-05
4920,1724818864116800417,-1.7181657552719116,-0.3600934147834778,0.1461737602949142,-0.0624058730900287,-0.0185626968741416,0.3692579567432403,-0.9270434975624084,0.0,0.0,0.0,0.0997587138014526,-0.8041294365264451,-0.2870088595133143,1.54921999,-0.0840200069238044,0.1103971742166718,-0.6043613896565407,2.081494462702604,6.73368160431494,-1.5834228654544482,0.1025086396148043,0.0805917980440674,-0.7539743579421166,-0.0169353790808486,-0.0293843051570696,0.02118394601358,3.536824750953887,-73.3534198132485,-135.10917979461308,0.0002012451142382
4922,1724818864127664314,-1.718272686004639,-0.3604108095169067,0.1464698910713195,-0.0636823773384094,-0.0207289904356002,0.3716053366661072,-0.9259721636772156,0.0,0.0,0.0,-0.2894447164316571,-1.386858576608048,-1.4301682435029184,1.560083887,0.0909222643209689,0.4331786766928981,-0.4939693251674455,-1.7486705823882085,-17.777049417163635,16.317632475005027,0.1030914862424559,0.085823678627671,-0.758846364981937,-0.015690019819516,-0.0482314045812692,-0.0010197122171593,-30.419000992872267,21.47308434012703,16.876814909493238,0.0003367525348444
4924,1724818864136568902,-1.7184550762176514,-0.3609790802001953,0.1462544202804565,-0.0633091107010841,-0.020610311999917,0.3728724420070648,-0.9254909157752992,0.0,0.0,0.0,-0.5208540375353072,-0.6474330635002294,-0.3887058979776294,1.568988475,-0.0549424972314939,-0.0717197246173075,-0.3037351707719464,-9.37022508289705,-31.078185899381452,9.312223876837404,0.1023656420429493,0.0854657664629375,-0.761612380282077,-0.0212166228438945,-0.0580410331146161,-0.0092760759482679,-4.850959899158287,67.50135522007635,78.4944720840158,-0.0001365808943028
4926,1724818864147011787,-1.7186856269836426,-0.3615144491195678,0.1463402956724167,-0.0627868697047233,-0.0204591322690248,0.3746028542518616,-0.9248307943344116,0.0,0.0,0.0,-0.3126525278563479,-0.1328090543793645,-0.0400565760318243,1.57943136,-0.0669360056931691,-0.0824657735346427,-0.3540811571411577,-9.094525171860116,-17.60284509164355,1.920311560169111,0.1013448886417972,0.0849850154052183,-0.7653920897797944,-0.0254336883010211,-0.0592394925138677,-0.0067403476036975,31.071296405387248,45.660137545371114,65.1432776819692,0.0001576279574763
4928,1724818864156446805,-1.7189542055130005,-0.362141340970993,0.146149143576622,-0.0611089654266834,-0.019230393692851,0.3759109377861023,-0.9244387149810792,0.0,0.0,0.0,0.0754177636396178,0.2671390411683871,0.8452812941252311,1.588866378,-0.2204784090915615,-0.3898311316893705,-0.278496510670122,-0.5834412893505001,7.814577488938236,-4.202906782828798,0.0990157052485781,0.0815881848328891,-0.768384777538959,-0.0276064044422668,-0.0606463784133168,-0.0095296309862042,18.406865904027047,12.489249742821825,58.575246875968325,-0.0001069013602314
4930,1724818864166306533,-1.7192175388336182,-0.3626795709133148,0.1461657434701919,-0.0609639100730419,-0.0199555065482854,0.3779042959213257,-0.9236198663711548,0.0,0.0,0.0,0.0227666326490678,0.0821981229316537,1.0595132270794076,1.598726106,-0.0645657943310046,0.1033962052606518,-0.4457834840586914,9.734815748828982,35.93330133196485,-9.381157194988209,0.098026533663123,0.0830350372894684,-0.7726730486107847,-0.0237130097272313,-0.0537235816668086,0.0105600658972111,-31.95686769141119,-15.601641502667524,-4.523923245616494,8.762037022779558e-05
4932,1724818864177008589,-1.719436526298523,-0.3632444739341736,0.1463818699121475,-0.0614172853529453,-0.0217701531946659,0.3800573945045471,-0.9226648807525636,0.0,0.0,0.0,-0.6284280582807593,-0.0481154285473404,0.7061468275641896,1.609428162,-0.030990403630225,0.3242689203532976,-0.4580649578221182,-6.147704138848217,-7.216598158053378,3.2290112159803392,0.0973079918812713,0.0869668822652271,-0.7772299737936755,-0.027791939932996,-0.0600452187670583,0.0105378136128004,-3.9352031716496274,27.6477924295731,92.07055354819497,0.0002890882064645
4934,1724818864186699909,-1.7197701930999756,-0.3638901114463806,0.1463992446660995,-0.0606251209974288,-0.0222466941922903,0.3817718029022217,-0.9219977855682372,0.0,0.0,0.0,-0.1670996176618957,0.5693277750470873,2.6962191621205003,1.619119482,-0.1720552106012036,0.0098744394688424,-0.3883624256038611,-7.224659944538792,-19.356727780959236,-5.367946445953429,0.095313842071001,0.0874240496529395,-0.7809811999132054,-0.0360524896710501,-0.0557498315341113,0.0235967296808849,35.905490629792126,-14.888466433816658,2.4017775856155055,0.0001021317081771
4936,1724818864197868622,-1.7201937437057495,-0.3643728494644165,0.1469434350728988,-0.0596526712179183,-0.0225955676287412,0.3849032521247864,-0.9207499623298644,0.0,0.0,0.0,0.0833659474933301,-0.608636034514209,0.1108843920378035,1.630288195,-0.1583840064760759,-0.0379055161914277,-0.6099820567330653,18.567500472247595,56.60739752852036,-21.354932682876388,0.0929461745919778,0.0876429089136777,-0.7878298234617103,-0.0290984921191324,-0.0477679990930326,0.0710700160277078,-47.468313029833695,-114.02750411749514,-406.26974893541114,0.0006030136369682
4938,1724818864206468424,-1.7203855514526367,-0.36481374502182,0.1477025896310806,-0.0614438541233539,-0.0259826835244894,0.3878727853298187,-0.9192955493927002,0.0,0.0,0.0,-0.7876735044314613,-1.6459159827930965,-4.540371031120292,1.638887997,0.1161369934388106,0.8520758168155163,-0.8036425891080974,11.917600249955896,12.955610733819375,16.13958955991583,0.0933753913556965,0.095581799178254,-0.7940555045691906,-0.0319524542941849,-0.0617647040406055,0.044611639239628,-49.320483273355535,-21.280831279231563,-245.5348267900432,0.0008110716262741
4940,1724818864216196130,-1.7208025455474854,-0.3655300736427307,0.1476560980081558,-0.0614351853728294,-0.0259454082697629,0.3888687789440155,-0.91887629032135,0.0,0.0,0.0,-0.6956441508513067,-0.759883193565309,-3.6792821727321017,1.648615703,0.0119510999178419,-0.0180789918520677,-0.2212580402042744,-8.437283441571708,-53.34606402935277,32.79422146747967,0.0932845904940386,0.0956072792246952,-0.7962247353019731,-0.0446302318351001,-0.0779776572738768,-0.0156621290447844,36.68017314422689,109.50260993387592,277.90778437806387,4.92932928538187e-05
4942,1724818864226526901,-1.721282958984375,-0.3663832545280456,0.1473748981952667,-0.0608248151838779,-0.0252818968147039,0.3897686302661896,-0.9185540676116944,0.0,0.0,0.0,-0.0180770253266406,0.5734441639514292,1.2695437349983263,1.658946474,-0.0502756248817079,-0.1730676611690801,-0.1795079478426728,-8.756100792038966,-3.651822427202448,-1.4599934369146084,0.092573849991806,0.0939991538985715,-0.7982461652331687,-0.0451504299413869,-0.075879189107578,-0.0260594615110125,37.79128190206069,62.58584315277984,305.42091715989045,-0.0001661432520891
4944,1724818864238037224,-1.721785306930542,-0.3671706318855285,0.1470898240804672,-0.0596460700035095,-0.0254251640290021,0.3911759853363037,-0.9180291295051576,0.0,0.0,0.0,0.0604415993215408,0.4412787496843853,2.5584828158338384,1.670456797,-0.1861063980579488,-0.0695323481244219,-0.2668650127088864,10.198236121164664,29.50716719669387,-24.353414233517597,0.0901372728320074,0.0934823998090254,-0.8013920534071505,-0.0449445614634669,-0.0645295208858236,0.0177419132153655,15.991911915094157,-17.38300038396834,-80.37063519019092,-0.0001807954962624
4946,1724818864246526515,-1.7221750020980835,-0.3676941692829132,0.1475065946578979,-0.0602459944784641,-0.0267137121409177,0.3933547139167785,-0.9170216917991638,0.0,0.0,0.0,0.2536185591834279,0.2567643620369639,0.6718464047526534,1.678946088,0.0382089146546427,0.3093927209278989,-0.5785701991305982,9.678917945296856,10.346321791013644,-10.716222782752093,0.0900179535039944,0.0965400877355195,-0.8060683917558452,-0.0441650045912922,-0.064194234624491,0.031654465436028,-3.7291952726062,-23.04015902439887,-211.74038884541488,0.0004813778455319
4948,1724818864256282969,-1.7225863933563232,-0.3683487772941589,0.1476198881864547,-0.059997946023941,-0.0270501710474491,0.3950909376144409,-0.916281521320343,0.0,0.0,0.0,-0.0797302776080179,0.0173392083601036,-1.2762905226163503,1.688702542,-0.0551102324034125,0.0258580145256794,-0.3915768856091848,-6.719720881177727,-4.680047388867511,0.6072909530128854,0.0891128556596011,0.0971331004176257,-0.8098688842882207,-0.0398764708267549,-0.0592529376787922,0.0273666849491949,-25.06363084055166,-39.013710580437944,-135.21577101630822,0.0001973888242234
4950,1724818864266350014,-1.72296404838562,-0.3688638210296631,0.1480590403079986,-0.0599504262208938,-0.0284800492227077,0.397673100233078,-0.915123462677002,0.0,0.0,0.0,-0.2374854385350455,-0.5257576930377161,-1.9679239465129184,1.698769587,-0.093203983072308,0.2320040363691353,-0.5782434746426552,-6.994299951897772,-31.453411276314597,12.57774837884578,0.0876216112021131,0.0999733163163429,-0.8154884358038706,-0.0460732450655996,-0.0641591828475114,0.005825836864596,37.90842006934379,1.0789116562914387,23.774153896261495,0.0005017838926534
4952,1724818864276528886,-1.723521113395691,-0.369650661945343,0.1477293372154235,-0.057751540094614,-0.0260192826390266,0.3984373211860657,-0.9150057435035706,0.0,0.0,0.0,0.6998101337628104,0.0515581065594661,-0.7741632774918372,1.708948459,-0.1974382317906088,-0.6226241618521302,-0.1299300458819963,2.4330500858969,-10.048646138055544,9.033711856681844,0.0854306408856803,0.0937736968233939,-0.817362530313624,-0.0445995559162639,-0.0699060204569477,-0.0124370993976876,35.77469020917716,5.938672832474545,48.35475707766097,-0.0002284733304389
4954,1724818864286794221,-1.7238740921020508,-0.3702917098999023,0.147808238863945,-0.057584848254919,-0.0264071226119995,0.400296151638031,-0.9141935110092164,0.0,0.0,0.0,0.4841213009698861,-0.4131644356028521,-0.9913185744076932,1.719213794,-0.0412613515729865,0.0394030858656346,-0.3996362197275434,8.938605286414681,31.820661822217787,-3.356554875391775,0.0846243440434566,0.0945251273621979,-0.8214338523561956,-0.0316697949132276,-0.0629981185709827,-0.009824177327931,-27.21841783389697,-12.561927660096469,51.97483678533175,0.0001585455522188
4956,1724818864298035567,-1.7241966724395752,-0.3710066676139831,0.1474822461605072,-0.0574577152729034,-0.0264718607068061,0.4010927081108093,-0.9138503670692444,0.0,0.0,0.0,0.1017400277293703,-0.1517230034481294,0.4931787072230273,1.73045514,-0.0180305634667683,-0.0050733847663485,-0.1552574054396892,0.5596561006637566,-16.167594526548122,6.70191611494093,0.0842562308388039,0.094615485038389,-0.8231854758449919,-0.0357733368731345,-0.0810126932204937,-0.0363046244126668,37.0439676867348,150.27284235393938,209.54344781075164,-0.0002338583413062
4958,1724818864306308298,-1.7245357036590576,-0.3717828691005707,0.1471374332904815,-0.0569977313280105,-0.0257490053772926,0.4018639624118805,-0.9135609269142152,0.0,0.0,0.0,0.8408103616412992,1.864724091477749,2.698418663806479,1.738727871,-0.0225747431545249,-0.2131654721821619,-0.1913627741465653,-3.357997638326443,-5.074840357241966,-6.953423154082909,0.0839071290917698,0.0929912022823047,-0.8249186677838831,-0.0320898799191127,-0.0734352558410105,-0.0148809512677869,-46.483080066540026,-271.4156886684502,211.23862714017793,-0.0002456355729333
4960,1724818864317250921,-1.7247581481933594,-0.3722912967205047,0.1473625004291534,-0.0565032064914703,-0.0261734966188669,0.4033665955066681,-0.9129172563552856,0.0,0.0,0.0,-1.6337371391596658,-8.561822017383841,4.209085467073509,1.749670494,-0.0999736957364882,0.021931506012453,-0.3049256918746145,-5.1600048483633305,16.46717741666059,-6.688892021185581,0.0825040672804721,0.0935076929845657,-0.8282384576390388,-0.0171638382910384,-0.0392976075422972,0.0162208223711258,1372.6034280452934,2551.02196872659,-2974.2194382633297,0.0002860187313819
4962,1724818864354088751,-1.7249979972839355,-0.3728503286838531,0.1474209427833557,-0.055617056787014,-0.0267698541283607,0.404911458492279,-0.912270188331604,0.0,0.0,0.0,247.1945066014316,519.935895436267,-491.3164934121857,1.786508324,-0.0528009478807538,0.0063319795129721,-0.0938289498506014,-13942.407706263615,12615.18221348782,-38000.73912592102,0.0802367940324925,0.0940211096314113,-0.8316795425266906,-0.4491084991832395,-1.803354636835138,0.3407783688015797,219086.79518687644,999181.9022372186,141491.1082758715,0.0001259322100212
4964,1724818864354371687,-1.725126028060913,-0.3733644485473633,0.1475180983543396,-0.0552621446549892,-0.0275515206158161,0.406277596950531,-0.9116608500480652,0.0,0.0,0.0,309.643469809312,804.780584862681,-450.9468572617704,1.78679126,-4.027911229739362,3.603036315365928,-10.92819844150713,-3602.265346409888,5552.478000750294,-16556.99069881868,0.078812220787508,0.0952829390435502,-0.8346941990557568,-0.3786056115825431,-1.6550121105824471,0.2006804129033526,158644.41739524918,873834.9316508934,259982.61929787937,0.0001590447666885
4966,1724818864354749393,-1.7252317667007446,-0.3739078342914581,0.1475219428539276,-0.0553693063557148,-0.0279855839908123,0.4073261618614197,-0.9111731648445128,0.0,0.0,0.0,338.2658998847993,1067.8169357007464,-293.60418873259204,1.787168966,-0.1208082991396396,2.090231591945214,-6.222331420577714,8236.59114937838,-3329.4317769060726,10419.541014411068,0.0785474909453386,0.0962547244039407,-0.8369856688747196,-0.2311661554107331,-1.209616441796456,0.0526470742906504,30334.16010778965,485482.0273601413,383017.3590799218,7.040894772243786e-05
4968,1724818864356239383,-1.7252894639968872,-0.3743639588356018,0.1478500068187713,-0.0554866343736648,-0.0289160422980785,0.4090976119041443,-0.9103429913520812,0.0,0.0,0.0,116.34518827408829,551.4228473190319,79.8468874360459,1.788658956,-0.2369850472061628,1.1016830202994814,-2.685232064792743,-65.80354435163869,-591.9839872342187,2103.0072817737487,0.0778178416334424,0.0982037015646131,-0.8408645553236792,-0.0333217386182163,-0.2733382490124914,0.1931014297148567,-131465.493508262,-309298.7893310941,217724.57818625265,0.0003819479308855
4970,1724818864366495498,-1.7252498865127563,-0.3748526573181152,0.1479189246892929,-0.0553638413548469,-0.0294510945677757,0.4101935625076294,-0.9098399877548218,0.0,0.0,0.0,1.732662850225708,10.82239436606712,-10.853482647745125,1.798915071,-0.0528605303563983,0.0761654907021281,-0.2411648970305659,8.347726200847411,-62.3203792020128,128.98361189914402,0.0770375167422667,0.0991738396500179,-0.8432818708935559,-0.0004782072210929,-0.0506965755048618,-0.0058674420468838,-5852.74843310196,-27788.50847636791,-4134.850901536637,0.0001297405084043
4972,1724818864377527622,-1.7253066301345823,-0.3754481077194214,0.1477048248052597,-0.0545980781316757,-0.0288307350128889,0.4108108878135681,-0.9096275568008424,0.0,0.0,0.0,0.3232773349497382,-0.0035893391673247,-0.5923637949292563,1.809947195,-0.074747638104732,-0.1643310482295638,-0.1154831355626808,2.19783811335416,-7.334187698478216,10.61619532868834,0.0760739135138207,0.0974636626409756,-0.8446976212456668,0.0011963500875395,-0.0604826406895249,-0.0241839057133095,-43.20255500296032,-570.3984659299917,439.0034521688718,-0.0001396484830918
4974,1724818864386724060,-1.7252470254898071,-0.3760542273521423,0.147445797920227,-0.0542725473642349,-0.0283735450357198,0.4109377264976501,-0.9096040725708008,0.0,0.0,0.0,0.5741473717131891,-2.0990585403361126,-0.3200377567845149,1.819143633,-0.022476982917419,-0.1208842524202228,-0.0238020713894822,4.279908496611173,4.578126916461516,7.183628051952027,0.0758377769574071,0.0963717651639062,-0.845001604637244,0.0054840124176198,-0.0537428498626342,-0.0214446492037627,285.6103474981494,19.37916513107345,1067.6833945512765,-0.0001826874699705
4976,1724818864414262773,-1.7251782417297363,-0.376531034708023,0.14740951359272,-0.0539566278457641,-0.0284445323050022,0.4116321802139282,-0.9093065857887268,0.0,0.0,0.0,29.74268009730863,18.822821722351335,114.68673610349552,1.846682346,-0.0203846525718498,-0.0068632079528872,-0.0556847291336003,34.511935444128746,-401.16189226295086,-520.0759114700593,0.075127264888929,0.0962989386296433,-0.8465521487793061,0.0301945934145351,-0.3450820915927579,-0.0812128266013161,-2688.3168550651935,12748.635182235656,-2566.3498401617544,2.244128466792819e-05
4978,1724818864415658645,-1.7251341342926023,-0.377035915851593,0.1472904980182647,-0.0537884682416915,-0.0280887279659509,0.4121744930744171,-0.9090819954872132,0.0,0.0,0.0,25.724985381244473,37.46654115134626,110.62738265911364,1.848078218,0.0302260541977345,-0.5955103910708696,-0.8183593768622438,80.52612709870687,650.5407859421916,-668.5180629995026,0.0750538584389877,0.0955557349116459,-0.8477592667780004,0.0737524773569475,-0.3167275433099519,0.0871432165645202,-4861.315461003335,11309.615778523555,-10987.215301540062,-5.677631802462147e-05
4980,1724818864416902907,-1.7249956130981443,-0.3773801326751709,0.1475901454687118,-0.054218553006649,-0.0288960132747888,0.4131401479244232,-0.9085926413536072,0.0,0.0,0.0,17.476800795601417,49.26862308003711,87.99572359973303,1.84932248,0.179520919363847,1.403181563636965,-1.7856381311644185,103.98486946474787,1410.6548492831582,-671.5218492268112,0.0750754130239847,0.0974633612799928,-0.8498535768517219,0.0996833515101158,-0.2510841935178405,0.2137208186400081,-6146.897496721768,7978.622593595356,-17307.414485253117,0.0003405858968486
4982,1724818864426805728,-1.724926233291626,-0.3778521418571472,0.1475705057382583,-0.0538713261485099,-0.0288055445998907,0.4135576784610748,-0.9084262847900392,0.0,0.0,0.0,-5.39995327220488,9.538870941663305,-13.92889027089525,1.859225301,-0.0519098439456931,-0.0491745509455291,-0.0915339456664757,-13.344420436391635,-89.84373137444909,110.61220244810316,0.0744696333534062,0.0970454834103597,-0.8507984413639103,0.0076554195852835,-0.0381090187707169,0.0027410373981253,-1411.160627427231,-2661.375395802113,-6404.278837724136,3.849081677914787e-05
4984,1724818864444922868,-1.7247660160064695,-0.3782258629798889,0.1477767527103424,-0.0549381859600544,-0.030403297394514,0.4142194092273712,-0.908008635044098,0.0,0.0,0.0,-1.1698150333675912,6.0878287563446065,-1.0808984656324006,1.877342441,0.0386331859526582,0.2063273802143709,-0.0915373469454642,-602.2815460820397,-82.90403012889135,-559.6231640274707,0.0750330520462208,0.1008969436141286,-0.8521796621876703,0.038862837589022,-0.2619616687616144,-0.0051275480540056,-238.96986642932927,1986.652486806128,122.75147146201029,0.0002528734776931
4986,1724818864446282660,-1.7247101068496704,-0.3786067068576813,0.1477680951356887,-0.0544229298830032,-0.0307261552661657,0.4147603213787079,-0.9077819585800172,0.0,0.0,0.0,-1.542983388554095,9.011461436481422,-0.9738310478477616,1.878702233,-0.8423233220132473,0.0836946343357447,-0.9096235376993044,-564.884655325479,-81.21398069832634,-523.3695314009154,0.0737635329884297,0.1011023942086251,-0.8534111029033915,0.0369769393266601,-0.2518011271915394,-0.0066633351881337,-242.03824613552075,1914.0725333755288,75.27637924229428,3.934243096718002e-05
4988,1724818864456808435,-1.7246581315994265,-0.3789534270763397,0.1476738005876541,-0.0541969910264015,-0.0306061301380395,0.4149698317050934,-0.907703697681427,0.0,0.0,0.0,-1.4513984654514445,9.931080835609318,-0.463538623590465,1.889228008,-0.0274801471312347,-0.0402183455273503,-0.0423834488455227,33.510737959079144,-3.056184046260741,35.96137086790488,0.0734260726562717,0.1007129982972471,-0.853889462938494,0.0080187820129253,-0.0315281541508234,-0.004236071244426,74.76320279067446,-511.8453394485677,-19.499059231136243,-5.009312975433562e-05
4990,1724818864466214979,-1.724556803703308,-0.3792381286621094,0.1476736515760421,-0.0538445971906185,-0.0308072939515113,0.4153600633144378,-0.9075393676757812,0.0,0.0,0.0,-0.192794982897549,0.0792011493018307,-1.2184136251064894,1.898634552,-0.08132560275931,0.0043043338994185,-0.0944224689816828,-2.70125633816664,-12.49644884365279,4.814451163544255,0.0725718146178556,0.1008181589860985,-0.8547768371346433,0.0052924072955988,-0.0305463228617526,-0.0144315377010091,90.7035119797426,-561.045663325366,8.693345781139241,3.6096437615747535e-05
4992,1724818864477570696,-1.7245718240737915,-0.3795888423919678,0.1473121494054794,-0.0526171885430812,-0.0290162675082683,0.414934903383255,-0.9078648090362548,0.0,0.0,0.0,0.2463963466962588,0.3746744437750922,0.0996107111654913,1.909990269,-0.070558661675483,-0.3737988436600047,0.1020893137067403,2.552036274682787,-3.797635034995068,0.0074667489696933,0.0718547025261591,0.0965008185182888,-0.853922654769921,0.0044334252783926,-0.0299920738796899,-0.0301119343182909,28.94219407782052,21.08792791203806,126.77559636654894,-0.000317075458095
4994,1724818864487479467,-1.7244781255722046,-0.3798783123493194,0.1470286697149276,-0.0521476380527019,-0.0283898003399372,0.4151842296123504,-0.9077978134155272,0.0,0.0,0.0,0.4490193496134872,0.5409881101029075,1.448389423342286,1.91989904,-0.0314036189854804,-0.156377671026129,-0.0473953817894239,0.3975427361389343,17.294342279387326,-10.017806831268242,0.0714879003835615,0.094988932673315,-0.8545048367827682,0.0096593263735087,-0.0234620051736822,-0.0163246732563777,5.860686864767534,-0.4025785405789364,46.2144370570481,-0.0002464779365516
4996,1724818864498831433,-1.7243658304214478,-0.3800698518753052,0.1470031142234802,-0.0517072528600692,-0.0284846313297748,0.4156689643859863,-0.9075981974601746,0.0,0.0,0.0,0.325825316435088,0.3128940437429603,0.8037641423487669,1.931251006,-0.0731119212938132,-0.0205011780562555,-0.0952022273604906,6.6342339437857,10.627965113744017,-2.297737226150155,0.0705537419975358,0.0948334824298201,-0.8556043220377306,0.0137371901621037,-0.0188557611922739,0.0008583035018521,-20.61944813352558,4.7085977151420195,-75.38717637694488,-1.884870010853698e-06
4998,1724818864506870409,-1.7242335081100464,-0.3802327215671539,0.1470277160406112,-0.0519331395626068,-0.0286500230431556,0.4160363972187042,-0.9074116945266724,0.0,0.0,0.0,0.1044626212788186,0.4919378372309687,0.0918308361166399,1.939289982,0.0389044338369704,0.0573000435786676,-0.1027798838028564,7.185385462756394,5.9505532017378115,-0.7982561392666785,0.0707909822747047,0.0953513057768963,-0.8563995337956778,0.0161663755591519,-0.0168691214573541,0.0032784276557071,-21.075889499927932,21.01473352674602,-57.52475047962505,4.482387429869298e-05
5000,1724818864516203543,-1.724085807800293,-0.3803534209728241,0.147060677409172,-0.0521983094513416,-0.0289193745702505,0.4164832532405853,-0.9071828126907348,0.0,0.0,0.0,-0.022240138623493,0.674448261036857,-0.1087666621752514,1.948623116,0.0328393885289415,0.0724480939649366,-0.1086658996779251,5.081947795110865,-2.740596844145368,1.2780570949031635,0.0710049260932815,0.0960976005174649,-0.8573675669450975,0.0149989899628337,-0.0096251082487874,0.001868488066365,-3.369966527349661,-3.1359851076512832,-4.004224748506604,4.8393142275749066e-05
5002,1724818864526502147,-1.7239407300949097,-0.3804149627685547,0.1470610201358795,-0.0528779551386833,-0.0285917855799198,0.4168517291545868,-0.906984567642212,0.0,0.0,0.0,0.059030029935453,0.3842916263292224,0.0487374827686966,1.95892172,0.150312093573383,-0.0053643681627542,-0.0738131574187688,-0.7837224137503191,-0.7973247616553425,-2.845937475284222,0.07247946082195,0.0960969857172861,-0.8581332683466025,0.0159386109483961,-0.0038350891939558,0.0012290555370784,1.8797138005399987,-29.371033337899703,6.899197469984031,8.838968604771298e-06
5004,1724818864536698063,-1.7237595319747925,-0.3804324567317962,0.1470856219530105,-0.053059171885252,-0.0288485419005155,0.4176058769226074,-0.9066188931465148,0.0,0.0,0.0,0.0175121894419421,0.0727475724192341,0.0343445201471309,1.969117636,0.0192685046016696,0.0547262314659156,-0.1657188764592212,-12.260985169719865,1.8469076206043056,-4.50626533645309,0.072516813160175,0.0967758998601587,-0.8597857933489066,0.0162153637975563,-0.0017128770237597,0.0028446917084234,-3.8327531863287314,-23.058151902050405,-5.27387581619038,2.797536115351486e-05
5006,1724818864547050885,-1.7236080169677734,-0.3804501593112945,0.1471196115016937,-0.0526260808110237,-0.0292600691318511,0.41835618019104,-0.9062849283218384,0.0,0.0,0.0,-0.0196525527046008,-0.0871533495920513,-0.0608553514951757,1.979470458,-0.1014486076075357,0.0313075822775306,-0.1649857656830808,1.89685378187132,-2.8123674849909,2.136143354889124,0.0713030207435665,0.0972218977119454,-0.8614740359527255,0.0162954186639439,-0.0023830341421273,0.0018955437309813,-6.602943034549917,-10.25970116656062,-7.009484392884853,3.72291943425893e-05
5008,1724818864556198422,-1.7234455347061155,-0.3804773986339569,0.1471257358789444,-0.0527166277170181,-0.029246998950839,0.4188929498195648,-0.906032145023346,0.0,0.0,0.0,-0.1044070232146607,-0.1390925540998417,-0.1073058519906726,1.988617995,0.025479688782714,0.0011334033630794,-0.1287521304051878,8.581576202352839,-1.3153466301121437,2.0322989743568085,0.0714215433519882,0.0973162217357454,-0.8626536857946018,0.0158943032362799,-0.0033614961835723,0.0015880105851522,-2.6903002827719904,-7.141203474088836,-5.093204768116747,1.0784433940541183e-05
5010,1724818864567184258,-1.7232955694198608,-0.3805193901062011,0.147155299782753,-0.0529733709990978,-0.0292342919856309,0.4195534288883209,-0.9057119488716124,0.0,0.0,0.0,-0.0472148516347376,-0.2368502458437278,-0.1634605679719614,1.999603831,0.0499073928794494,0.0128495599540719,-0.1318724108156534,1.2148701408125848,-2.1404120544251306,3.474611592962144,0.0718295620702115,0.0975607056682677,-0.8640954784528967,0.0139483361178633,-0.0053134271700585,-0.0005630228972419,11.240068501111852,-6.35675399256497,6.971539724527966,3.568242397353008e-05
5012,1724818864577194198,-1.7231532335281372,-0.380586177110672,0.1471199840307235,-0.053124401718378,-0.0289684627205133,0.4198558628559112,-0.905571460723877,0.0,0.0,0.0,0.1203327746181268,-0.2772981891240109,0.0165308403950129,2.009613771,0.0528681451564281,-0.037825034090466,-0.0628102054282073,-4.479726443092538,-0.5563165459717558,0.2692485853481541,0.0722948328165859,0.097228325710137,-0.8647529148225142,0.0146606781056135,-0.0082239869127462,-0.0019042883455169,4.209331593910266,-4.865544580814452,3.7961287790380434,-2.588825780202695e-05
5014,1724818864586688767,-1.7230100631713867,-0.3806782364845276,0.1471165269613266,-0.0529624037444591,-0.0290529727935791,0.4203676581382751,-0.9053407907485962,0.0,0.0,0.0,0.047467604414876,-0.330922066795577,-0.0751741152824361,2.01910834,-0.032671870526031,-0.00252619205922,-0.1199628381841009,0.6369394411654214,4.73785937881916,-4.2511713691369,0.0718736223734378,0.0972864370733224,-0.8658960951486173,0.0162459916038955,-0.010735517630124,-0.0003917545206961,-5.974272571072302,-8.060202551391962,-15.695476348245467,8.801680551399739e-06
5016,1724818864596740363,-1.7228343486785889,-0.3807972073554992,0.1471122950315475,-0.0534071177244186,-0.0291844774037599,0.4210184216499328,-0.9050080180168152,0.0,0.0,0.0,0.0055082565239141,-0.4376105668257177,-0.2971781333013593,2.029159936,0.0763796077025716,0.0559516915207085,-0.1438764915111023,1.816943679781339,-4.523352956953385,0.9042962776316,0.0725040803002199,0.0979516912675216,-0.8673047136060626,0.0154514496751971,-0.0147683864157919,-0.0036425392778882,-0.9098305746645798,0.9153776917276736,3.9763189703256376,1.1603697689157557e-05
5018,1724818864607451624,-1.7226920127868652,-0.3809888660907745,0.1470365077257156,-0.0531075857579708,-0.0286927372217178,0.4215175211429596,-0.9048089981079102,0.0,0.0,0.0,0.0330252931180311,-0.2962059055581667,0.042899332819926,2.039871197,-0.0072544434126894,-0.110534969995157,-0.0967130478877939,-1.6171081045959876,-1.9151540908835107,-5.854912305451737,0.0723170511521111,0.0968457661909095,-0.8684288679152861,0.0164755747426141,-0.0198711542671574,-0.0065262777345562,4.938599614150874,11.030682749135254,33.67667644986204,-5.116183719004855e-05
5020,1724818864616728824,-1.7225135564804075,-0.3811891078948974,0.1469803750514984,-0.053155094385147,-0.0286175813525915,0.4225053787231445,-0.9043477177619934,0.0,0.0,0.0,0.0978818695556519,-0.2113148294710478,0.3708095068300662,2.049148397,0.0274883741862202,-0.0187994919353423,-0.2334552830688162,-5.082906215267258,4.723469474130406,-7.568362883333483,0.0723610022861211,0.0968283504919793,-0.870611838293699,0.016279064299141,-0.0211712893014972,-0.0036203311423008,11.75795181289674,6.445671483522613,16.81787418679368,-3.0408397771479414e-05
5022,1724818864627682264,-1.7223734855651855,-0.3814156651496887,0.1469721496105194,-0.0523365959525108,-0.0288443677127361,0.4236000180244446,-0.9038761258125304,0.0,0.0,0.0,0.2883211876456966,-0.1756929623197258,0.3154096008831618,2.060101837,-0.1423538546222531,-0.0338553180458843,-0.2236124879445592,-8.260292012172783,1.2926495568306875,-9.200642191239382,0.0705621154360995,0.0966333602751948,-0.8730930847389294,0.0188910079716748,-0.0244063462616104,0.0011858897260061,0.7528425133545316,15.601937848988594,-10.594127241417214,1.9897719440378067e-05
5024,1724818864636179366,-1.722172737121582,-0.3816475868225097,0.1469949930906295,-0.051649060100317,-0.0292024705559015,0.4249949157238006,-0.9032490849494934,0.0,0.0,0.0,0.1850772834011682,0.038283428183624,0.1888967001129776,2.068598939,-0.1647826486727454,-0.0052905541020648,-0.3683615119676822,5.168794889152592,1.833233886768494,-3.8477562544488295,0.0688586804121802,0.0968065184173137,-0.8762331848576784,0.0216695759338705,-0.0251105204373427,0.0030527060162164,1.3261807961764482,26.23838819893872,19.687855300422733,5.185579423255342e-05
5026,1724818864647533547,-1.7219563722610474,-0.3818995654582977,0.1470351815223693,-0.0516588352620601,-0.0291954446583986,0.426085889339447,-0.9027346968650818,0.0,0.0,0.0,0.404601982553509,0.3522220553820312,0.9370329528231112,2.07995312,0.0123729157729058,-0.0076655639719484,-0.2119721185958198,2.0371738220588815,2.3211150093652364,4.099200322759737,0.0687653284873606,0.0968851848318873,-0.8786516762762874,0.0216177076943466,-0.0228376777635759,0.0047301225458902,10.86059642262024,29.173200176773506,55.43300627880129,7.155624572041276e-05
5028,1724818864657118320,-1.7217284440994265,-0.3821236789226532,0.1470901519060135,-0.0513584092259407,-0.0295681934803724,0.4271516501903534,-0.9022358059883118,0.0,0.0,0.0,0.4401370218045708,0.6441681203797915,1.38373049446221,2.089537893,-0.0778611108263131,0.0350546385998423,-0.250959830407134,5.00686501871186,17.42262046673021,-8.57703629535409,0.0677874288970877,0.0973844794115897,-0.8810396600938533,0.0288063649131373,-0.0182314944798562,0.0200976587965779,-22.702762051856283,-9.649223824225874,-62.95883473747441,8.317569739731915e-05
5030,1724818864666229996,-1.7214224338531494,-0.3822451829910278,0.1473976820707321,-0.0522853247821331,-0.0307321660220623,0.4286048114299774,-0.901454210281372,0.0,0.0,0.0,0.0045134078099545,0.2088297332092427,-0.138963626429951,2.098649569,0.0926750417426828,0.3061104317547964,-0.3681708080670517,8.356678732831943,18.556246804106667,-6.91320163748834,0.0683186195578492,0.1003953306120242,-0.8842124255402635,0.0301326691969734,-0.0109449938339043,0.030803623159481,-34.66127964422196,-54.846207343965304,-149.90867874402954,0.000323162363566
5032,1724818864678459567,-1.7211105823516846,-0.3823398053646087,0.1477260142564773,-0.0532707720994949,-0.0327060781419277,0.4304528534412384,-0.9004459381103516,0.0,0.0,0.0,-0.2035613485436131,-0.5779346957329297,-1.689858070512996,2.11087914,0.0248282745434694,0.3493368269084012,-0.3550406242825188,4.237570796053148,-25.90593157266062,5.531744646957801,0.0682059408188256,0.1049537989730295,-0.8882743036352456,0.0278726597904892,-0.0180896659073681,0.0075367338211496,-29.49879137515436,-4.664808373916134,-24.964035712693487,0.0003415743814358
5034,1724818864686353013,-1.7208784818649292,-0.3825353384017944,0.1476871222257614,-0.0536090098321437,-0.0325647667050361,0.4314934015274048,-0.8999327421188354,0.0,0.0,0.0,-0.5000148886421206,-0.3107623949731345,-1.3680055309887176,2.118772586,0.1081310488311862,-0.0051420086875849,-0.2886632219832811,-4.477966742194684,-28.609959489191247,5.8704781295111115,0.0688195726880788,0.1050692805858005,-0.8905627954019584,0.026170268697399,-0.0226195768427572,-0.0047186598021298,4.1240916844191595,19.64941606281168,62.254962252013186,-1.1358097751996515e-05
5036,1724818864696262738,-1.7206593751907349,-0.3827327191829681,0.1476429551839828,-0.0528334490954875,-0.0325148478150367,0.4326644837856293,-0.8994181156158447,0.0,0.0,0.0,0.0594087441425925,-0.2926792116838983,-0.4838386925647892,2.128682311,-0.1232502801000452,-0.0858943819726307,-0.2620724713092061,-10.204658692380802,-8.697496789648973,8.138384079221302,0.0673197577964138,0.1043967279852687,-0.893226498684823,0.0176777317988197,-0.0224256592458811,-0.0159786256104599,38.67543358647717,-7.123268434775911,58.982598914685425,-1.671663180688965e-05
5038,1724818864709846171,-1.7205017805099487,-0.3830840289592743,0.1472113877534866,-0.0520881228148937,-0.0312742963433265,0.4330422580242157,-0.8993237614631653,0.0,0.0,0.0,0.2537714558960218,-0.5560420171433185,-0.245683937427581,2.142265744,-0.017131025639104,-0.2142524474547611,-0.0499567733892926,-3.888508123486093,21.318430585503968,-33.81289601274416,0.066996915112114,0.1015385406995565,-0.8941034923026202,0.0355471824506139,-0.032215001438935,-0.0104034615740857,-89.26001764839907,34.93497541404592,-28.810700174884097,-0.0003841967649649
5040,1724818864715970775,-1.7202179431915283,-0.3832988739013672,0.1472066789865493,-0.0518503338098526,-0.0314377211034297,0.4341185092926025,-0.8988127112388611,0.0,0.0,0.0,-0.5789170574821586,-0.1920642696946345,-0.5501158908780274,2.148390348,-0.0732587712200667,0.0012807065435379,-0.3935450699662035,-6.5661227466407315,9.525174602265745,-23.621580853871578,0.0663030357879202,0.1017068828321219,-0.8965203001354279,0.0341693686883957,-0.0351658824586582,-0.01372006653179,-74.29435159224013,49.60737346143562,-6.341655642892183,2.4477964131791923e-05
5042,1724818864728052858,-1.7200952768325806,-0.3837258219718933,0.1467322260141372,-0.0500767342746257,-0.028955765068531,0.4337377250194549,-0.8991804718971252,0.0,0.0,0.0,-0.0068283518652738,0.1732080367490964,0.4068394316681196,2.160472431,-0.0906648722049301,-0.4953754720196422,0.0951554090565719,3.0355995903661297,3.134407329617262,0.9639160023973724,0.0652822356269721,0.0956590784689679,-0.8957629963431943,0.0187385525184282,-0.0305805372991265,-0.0205714543639095,51.811891328679586,0.8589649739099663,32.87621933077527,-0.0004210453833497
