seq,stamp,px,py,pz,ox,oy,oz,ow,lx,ly,lz,ax,ay,az
9514,1724558909249518279,-1.864842414855957,0.41541630029678345,0.1416226476430893,0.052267998456954956,0.02045598067343235,-0.20141753554344177,0.977895975112915,0.0,0.0,0.0,0.0,0.0,0.0
9516,1724558909260507012,-1.8646893501281738,0.4152054190635681,0.1409749984741211,0.051179155707359314,0.01941991224884987,-0.2014535665512085,0.977967381477356,0.0,0.0,0.0,0.0,0.0,0.0
9518,1724558909268227250,-1.864672303199768,0.4151214063167572,0.14095725119113922,0.051588527858257294,0.019439995288848877,-0.20133242011070251,0.9779704213142395,0.0,0.0,0.0,0.0,0.0,0.0
9520,1724558909278009723,-1.8646827936172485,0.4151553213596344,0.14114788174629211,0.052372224628925323,0.01989229954779148,-0.20127104222774506,0.9779322743415833,0.0,0.0,0.0,0.0,0.0,0.0
9522,1724558909287229420,-1.8648344278335571,0.41531702876091003,0.14147448539733887,0.052747998386621475,0.02072400040924549,-0.20151615142822266,0.9778443574905396,0.0,0.0,0.0,0.0,0.0,0.0
9524,1724558909319476826,-1.8648337125778198,0.4154213070869446,0.14162370562553406,0.052616141736507416,0.020879656076431274,-0.20157185196876526,0.9778366088867188,0.0,0.0,0.0,0.0,0.0,0.0
9526,1724558909319763084,-1.8647124767303467,0.4151848256587982,0.1411658376455307,0.05188092589378357,0.020046763122081757,-0.2013014703989029,0.9779490232467651,0.0,0.0,0.0,0.0,0.0,0.0
9528,1724558909320026905,-1.8647100925445557,0.4151495695114136,0.14123177528381348,0.05226185545325279,0.020054372027516365,-0.20118184387683868,0.9779532551765442,0.0,0.0,0.0,0.0,0.0,0.0
9530,1724558909328320332,-1.8648117780685425,0.4153234660625458,0.14141125977039337,0.052329178899526596,0.02018364705145359,-0.20135365426540375,0.9779115319252014,0.0,0.0,0.0,0.0,0.0,0.0
9532,1724558909337567538,-1.8648254871368408,0.41538992524147034,0.14124435186386108,0.051751431077718735,0.019453177228569984,-0.20144318044185638,0.9779386520385742,0.0,0.0,0.0,0.0,0.0,0.0
9534,1724558909349059916,-1.8648568391799927,0.4154811203479767,0.14096537232398987,0.051268886774778366,0.019571155309677124,-0.20175017416477203,0.9778984189033508,0.0,0.0,0.0,0.0,0.0,0.0
9536,1724558909358414315,-1.8650084733963013,0.41561973094940186,0.14043362438678741,0.05006391927599907,0.018884344026446342,-0.20172257721424103,0.9779800176620483,0.0,0.0,0.0,0.0,0.0,0.0
9538,1724558909367497904,-1.8652094602584839,0.41574719548225403,0.1398729383945465,0.048978082835674286,0.018357042223215103,-0.2016509622335434,0.9780598282814026,0.0,0.0,0.0,0.0,0.0,0.0
9540,1724558909379832720,-1.86544930934906,0.41597726941108704,0.1395633965730667,0.04828258231282234,0.01839316263794899,-0.201768696308136,0.978069543838501,0.0,0.0,0.0,0.0,0.0,0.0
9542,1724558909387758483,-1.8656617403030396,0.4161446690559387,0.1391202062368393,0.0471075102686882,0.017636768519878387,-0.20157893002033234,0.9781798124313354,0.0,0.0,0.0,0.0,0.0,0.0
9544,1724558909399614384,-1.8659610748291016,0.4163617491722107,0.13934127986431122,0.047235943377017975,0.018148498609662056,-0.20114877820014954,0.9782528281211853,0.0,0.0,0.0,0.0,0.0,0.0
9546,1724558909408145410,-1.8661333322525024,0.4164155423641205,0.1393839418888092,0.04685218632221222,0.018278593197464943,-0.20103582739830017,0.9782920479774475,0.0,0.0,0.0,0.0,0.0,0.0
9548,1724558909418132447,-1.8662663698196411,0.4163510799407959,0.13923369348049164,0.04627177119255066,0.018076928332448006,-0.2008528709411621,0.9783610105514526,0.0,0.0,0.0,0.0,0.0,0.0
9550,1724558909433404792,-1.8663606643676758,0.416368693113327,0.13919773697853088,0.04621302708983421,0.018027104437351227,-0.20073992013931274,0.9783878922462463,0.0,0.0,0.0,0.0,0.0,0.0
9552,1724558909437388233,-1.8663848638534546,0.4162991940975189,0.13879263401031494,0.04504618048667908,0.017429012805223465,-0.2008741945028305,0.9784255623817444,0.0,0.0,0.0,0.0,0.0,0.0
9554,1724558909447273370,-1.8663972616195679,0.41635456681251526,0.13872425258159637,0.04474281892180443,0.01718362793326378,-0.20099864900112152,0.9784182906150818,0.0,0.0,0.0,0.0,0.0,0.0
9556,1724558909457566583,-1.8663898706436157,0.4163767099380493,0.1387685090303421,0.04482034221291542,0.017258014529943466,-0.2009926736354828,0.9784147143363953,0.0,0.0,0.0,0.0,0.0,0.0
9558,1724558909470140999,-1.8663607835769653,0.41631025075912476,0.13847951591014862,0.04407237470149994,0.016816027462482452,-0.20104944705963135,0.9784447550773621,0.0,0.0,0.0,0.0,0.0,0.0
9560,1724558909477943056,-1.8662763833999634,0.4162100553512573,0.13819219172000885,0.04315563663840294,0.015710601583123207,-0.20073875784873962,0.9785677790641785,0.0,0.0,0.0,0.0,0.0,0.0
9562,1724558909488388777,-1.8662381172180176,0.41617992520332336,0.13833405077457428,0.043608658015728,0.015819048509001732,-0.2007540464401245,0.9785428047180176,0.0,0.0,0.0,0.0,0.0,0.0
9564,1724558909498645130,-1.8662669658660889,0.4161962866783142,0.13844583928585052,0.044077061116695404,0.016414524987339973,-0.20084576308727264,0.9784931540489197,0.0,0.0,0.0,0.0,0.0,0.0
9566,1724558909507512627,-1.866286039352417,0.41624388098716736,0.13867215812206268,0.04463053122162819,0.01697152480483055,-0.20086020231246948,0.9784556031227112,0.0,0.0,0.0,0.0,0.0,0.0
9568,1724558909518649390,-1.8663239479064941,0.41627341508865356,0.1386294811964035,0.0441901832818985,0.017192209139466286,-0.20080138742923737,0.9784837961196899,0.0,0.0,0.0,0.0,0.0,0.0
9570,1724558909531715181,-1.8663252592086792,0.4162483811378479,0.13849885761737823,0.04378984868526459,0.01674402318894863,-0.20090515911579132,0.9784882068634033,0.0,0.0,0.0,0.0,0.0,0.0
9572,1724558909537109027,-1.8663251399993896,0.4162471294403076,0.1384207010269165,0.043670155107975006,0.016663366928696632,-0.20091113448143005,0.9784936904907227,0.0,0.0,0.0,0.0,0.0,0.0
9574,1724558909550111364,-1.866291880607605,0.416174054145813,0.13824981451034546,0.043373897671699524,0.01623324677348137,-0.20071865618228912,0.9785536527633667,0.0,0.0,0.0,0.0,0.0,0.0
9576,1724558909559444079,-1.866265892982483,0.41612309217453003,0.13812264800071716,0.04306519031524658,0.01588340662419796,-0.2004881054162979,0.9786202907562256,0.0,0.0,0.0,0.0,0.0,0.0
9578,1724558909573874374,-1.86627995967865,0.416213721036911,0.13824227452278137,0.04352516680955887,0.0160231776535511,-0.20052437484264374,0.978590190410614,0.0,0.0,0.0,0.0,0.0,0.0
9580,1724558909580439660,-1.8662984371185303,0.4162087142467499,0.13827872276306152,0.043819066137075424,0.016493437811732292,-0.20087391138076782,0.9784975647926331,0.0,0.0,0.0,0.0,0.0,0.0
9582,1724558909587329266,-1.8662985563278198,0.416231632232666,0.1383986622095108,0.04387190192937851,0.01650329679250717,-0.2008620798587799,0.9784975051879883,0.0,0.0,0.0,0.0,0.0,0.0
9584,1724558909597726305,-1.866307020187378,0.41624078154563904,0.13864025473594666,0.04443255439400673,0.017253044992685318,-0.2009475976228714,0.9784417748451233,0.0,0.0,0.0,0.0,0.0,0.0
9586,1724558909629649230,-1.8663225173950195,0.4162015914916992,0.1384335309267044,0.04383879899978638,0.01702066697180271,-0.20094527304172516,0.9784730672836304,0.0,0.0,0.0,0.0,0.0,0.0
9588,1724558909630027794,-1.866316795349121,0.4162431061267853,0.13845640420913696,0.04380098357796669,0.016779014840722084,-0.20094257593154907,0.9784794449806213,0.0,0.0,0.0,0.0,0.0,0.0
9590,1724558909631071707,-1.8663259744644165,0.41626232862472534,0.1385256052017212,0.04405629262328148,0.016917888075113297,-0.20093446969985962,0.9784672260284424,0.0,0.0,0.0,0.0,0.0,0.0
9592,1724558909637555186,-1.866322636604309,0.41625145077705383,0.13848243653774261,0.044052306562662125,0.01682286337018013,-0.2008449286222458,0.9784875512123108,0.0,0.0,0.0,0.0,0.0,0.0
9594,1724558909647467380,-1.8663257360458374,0.41623425483703613,0.1385233849287033,0.04421776160597801,0.016967326402664185,-0.20083832740783691,0.9784788489341736,0.0,0.0,0.0,0.0,0.0,0.0
9596,1724558909657358802,-1.8663222789764404,0.41624850034713745,0.13869929313659668,0.044690508395433426,0.017293322831392288,-0.20089051127433777,0.9784409999847412,0.0,0.0,0.0,0.0,0.0,0.0
9598,1724558909667017651,-1.8662924766540527,0.41620615124702454,0.13851192593574524,0.04393267631530762,0.01683409884572029,-0.2008717954158783,0.9784871935844421,0.0,0.0,0.0,0.0,0.0,0.0
9600,1724558909677879449,-1.8662490844726562,0.4161932170391083,0.13853104412555695,0.04402349889278412,0.016797663643956184,-0.20070715248584747,0.978517472743988,0.0,0.0,0.0,0.0,0.0,0.0
9602,1724558909705131071,-1.8662266731262207,0.4161985516548157,0.13873818516731262,0.0447329618036747,0.017698710784316063,-0.20108816027641296,0.9783912301063538,0.0,0.0,0.0,0.0,0.0,0.0
9604,1724558909705413452,-1.8660696744918823,0.41609007120132446,0.13811451196670532,0.04285912960767746,0.016299650073051453,-0.20117884874343872,0.9784806966781616,0.0,0.0,0.0,0.0,0.0,0.0
9606,1724558909707389433,-1.8659160137176514,0.4159591495990753,0.13763652741909027,0.041794490069150925,0.01516427006572485,-0.201038658618927,0.9785737991333008,0.0,0.0,0.0,0.0,0.0,0.0
9608,1724558909717549671,-1.8657965660095215,0.41591814160346985,0.13787789642810822,0.042688999325037,0.015818852931261063,-0.20134632289409637,0.9784616231918335,0.0,0.0,0.0,0.0,0.0,0.0
9610,1724558909733007801,-1.8656001091003418,0.4157652258872986,0.13773126900196075,0.04243113473057747,0.015538377687335014,-0.20168893039226532,0.9784067273139954,0.0,0.0,0.0,0.0,0.0,0.0
9612,1724558909736838684,-1.865396499633789,0.4156779646873474,0.13794344663619995,0.04279403015971184,0.015405358746647835,-0.20145383477210999,0.9784415364265442,0.0,0.0,0.0,0.0,0.0,0.0
9614,1724558909750551396,-1.8652225732803345,0.41544002294540405,0.13870923221111298,0.045039910823106766,0.017265915870666504,-0.20059341192245483,0.9784864783287048,0.0,0.0,0.0,0.0,0.0,0.0
9616,1724558909757358333,-1.8649502992630005,0.4153701364994049,0.13904249668121338,0.04591156169772148,0.01780419982969761,-0.2003774493932724,0.9784804582595825,0.0,0.0,0.0,0.0,0.0,0.0
9618,1724558909767584199,-1.864622950553894,0.41518738865852356,0.13876904547214508,0.04525841027498245,0.017413342371582985,-0.20011994242668152,0.9785706400871277,0.0,0.0,0.0,0.0,0.0,0.0
9620,1724558909777799824,-1.864133596420288,0.4152527451515198,0.13905245065689087,0.04596174508333206,0.01875225640833378,-0.20210649073123932,0.9781047701835632,0.0,0.0,0.0,0.0,0.0,0.0
9622,1724558909787637656,-1.863646149635315,0.414867639541626,0.13847751915454865,0.04515966400504112,0.018795210868120193,-0.20235078036785126,0.978090763092041,0.0,0.0,0.0,0.0,0.0,0.0
9624,1724558909797523312,-1.8630374670028687,0.4145194888114929,0.13799427449703217,0.04417145252227783,0.017377810552716255,-0.20174996554851532,0.9782862067222595,0.0,0.0,0.0,0.0,0.0,0.0
9626,1724558909810472962,-1.8624902963638306,0.41429582238197327,0.13815894722938538,0.044795554131269455,0.017218025401234627,-0.2015693485736847,0.9782978892326355,0.0,0.0,0.0,0.0,0.0,0.0
9628,1724558909817315931,-1.8620171546936035,0.4142759144306183,0.13803768157958984,0.043428532779216766,0.016278894618153572,-0.20150908827781677,0.9783880114555359,0.0,0.0,0.0,0.0,0.0,0.0
9630,1724558909831309400,-1.8613859415054321,0.4138622581958771,0.13750845193862915,0.04224247485399246,0.015179176814854145,-0.20169588923454285,0.9784190654754639,0.0,0.0,0.0,0.0,0.0,0.0
9632,1724558909837530066,-1.8609009981155396,0.4137391149997711,0.13776013255119324,0.04249604418873787,0.0154417734593153,-0.20220813155174255,0.9782983660697937,0.0,0.0,0.0,0.0,0.0,0.0
9634,1724558909848174582,-1.8604607582092285,0.41335341334342957,0.13833409547805786,0.04469892010092735,0.016411514952778816,-0.20136286318302155,0.9783586859703064,0.0,0.0,0.0,0.0,0.0,0.0
9636,1724558909858096834,-1.8600349426269531,0.413231760263443,0.13840973377227783,0.045646265149116516,0.01669570989906788,-0.20107415318489075,0.9783695340156555,0.0,0.0,0.0,0.0,0.0,0.0
9638,1724558909868183435,-1.859647512435913,0.41318368911743164,0.13852714002132416,0.04565005004405975,0.017081115394830704,-0.20191863179206848,0.9781888127326965,0.0,0.0,0.0,0.0,0.0,0.0
9640,1724558909877900017,-1.8591768741607666,0.4134657084941864,0.13872165977954865,0.04570591449737549,0.017179738730192184,-0.20451368391513824,0.9776451587677002,0.0,0.0,0.0,0.0,0.0,0.0
9642,1724558909887254583,-1.8588007688522339,0.41324812173843384,0.13881134986877441,0.04577144607901573,0.017111411318182945,-0.20380181074142456,0.9777919054031372,0.0,0.0,0.0,0.0,0.0,0.0
9644,1724558909898564218,-1.858257532119751,0.4134790301322937,0.13875825703144073,0.045881159603595734,0.017327675595879555,-0.20548030734062195,0.97743159532547,0.0,0.0,0.0,0.0,0.0,0.0
9646,1724558909907331841,-1.8576619625091553,0.41344571113586426,0.13865827023983002,0.04609312862157822,0.017453856766223907,-0.20597469806671143,0.9773153066635132,0.0,0.0,0.0,0.0,0.0,0.0
9648,1724558909917246057,-1.8571438789367676,0.41354408860206604,0.1386197954416275,0.0461004301905632,0.017245667055249214,-0.20589663088321686,0.9773350954055786,0.0,0.0,0.0,0.0,0.0,0.0
9650,1724558909933616233,-1.8566628694534302,0.4138060510158539,0.13853894174098969,0.04519875720143318,0.016814740374684334,-0.20624025166034698,0.9773123264312744,0.0,0.0,0.0,0.0,0.0,0.0
9652,1724558909937264490,-1.8561632633209229,0.41405680775642395,0.13885685801506042,0.04539456591010094,0.01693745143711567,-0.20626455545425415,0.9772959351539612,0.0,0.0,0.0,0.0,0.0,0.0
9654,1724558909948747519,-1.855551838874817,0.41407567262649536,0.13853779435157776,0.044872503727674484,0.016085432842373848,-0.20596446096897125,0.9773977398872375,0.0,0.0,0.0,0.0,0.0,0.0
9656,1724558909957340710,-1.85499107837677,0.4142029881477356,0.13926652073860168,0.04783489182591438,0.017760038375854492,-0.2062302678823471,0.9771722555160522,0.0,0.0,0.0,0.0,0.0,0.0
9658,1724558909968703146,-1.854591727256775,0.4144773483276367,0.13984304666519165,0.04939361661672592,0.018584778532385826,-0.20521171391010284,0.9772937893867493,0.0,0.0,0.0,0.0,0.0,0.0
9660,1724558909980733548,-1.8540483713150024,0.4148179888725281,0.14012107253074646,0.05059058964252472,0.02060256339609623,-0.2069646418094635,0.9768223166465759,0.0,0.0,0.0,0.0,0.0,0.0
9662,1724558909987173765,-1.8535727262496948,0.4150966703891754,0.14025211334228516,0.049674950540065765,0.02059331350028515,-0.20694473385810852,0.9768736958503723,0.0,0.0,0.0,0.0,0.0,0.0
9664,1724558909999074622,-1.8528333902359009,0.4154718220233917,0.14126121997833252,0.05212947353720665,0.02312369830906391,-0.20750294625759125,0.976570725440979,0.0,0.0,0.0,0.0,0.0,0.0
9666,1724558910008568738,-1.8522427082061768,0.4155467748641968,0.14075475931167603,0.050440847873687744,0.020692558959126472,-0.20778712630271912,0.976653516292572,0.0,0.0,0.0,0.0,0.0,0.0
9668,1724558910017312092,-1.851650595664978,0.4157181680202484,0.14068752527236938,0.0492374524474144,0.018974896520376205,-0.20752626657485962,0.9768052697181702,0.0,0.0,0.0,0.0,0.0,0.0
9670,1724558910031458260,-1.8510924577713013,0.4156966507434845,0.14073844254016876,0.04856254532933235,0.018036479130387306,-0.20615650713443756,0.9771468639373779,0.0,0.0,0.0,0.0,0.0,0.0
9672,1724558910037617091,-1.8504549264907837,0.41588014364242554,0.1413721889257431,0.049392376095056534,0.018912192434072495,-0.20635086297988892,0.9770476818084717,0.0,0.0,0.0,0.0,0.0,0.0
9674,1724558910051328338,-1.8498800992965698,0.4161030352115631,0.14190512895584106,0.049559012055397034,0.01935572735965252,-0.20708803832530975,0.9768745303153992,0.0,0.0,0.0,0.0,0.0,0.0
9676,1724558910058195934,-1.84929621219635,0.41625136137008667,0.1422303169965744,0.048509351909160614,0.018306102603673935,-0.2067941129207611,0.9770097136497498,0.0,0.0,0.0,0.0,0.0,0.0
9678,1724558910070909267,-1.8487776517868042,0.4163677990436554,0.14217010140419006,0.04452409967780113,0.016986766830086708,-0.20641513168811798,0.9773033261299133,0.0,0.0,0.0,0.0,0.0,0.0
9680,1724558910077847591,-1.8480982780456543,0.4166261553764343,0.14252370595932007,0.04530445486307144,0.014967401511967182,-0.20793220400810242,0.9769788980484009,0.0,0.0,0.0,0.0,0.0,0.0
9682,1724558910087343801,-1.8474920988082886,0.4168331027030945,0.14308007061481476,0.046055082231760025,0.015121016651391983,-0.20824524760246277,0.9768747091293335,0.0,0.0,0.0,0.0,0.0,0.0
9684,1724558910099357247,-1.846901535987854,0.41697394847869873,0.14358514547348022,0.0457039549946785,0.015473341569304466,-0.20897600054740906,0.9767296314239502,0.0,0.0,0.0,0.0,0.0,0.0
9686,1724558910108599231,-1.846469759941101,0.41705551743507385,0.14422614872455597,0.045660462230443954,0.01588909700512886,-0.20953713357448578,0.9766047596931458,0.0,0.0,0.0,0.0,0.0,0.0
9688,1724558910117123405,-1.8459763526916504,0.41732898354530334,0.1453789919614792,0.04528876394033432,0.015185380354523659,-0.20961636304855347,0.9766163229942322,0.0,0.0,0.0,0.0,0.0,0.0
9690,1724558910128999256,-1.845533013343811,0.41712403297424316,0.14574706554412842,0.04358041286468506,0.013340584933757782,-0.20852269232273102,0.976954996585846,0.0,0.0,0.0,0.0,0.0,0.0
9692,1724558910137195316,-1.8449785709381104,0.41711875796318054,0.14621411263942719,0.042981091886758804,0.013195125386118889,-0.20868490636348724,0.9769489169120789,0.0,0.0,0.0,0.0,0.0,0.0
9694,1724558910147452477,-1.8443541526794434,0.41712188720703125,0.1466704159975052,0.042389217764139175,0.01288383174687624,-0.20920422673225403,0.9768679141998291,0.0,0.0,0.0,0.0,0.0,0.0
9696,1724558910157385674,-1.8438105583190918,0.41734951734542847,0.14732494950294495,0.04125704988837242,0.012216918170452118,-0.20963776111602783,0.9768319725990295,0.0,0.0,0.0,0.0,0.0,0.0
9698,1724558910167154678,-1.843238115310669,0.4173024296760559,0.14779305458068848,0.03963003680109978,0.010623661801218987,-0.20989392697811127,0.976862907409668,0.0,0.0,0.0,0.0,0.0,0.0
9700,1724558910178244487,-1.8425312042236328,0.41746944189071655,0.14783325791358948,0.036711227148771286,0.00664864294230938,-0.21152625977993011,0.9766599535942078,0.0,0.0,0.0,0.0,0.0,0.0
9702,1724558910187048051,-1.8418889045715332,0.4174005389213562,0.14830613136291504,0.03633849322795868,0.005898569710552692,-0.21206827461719513,0.9765611886978149,0.0,0.0,0.0,0.0,0.0,0.0
9704,1724558910197717684,-1.8412489891052246,0.41730281710624695,0.14929725229740143,0.03761471435427666,0.00658461544662714,-0.21271352469921112,0.9763681888580322,0.0,0.0,0.0,0.0,0.0,0.0
9706,1724558910207255058,-1.8407492637634277,0.41748496890068054,0.15043815970420837,0.03772524744272232,0.007594785187393427,-0.2138310819864273,0.976112425327301,0.0,0.0,0.0,0.0,0.0,0.0
9708,1724558910217548403,-1.840153455734253,0.4175201654434204,0.1512354016304016,0.03746100142598152,0.007622635457664728,-0.21461184322834015,0.9759509563446045,0.0,0.0,0.0,0.0,0.0,0.0
9710,1724558910227895207,-1.839524745941162,0.4174883961677551,0.1515456736087799,0.03547949343919754,0.005365219432860613,-0.21475356817245483,0.9760088920593262,0.0,0.0,0.0,0.0,0.0,0.0
9712,1724558910236981657,-1.838919997215271,0.41741377115249634,0.15205764770507812,0.035158246755599976,0.0042958552949130535,-0.21530407667160034,0.9759045243263245,0.0,0.0,0.0,0.0,0.0,0.0
9714,1724558910251849197,-1.8384078741073608,0.417385458946228,0.15341602265834808,0.036329638212919235,0.004974354058504105,-0.21472954750061035,0.975985050201416,0.0,0.0,0.0,0.0,0.0,0.0
9716,1724558910257285577,-1.837775468826294,0.4176640510559082,0.15481145679950714,0.03733689710497856,0.007199399638921022,-0.21737851202487946,0.9753464460372925,0.0,0.0,0.0,0.0,0.0,0.0
9718,1724558910267640120,-1.8371068239212036,0.4176800847053528,0.15521474182605743,0.0357789620757103,0.005989323370158672,-0.21818795800209045,0.9752323627471924,0.0,0.0,0.0,0.0,0.0,0.0
9720,1724558910293643216,-1.8363860845565796,0.4177290201187134,0.15565556287765503,0.034658655524253845,0.0043688551522791386,-0.2185939997434616,0.9751904010772705,0.0,0.0,0.0,0.0,0.0,0.0
9722,1724558910297563094,-1.8348677158355713,0.417677104473114,0.15599364042282104,0.03006347268819809,0.0008114937809295952,-0.21785646677017212,0.9755173325538635,0.0,0.0,0.0,0.0,0.0,0.0
9724,1724558910307282746,-1.8338135480880737,0.41757193207740784,0.15648461878299713,0.030305592343211174,0.0012869008351117373,-0.21845252811908722,0.9753760695457458,0.0,0.0,0.0,0.0,0.0,0.0
9726,1724558910317854533,-1.8328711986541748,0.41747236251831055,0.1564876139163971,0.028910592198371887,-0.00018387912132311612,-0.21802140772342682,0.9755157232284546,0.0,0.0,0.0,0.0,0.0,0.0
9728,1724558910328243179,-1.8317947387695312,0.41764870285987854,0.15624375641345978,0.025963708758354187,-0.005672713275998831,-0.21871629357337952,0.9754265546798706,0.0,0.0,0.0,0.0,0.0,0.0
9730,1724558910337891504,-1.8309842348098755,0.4179689586162567,0.15748588740825653,0.0275124479085207,-0.003921454772353172,-0.22006238996982574,0.9750899076461792,0.0,0.0,0.0,0.0,0.0,0.0
9732,1724558910347256111,-1.830113410949707,0.4180730879306793,0.15824563801288605,0.027724197134375572,-0.003759418847039342,-0.22053101658821106,0.9749786257743835,0.0,0.0,0.0,0.0,0.0,0.0
9734,1724558910358391684,-1.8293023109436035,0.4182494282722473,0.15928708016872406,0.029173601418733597,-0.002329062670469284,-0.22069287300109863,0.9749041795730591,0.0,0.0,0.0,0.0,0.0,0.0
9736,1724558910368553121,-1.8283405303955078,0.4179891347885132,0.1596807837486267,0.0290179792791605,-0.003965888172388077,-0.21867555379867554,0.9753580689430237,0.0,0.0,0.0,0.0,0.0,0.0
9738,1724558910380699297,-1.8275026082992554,0.4184624254703522,0.1605629175901413,0.027321305125951767,-0.0057031637988984585,-0.21991829574108124,0.9751189947128296,0.0,0.0,0.0,0.0,0.0,0.0
9740,1724558910387713248,-1.8266279697418213,0.41863948106765747,0.16095861792564392,0.02774449810385704,-0.004166025202721357,-0.2213808000087738,0.9747837781906128,0.0,0.0,0.0,0.0,0.0,0.0
9742,1724558910397792077,-1.8257395029067993,0.41849881410598755,0.16133104264736176,0.024347418919205666,-0.005776531528681517,-0.22019200026988983,0.9751356244087219,0.0,0.0,0.0,0.0,0.0,0.0
9744,1724558910410326151,-1.8246444463729858,0.4184021055698395,0.1621265858411789,0.026336992159485817,-0.0060917227528989315,-0.2202240377664566,0.9750746488571167,0.0,0.0,0.0,0.0,0.0,0.0
9746,1724558910418324846,-1.823634147644043,0.4182617962360382,0.16242367029190063,0.024884281679987907,-0.007090831641107798,-0.22024281322956085,0.9751018285751343,0.0,0.0,0.0,0.0,0.0,0.0
9748,1724558910429222596,-1.8226308822631836,0.41804441809654236,0.16278663277626038,0.02371109463274479,-0.008051838725805283,-0.22000573575496674,0.9751771688461304,0.0,0.0,0.0,0.0,0.0,0.0
9750,1724558910437613990,-1.8217395544052124,0.41793957352638245,0.16291546821594238,0.020835204049944878,-0.012506197206676006,-0.2201208770275116,0.9751699566841125,0.0,0.0,0.0,0.0,0.0,0.0
9752,1724558910448177501,-1.8209211826324463,0.41788437962532043,0.16316328942775726,0.020165013149380684,-0.01267954707145691,-0.2212596833705902,0.9749240279197693,0.0,0.0,0.0,0.0,0.0,0.0
9754,1724558910457555208,-1.8201886415481567,0.4178365468978882,0.16384531557559967,0.019550403580069542,-0.012359161861240864,-0.22186030447483063,0.974804162979126,0.0,0.0,0.0,0.0,0.0,0.0
9756,1724558910467006684,-1.8195003271102905,0.41763633489608765,0.16422519087791443,0.017936410382390022,-0.012867758981883526,-0.22211313247680664,0.9747709631919861,0.0,0.0,0.0,0.0,0.0,0.0
9758,1724558910478295631,-1.818917155265808,0.4175235629081726,0.16468623280525208,0.017162583768367767,-0.0129522904753685,-0.22291933000087738,0.9745997190475464,0.0,0.0,0.0,0.0,0.0,0.0
9760,1724558910487060038,-1.8183766603469849,0.4173981249332428,0.16504985094070435,0.01645948365330696,-0.014311879873275757,-0.22324898838996887,0.9745174646377563,0.0,0.0,0.0,0.0,0.0,0.0
9762,1724558910497335659,-1.8177746534347534,0.41720306873321533,0.16571182012557983,0.01733941212296486,-0.014684678055346012,-0.22357675433158875,0.9744214415550232,0.0,0.0,0.0,0.0,0.0,0.0
9764,1724558910507413486,-1.8172025680541992,0.41714224219322205,0.16607171297073364,0.017179254442453384,-0.014576369896531105,-0.224213644862175,0.9742796421051025,0.0,0.0,0.0,0.0,0.0,0.0
9766,1724558910517660532,-1.8166276216506958,0.4170996844768524,0.1663844734430313,0.01681631989777088,-0.014177304692566395,-0.2248840034008026,0.9741373062133789,0.0,0.0,0.0,0.0,0.0,0.0
9768,1724558910533754779,-1.8161240816116333,0.4170953631401062,0.166758194565773,0.01660788431763649,-0.013424135744571686,-0.22563591599464417,0.9739776849746704,0.0,0.0,0.0,0.0,0.0,0.0
9770,1724558910536974395,-1.8155664205551147,0.41694918274879456,0.16694128513336182,0.016241351142525673,-0.013345855288207531,-0.22603532671928406,0.9738922119140625,0.0,0.0,0.0,0.0,0.0,0.0
9772,1724558910549420758,-1.8150887489318848,0.4166868329048157,0.1672424077987671,0.015731077641248703,-0.013260122388601303,-0.22510647773742676,0.9741169214248657,0.0,0.0,0.0,0.0,0.0,0.0
9774,1724558910559803834,-1.8145689964294434,0.4167567491531372,0.16760461032390594,0.015628233551979065,-0.0124962804839015,-0.22600214183330536,0.9739212989807129,0.0,0.0,0.0,0.0,0.0,0.0
9776,1724558910567481003,-1.8140865564346313,0.4167649745941162,0.1675937920808792,0.01486718375235796,-0.013262572698295116,-0.22662994265556335,0.9737771153450012,0.0,0.0,0.0,0.0,0.0,0.0
9778,1724558910577534124,-1.8136435747146606,0.41671380400657654,0.16754204034805298,0.014183508232235909,-0.013779068365693092,-0.22696131467819214,0.9737029671669006,0.0,0.0,0.0,0.0,0.0,0.0
9780,1724558910587266458,-1.8131167888641357,0.41668248176574707,0.167571023106575,0.01374612282961607,-0.014231611974537373,-0.22739939391613007,0.9736006259918213,0.0,0.0,0.0,0.0,0.0,0.0
9782,1724558910597213631,-1.8125110864639282,0.41676434874534607,0.1675846129655838,0.012936677783727646,-0.016421478241682053,-0.22819481790065765,0.973391056060791,0.0,0.0,0.0,0.0,0.0,0.0
9784,1724558910608560674,-1.8120017051696777,0.41685283184051514,0.16779984533786774,0.01369405072182417,-0.01497582346200943,-0.22948935627937317,0.9730996489524841,0.0,0.0,0.0,0.0,0.0,0.0
9786,1724558910617176081,-1.8115942478179932,0.41695472598075867,0.16819564998149872,0.013643837533891201,-0.013830818235874176,-0.23004552721977234,0.9729859232902527,0.0,0.0,0.0,0.0,0.0,0.0
9788,1724558910631922507,-1.8111627101898193,0.4168735444545746,0.16818927228450775,0.012475034222006798,-0.013969938270747662,-0.23020312190055847,0.9729623794555664,0.0,0.0,0.0,0.0,0.0,0.0
9790,1724558910637063717,-1.8107837438583374,0.4168323874473572,0.16819128394126892,0.01192913856357336,-0.01395830325782299,-0.23062382638454437,0.9728696942329407,0.0,0.0,0.0,0.0,0.0,0.0
9792,1724558910647614905,-1.8103468418121338,0.41667988896369934,0.16798526048660278,0.011296449229121208,-0.013961642049252987,-0.23102927207946777,0.9727810621261597,0.0,0.0,0.0,0.0,0.0,0.0
9794,1724558910657503552,-1.8099244832992554,0.4166184365749359,0.16802877187728882,0.011187545955181122,-0.013928358443081379,-0.23138272762298584,0.9726988077163696,0.0,0.0,0.0,0.0,0.0,0.0
9796,1724558910667866459,-1.8095039129257202,0.4165797829627991,0.16819895803928375,0.011209552176296711,-0.013863851316273212,-0.2315693199634552,0.9726550579071045,0.0,0.0,0.0,0.0,0.0,0.0
9798,1724558910718884854,-1.8090786933898926,0.41659095883369446,0.16848833858966827,0.010927454568445683,-0.013680238276720047,-0.23147113621234894,0.9726842641830444,0.0,0.0,0.0,0.0,0.0,0.0
9800,1724558910719180950,-1.8086243867874146,0.4164507985115051,0.1685337871313095,0.010234629735350609,-0.013605387881398201,-0.2315114438533783,0.9726832509040833,0.0,0.0,0.0,0.0,0.0,0.0
9802,1724558910719555019,-1.8082044124603271,0.4164171516895294,0.16953101754188538,0.013086901977658272,-0.011378214694559574,-0.23193329572677612,0.9725771546363831,0.0,0.0,0.0,0.0,0.0,0.0
9804,1724558910719820706,-1.8078633546829224,0.4163559377193451,0.1696796417236328,0.009578365832567215,-0.010888039134442806,-0.2323986142873764,0.9725124835968018,0.0,0.0,0.0,0.0,0.0,0.0
9806,1724558910720143348,-1.8074735403060913,0.41626816987991333,0.1699838936328888,0.009809011593461037,-0.010643432848155499,-0.23215186595916748,0.972571849822998,0.0,0.0,0.0,0.0,0.0,0.0
9808,1724558910729775711,-1.8070616722106934,0.4161178469657898,0.1702173799276352,0.010825102217495441,-0.011570261791348457,-0.23162156343460083,0.9726769924163818,0.0,0.0,0.0,0.0,0.0,0.0
9810,1724558910737531208,-1.8067291975021362,0.4159370958805084,0.17032386362552643,0.010973010212182999,-0.012075113132596016,-0.2316744178533554,0.9726566076278687,0.0,0.0,0.0,0.0,0.0,0.0
9812,1724558910748004911,-1.8063595294952393,0.41579023003578186,0.1704094111919403,0.011076919734477997,-0.012506634928286076,-0.2318858653306961,0.9725995659828186,0.0,0.0,0.0,0.0,0.0,0.0
9814,1724558910757209693,-1.8059991598129272,0.4154917597770691,0.17000657320022583,0.00973550509661436,-0.013664215803146362,-0.23188245296478271,0.9725991487503052,0.0,0.0,0.0,0.0,0.0,0.0
9816,1724558910775926269,-1.8056566715240479,0.4152345061302185,0.16982705891132355,0.009420657530426979,-0.014656956307590008,-0.231986403465271,0.9725630283355713,0.0,0.0,0.0,0.0,0.0,0.0
9818,1724558910778282701,-1.8052756786346436,0.4148711860179901,0.16978001594543457,0.010495687834918499,-0.017056548967957497,-0.23054026067256927,0.9728567600250244,0.0,0.0,0.0,0.0,0.0,0.0
9820,1724558910787786074,-1.8049609661102295,0.4149271845817566,0.17002487182617188,0.012102465145289898,-0.015110079199075699,-0.2334073930978775,0.9721863269805908,0.0,0.0,0.0,0.0,0.0,0.0
9822,1724558910797317606,-1.8047255277633667,0.41460904479026794,0.17020684480667114,0.010719763115048409,-0.015010040253400803,-0.23413102328777313,0.9720300436019897,0.0,0.0,0.0,0.0,0.0,0.0
9824,1724558910807164253,-1.8044147491455078,0.41448426246643066,0.17049235105514526,0.013298620469868183,-0.01417136937379837,-0.2350933700799942,0.9717785716056824,0.0,0.0,0.0,0.0,0.0,0.0
9826,1724558910819507458,-1.8041831254959106,0.4145418405532837,0.17097531259059906,0.014867916703224182,-0.011331700719892979,-0.2368469387292862,0.9713671803474426,0.0,0.0,0.0,0.0,0.0,0.0
9828,1724558910831942023,-1.8039097785949707,0.4143407344818115,0.17152747511863708,0.014564787037670612,-0.012282922863960266,-0.23615555465221405,0.9715284705162048,0.0,0.0,0.0,0.0,0.0,0.0
9830,1724558910838182994,-1.8035218715667725,0.41408753395080566,0.17141719162464142,0.013667955063283443,-0.012792549096047878,-0.23578029870986938,0.9716261029243469,0.0,0.0,0.0,0.0,0.0,0.0
9832,1724558910848095505,-1.803146243095398,0.41387122869491577,0.17148816585540771,0.013721108436584473,-0.012655792757868767,-0.2364584058523178,0.9714623093605042,0.0,0.0,0.0,0.0,0.0,0.0
9834,1724558910857552331,-1.8027565479278564,0.4135490953922272,0.17124104499816895,0.01332548726350069,-0.01349569670855999,-0.23663827776908875,0.9714126586914062,0.0,0.0,0.0,0.0,0.0,0.0
9836,1724558910867324869,-1.8023871183395386,0.4131346642971039,0.17138633131980896,0.01425038930028677,-0.013194616883993149,-0.2369581013917923,0.9713257551193237,0.0,0.0,0.0,0.0,0.0,0.0
9838,1724558910878228018,-1.801997184753418,0.41278553009033203,0.17152126133441925,0.015225940383970737,-0.01289991196244955,-0.23729364573955536,0.9712329506874084,0.0,0.0,0.0,0.0,0.0,0.0
9840,1724558910887585597,-1.8017194271087646,0.4126512110233307,0.17223036289215088,0.017960574477910995,-0.009648039005696774,-0.23818662762641907,0.9710054993629456,0.0,0.0,0.0,0.0,0.0,0.0
9842,1724558910903335969,-1.801354169845581,0.41255584359169006,0.17228147387504578,0.01769428513944149,-0.008128171786665916,-0.23928901553153992,0.9707531929016113,0.0,0.0,0.0,0.0,0.0,0.0
9844,1724558910908144235,-1.80092191696167,0.41218915581703186,0.1717730313539505,0.017296766862273216,-0.007707105949521065,-0.2395542860031128,0.970698356628418,0.0,0.0,0.0,0.0,0.0,0.0
9846,1724558910917547684,-1.8005348443984985,0.4119110107421875,0.17154790461063385,0.01763613149523735,-0.006852256134152412,-0.239825040102005,0.9706317186355591,0.0,0.0,0.0,0.0,0.0,0.0
9848,1724558910932865854,-1.8001465797424316,0.4114566743373871,0.17080157995224,0.01697547733783722,-0.008022948168218136,-0.24000342190265656,0.9705905318260193,0.0,0.0,0.0,0.0,0.0,0.0
9850,1724558910937326143,-1.7997463941574097,0.41114091873168945,0.17030377686023712,0.016959063708782196,-0.008349386975169182,-0.23955726623535156,0.9706982374191284,0.0,0.0,0.0,0.0,0.0,0.0
9852,1724558910951753737,-1.7995219230651855,0.4110821783542633,0.17120979726314545,0.020841889083385468,-0.0034572777803987265,-0.24090051651000977,0.970319926738739,0.0,0.0,0.0,0.0,0.0,0.0
9854,1724558910957427997,-1.7991472482681274,0.4107089936733246,0.17105118930339813,0.02149149216711521,-0.002981066470965743,-0.24084307253360748,0.970321536064148,0.0,0.0,0.0,0.0,0.0,0.0
9856,1724558910983003512,-1.798723816871643,0.4103021025657654,0.17055705189704895,0.020909776911139488,-0.0032354749273508787,-0.24067910015583038,0.9703741669654846,0.0,0.0,0.0,0.0,0.0,0.0
9858,1724558910983818160,-1.7982585430145264,0.4099845588207245,0.17022466659545898,0.02137085236608982,-0.0024388607125729322,-0.24090273678302765,0.9703108668327332,0.0,0.0,0.0,0.0,0.0,0.0
9860,1724558911007076206,-1.7978652715682983,0.40957123041152954,0.1697906255722046,0.021401794627308846,-0.002089507644996047,-0.24139894545078278,0.9701877236366272,0.0,0.0,0.0,0.0,0.0,0.0
9862,1724558911007403872,-1.7974541187286377,0.4091970920562744,0.16935408115386963,0.02195463329553604,-0.0010829324601218104,-0.24154241383075714,0.9701412916183472,0.0,0.0,0.0,0.0,0.0,0.0
9864,1724558911007696589,-1.79704749584198,0.40883752703666687,0.16875647008419037,0.020927881821990013,-0.0029734233394265175,-0.24206684529781342,0.970029354095459,0.0,0.0,0.0,0.0,0.0,0.0
9866,1724558911017884189,-1.796680212020874,0.4086885154247284,0.1692480444908142,0.022362247109413147,-0.001140341511927545,-0.24269706010818481,0.9698437452316284,0.0,0.0,0.0,0.0,0.0,0.0
9868,1724558911076798429,-1.7962393760681152,0.4082372486591339,0.16889336705207825,0.021595923230051994,-0.0016490116249769926,-0.2429247498512268,0.9698033332824707,0.0,0.0,0.0,0.0,0.0,0.0
9870,1724558911077201955,-1.7957922220230103,0.4077357351779938,0.1684243232011795,0.02069702371954918,-0.002276112325489521,-0.24304617941379547,0.9697912335395813,0.0,0.0,0.0,0.0,0.0,0.0
9872,1724558911077506983,-1.7954251766204834,0.4074580669403076,0.16932345926761627,0.02378772385418415,0.0004203888529445976,-0.24362145364284515,0.9695785641670227,0.0,0.0,0.0,0.0,0.0,0.0
9874,1724558911077857570,-1.7950239181518555,0.40689191222190857,0.16901053488254547,0.023449841886758804,-0.00012991673429496586,-0.24346446990966797,0.9696263670921326,0.0,0.0,0.0,0.0,0.0,0.0
9876,1724558911078174355,-1.7946696281433105,0.4065772593021393,0.16910001635551453,0.024364501237869263,0.0011992286890745163,-0.2441369742155075,0.9694339632987976,0.0,0.0,0.0,0.0,0.0,0.0
9878,1724558911081358715,-1.7943363189697266,0.40605032444000244,0.1688779890537262,0.024373063817620277,0.0013339328579604626,-0.2445424497127533,0.9693313241004944,0.0,0.0,0.0,0.0,0.0,0.0
9880,1724558911087528910,-1.7939326763153076,0.4055439829826355,0.16857166588306427,0.02448061853647232,0.0014676222344860435,-0.24467261135578156,0.9692956209182739,0.0,0.0,0.0,0.0,0.0,0.0
9882,1724558911097408080,-1.7934613227844238,0.40491554141044617,0.16789723932743073,0.023366672918200493,0.0006631537689827383,-0.2449508160352707,0.9692537188529968,0.0,0.0,0.0,0.0,0.0,0.0
9884,1724558911108218393,-1.793038010597229,0.4046056270599365,0.16823731362819672,0.02478335052728653,0.0021133963018655777,-0.24602818489074707,0.9689435362815857,0.0,0.0,0.0,0.0,0.0,0.0
9886,1724558911117089334,-1.7925922870635986,0.4040975272655487,0.16812384128570557,0.02638244442641735,0.004505888558924198,-0.24660171568393707,0.9687472581863403,0.0,0.0,0.0,0.0,0.0,0.0
9888,1724558911128538988,-1.792160153388977,0.4038025140762329,0.16895949840545654,0.02915080636739731,0.007473703008145094,-0.24777387082576752,0.9683504700660706,0.0,0.0,0.0,0.0,0.0,0.0
9890,1724558911137226564,-1.7916468381881714,0.40342631936073303,0.16863733530044556,0.02823798544704914,0.006860938388854265,-0.24816104769706726,0.9682828187942505,0.0,0.0,0.0,0.0,0.0,0.0
9892,1724558911147714349,-1.7910897731781006,0.4029393196105957,0.1682344228029251,0.027668757364153862,0.006110723130404949,-0.24836957454681396,0.9682508707046509,0.0,0.0,0.0,0.0,0.0,0.0
9894,1724558911157525309,-1.7904417514801025,0.402463436126709,0.16761593520641327,0.02581026405096054,0.002849990501999855,-0.2489057332277298,0.9681795835494995,0.0,0.0,0.0,0.0,0.0,0.0
9896,1724558911167313392,-1.7899901866912842,0.4022027850151062,0.1677194982767105,0.02715010568499565,0.004284950438886881,-0.24964232742786407,0.9679479002952576,0.0,0.0,0.0,0.0,0.0,0.0
9898,1724558911178453538,-1.789650559425354,0.40206030011177063,0.16827261447906494,0.028901495039463043,0.0063446806743741035,-0.2513088285923004,0.9674545526504517,0.0,0.0,0.0,0.0,0.0,0.0
9900,1724558911187293110,-1.789168357849121,0.40180012583732605,0.1682857722043991,0.028938408941030502,0.006130951922386885,-0.2514418959617615,0.967420220375061,0.0,0.0,0.0,0.0,0.0,0.0
9902,1724558911197707241,-1.7887030839920044,0.4013572335243225,0.16802361607551575,0.02922610193490982,0.0071603888645768166,-0.25098803639411926,0.9675224423408508,0.0,0.0,0.0,0.0,0.0,0.0
9904,1724558911207267166,-1.7882379293441772,0.401093989610672,0.1678389310836792,0.029184823855757713,0.006773995701223612,-0.2510221302509308,0.967517614364624,0.0,0.0,0.0,0.0,0.0,0.0
9906,1724558911217277126,-1.7878303527832031,0.4008494019508362,0.16790103912353516,0.02979583851993084,0.007188289891928434,-0.25181272625923157,0.967290461063385,0.0,0.0,0.0,0.0,0.0,0.0
9908,1724558911228014623,-1.7873808145523071,0.4007522463798523,0.16801868379116058,0.030016139149665833,0.007120083551853895,-0.2521069049835205,0.9672076106071472,0.0,0.0,0.0,0.0,0.0,0.0
9910,1724558911236894585,-1.7869627475738525,0.4006328284740448,0.16775663197040558,0.029147319495677948,0.0064864810556173325,-0.25246262550354004,0.9671458005905151,0.0,0.0,0.0,0.0,0.0,0.0
9912,1724558911247100048,-1.7864981889724731,0.40038496255874634,0.1668454259634018,0.026452526450157166,0.002811681479215622,-0.25336968898773193,0.9670037031173706,0.0,0.0,0.0,0.0,0.0,0.0
9914,1724558911257362827,-1.7861121892929077,0.4004998803138733,0.16727812588214874,0.027899567037820816,0.004049852956086397,-0.25399506092071533,0.9667946100234985,0.0,0.0,0.0,0.0,0.0,0.0
9916,1724558911267280826,-1.7857813835144043,0.4005280137062073,0.16768816113471985,0.02917417325079441,0.005515549331903458,-0.25501683354377747,0.9664807319641113,0.0,0.0,0.0,0.0,0.0,0.0
9918,1724558911277951498,-1.7854222059249878,0.40051165223121643,0.16793622076511383,0.029497025534510612,0.006727947387844324,-0.2558329105377197,0.96624755859375,0.0,0.0,0.0,0.0,0.0,0.0
9920,1724558911287662700,-1.7850643396377563,0.4003046751022339,0.16783231496810913,0.029686249792575836,0.008233664557337761,-0.256273478269577,0.9661133885383606,0.0,0.0,0.0,0.0,0.0,0.0
9922,1724558911300837628,-1.7846876382827759,0.4003736674785614,0.16809053719043732,0.030020682141184807,0.008429020643234253,-0.25643783807754517,0.9660576581954956,0.0,0.0,0.0,0.0,0.0,0.0
9924,1724558911308402044,-1.7842873334884644,0.4003675580024719,0.1681482344865799,0.030018679797649384,0.007847043685615063,-0.2567591071128845,0.9659773111343384,0.0,0.0,0.0,0.0,0.0,0.0
9926,1724558911317300004,-1.7838608026504517,0.40032169222831726,0.16835063695907593,0.030412854626774788,0.007979195564985275,-0.2570134401321411,0.9658962488174438,0.0,0.0,0.0,0.0,0.0,0.0
9928,1724558911338626941,-1.783422589302063,0.40024298429489136,0.16850091516971588,0.030833430588245392,0.008372291922569275,-0.2572990953922272,0.9658035039901733,0.0,0.0,0.0,0.0,0.0,0.0
9930,1724558911339228930,-1.7829731702804565,0.4005067050457001,0.16896842420101166,0.03184117376804352,0.009338215924799442,-0.2581670582294464,0.9655303359031677,0.0,0.0,0.0,0.0,0.0,0.0
9932,1724558911347523431,-1.78240168094635,0.40015506744384766,0.16716577112674713,0.02701292373239994,0.003054082626476884,-0.257852703332901,0.9658017158508301,0.0,0.0,0.0,0.0,0.0,0.0
9934,1724558911357723492,-1.7819314002990723,0.40028709173202515,0.16703423857688904,0.02677612006664276,0.002478179754689336,-0.2579534649848938,0.9657830595970154,0.0,0.0,0.0,0.0,0.0,0.0
9936,1724558911367516420,-1.7815215587615967,0.4007607698440552,0.16781514883041382,0.029130367562174797,0.005420593079179525,-0.25982195138931274,0.9652018547058105,0.0,0.0,0.0,0.0,0.0,0.0
9938,1724558911379008397,-1.781125783920288,0.40100181102752686,0.1684357225894928,0.03118697553873062,0.00851159542798996,-0.26119181513786316,0.9647455215454102,0.0,0.0,0.0,0.0,0.0,0.0
9940,1724558911387168094,-1.780633807182312,0.4011012613773346,0.1685343086719513,0.030890364199876785,0.009175158105790615,-0.26198315620422363,0.964534342288971,0.0,0.0,0.0,0.0,0.0,0.0
9942,1724558911397603927,-1.7801015377044678,0.4011344015598297,0.16813711822032928,0.02944674715399742,0.007850121706724167,-0.26202014088630676,0.9645811915397644,0.0,0.0,0.0,0.0,0.0,0.0
9944,1724558911407352180,-1.7795860767364502,0.4010683596134186,0.1673608273267746,0.02719699777662754,0.005023532547056675,-0.2614878714084625,0.9648104906082153,0.0,0.0,0.0,0.0,0.0,0.0
9946,1724558911417186236,-1.779092788696289,0.4012402296066284,0.16752320528030396,0.027810487896203995,0.004599126987159252,-0.26199883222579956,0.9646565318107605,0.0,0.0,0.0,0.0,0.0,0.0
9948,1724558911428218138,-1.7785884141921997,0.40128448605537415,0.16768711805343628,0.029290463775396347,0.005441939923912287,-0.2629033923149109,0.9643621444702148,0.0,0.0,0.0,0.0,0.0,0.0
9950,1724558911438408636,-1.7781211137771606,0.4013653099536896,0.1679227650165558,0.029583733528852463,0.005642988253384829,-0.26326224207878113,0.9642541408538818,0.0,0.0,0.0,0.0,0.0,0.0
9952,1724558911448154367,-1.7776780128479004,0.401443749666214,0.16849999129772186,0.030838660895824432,0.008134813979268074,-0.2635499835014343,0.9641183614730835,0.0,0.0,0.0,0.0,0.0,0.0
9954,1724558911457272122,-1.7772736549377441,0.4018581211566925,0.16897861659526825,0.03016805648803711,0.009630431421101093,-0.2646070718765259,0.9638363122940063,0.0,0.0,0.0,0.0,0.0,0.0
9956,1724558911467953727,-1.776772141456604,0.40200719237327576,0.16905629634857178,0.02957681566476822,0.010387959890067577,-0.26537829637527466,0.9636346101760864,0.0,0.0,0.0,0.0,0.0,0.0
9958,1724558911478053954,-1.7761996984481812,0.4020823836326599,0.16869230568408966,0.028756992891430855,0.009678034111857414,-0.26580101251602173,0.9635503888130188,0.0,0.0,0.0,0.0,0.0,0.0
9960,1724558911487212387,-1.775544285774231,0.40209609270095825,0.16803056001663208,0.026722868904471397,0.006219998002052307,-0.26616746187210083,0.963536262512207,0.0,0.0,0.0,0.0,0.0,0.0
9962,1724558911498808309,-1.774958848953247,0.4021742343902588,0.16794447600841522,0.0271111112087965,0.004988479893654585,-0.2664535641670227,0.963453471660614,0.0,0.0,0.0,0.0,0.0,0.0
9964,1724558911507198637,-1.7744261026382446,0.40221285820007324,0.16765578091144562,0.02733507566154003,0.004483595956116915,-0.26713839173316956,0.9632600545883179,0.0,0.0,0.0,0.0,0.0,0.0
9966,1724558911518078561,-1.7740578651428223,0.402467280626297,0.16818982362747192,0.02868385799229145,0.0057595232501626015,-0.268377423286438,0.9628695249557495,0.0,0.0,0.0,0.0,0.0,0.0
9968,1724558911533244412,-1.7736278772354126,0.4025880992412567,0.16826121509075165,0.028785932809114456,0.006525197997689247,-0.26940375566482544,0.9625749588012695,0.0,0.0,0.0,0.0,0.0,0.0
9970,1724558911537036398,-1.7731283903121948,0.40255460143089294,0.1677328199148178,0.025249719619750977,0.006828733254224062,-0.26925379037857056,0.9627140760421753,0.0,0.0,0.0,0.0,0.0,0.0
9972,1724558911547301611,-1.772683024406433,0.40284210443496704,0.16839538514614105,0.026068629696965218,0.007713575381785631,-0.26939165592193604,0.9626469016075134,0.0,0.0,0.0,0.0,0.0,0.0
9974,1724558911561099380,-1.7722028493881226,0.4030455946922302,0.16848193109035492,0.02535107545554638,0.006961938459426165,-0.26930001378059387,0.9626975059509277,0.0,0.0,0.0,0.0,0.0,0.0
9976,1724558911569085511,-1.7716889381408691,0.4030969440937042,0.16859523952007294,0.027454819530248642,0.006928714457899332,-0.269609272480011,0.9625534415245056,0.0,0.0,0.0,0.0,0.0,0.0
9978,1724558911585659140,-1.7711670398712158,0.40295282006263733,0.16752839088439941,0.024454258382320404,0.002126879058778286,-0.27006250619888306,0.9625298380851746,0.0,0.0,0.0,0.0,0.0,0.0
9980,1724558911587221497,-1.7707059383392334,0.40304768085479736,0.16760289669036865,0.025383414700627327,0.0021842243149876595,-0.2706161439418793,0.9623501300811768,0.0,0.0,0.0,0.0,0.0,0.0
9982,1724558911599457170,-1.7703262567520142,0.40324628353118896,0.16797423362731934,0.027291269972920418,0.003783291671425104,-0.2719513773918152,0.9619165658950806,0.0,0.0,0.0,0.0,0.0,0.0
9984,1724558911607980023,-1.7699147462844849,0.4032718241214752,0.16783511638641357,0.027363291010260582,0.0038258282002061605,-0.27281779050827026,0.9616689085960388,0.0,0.0,0.0,0.0,0.0,0.0
9986,1724558911618042118,-1.7695971727371216,0.40331631898880005,0.16808871924877167,0.028437113389372826,0.005302126053720713,-0.27422085404396057,0.9612316489219666,0.0,0.0,0.0,0.0,0.0,0.0
9988,1724558911649129697,-1.76918625831604,0.4031911790370941,0.16754117608070374,0.027037709951400757,0.003783499589189887,-0.2744084298610687,0.9612256288528442,0.0,0.0,0.0,0.0,0.0,0.0
9990,1724558911649753897,-1.768898367881775,0.4035066068172455,0.16876347362995148,0.02971641533076763,0.006624904461205006,-0.2757241129875183,0.9607545733451843,0.0,0.0,0.0,0.0,0.0,0.0
9992,1724558911650027892,-1.7684626579284668,0.40350911021232605,0.16887512803077698,0.029660118743777275,0.006773798726499081,-0.27607402205467224,0.9606547355651855,0.0,0.0,0.0,0.0,0.0,0.0
9994,1724558911657515716,-1.7679654359817505,0.4033866822719574,0.16862908005714417,0.028574973344802856,0.0061700777150690556,-0.27607589960098267,0.9606911540031433,0.0,0.0,0.0,0.0,0.0,0.0
9996,1724558911667205930,-1.7675167322158813,0.40334463119506836,0.16882434487342834,0.028739765286445618,0.006473880726844072,-0.2765573561191559,0.9605457186698914,0.0,0.0,0.0,0.0,0.0,0.0
9998,1724558911678562476,-1.767099142074585,0.4032696485519409,0.16887560486793518,0.028924573212862015,0.006076624616980553,-0.2768979072570801,0.9604447484016418,0.0,0.0,0.0,0.0,0.0,0.0
10000,1724558911687269320,-1.7666584253311157,0.40314891934394836,0.16854728758335114,0.02819894813001156,0.00459551066160202,-0.27687856554985046,0.9604801535606384,0.0,0.0,0.0,0.0,0.0,0.0
10002,1724558911697353739,-1.7662321329116821,0.4031657874584198,0.1688556969165802,0.029099034145474434,0.005097581073641777,-0.27778810262680054,0.9601880311965942,0.0,0.0,0.0,0.0,0.0,0.0
10004,1724558911709345185,-1.7658288478851318,0.40328365564346313,0.16957327723503113,0.03129999339580536,0.008007255382835865,-0.2787109911441803,0.9598315358161926,0.0,0.0,0.0,0.0,0.0,0.0
10006,1724558911718533027,-1.7652978897094727,0.4034055769443512,0.16971617937088013,0.030084028840065002,0.004732461180537939,-0.27798542380332947,0.9601024985313416,0.0,0.0,0.0,0.0,0.0,0.0
10008,1724558911735030307,-1.7648541927337646,0.40361398458480835,0.17015646398067474,0.02920246683061123,0.004491177853196859,-0.27985572814941406,0.9595873951911926,0.0,0.0,0.0,0.0,0.0,0.0
10010,1724558911737164965,-1.7642722129821777,0.40364688634872437,0.16979187726974487,0.027063487097620964,0.0018880245042964816,-0.27959150075912476,0.9597356915473938,0.0,0.0,0.0,0.0,0.0,0.0
10012,1724558911748783152,-1.763720989227295,0.40365713834762573,0.16964426636695862,0.026213830336928368,0.0008555761887691915,-0.2797165513038635,0.9597243666648865,0.0,0.0,0.0,0.0,0.0,0.0
10014,1724558911757524170,-1.7631747722625732,0.4037003219127655,0.17027853429317474,0.02929496206343174,0.005074663087725639,-0.2811166048049927,0.9592129588127136,0.0,0.0,0.0,0.0,0.0,0.0
10016,1724558911768062661,-1.7625946998596191,0.4038097560405731,0.17030298709869385,0.02984144352376461,0.00506068579852581,-0.2816374599933624,0.9590434432029724,0.0,0.0,0.0,0.0,0.0,0.0
10018,1724558911778432557,-1.7620106935501099,0.4038577675819397,0.17005860805511475,0.02907516062259674,0.00358414719812572,-0.28170648217201233,0.9590533971786499,0.0,0.0,0.0,0.0,0.0,0.0
10020,1724558911788048191,-1.7615113258361816,0.40397945046424866,0.17019017040729523,0.02987796999514103,0.003241191618144512,-0.28216293454170227,0.958895742893219,0.0,0.0,0.0,0.0,0.0,0.0
10022,1724558911800628516,-1.761069655418396,0.40415719151496887,0.17046168446540833,0.030700987204909325,0.002994237467646599,-0.283128023147583,0.9585859775543213,0.0,0.0,0.0,0.0,0.0,0.0
10024,1724558911807257541,-1.7605559825897217,0.4040589928627014,0.17023974657058716,0.03074057400226593,0.002758864313364029,-0.2840386927127838,0.958315908908844,0.0,0.0,0.0,0.0,0.0,0.0
10026,1724558911817342305,-1.7600479125976562,0.4041699767112732,0.1706937849521637,0.03131160885095596,0.0034072529524564743,-0.28472501039505005,0.958091676235199,0.0,0.0,0.0,0.0,0.0,0.0
10028,1724558911873957599,-1.7595875263214111,0.4043574035167694,0.17144803702831268,0.03230905905365944,0.00570499524474144,-0.2854154706001282,0.9578421711921692,0.0,0.0,0.0,0.0,0.0,0.0
10030,1724558911874678750,-1.7591521739959717,0.40455350279808044,0.17231233417987823,0.033045120537281036,0.007731268648058176,-0.28569820523262024,0.957718551158905,0.0,0.0,0.0,0.0,0.0,0.0
10032,1724558911875171148,-1.7585248947143555,0.404239684343338,0.17086555063724518,0.029760368168354034,0.004397562239319086,-0.28489649295806885,0.9580860733985901,0.0,0.0,0.0,0.0,0.0,0.0
10034,1724558911875436022,-1.7579596042633057,0.4043489098548889,0.17106761038303375,0.030415624380111694,0.004138456657528877,-0.28483855724334717,0.9580839276313782,0.0,0.0,0.0,0.0,0.0,0.0
10036,1724558911875749246,-1.7574458122253418,0.40447673201560974,0.17128340899944305,0.03164702281355858,0.0038974550552666187,-0.2850833833217621,0.9579722881317139,0.0,0.0,0.0,0.0,0.0,0.0
10038,1724558911878632765,-1.757009744644165,0.4042907655239105,0.17097894847393036,0.03135722503066063,0.0029994305223226547,-0.2839794456958771,0.9583128690719604,0.0,0.0,0.0,0.0,0.0,0.0
10040,1724558911887105948,-1.7565903663635254,0.4045904278755188,0.17134320735931396,0.03382030501961708,0.005792546551674604,-0.28478339314460754,0.9579776525497437,0.0,0.0,0.0,0.0,0.0,0.0
10042,1724558911897941140,-1.7562932968139648,0.40494948625564575,0.1721622347831726,0.035336777567863464,0.0072180042043328285,-0.286199688911438,0.9574909806251526,0.0,0.0,0.0,0.0,0.0,0.0
10044,1724558911907525677,-1.7560310363769531,0.40498366951942444,0.17202816903591156,0.034668125212192535,0.00674649141728878,-0.28623488545417786,0.9575083255767822,0.0,0.0,0.0,0.0,0.0,0.0
10046,1724558911919123156,-1.7556999921798706,0.4054904580116272,0.17319749295711517,0.03511612489819527,0.00596008962020278,-0.2871182858943939,0.9572327733039856,0.0,0.0,0.0,0.0,0.0,0.0
10048,1724558911929801814,-1.7554254531860352,0.40529555082321167,0.17269746959209442,0.035942770540714264,0.007761927787214518,-0.2868463695049286,0.957270622253418,0.0,0.0,0.0,0.0,0.0,0.0
10050,1724558911938370732,-1.7551313638687134,0.40561121702194214,0.1734624058008194,0.03688804805278778,0.006280457600951195,-0.28709256649017334,0.9571716785430908,0.0,0.0,0.0,0.0,0.0,0.0
10052,1724558911947858165,-1.7549140453338623,0.4058821499347687,0.1736682653427124,0.03703629598021507,0.006489283870905638,-0.2885148525238037,0.9567369222640991,0.0,0.0,0.0,0.0,0.0,0.0
10054,1724558911958581131,-1.7546470165252686,0.4060254395008087,0.17361848056316376,0.03647783026099205,0.006422653794288635,-0.2886257767677307,0.9567253589630127,0.0,0.0,0.0,0.0,0.0,0.0
10056,1724558911967792056,-1.7544474601745605,0.4060802757740021,0.1736578345298767,0.036428794264793396,0.006226563826203346,-0.2886146605014801,0.9567317962646484,0.0,0.0,0.0,0.0,0.0,0.0
10058,1724558911978788597,-1.754171371459961,0.40617117285728455,0.1737038493156433,0.03713011369109154,0.007684928365051746,-0.2887571156024933,0.9566512703895569,0.0,0.0,0.0,0.0,0.0,0.0
10060,1724558911987813011,-1.754035472869873,0.40561768412590027,0.1720697283744812,0.03353812173008919,0.004126239102333784,-0.2877224087715149,0.9571176171302795,0.0,0.0,0.0,0.0,0.0,0.0
10062,1724558912000981862,-1.7539297342300415,0.4060021936893463,0.17290863394737244,0.03403082489967346,0.0016479977639392018,-0.28766512870788574,0.9571248888969421,0.0,0.0,0.0,0.0,0.0,0.0
10064,1724558912007081678,-1.753817081451416,0.40628519654273987,0.17388872802257538,0.038164496421813965,0.007814720273017883,-0.28946611285209656,0.9563952684402466,0.0,0.0,0.0,0.0,0.0,0.0
10066,1724558912018424430,-1.7538188695907593,0.40579313039779663,0.17252850532531738,0.03494565561413765,0.0057449135929346085,-0.2887420058250427,0.9567517638206482,0.0,0.0,0.0,0.0,0.0,0.0
10068,1724558912029769453,-1.7537400722503662,0.406020849943161,0.1728011965751648,0.03374447673559189,0.0014300276525318623,-0.2871119976043701,0.9573014974594116,0.0,0.0,0.0,0.0,0.0,0.0
10070,1724558912037132902,-1.753638744354248,0.40633097290992737,0.1737859845161438,0.03720755875110626,0.007329652085900307,-0.2889191806316376,0.956602156162262,0.0,0.0,0.0,0.0,0.0,0.0
10072,1724558912047516691,-1.7535851001739502,0.4063642621040344,0.1738942414522171,0.037258800119161606,0.007933927699923515,-0.28908097743988037,0.956546425819397,0.0,0.0,0.0,0.0,0.0,0.0
10074,1724558912057893382,-1.753521203994751,0.40637195110321045,0.17368340492248535,0.03602810576558113,0.007156923413276672,-0.2886051833629608,0.9567433595657349,0.0,0.0,0.0,0.0,0.0,0.0
10076,1724558912067504318,-1.7534600496292114,0.40638306736946106,0.17384253442287445,0.036475829780101776,0.00766759505495429,-0.2887558341026306,0.9566770195960999,0.0,0.0,0.0,0.0,0.0,0.0
10078,1724558912078767019,-1.7534046173095703,0.40640923380851746,0.1738448441028595,0.036581918597221375,0.00770234689116478,-0.28867632150650024,0.956696629524231,0.0,0.0,0.0,0.0,0.0,0.0
10080,1724558912087822319,-1.7533488273620605,0.4064001739025116,0.173728808760643,0.036388326436281204,0.007274416740983725,-0.28862932324409485,0.9567215442657471,0.0,0.0,0.0,0.0,0.0,0.0
10082,1724558912098407282,-1.7533595561981201,0.40579742193222046,0.17226485908031464,0.03346562013030052,0.0048756711184978485,-0.2879479229450226,0.9570487141609192,0.0,0.0,0.0,0.0,0.0,0.0
10084,1724558912147731808,-1.7533071041107178,0.40610650181770325,0.17276065051555634,0.0335475355386734,0.0008022310212254524,-0.2868989408016205,0.9573729634284973,0.0,0.0,0.0,0.0,0.0,0.0
10086,1724558912148002855,-1.7532086372375488,0.4064926505088806,0.17380684614181519,0.03750983253121376,0.0074646868743002415,-0.2891157567501068,0.9565299153327942,0.0,0.0,0.0,0.0,0.0,0.0
10088,1724558912148261981,-1.7531943321228027,0.4065004885196686,0.17375414073467255,0.03722979128360748,0.007375961169600487,-0.28905928134918213,0.9565586447715759,0.0,0.0,0.0,0.0,0.0,0.0
10090,1724558912148534344,-1.7532011270523071,0.40650832653045654,0.1736924648284912,0.036511197686195374,0.006986259948462248,-0.28893736004829407,0.9566260576248169,0.0,0.0,0.0,0.0,0.0,0.0
10092,1724558912148807589,-1.7532000541687012,0.40652796626091003,0.17378944158554077,0.03669863939285278,0.007689966354519129,-0.2890024781227112,0.9565937519073486,0.0,0.0,0.0,0.0,0.0,0.0
10094,1724558912157860741,-1.7531801462173462,0.40654537081718445,0.1738411784172058,0.036645758897066116,0.0078031267039477825,-0.2890286445617676,0.956587016582489,0.0,0.0,0.0,0.0,0.0,0.0
10096,1724558912167301746,-1.7531445026397705,0.4065186381340027,0.17368291318416595,0.03624498471617699,0.007027224637567997,-0.2889018654823303,0.9566465616226196,0.0,0.0,0.0,0.0,0.0,0.0
10098,1724558912180554148,-1.7531158924102783,0.40652433037757874,0.1737263798713684,0.03640469163656235,0.00718484353274107,-0.28895023465156555,0.9566247463226318,0.0,0.0,0.0,0.0,0.0,0.0
10100,1724558912188369826,-1.7530776262283325,0.40651217103004456,0.1735854148864746,0.03608928248286247,0.006538143381476402,-0.2888094484806061,0.956683874130249,0.0,0.0,0.0,0.0,0.0,0.0
10102,1724558912198737287,-1.7530663013458252,0.40654298663139343,0.17370519042015076,0.03669716790318489,0.006989656016230583,-0.2889980673789978,0.956600546836853,0.0,0.0,0.0,0.0,0.0,0.0
10104,1724558912207497950,-1.7530654668807983,0.40656718611717224,0.17385610938072205,0.03688465431332588,0.007684619631618261,-0.2893731892108917,0.9564745426177979,0.0,0.0,0.0,0.0,0.0,0.0
10106,1724558912217309859,-1.7530614137649536,0.4065670669078827,0.17390601336956024,0.03700534254312515,0.00800998229533434,-0.2894017994403839,0.9564586281776428,0.0,0.0,0.0,0.0,0.0,0.0
10108,1724558912228247738,-1.753027319908142,0.4065617620944977,0.17378444969654083,0.0366317555308342,0.007510120514780283,-0.2889532744884491,0.9566126465797424,0.0,0.0,0.0,0.0,0.0,0.0
10110,1724558912237217652,-1.7530269622802734,0.40652334690093994,0.17364445328712463,0.03618026152253151,0.006971077993512154,-0.28888019919395447,0.9566559791564941,0.0,0.0,0.0,0.0,0.0,0.0
10112,1724558912248703794,-1.7530156373977661,0.4065544009208679,0.17378933727741241,0.03639606386423111,0.007533350959420204,-0.28909969329833984,0.9565771818161011,0.0,0.0,0.0,0.0,0.0,0.0
10114,1724558912257356115,-1.7530051469802856,0.40655994415283203,0.17376115918159485,0.03656705841422081,0.007243904285132885,-0.2889775335788727,0.9566099047660828,0.0,0.0,0.0,0.0,0.0,0.0
10116,1724558912268154584,-1.7529985904693604,0.4065476953983307,0.17375889420509338,0.03661534935235977,0.007354533765465021,-0.2890474200248718,0.9565860033035278,0.0,0.0,0.0,0.0,0.0,0.0
10118,1724558912284419285,-1.7529863119125366,0.4065258800983429,0.1737624853849411,0.03669540211558342,0.007454589940607548,-0.2890181243419647,0.9565910696983337,0.0,0.0,0.0,0.0,0.0,0.0
10120,1724558912287254490,-1.7529906034469604,0.40656477212905884,0.17382900416851044,0.03644990175962448,0.0075762225314974785,-0.2891257703304291,0.9565669298171997,0.0,0.0,0.0,0.0,0.0,0.0
10122,1724558912300332164,-1.7529913187026978,0.40655606985092163,0.17371633648872375,0.036144521087408066,0.007106443867087364,-0.2889324426651001,0.9566405415534973,0.0,0.0,0.0,0.0,0.0,0.0
10124,1724558912307340389,-1.7529772520065308,0.4065713882446289,0.17379136383533478,0.036506444215774536,0.007499148603528738,-0.28903284668922424,0.9565934538841248,0.0,0.0,0.0,0.0,0.0,0.0
10126,1724558912318240161,-1.7529706954956055,0.4065822660923004,0.1737726777791977,0.036540817469358444,0.007382531184703112,-0.28892719745635986,0.9566249847412109,0.0,0.0,0.0,0.0,0.0,0.0
10128,1724558912328661874,-1.7529783248901367,0.40660566091537476,0.17382453382015228,0.0366881787776947,0.007533662021160126,-0.28908002376556396,0.9565719366073608,0.0,0.0,0.0,0.0,0.0,0.0
10130,1724558912338015655,-1.7529882192611694,0.40660879015922546,0.17383797466754913,0.03658962622284889,0.007650834042578936,-0.2892298996448517,0.9565294981002808,0.0,0.0,0.0,0.0,0.0,0.0
10132,1724558912348373425,-1.7529940605163574,0.4066009521484375,0.17387999594211578,0.03657807037234306,0.00790428090840578,-0.2892945110797882,0.956508457660675,0.0,0.0,0.0,0.0,0.0,0.0
10134,1724558912364894581,-1.752994179725647,0.4065941572189331,0.17392316460609436,0.036654889583587646,0.008103197440505028,-0.28919878602027893,0.9565327763557434,0.0,0.0,0.0,0.0,0.0,0.0
10136,1724558912367551810,-1.7530405521392822,0.40597087144851685,0.17245040833950043,0.03347083926200867,0.005634154658764601,-0.2883206307888031,0.9569321870803833,0.0,0.0,0.0,0.0,0.0,0.0
10138,1724558912380259791,-1.7530215978622437,0.406311571598053,0.17294681072235107,0.033315468579530716,0.0017263952177017927,-0.28724226355552673,0.9572768807411194,0.0,0.0,0.0,0.0,0.0,0.0
10140,1724558912387696195,-1.7529903650283813,0.40663036704063416,0.17395634949207306,0.03716183826327324,0.008185968734323978,-0.2894749343395233,0.9564289450645447,0.0,0.0,0.0,0.0,0.0,0.0
10142,1724558912397959068,-1.7529723644256592,0.4066007137298584,0.17389975488185883,0.03690314292907715,0.00788288377225399,-0.2894582152366638,0.9564465284347534,0.0,0.0,0.0,0.0,0.0,0.0
10144,1724558912408311230,-1.7529723644256592,0.40659233927726746,0.17391394078731537,0.03642475605010986,0.007947621867060661,-0.289291650056839,0.9565147161483765,0.0,0.0,0.0,0.0,0.0,0.0
10146,1724558912417963998,-1.7529505491256714,0.40656477212905884,0.17380304634571075,0.036070581525564194,0.007575619965791702,-0.28889143466949463,0.9566521048545837,0.0,0.0,0.0,0.0,0.0,0.0
10148,1724558912429316742,-1.752951741218567,0.40657877922058105,0.17385391891002655,0.03642333298921585,0.008023940026760101,-0.28893405199050903,0.9566222429275513,0.0,0.0,0.0,0.0,0.0,0.0
10150,1724558912438032405,-1.7529553174972534,0.40655291080474854,0.17377731204032898,0.03620467707514763,0.007598296273499727,-0.2889534533023834,0.956628143787384,0.0,0.0,0.0,0.0,0.0,0.0
10152,1724558912447237827,-1.752977728843689,0.40658828616142273,0.1738869845867157,0.036408375948667526,0.008090384304523468,-0.28922268748283386,0.9565349817276001,0.0,0.0,0.0,0.0,0.0,0.0
10154,1724558912460148886,-1.7529714107513428,0.4065742492675781,0.173820361495018,0.03634050861001015,0.008029120042920113,-0.2891484498977661,0.9565606117248535,0.0,0.0,0.0,0.0,0.0,0.0
10156,1724558912467209513,-1.7529627084732056,0.40658730268478394,0.17380477488040924,0.03656406328082085,0.007781012449413538,-0.2890905439853668,0.956571638584137,0.0,0.0,0.0,0.0,0.0,0.0
10158,1724558912479153094,-1.7529606819152832,0.40657755732536316,0.17374595999717712,0.03646431490778923,0.0076048532500863075,-0.28903692960739136,0.9565929770469666,0.0,0.0,0.0,0.0,0.0,0.0
10160,1724558912526031604,-1.7529468536376953,0.40659886598587036,0.17370650172233582,0.0365261547267437,0.007648156490176916,-0.2889551818370819,0.9566150307655334,0.0,0.0,0.0,0.0,0.0,0.0
10162,1724558912526850619,-1.7529230117797852,0.40661758184432983,0.17365051805973053,0.036836400628089905,0.0074774883687496185,-0.2889449894428253,0.9566075205802917,0.0,0.0,0.0,0.0,0.0,0.0
10164,1724558912527169326,-1.7528932094573975,0.406584233045578,0.17337772250175476,0.03653547540307045,0.006218363996595144,-0.288481742143631,0.9567679166793823,0.0,0.0,0.0,0.0,0.0,0.0
10166,1724558912527424931,-1.752895474433899,0.40663033723831177,0.17368550598621368,0.03773261606693268,0.007608799729496241,-0.2889796197414398,0.9565611481666565,0.0,0.0,0.0,0.0,0.0,0.0
10168,1724558912528416383,-1.7529258728027344,0.40601757168769836,0.17208805680274963,0.034791477024555206,0.004518145229667425,-0.2878623604774475,0.9570289254188538,0.0,0.0,0.0,0.0,0.0,0.0
10170,1724558912537793051,-1.7529487609863281,0.40586113929748535,0.17201180756092072,0.0348329097032547,0.004031498450785875,-0.28640925884246826,0.9574655294418335,0.0,0.0,0.0,0.0,0.0,0.0
10172,1724558912547805970,-1.7529218196868896,0.4059818983078003,0.17189085483551025,0.035015810281038284,0.003923741169273853,-0.287479043006897,0.9571386575698853,0.0,0.0,0.0,0.0,0.0,0.0
10174,1724558912557122441,-1.752936601638794,0.4060261845588684,0.1718844324350357,0.03552742302417755,0.00413058465346694,-0.2878546416759491,0.9570059776306152,0.0,0.0,0.0,0.0,0.0,0.0
10176,1724558912568922850,-1.7529376745224,0.4060535430908203,0.1718185544013977,0.035800058394670486,0.004050339572131634,-0.2877640426158905,0.9570234417915344,0.0,0.0,0.0,0.0,0.0,0.0
10178,1724558912577716799,-1.7529255151748657,0.4060252606868744,0.17165857553482056,0.03575266897678375,0.0031291544437408447,-0.28729140758514404,0.9571706056594849,0.0,0.0,0.0,0.0,0.0,0.0
10180,1724558912588290346,-1.752923846244812,0.4060992896556854,0.1717841923236847,0.03676269203424454,0.003406747942790389,-0.287371426820755,0.957107424736023,0.0,0.0,0.0,0.0,0.0,0.0
10182,1724558912597550325,-1.752874732017517,0.406110942363739,0.17162901163101196,0.03723759949207306,0.0026325006037950516,-0.2868201732635498,0.9572567939758301,0.0,0.0,0.0,0.0,0.0,0.0
10184,1724558912607641538,-1.752800703048706,0.40609729290008545,0.1713005006313324,0.03742583096027374,0.0016986147966235876,-0.286212295293808,0.9574335813522339,0.0,0.0,0.0,0.0,0.0,0.0
10186,1724558912617662762,-1.7527329921722412,0.40617635846138,0.17133115231990814,0.0383131206035614,0.0012425489258021116,-0.2857196033000946,0.9575462937355042,0.0,0.0,0.0,0.0,0.0,0.0
10188,1724558912627592736,-1.7525935173034668,0.406377911567688,0.17111407220363617,0.03880505636334419,0.0017535531660541892,-0.285855770111084,0.9574850797653198,0.0,0.0,0.0,0.0,0.0,0.0
10190,1724558912644799880,-1.7524501085281372,0.4066287577152252,0.1710747927427292,0.039202094078063965,0.0023305583745241165,-0.2861311733722687,0.9573854207992554,0.0,0.0,0.0,0.0,0.0,0.0
10192,1724558912647875108,-1.7523131370544434,0.4069046080112457,0.1709308922290802,0.03972802311182022,0.0026473840698599815,-0.28637152910232544,0.9572910070419312,0.0,0.0,0.0,0.0,0.0,0.0
10194,1724558912658179951,-1.7521939277648926,0.40703248977661133,0.17070633172988892,0.04102553799748421,0.003630225546658039,-0.28665193915367126,0.9571491479873657,0.0,0.0,0.0,0.0,0.0,0.0
10196,1724558912667170019,-1.752038836479187,0.40722498297691345,0.17045184969902039,0.04178066551685333,0.002911982359364629,-0.28624287247657776,0.9572412967681885,0.0,0.0,0.0,0.0,0.0,0.0
10198,1724558912711675335,-1.7519303560256958,0.4075862467288971,0.17049148678779602,0.043411027640104294,0.0038215117529034615,-0.2868843972682953,0.9569734930992126,0.0,0.0,0.0,0.0,0.0,0.0
10200,1724558912711953373,-1.7518665790557861,0.4079907238483429,0.17063447833061218,0.04478675127029419,0.0055505456402897835,-0.287902295589447,0.9565958380699158,0.0,0.0,0.0,0.0,0.0,0.0
10202,1724558912712238512,-1.7517894506454468,0.40832820534706116,0.1705022007226944,0.04488992691040039,0.005790579132735729,-0.2881649434566498,0.9565105438232422,0.0,0.0,0.0,0.0,0.0,0.0
10204,1724558912712517923,-1.7516987323760986,0.408623069524765,0.17033253610134125,0.0444607250392437,0.005973214283585548,-0.28829118609428406,0.9564913511276245,0.0,0.0,0.0,0.0,0.0,0.0
10206,1724558912719012990,-1.7515379190444946,0.4089813530445099,0.16946850717067719,0.04165121540427208,-0.0004997015930712223,-0.28690361976623535,0.9570534825325012,0.0,0.0,0.0,0.0,0.0,0.0
10208,1724558912727894511,-1.7513232231140137,0.40944916009902954,0.1693219542503357,0.04212820529937744,0.0027677949983626604,-0.2885041832923889,0.9565474390983582,0.0,0.0,0.0,0.0,0.0,0.0
10210,1724558912737454956,-1.7511659860610962,0.4096587002277374,0.16919812560081482,0.04234011843800545,0.0034106613602489233,-0.2893914580345154,0.9562679529190063,0.0,0.0,0.0,0.0,0.0,0.0
10212,1724558912748276585,-1.751042127609253,0.4097805917263031,0.16890129446983337,0.04213191941380501,0.003211114788427949,-0.2897045910358429,0.9561830163002014,0.0,0.0,0.0,0.0,0.0,0.0
10214,1724558912759564414,-1.7509877681732178,0.4099535048007965,0.16879872977733612,0.0413220040500164,0.0020047808066010475,-0.2895548343658447,0.9562669992446899,0.0,0.0,0.0,0.0,0.0,0.0
10216,1724558912769184661,-1.7509424686431885,0.4099731147289276,0.16921648383140564,0.04472161456942558,0.008461859077215195,-0.29085156321525574,0.955685019493103,0.0,0.0,0.0,0.0,0.0,0.0
10218,1724558912778094234,-1.7508330345153809,0.4098851978778839,0.16803868114948273,0.039784036576747894,0.00660959305241704,-0.2893909811973572,0.9563610553741455,0.0,0.0,0.0,0.0,0.0,0.0
10220,1724558912787355447,-1.750745177268982,0.4103776514530182,0.1681513488292694,0.037596020847558975,0.003390653757378459,-0.28917646408081055,0.9565313458442688,0.0,0.0,0.0,0.0,0.0,0.0
10222,1724558912797703008,-1.7506262063980103,0.41058292984962463,0.16787311434745789,0.03596915304660797,0.002341982675716281,-0.2895437777042389,0.95648592710495,0.0,0.0,0.0,0.0,0.0,0.0
10224,1724558912810089525,-1.7505096197128296,0.41070905327796936,0.16761662065982819,0.034383390098810196,0.0014310507103800774,-0.28965726494789124,0.9565115571022034,0.0,0.0,0.0,0.0,0.0,0.0
10226,1724558912817125971,-1.7503666877746582,0.4108676314353943,0.16792097687721252,0.037733081728219986,0.0024577253498136997,-0.28998470306396484,0.9562840461730957,0.0,0.0,0.0,0.0,0.0,0.0
10228,1724558912831775056,-1.7503548860549927,0.4109015166759491,0.16885770857334137,0.04309278354048729,0.009853597730398178,-0.2915835976600647,0.9555233716964722,0.0,0.0,0.0,0.0,0.0,0.0
10230,1724558912837072419,-1.7502928972244263,0.4107418656349182,0.16787952184677124,0.040707651525735855,0.008342853747308254,-0.2905668318271637,0.955951988697052,0.0,0.0,0.0,0.0,0.0,0.0
10232,1724558912847507961,-1.7502044439315796,0.41078972816467285,0.1676197648048401,0.03984075412154198,0.007743549067527056,-0.2904498875141144,0.9560290575027466,0.0,0.0,0.0,0.0,0.0,0.0
10234,1724558912857268426,-1.7500625848770142,0.4108923077583313,0.1674523651599884,0.039280254393815994,0.007594094146043062,-0.29017356038093567,0.9561373591423035,0.0,0.0,0.0,0.0,0.0,0.0
10236,1724558912894636103,-1.7499518394470215,0.4110490083694458,0.16765141487121582,0.039906539022922516,0.00885517057031393,-0.2907750606536865,0.9559178948402405,0.0,0.0,0.0,0.0,0.0,0.0
10238,1724558912894920470,-1.749855399131775,0.410988986492157,0.16711129248142242,0.03848574310541153,0.008211294189095497,-0.2904285490512848,0.9560872316360474,0.0,0.0,0.0,0.0,0.0,0.0
10240,1724558912895179697,-1.7497674226760864,0.41103944182395935,0.1672748476266861,0.03852635622024536,0.008471480570733547,-0.2900860607624054,0.9561872482299805,0.0,0.0,0.0,0.0,0.0,0.0
10242,1724558912897816134,-1.7497026920318604,0.4110875129699707,0.16727623343467712,0.03788820654153824,0.009076598100364208,-0.2900625169277191,0.9562143087387085,0.0,0.0,0.0,0.0,0.0,0.0
10244,1724558912907302686,-1.7496029138565063,0.41111263632774353,0.16684912145137787,0.03548146411776543,0.0072646792978048325,-0.2904827892780304,0.9561946392059326,0.0,0.0,0.0,0.0,0.0,0.0
10246,1724558912917937430,-1.749528169631958,0.41092899441719055,0.16615740954875946,0.033822741359472275,0.005983246956020594,-0.2898193895816803,0.9564648270606995,0.0,0.0,0.0,0.0,0.0,0.0
10248,1724558912928008507,-1.7494860887527466,0.4109947085380554,0.16614001989364624,0.03364889323711395,0.006672410294413567,-0.29013216495513916,0.9563716053962708,0.0,0.0,0.0,0.0,0.0,0.0
10250,1724558912937905665,-1.7494133710861206,0.41091233491897583,0.1659417748451233,0.03368452191352844,0.006693546660244465,-0.2898114323616028,0.9564674496650696,0.0,0.0,0.0,0.0,0.0,0.0
10252,1724558912948575597,-1.7493702173233032,0.41077181696891785,0.1657184213399887,0.03316974267363548,0.005953575484454632,-0.2892669141292572,0.9566550850868225,0.0,0.0,0.0,0.0,0.0,0.0
10254,1724558912957292464,-1.7493438720703125,0.41071203351020813,0.16572514176368713,0.03309429809451103,0.005966142751276493,-0.28923434019088745,0.9566675424575806,0.0,0.0,0.0,0.0,0.0,0.0
10256,1724558912967637655,-1.7493820190429688,0.4110977053642273,0.1672249138355255,0.03588898107409477,0.0092763751745224,-0.2898317575454712,0.9563595056533813,0.0,0.0,0.0,0.0,0.0,0.0
10258,1724558912978670430,-1.7493613958358765,0.41086769104003906,0.1663157045841217,0.03367915004491806,0.008304469287395477,-0.28992635011672974,0.9564202427864075,0.0,0.0,0.0,0.0,0.0,0.0
10260,1724558912989680856,-1.7493855953216553,0.41100257635116577,0.1668279618024826,0.034170135855674744,0.009228910319507122,-0.289114773273468,0.9566398859024048,0.0,0.0,0.0,0.0,0.0,0.0
10262,1724558913019664915,-1.7493221759796143,0.41090357303619385,0.16572989523410797,0.0320904403924942,0.008728006854653358,-0.28981125354766846,0.9565059542655945,0.0,0.0,0.0,0.0,0.0,0.0
10264,1724558913019994931,-1.7492525577545166,0.4109508991241455,0.16535460948944092,0.03143952041864395,0.00865582562983036,-0.2895408272743225,0.9566100239753723,0.0,0.0,0.0,0.0,0.0,0.0
10266,1724558913020328526,-1.7492084503173828,0.41120555996894836,0.16557443141937256,0.032300177961587906,0.010226922109723091,-0.2897982895374298,0.9564878940582275,0.0,0.0,0.0,0.0,0.0,0.0
10268,1724558913028884625,-1.7491165399551392,0.4114299416542053,0.16592593491077423,0.032347846776247025,0.011799473315477371,-0.2901560366153717,0.9563597440719604,0.0,0.0,0.0,0.0,0.0,0.0
10270,1724558913037667625,-1.7489441633224487,0.41136324405670166,0.16503362357616425,0.02937345765531063,0.010145577602088451,-0.28895679116249084,0.9568376541137695,0.0,0.0,0.0,0.0,0.0,0.0
10272,1724558913047813460,-1.7487019300460815,0.4115515649318695,0.16500678658485413,0.028651973232626915,0.010579508729279041,-0.28873929381370544,0.9569205045700073,0.0,0.0,0.0,0.0,0.0,0.0
10274,1724558913057984842,-1.7483824491500854,0.4116012156009674,0.16446828842163086,0.027031520381569862,0.009416465647518635,-0.2877573072910309,0.9572755098342896,0.0,0.0,0.0,0.0,0.0,0.0
10276,1724558913067804312,-1.74808669090271,0.4118909239768982,0.16439244151115417,0.026780128479003906,0.010341576300561428,-0.28754448890686035,0.9573370218276978,0.0,0.0,0.0,0.0,0.0,0.0
10278,1724558913079041907,-1.7478305101394653,0.41205328702926636,0.16441993415355682,0.026432722806930542,0.011355889029800892,-0.28636935353279114,0.9576873779296875,0.0,0.0,0.0,0.0,0.0,0.0
10280,1724558913087127887,-1.7475289106369019,0.41243645548820496,0.16445738077163696,0.026666222140192986,0.014103041030466557,-0.28668445348739624,0.957550048828125,0.0,0.0,0.0,0.0,0.0,0.0
10282,1724558913097597802,-1.7472654581069946,0.41281574964523315,0.16465333104133606,0.026452990248799324,0.015265616588294506,-0.2867495119571686,0.9575186371803284,0.0,0.0,0.0,0.0,0.0,0.0
10284,1724558913107261138,-1.7469933032989502,0.41311830282211304,0.16468660533428192,0.026314441114664078,0.01565970480442047,-0.286632239818573,0.9575511813163757,0.0,0.0,0.0,0.0,0.0,0.0
10286,1724558913118686426,-1.746814250946045,0.41339635848999023,0.16474278271198273,0.027479881420731544,0.01728292740881443,-0.28676918148994446,0.9574495553970337,0.0,0.0,0.0,0.0,0.0,0.0
10288,1724558913128138251,-1.7466281652450562,0.41355592012405396,0.16462120413780212,0.02754870615899563,0.017054762691259384,-0.28640732169151306,0.9575599431991577,0.0,0.0,0.0,0.0,0.0,0.0
10290,1724558913138393297,-1.7464869022369385,0.41378551721572876,0.16504177451133728,0.028945500031113625,0.018012141808867455,-0.28698813915252686,0.9573272466659546,0.0,0.0,0.0,0.0,0.0,0.0
10292,1724558913148031386,-1.7463992834091187,0.4137822985649109,0.1647949069738388,0.028524640947580338,0.017231877893209457,-0.2866167426109314,0.9574655890464783,0.0,0.0,0.0,0.0,0.0,0.0
10294,1724558913157270285,-1.7462973594665527,0.4135991334915161,0.1644362062215805,0.028297429904341698,0.015903184190392494,-0.28586459159851074,0.9577201008796692,0.0,0.0,0.0,0.0,0.0,0.0
10296,1724558913167314095,-1.746207594871521,0.4135682284832001,0.16423311829566956,0.028421221300959587,0.01463196612894535,-0.28524139523506165,0.9579224586486816,0.0,0.0,0.0,0.0,0.0,0.0
10298,1724558913178368153,-1.7461296319961548,0.4137699604034424,0.1645006388425827,0.029108844697475433,0.014944769442081451,-0.2854229509830475,0.9578428864479065,0.0,0.0,0.0,0.0,0.0,0.0
10300,1724558913212572008,-1.7460951805114746,0.41382667422294617,0.16439896821975708,0.029369838535785675,0.014665343798696995,-0.2855672240257263,0.9577963352203369,0.0,0.0,0.0,0.0,0.0,0.0
10302,1724558913213116107,-1.7460598945617676,0.41376054286956787,0.16367954015731812,0.02866123802959919,0.013955019414424896,-0.2851622402667999,0.9579489827156067,0.0,0.0,0.0,0.0,0.0,0.0
10304,1724558913213469303,-1.7460979223251343,0.41389042139053345,0.16394919157028198,0.02926027402281761,0.014881297014653683,-0.28540968894958496,0.9578432440757751,0.0,0.0,0.0,0.0,0.0,0.0
10306,1724558913218765171,-1.7460752725601196,0.414041131734848,0.16404813528060913,0.029403332620859146,0.014921699650585651,-0.285131573677063,0.9579210877418518,0.0,0.0,0.0,0.0,0.0,0.0
10308,1724558913227698609,-1.7460899353027344,0.414141982793808,0.16393722593784332,0.029525576159358025,0.015422395430505276,-0.284981906414032,0.957953929901123,0.0,0.0,0.0,0.0,0.0,0.0
10310,1724558913237501460,-1.7460682392120361,0.4142531156539917,0.16362105309963226,0.028440743684768677,0.013839295133948326,-0.28546807169914246,0.9578661918640137,0.0,0.0,0.0,0.0,0.0,0.0
10312,1724558913248269012,-1.7460588216781616,0.4140956997871399,0.1632061004638672,0.027527080848813057,0.012578342109918594,-0.2840208411216736,0.9583404064178467,0.0,0.0,0.0,0.0,0.0,0.0
10314,1724558913257399402,-1.7459449768066406,0.41396790742874146,0.1623694747686386,0.02661156840622425,0.011235546320676804,-0.28452274203300476,0.9582340717315674,0.0,0.0,0.0,0.0,0.0,0.0
10316,1724558913267742390,-1.7459696531295776,0.4138127267360687,0.1623772233724594,0.02790197916328907,0.011619825847446918,-0.2838025987148285,0.9584063291549683,0.0,0.0,0.0,0.0,0.0,0.0
10318,1724558913278349996,-1.745951771736145,0.4139256477355957,0.162204310297966,0.028200462460517883,0.011131844483315945,-0.2851256728172302,0.9580106139183044,0.0,0.0,0.0,0.0,0.0,0.0
10320,1724558913288053641,-1.745939016342163,0.4138789474964142,0.16208390891551971,0.028660312294960022,0.010462374426424503,-0.2843572795391083,0.9582327604293823,0.0,0.0,0.0,0.0,0.0,0.0
10322,1724558913298620718,-1.746028184890747,0.4140819013118744,0.16274918615818024,0.030434351414442062,0.012276757508516312,-0.2843865752220154,0.9581478238105774,0.0,0.0,0.0,0.0,0.0,0.0
10324,1724558913307334686,-1.7460094690322876,0.4141768217086792,0.16263946890830994,0.031181013211607933,0.0140131376683712,-0.28463679552078247,0.9580257534980774,0.0,0.0,0.0,0.0,0.0,0.0
10326,1724558913317513708,-1.7460533380508423,0.4143775403499603,0.16338954865932465,0.03284825012087822,0.015419291332364082,-0.2852513790130615,0.9577656388282776,0.0,0.0,0.0,0.0,0.0,0.0
10328,1724558913327600695,-1.746063232421875,0.41499343514442444,0.16430985927581787,0.033382341265678406,0.014481596648693085,-0.28587302565574646,0.957576334476471,0.0,0.0,0.0,0.0,0.0,0.0
10330,1724558913337271949,-1.7460628747940063,0.4151659905910492,0.1641928255558014,0.032333340495824814,0.013408804312348366,-0.28611820936203003,0.9575547575950623,0.0,0.0,0.0,0.0,0.0,0.0
10332,1724558913347695072,-1.7460919618606567,0.41509199142456055,0.16461578011512756,0.034681133925914764,0.017622388899326324,-0.2866925895214081,0.9572324752807617,0.0,0.0,0.0,0.0,0.0,0.0
10334,1724558913357942620,-1.746146559715271,0.4149113893508911,0.16395732760429382,0.033623673021793365,0.01630120351910591,-0.2862011790275574,0.9574407339096069,0.0,0.0,0.0,0.0,0.0,0.0
10336,1724558913369176364,-1.7461225986480713,0.41502606868743896,0.1642075926065445,0.03449798747897148,0.016867272555828094,-0.2866742014884949,0.9572582244873047,0.0,0.0,0.0,0.0,0.0,0.0
10338,1724558913379861388,-1.746145486831665,0.4150276482105255,0.16403664648532867,0.03425219655036926,0.016574114561080933,-0.2869815230369568,0.9571801424026489,0.0,0.0,0.0,0.0,0.0,0.0
10340,1724558913388493700,-1.7461199760437012,0.4151094853878021,0.16405272483825684,0.03439844399690628,0.016560424119234085,-0.28729888796806335,0.9570798873901367,0.0,0.0,0.0,0.0,0.0,0.0
10342,1724558913411777682,-1.7460765838623047,0.4151260554790497,0.16353414952754974,0.03233475983142853,0.014034477062523365,-0.2878090739250183,0.957038938999176,0.0,0.0,0.0,0.0,0.0,0.0
10344,1724558913412159269,-1.7460196018218994,0.4150331914424896,0.16294555366039276,0.031162520870566368,0.012628079392015934,-0.28752365708351135,0.9571831226348877,0.0,0.0,0.0,0.0,0.0,0.0
10346,1724558913417317484,-1.7459383010864258,0.4150877892971039,0.1627359390258789,0.031029269099235535,0.011546891182661057,-0.2871851325035095,0.9573028087615967,0.0,0.0,0.0,0.0,0.0,0.0
10348,1724558913428260580,-1.7458981275558472,0.41519695520401,0.16271542012691498,0.03135049715638161,0.011452963575720787,-0.28745535016059875,0.9572123289108276,0.0,0.0,0.0,0.0,0.0,0.0
10350,1724558913437180249,-1.7458248138427734,0.41541510820388794,0.16256345808506012,0.03140281140804291,0.012082528322935104,-0.2883063554763794,0.9569469094276428,0.0,0.0,0.0,0.0,0.0,0.0
10352,1724558913449942774,-1.745756983757019,0.4155857264995575,0.16269950568675995,0.031777337193489075,0.012672839686274529,-0.28875428438186646,0.9567918181419373,0.0,0.0,0.0,0.0,0.0,0.0
10354,1724558913457087816,-1.745731234550476,0.4155467748641968,0.16238145530223846,0.030712738633155823,0.011505861766636372,-0.2884726822376251,0.9569262862205505,0.0,0.0,0.0,0.0,0.0,0.0
10356,1724558913467454368,-1.7456986904144287,0.4156726002693176,0.1625518947839737,0.03112504631280899,0.012204250320792198,-0.2888043522834778,0.9568042159080505,0.0,0.0,0.0,0.0,0.0,0.0
10358,1724558913480167750,-1.745686411857605,0.41573283076286316,0.1624515801668167,0.03071317821741104,0.01179581694304943,-0.288789302110672,0.9568272829055786,0.0,0.0,0.0,0.0,0.0,0.0
10360,1724558913490321338,-1.7456653118133545,0.41580238938331604,0.16237735748291016,0.030671589076519012,0.01184537261724472,-0.2889794111251831,0.9567705392837524,0.0,0.0,0.0,0.0,0.0,0.0
10362,1724558913498055098,-1.745615839958191,0.41597527265548706,0.16251547634601593,0.0310821570456028,0.012149376794695854,-0.28947287797927856,0.9566043615341187,0.0,0.0,0.0,0.0,0.0,0.0
10364,1724558913507139931,-1.745563268661499,0.4160754084587097,0.16249041259288788,0.031297069042921066,0.01203533448278904,-0.2894660234451294,0.9566008448600769,0.0,0.0,0.0,0.0,0.0,0.0
10366,1724558913518064871,-1.7454510927200317,0.4161009192466736,0.16226738691329956,0.03110714629292488,0.011626936495304108,-0.2894086539745331,0.9566294550895691,0.0,0.0,0.0,0.0,0.0,0.0
10368,1724558913529046863,-1.7453566789627075,0.4162764251232147,0.16245655715465546,0.031820882111787796,0.012240735813975334,-0.28996989130973816,0.9564282894134521,0.0,0.0,0.0,0.0,0.0,0.0
10370,1724558913537172812,-1.7452569007873535,0.4163070619106293,0.16218823194503784,0.031120913103222847,0.010755647905170918,-0.2893581688404083,0.9566543698310852,0.0,0.0,0.0,0.0,0.0,0.0
10372,1724558913549601517,-1.7451426982879639,0.41651076078414917,0.1622931957244873,0.031648799777030945,0.011479244567453861,-0.2901754081249237,0.95638108253479,0.0,0.0,0.0,0.0,0.0,0.0
10374,1724558913557235187,-1.7450352907180786,0.41668614745140076,0.16232524812221527,0.03222356364130974,0.011780676431953907,-0.2906222641468048,0.9562225937843323,0.0,0.0,0.0,0.0,0.0,0.0
10376,1724558913567286007,-1.7449440956115723,0.41692498326301575,0.16253823041915894,0.03297398239374161,0.013050862587988377,-0.29148614406585693,0.955917477607727,0.0,0.0,0.0,0.0,0.0,0.0
10378,1724558913581416527,-1.74486243724823,0.41718924045562744,0.1629524528980255,0.03368864208459854,0.014166814275085926,-0.2922220230102539,0.9556519389152527,0.0,0.0,0.0,0.0,0.0,0.0
10380,1724558913587241180,-1.7447526454925537,0.4171428084373474,0.16286101937294006,0.03275517374277115,0.012996678240597248,-0.29134976863861084,0.9559673070907593,0.0,0.0,0.0,0.0,0.0,0.0
10382,1724558913626584129,-1.7445731163024902,0.41759422421455383,0.1630512923002243,0.031414762139320374,0.009188567288219929,-0.2902534008026123,0.9563899040222168,0.0,0.0,0.0,0.0,0.0,0.0
10384,1724558913626863700,-1.7444226741790771,0.4178597033023834,0.16364845633506775,0.0336514376103878,0.013004704378545284,-0.29185158014297485,0.9557830095291138,0.0,0.0,0.0,0.0,0.0,0.0
10386,1724558913651845264,-1.7442748546600342,0.41795459389686584,0.16369560360908508,0.033649835735559464,0.013424040749669075,-0.2920787036418915,0.955707848072052,0.0,0.0,0.0,0.0,0.0,0.0
10388,1724558913652112972,-1.7441320419311523,0.41798481345176697,0.16349762678146362,0.03290630504488945,0.012798283249139786,-0.2920103073120117,0.9557632803916931,0.0,0.0,0.0,0.0,0.0,0.0
10390,1724558913652376757,-1.7440204620361328,0.418094664812088,0.16358593106269836,0.032687894999980927,0.013292647898197174,-0.2924683094024658,0.9556239247322083,0.0,0.0,0.0,0.0,0.0,0.0
10392,1724558913652640538,-1.7439318895339966,0.4180736243724823,0.16333340108394623,0.031193993985652924,0.011030835099518299,-0.2922412157058716,0.9557721614837646,0.0,0.0,0.0,0.0,0.0,0.0
10394,1724558913657513642,-1.743847370147705,0.41824108362197876,0.16367334127426147,0.03180632367730141,0.011804001405835152,-0.2926088571548462,0.9556301832199097,0.0,0.0,0.0,0.0,0.0,0.0
10396,1724558913668401376,-1.7437419891357422,0.41829752922058105,0.1636895388364792,0.03168712928891182,0.012223000638186932,-0.2928953468799591,0.95554119348526,0.0,0.0,0.0,0.0,0.0,0.0
10398,1724558913679194690,-1.743635654449463,0.4183482229709625,0.16357818245887756,0.03107510320842266,0.011865140870213509,-0.29286307096481323,0.955575704574585,0.0,0.0,0.0,0.0,0.0,0.0
10400,1724558913687568579,-1.7434704303741455,0.41853365302085876,0.16389884054660797,0.032648149877786636,0.014257852919399738,-0.29351747035980225,0.9552896618843079,0.0,0.0,0.0,0.0,0.0,0.0
10402,1724558913697402708,-1.7433682680130005,0.4186793565750122,0.16423383355140686,0.03334089368581772,0.01557692140340805,-0.2941001057624817,0.9550659656524658,0.0,0.0,0.0,0.0,0.0,0.0
10404,1724558913707756812,-1.7432407140731812,0.4187767505645752,0.16419115662574768,0.03305196389555931,0.015568048693239689,-0.29411181807518005,0.9550725221633911,0.0,0.0,0.0,0.0,0.0,0.0
10406,1724558913717427376,-1.7431102991104126,0.41881799697875977,0.16391797363758087,0.03226965665817261,0.014779653400182724,-0.29396694898605347,0.9551564455032349,0.0,0.0,0.0,0.0,0.0,0.0
10408,1724558913728275595,-1.7429695129394531,0.4189126491546631,0.16392245888710022,0.032424069941043854,0.014835868962109089,-0.29420924186706543,0.9550756216049194,0.0,0.0,0.0,0.0,0.0,0.0
10410,1724558913737232744,-1.742830514907837,0.41896119713783264,0.16379742324352264,0.03208039700984955,0.014419094659388065,-0.29429540038108826,0.9550671577453613,0.0,0.0,0.0,0.0,0.0,0.0
10412,1724558913747402333,-1.742681622505188,0.41901758313179016,0.16362906992435455,0.03134753182530403,0.013500719331204891,-0.2940731644630432,0.9551733136177063,0.0,0.0,0.0,0.0,0.0,0.0
10414,1724558913794724225,-1.7425726652145386,0.4190315306186676,0.16355106234550476,0.030968928709626198,0.01312402356415987,-0.2940385341644287,0.9552015662193298,0.0,0.0,0.0,0.0,0.0,0.0
10416,1724558913795102253,-1.7425397634506226,0.4189295470714569,0.1636008769273758,0.0317932665348053,0.014626240357756615,-0.2942471206188202,0.9550884962081909,0.0,0.0,0.0,0.0,0.0,0.0
10418,1724558913795491445,-1.742451786994934,0.4188794791698456,0.163289412856102,0.03080018423497677,0.013540588319301605,-0.2941688299179077,0.9551610946655273,0.0,0.0,0.0,0.0,0.0,0.0
10420,1724558913795860677,-1.7424126863479614,0.41862550377845764,0.16203315556049347,0.02534797042608261,0.01095083262771368,-0.29354438185691833,0.9555466175079346,0.0,0.0,0.0,0.0,0.0,0.0
10422,1724558913797110013,-1.7422782182693481,0.41862428188323975,0.16165338456630707,0.023694675415754318,0.009753388352692127,-0.2932838201522827,0.9556820392608643,0.0,0.0,0.0,0.0,0.0,0.0
10424,1724558913807070224,-1.7421201467514038,0.41884538531303406,0.1618196964263916,0.023470094427466393,0.00980816688388586,-0.2938176095485687,0.9555230140686035,0.0,0.0,0.0,0.0,0.0,0.0
10426,1724558913825319474,-1.741945743560791,0.41911596059799194,0.16207143664360046,0.024062687531113625,0.010557418689131737,-0.2941952049732208,0.9553841352462769,0.0,0.0,0.0,0.0,0.0,0.0
10428,1724558913827931178,-1.741784691810608,0.419050008058548,0.16236872971057892,0.027731765061616898,0.011011823080480099,-0.2929871082305908,0.955650806427002,0.0,0.0,0.0,0.0,0.0,0.0
10430,1724558913837411090,-1.7415671348571777,0.4192240238189697,0.1625409573316574,0.030937176197767258,0.013142484240233898,-0.294352650642395,0.9551056623458862,0.0,0.0,0.0,0.0,0.0,0.0
10432,1724558913847666606,-1.741327166557312,0.4192962050437927,0.16255052387714386,0.03143632039427757,0.013136083260178566,-0.2948954701423645,0.9549219012260437,0.0,0.0,0.0,0.0,0.0,0.0
10434,1724558913859706632,-1.7411220073699951,0.4192456603050232,0.1626632958650589,0.0320013165473938,0.01297729928046465,-0.29506754875183105,0.9548522233963013,0.0,0.0,0.0,0.0,0.0,0.0
10436,1724558913867476492,-1.74090576171875,0.4194440543651581,0.16292503476142883,0.032395776361227036,0.013546277768909931,-0.29545164108276367,0.9547121524810791,0.0,0.0,0.0,0.0,0.0,0.0
10438,1724558913877911430,-1.7406728267669678,0.4194067418575287,0.1627434641122818,0.03180336952209473,0.013195948675274849,-0.2954978942871094,0.9547227025032043,0.0,0.0,0.0,0.0,0.0,0.0
10440,1724558913887000109,-1.7404118776321411,0.4194783866405487,0.16278322041034698,0.03128616139292717,0.013175373896956444,-0.29599618911743164,0.9545857310295105,0.0,0.0,0.0,0.0,0.0,0.0
10442,1724558913898329248,-1.7401129007339478,0.4196524918079376,0.1630200445652008,0.03172402083873749,0.013797265477478504,-0.2965727150440216,0.9543834924697876,0.0,0.0,0.0,0.0,0.0,0.0
10444,1724558913907779974,-1.7398346662521362,0.4200620949268341,0.16387905180454254,0.033576223999261856,0.01609676517546177,-0.2980288565158844,0.9538304209709167,0.0,0.0,0.0,0.0,0.0,0.0
10446,1724558913917649065,-1.739530324935913,0.4203784763813019,0.1642504781484604,0.033332277089357376,0.015599742531776428,-0.2992647886276245,0.953460156917572,0.0,0.0,0.0,0.0,0.0,0.0
10448,1724558913930077358,-1.7391897439956665,0.42043885588645935,0.1642506718635559,0.03311338648200035,0.014911212027072906,-0.2989397346973419,0.9535807371139526,0.0,0.0,0.0,0.0,0.0,0.0
10450,1724558913939465695,-1.7386749982833862,0.4206576943397522,0.16361846029758453,0.0317089669406414,0.009337988682091236,-0.29741424322128296,0.9541762471199036,0.0,0.0,0.0,0.0,0.0,0.0
10452,1724558913947301077,-1.7382714748382568,0.42094966769218445,0.16364601254463196,0.03129073977470398,0.0106651047244668,-0.29897233843803406,0.9536890387535095,0.0,0.0,0.0,0.0,0.0,0.0
10454,1724558913957266516,-1.7378586530685425,0.4213206470012665,0.16390080749988556,0.03143848851323128,0.011690556071698666,-0.3002737760543823,0.9532631635665894,0.0,0.0,0.0,0.0,0.0,0.0
10456,1724558913967737882,-1.7374533414840698,0.4215138256549835,0.16404055058956146,0.031343940645456314,0.012034527957439423,-0.30118030309677124,0.9529759287834167,0.0,0.0,0.0,0.0,0.0,0.0
10458,1724558913987759629,-1.737094759941101,0.4217582046985626,0.16475041210651398,0.03270833194255829,0.014653181657195091,-0.3025055229663849,0.9524735808372498,0.0,0.0,0.0,0.0,0.0,0.0
10460,1724558913988317734,-1.7366347312927246,0.4219812750816345,0.16532482206821442,0.03516995906829834,0.018493318930268288,-0.30350255966186523,0.952001690864563,0.0,0.0,0.0,0.0,0.0,0.0
10462,1724558913997997039,-1.7362630367279053,0.42216071486473083,0.16518056392669678,0.033313434571027756,0.01825479045510292,-0.3038831055164337,0.9519517421722412,0.0,0.0,0.0,0.0,0.0,0.0
10464,1724558914007959927,-1.7358545064926147,0.42229461669921875,0.16510078310966492,0.03264832869172096,0.017583169043064117,-0.3046044409275055,0.9517568945884705,0.0,0.0,0.0,0.0,0.0,0.0
10466,1724558914018185206,-1.7354276180267334,0.42190009355545044,0.16389057040214539,0.030639536678791046,0.014917952939867973,-0.3044758439064026,0.9519102573394775,0.0,0.0,0.0,0.0,0.0,0.0
10468,1724558914028534974,-1.7349382638931274,0.422069251537323,0.1635771244764328,0.030614012852311134,0.013910608366131783,-0.30527952313423157,0.9516689777374268,0.0,0.0,0.0,0.0,0.0,0.0
10470,1724558914037763060,-1.7345033884048462,0.42210087180137634,0.16334044933319092,0.031185703352093697,0.01198155339807272,-0.3039261996746063,0.952109694480896,0.0,0.0,0.0,0.0,0.0,0.0
10472,1724558914048423216,-1.7339885234832764,0.4222983419895172,0.16295938193798065,0.030471576377749443,0.009833218529820442,-0.30507856607437134,0.9517887234687805,0.0,0.0,0.0,0.0,0.0,0.0
10474,1724558914057623338,-1.733538269996643,0.42267560958862305,0.16348908841609955,0.031616684049367905,0.012105733156204224,-0.3069310486316681,0.9511294364929199,0.0,0.0,0.0,0.0,0.0,0.0
10476,1724558914067876451,-1.7330790758132935,0.42310237884521484,0.16436007618904114,0.03288424387574196,0.014978857710957527,-0.3083275556564331,0.9505937099456787,0.0,0.0,0.0,0.0,0.0,0.0
10478,1724558914077897652,-1.7326480150222778,0.4232715666294098,0.16440437734127045,0.031715575605630875,0.014540676027536392,-0.30859318375587463,0.9505540132522583,0.0,0.0,0.0,0.0,0.0,0.0
10480,1724558914087188345,-1.732153058052063,0.42347750067710876,0.16440390050411224,0.03141802176833153,0.014057690277695656,-0.3088122606277466,0.9505000710487366,0.0,0.0,0.0,0.0,0.0,0.0
10482,1724558914099085914,-1.7316726446151733,0.42386502027511597,0.1641494631767273,0.02916909195482731,0.008355206809937954,-0.308028906583786,0.9508930444717407,0.0,0.0,0.0,0.0,0.0,0.0
10484,1724558914109231840,-1.731210708618164,0.4242396652698517,0.16434210538864136,0.030959710478782654,0.010176231153309345,-0.3095536231994629,0.9503233432769775,0.0,0.0,0.0,0.0,0.0,0.0
10486,1724558914117716301,-1.7307672500610352,0.4245774447917938,0.1645279973745346,0.03150737285614014,0.01088824775069952,-0.3106423318386078,0.9499421119689941,0.0,0.0,0.0,0.0,0.0,0.0
10488,1724558914128076506,-1.7303106784820557,0.42497631907463074,0.16513276100158691,0.032886821776628494,0.012915323488414288,-0.31204092502593994,0.9494115114212036,0.0,0.0,0.0,0.0,0.0,0.0
10490,1724558914137683169,-1.7298169136047363,0.4251616597175598,0.1653563231229782,0.03235136345028877,0.013362256810069084,-0.3128792345523834,0.9491477012634277,0.0,0.0,0.0,0.0,0.0,0.0
10492,1724558914147537820,-1.7293648719787598,0.42532452940940857,0.16550078988075256,0.03177236020565033,0.013422742486000061,-0.31302693486213684,0.9491177201271057,0.0,0.0,0.0,0.0,0.0,0.0
10494,1724558914206545412,-1.7288203239440918,0.4255587160587311,0.16573762893676758,0.033029958605766296,0.015795644372701645,-0.3135840594768524,0.948854386806488,0.0,0.0,0.0,0.0,0.0,0.0
10496,1724558914207092702,-1.7284563779830933,0.4252709150314331,0.16472887992858887,0.031003979966044426,0.014800027012825012,-0.3137994110584259,0.948867678642273,0.0,0.0,0.0,0.0,0.0,0.0
10498,1724558914207430776,-1.7279835939407349,0.4255858361721039,0.16520728170871735,0.03219795599579811,0.015901433303952217,-0.31484442949295044,0.9484637975692749,0.0,0.0,0.0,0.0,0.0,0.0
10500,1724558914207763001,-1.7275116443634033,0.42583486437797546,0.1652795970439911,0.03286343067884445,0.015802200883626938,-0.31530049443244934,0.9482911229133606,0.0,0.0,0.0,0.0,0.0,0.0
10502,1724558914208121235,-1.7270935773849487,0.42603158950805664,0.16529500484466553,0.033257462084293365,0.016042109578847885,-0.316329687833786,0.9479304552078247,0.0,0.0,0.0,0.0,0.0,0.0
10504,1724558914208602450,-1.7267613410949707,0.42624926567077637,0.1653386354446411,0.03297760337591171,0.015321065671741962,-0.316824734210968,0.947786808013916,0.0,0.0,0.0,0.0,0.0,0.0
10506,1724558914217227562,-1.7263675928115845,0.42641744017601013,0.16509917378425598,0.03179801255464554,0.014359405264258385,-0.3168196380138397,0.9478438496589661,0.0,0.0,0.0,0.0,0.0,0.0
10508,1724558914228226321,-1.725885033607483,0.42678946256637573,0.1660042256116867,0.032954465597867966,0.015803948044776917,-0.3174842596054077,0.9475589990615845,0.0,0.0,0.0,0.0,0.0,0.0
10510,1724558914237226023,-1.7253868579864502,0.4267738163471222,0.16481885313987732,0.03097986988723278,0.014151406474411488,-0.3185272216796875,0.9473016262054443,0.0,0.0,0.0,0.0,0.0,0.0
10512,1724558914269287389,-1.7247930765151978,0.427471786737442,0.16589364409446716,0.03318168967962265,0.015442462638020515,-0.3195077180862427,0.9468766450881958,0.0,0.0,0.0,0.0,0.0,0.0
10514,1724558914269530872,-1.7244516611099243,0.42767471075057983,0.1661258339881897,0.033037908375263214,0.014521273784339428,-0.32022276520729065,0.9466546773910522,0.0,0.0,0.0,0.0,0.0,0.0
10516,1724558914269792929,-1.7240794897079468,0.42787474393844604,0.166587233543396,0.03400910645723343,0.016340874135494232,-0.32142868638038635,0.9461817741394043,0.0,0.0,0.0,0.0,0.0,0.0
10518,1724558914278927921,-1.7236237525939941,0.42806461453437805,0.16666918992996216,0.033950649201869965,0.01630217395722866,-0.32191023230552673,0.9460208415985107,0.0,0.0,0.0,0.0,0.0,0.0
10520,1724558914289348715,-1.7231062650680542,0.4282122254371643,0.16643302142620087,0.03330302983522415,0.015118241310119629,-0.3219228982925415,0.9460591673851013,0.0,0.0,0.0,0.0,0.0,0.0
10522,1724558914297479577,-1.7225587368011475,0.42839595675468445,0.1664576232433319,0.033620551228523254,0.014715599827468395,-0.32251909375190735,0.94585120677948,0.0,0.0,0.0,0.0,0.0,0.0
10524,1724558914307258982,-1.7219982147216797,0.42860671877861023,0.1665816307067871,0.0338912270963192,0.015051562339067459,-0.3231462836265564,0.9456222057342529,0.0,0.0,0.0,0.0,0.0,0.0
10526,1724558914318445816,-1.721459150314331,0.42877528071403503,0.1666826605796814,0.034960340708494186,0.016226915642619133,-0.323422908782959,0.9454692602157593,0.0,0.0,0.0,0.0,0.0,0.0
10528,1724558914367434405,-1.7209528684616089,0.42897188663482666,0.1666947454214096,0.03493008017539978,0.01614723540842533,-0.32371455430984497,0.9453719854354858,0.0,0.0,0.0,0.0,0.0,0.0
10530,1724558914368108032,-1.7204891443252563,0.4291728436946869,0.16675110161304474,0.03453738987445831,0.016358692198991776,-0.3243778944015503,0.9451553225517273,0.0,0.0,0.0,0.0,0.0,0.0
10532,1724558914368405715,-1.7200417518615723,0.4288542866706848,0.16547325253486633,0.030847903341054916,0.013940040953457355,-0.32485100626945496,0.9451591968536377,0.0,0.0,0.0,0.0,0.0,0.0
10534,1724558914368704673,-1.7194057703018188,0.42926210165023804,0.166214719414711,0.032193973660469055,0.015227420255541801,-0.3261348009109497,0.944652259349823,0.0,0.0,0.0,0.0,0.0,0.0
10536,1724558914369001983,-1.71885347366333,0.42937391996383667,0.16648952662944794,0.03352643549442291,0.016784558072686195,-0.32695165276527405,0.9442970156669617,0.0,0.0,0.0,0.0,0.0,0.0
10538,1724558914377998089,-1.7183172702789307,0.4293400049209595,0.16602349281311035,0.03271402418613434,0.014565053395926952,-0.3265720009803772,0.9444937109947205,0.0,0.0,0.0,0.0,0.0,0.0
10540,1724558914386931560,-1.717505931854248,0.42993465065956116,0.16726583242416382,0.03516560047864914,0.014553808607161045,-0.32811009883880615,0.9438725709915161,0.0,0.0,0.0,0.0,0.0,0.0
10542,1724558914401167421,-1.716939091682434,0.430323988199234,0.16796500980854034,0.03577060624957085,0.019739270210266113,-0.3301793932914734,0.9430335760116577,0.0,0.0,0.0,0.0,0.0,0.0
10544,1724558914407089943,-1.716391921043396,0.4304296374320984,0.1673590987920761,0.03180928900837898,0.01716012693941593,-0.3300687074661255,0.9432647824287415,0.0,0.0,0.0,0.0,0.0,0.0
10546,1724558914417675413,-1.7157349586486816,0.43063247203826904,0.16729485988616943,0.03077002987265587,0.017488058656454086,-0.3305647373199463,0.943119466304779,0.0,0.0,0.0,0.0,0.0,0.0
10548,1724558914427693143,-1.7149347066879272,0.4309614300727844,0.16761255264282227,0.031414274126291275,0.020342852920293808,-0.33078086376190186,0.9429652094841003,0.0,0.0,0.0,0.0,0.0,0.0
10550,1724558914438195419,-1.714102864265442,0.431062251329422,0.16711343824863434,0.02877023257315159,0.017861030995845795,-0.32997334003448486,0.943382740020752,0.0,0.0,0.0,0.0,0.0,0.0
10552,1724558914447255840,-1.7132724523544312,0.4313454031944275,0.16721609234809875,0.029274720698595047,0.01844923198223114,-0.3301052451133728,0.9433097243309021,0.0,0.0,0.0,0.0,0.0,0.0
10554,1724558914457541463,-1.7124894857406616,0.43153974413871765,0.167277529835701,0.028198106214404106,0.018172776326537132,-0.33063337206840515,0.9431629180908203,0.0,0.0,0.0,0.0,0.0,0.0
10556,1724558914470322099,-1.7116401195526123,0.4319658577442169,0.16803792119026184,0.029620975255966187,0.020858095958828926,-0.3317619264125824,0.9426673650741577,0.0,0.0,0.0,0.0,0.0,0.0
10558,1724558914477722780,-1.710864543914795,0.4322807490825653,0.1685594767332077,0.028293780982494354,0.02037631906569004,-0.3316453993320465,0.94275963306427,0.0,0.0,0.0,0.0,0.0,0.0
10560,1724558914487397010,-1.7099809646606445,0.43231678009033203,0.16810894012451172,0.02793494425714016,0.02355497144162655,-0.3324853479862213,0.9424003958702087,0.0,0.0,0.0,0.0,0.0,0.0
10562,1724558914499322847,-1.708953857421875,0.4324933588504791,0.16788175702095032,0.026866061612963676,0.02346881292760372,-0.33245837688446045,0.9424430131912231,0.0,0.0,0.0,0.0,0.0,0.0
10564,1724558914535909519,-1.7080100774765015,0.43293431401252747,0.16840492188930511,0.02802775800228119,0.02611813321709633,-0.33331921696662903,0.9420353770256042,0.0,0.0,0.0,0.0,0.0,0.0
10566,1724558914536667244,-1.7070343494415283,0.43354132771492004,0.17007610201835632,0.032571032643318176,0.030393844470381737,-0.3348691761493683,0.9412108659744263,0.0,0.0,0.0,0.0,0.0,0.0
10568,1724558914537545102,-1.7059996128082275,0.4336453974246979,0.1694863736629486,0.03015214391052723,0.02921222150325775,-0.3347463607788086,0.9413726925849915,0.0,0.0,0.0,0.0,0.0,0.0
10570,1724558914537802189,-1.7048240900039673,0.4343014359474182,0.17021895945072174,0.028032461181282997,0.027289461344480515,-0.33479174971580505,0.9414796829223633,0.0,0.0,0.0,0.0,0.0,0.0
10572,1724558914548179583,-1.7037782669067383,0.4346899688243866,0.17088165879249573,0.028457969427108765,0.031442683190107346,-0.3364354968070984,0.9407511353492737,0.0,0.0,0.0,0.0,0.0,0.0
10574,1724558914557812797,-1.7027076482772827,0.4349091351032257,0.17124031484127045,0.03096753917634487,0.03588861972093582,-0.33771103620529175,0.9400555491447449,0.0,0.0,0.0,0.0,0.0,0.0
10576,1724558914567306587,-1.7014567852020264,0.43528932332992554,0.1717664897441864,0.03025285340845585,0.03541325405240059,-0.3377598822116852,0.9400792121887207,0.0,0.0,0.0,0.0,0.0,0.0
10578,1724558914577841243,-1.7002618312835693,0.43554410338401794,0.17149078845977783,0.027987690642476082,0.03441417217254639,-0.3385036587715149,0.9399189352989197,0.0,0.0,0.0,0.0,0.0,0.0
10580,1724558914589578274,-1.6990314722061157,0.43551990389823914,0.17042700946331024,0.025277014821767807,0.030818160623311996,-0.33637911081314087,0.9408827424049377,0.0,0.0,0.0,0.0,0.0,0.0
10582,1724558914597058771,-1.6977571249008179,0.4358898401260376,0.17020194232463837,0.022210102528333664,0.02759001962840557,-0.335409939289093,0.9414063096046448,0.0,0.0,0.0,0.0,0.0,0.0
10584,1724558914607299745,-1.6963711977005005,0.43683770298957825,0.1719060093164444,0.026204902678728104,0.034497566521167755,-0.34038951992988586,0.9392861127853394,0.0,0.0,0.0,0.0,0.0,0.0
10586,1724558914617477950,-1.695083498954773,0.4371799826622009,0.172339528799057,0.02870679646730423,0.03975376486778259,-0.3416971266269684,0.9385300278663635,0.0,0.0,0.0,0.0,0.0,0.0
10588,1724558914628271579,-1.6938319206237793,0.4373777210712433,0.172242671251297,0.026676466688513756,0.03945189341902733,-0.34163913130760193,0.9386239051818848,0.0,0.0,0.0,0.0,0.0,0.0
10590,1724558914640106525,-1.6924442052841187,0.438103049993515,0.17260858416557312,0.02273554727435112,0.03727049008011818,-0.34207239747047424,0.9386588931083679,0.0,0.0,0.0,0.0,0.0,0.0
10592,1724558914647571611,-1.690951943397522,0.4379534125328064,0.17074573040008545,0.019992899149656296,0.03124159574508667,-0.34055882692337036,0.939491331577301,0.0,0.0,0.0,0.0,0.0,0.0
10594,1724558914657229894,-1.689465880393982,0.4391234517097473,0.172880619764328,0.024760829284787178,0.04012196138501167,-0.3447258174419403,0.9375187158584595,0.0,0.0,0.0,0.0,0.0,0.0
10596,1724558914668334984,-1.6879467964172363,0.43963000178337097,0.17314139008522034,0.02465868555009365,0.04084501415491104,-0.34576523303985596,0.9371073246002197,0.0,0.0,0.0,0.0,0.0,0.0
10598,1724558914678698248,-1.6866339445114136,0.4394986927509308,0.17193785309791565,0.022752616554498672,0.04019318148493767,-0.3438698947429657,0.93788081407547,0.0,0.0,0.0,0.0,0.0,0.0
10600,1724558914687320487,-1.6848704814910889,0.44027867913246155,0.1735534518957138,0.027233758941292763,0.045746855437755585,-0.3468029797077179,0.9364258050918579,0.0,0.0,0.0,0.0,0.0,0.0
10602,1724558914698125934,-1.6835417747497559,0.44058170914649963,0.1724555641412735,0.023160917684435844,0.044704705476760864,-0.3480057120323181,0.9361394643783569,0.0,0.0,0.0,0.0,0.0,0.0
10604,1724558914707385334,-1.6819967031478882,0.44121694564819336,0.1733880192041397,0.019852381199598312,0.040613964200019836,-0.348282128572464,0.9362991452217102,0.0,0.0,0.0,0.0,0.0,0.0
10606,1724558914717365517,-1.6803910732269287,0.44185400009155273,0.173766627907753,0.021831467747688293,0.046331048011779785,-0.34921109676361084,0.9356433153152466,0.0,0.0,0.0,0.0,0.0,0.0
10608,1724558914735772788,-1.6788926124572754,0.4419110119342804,0.17287586629390717,0.01967982016503811,0.04692734032869339,-0.3492200970649719,0.9356579780578613,0.0,0.0,0.0,0.0,0.0,0.0
10610,1724558914737000768,-1.677211046218872,0.4420965015888214,0.17231197655200958,0.017390338703989983,0.04203837737441063,-0.3455735445022583,0.9372882843017578,0.0,0.0,0.0,0.0,0.0,0.0
10612,1724558914747473597,-1.675398588180542,0.44312724471092224,0.17314200103282928,0.017323195934295654,0.04537217319011688,-0.3483940660953522,0.9360891580581665,0.0,0.0,0.0,0.0,0.0,0.0
10614,1724558914763562679,-1.6735364198684692,0.44375577569007874,0.17419518530368805,0.02053389884531498,0.049363669008016586,-0.35140475630760193,0.934695839881897,0.0,0.0,0.0,0.0,0.0,0.0
10616,1724558914768280165,-1.6717529296875,0.4442601501941681,0.17331282794475555,0.017356321215629578,0.04847211018204689,-0.35069698095321655,0.935072660446167,0.0,0.0,0.0,0.0,0.0,0.0
10618,1724558914778211910,-1.669762372970581,0.4449053406715393,0.1739947497844696,0.018401453271508217,0.05181683227419853,-0.35189756751060486,0.9344220161437988,0.0,0.0,0.0,0.0,0.0,0.0
10620,1724558914787231871,-1.6677316427230835,0.4454246461391449,0.1739834100008011,0.018566526472568512,0.054990317672491074,-0.3524998426437378,0.9340102672576904,0.0,0.0,0.0,0.0,0.0,0.0
10622,1724558914797878116,-1.6657713651657104,0.44597673416137695,0.17455467581748962,0.01684741862118244,0.05587591230869293,-0.3533366024494171,0.933674156665802,0.0,0.0,0.0,0.0,0.0,0.0
10624,1724558914807308597,-1.6638356447219849,0.4461982846260071,0.1736914962530136,0.01539598498493433,0.055639032274484634,-0.35245755314826965,0.9340455532073975,0.0,0.0,0.0,0.0,0.0,0.0
10626,1724558914817723014,-1.6616511344909668,0.4469687044620514,0.17359869182109833,0.013303376734256744,0.053672343492507935,-0.3524780869483948,0.9341849088668823,0.0,0.0,0.0,0.0,0.0,0.0
10628,1724558914847335051,-1.6596531867980957,0.4470824599266052,0.17321527004241943,0.014547041617333889,0.056793391704559326,-0.35242635011672974,0.9340014457702637,0.0,0.0,0.0,0.0,0.0,0.0
10630,1724558914847611466,-1.6572096347808838,0.4481735825538635,0.17417286336421967,0.01679275743663311,0.06282582134008408,-0.35620400309562683,0.9321424961090088,0.0,0.0,0.0,0.0,0.0,0.0
10632,1724558914848048843,-1.6553314924240112,0.4484332799911499,0.1729419082403183,0.010068325325846672,0.05752439796924591,-0.3545244336128235,0.9332213401794434,0.0,0.0,0.0,0.0,0.0,0.0
10634,1724558914861878096,-1.653001308441162,0.4490809142589569,0.17385762929916382,0.014793925918638706,0.06333497911691666,-0.35612601041793823,0.9321717023849487,0.0,0.0,0.0,0.0,0.0,0.0
10636,1724558914892748998,-1.6510257720947266,0.4495817720890045,0.17317089438438416,0.010562910698354244,0.0591781847178936,-0.35596442222595215,0.9325640797615051,0.0,0.0,0.0,0.0,0.0,0.0
10638,1724558914893036335,-1.648965835571289,0.44987601041793823,0.17280657589435577,0.010554656386375427,0.06066877767443657,-0.3568609952926636,0.9321256875991821,0.0,0.0,0.0,0.0,0.0,0.0
10640,1724558914893308220,-1.6470328569412231,0.4502004086971283,0.17281658947467804,0.010266226716339588,0.06118691712617874,-0.3575159013271332,0.9318439364433289,0.0,0.0,0.0,0.0,0.0,0.0
10642,1724558914898020057,-1.6449092626571655,0.45096054673194885,0.1741773635149002,0.013005645014345646,0.06574917584657669,-0.36047279834747314,0.9303587675094604,0.0,0.0,0.0,0.0,0.0,0.0
10644,1724558914909151341,-1.6432385444641113,0.4510330259799957,0.173455148935318,0.010684707202017307,0.06380213797092438,-0.35996243357658386,0.9307212829589844,0.0,0.0,0.0,0.0,0.0,0.0
10646,1724558914919852206,-1.6414451599121094,0.4515209197998047,0.17392325401306152,0.010560023598372936,0.06483783572912216,-0.36071541905403137,0.9303595423698425,0.0,0.0,0.0,0.0,0.0,0.0
10648,1724558914930064176,-1.6399211883544922,0.45158690214157104,0.17387966811656952,0.00942609179764986,0.06378109753131866,-0.3611544370651245,0.930274486541748,0.0,0.0,0.0,0.0,0.0,0.0
10650,1724558914937574388,-1.6385490894317627,0.45165058970451355,0.17313842475414276,0.008107592351734638,0.06200289726257324,-0.3595757484436035,0.9310184121131897,0.0,0.0,0.0,0.0,0.0,0.0
10652,1724558914952871727,-1.6371890306472778,0.45165935158729553,0.1730773150920868,0.009375683031976223,0.06364843994379044,-0.3610221743583679,0.9303354620933533,0.0,0.0,0.0,0.0,0.0,0.0
10654,1724558914958307417,-1.6356971263885498,0.451986700296402,0.17385827004909515,0.011730412021279335,0.06747587770223618,-0.36347490549087524,0.9290831089019775,0.0,0.0,0.0,0.0,0.0,0.0
10656,1724558914967365443,-1.6346036195755005,0.4519951641559601,0.17381347715854645,0.01018686406314373,0.06643930822610855,-0.36315497756004333,0.9293011426925659,0.0,0.0,0.0,0.0,0.0,0.0
10658,1724558914981814796,-1.6336019039154053,0.45192578434944153,0.1734672337770462,0.008706998080015182,0.06539355218410492,-0.36258718371391296,0.9296120405197144,0.0,0.0,0.0,0.0,0.0,0.0
10660,1724558914987079623,-1.6327342987060547,0.45161738991737366,0.17286668717861176,0.009486761875450611,0.06603217869997025,-0.3597841262817383,0.9306477308273315,0.0,0.0,0.0,0.0,0.0,0.0
10662,1724558914997799078,-1.6319609880447388,0.4519568383693695,0.17312127351760864,0.006634772289544344,0.06371165812015533,-0.3621229827404022,0.9299268126487732,0.0,0.0,0.0,0.0,0.0,0.0
10664,1724558915007587407,-1.6312308311462402,0.45209142565727234,0.17330077290534973,0.007509187329560518,0.06362205743789673,-0.36339959502220154,0.9294281005859375,0.0,0.0,0.0,0.0,0.0,0.0
10666,1724558915018923383,-1.630704641342163,0.45205768942832947,0.17310279607772827,0.008522100746631622,0.06373471021652222,-0.3635495603084564,0.9293529987335205,0.0,0.0,0.0,0.0,0.0,0.0
10668,1724558915029571228,-1.6304298639297485,0.45200780034065247,0.17303995788097382,0.008590403944253922,0.06295705586671829,-0.36353734135627747,0.9294101595878601,0.0,0.0,0.0,0.0,0.0,0.0
10670,1724558915037101838,-1.6302337646484375,0.4519747793674469,0.17313210666179657,0.009943368844687939,0.06317657977342606,-0.36378711462020874,0.9292840361595154,0.0,0.0,0.0,0.0,0.0,0.0
10672,1724558915047091121,-1.6303887367248535,0.4522038698196411,0.17331580817699432,0.00634304853156209,0.0650634616613388,-0.3641994595527649,0.9290238618850708,0.0,0.0,0.0,0.0,0.0,0.0
10674,1724558915064462289,-1.6304060220718384,0.4520847499370575,0.17331887781620026,0.006529482547193766,0.0645442008972168,-0.363473504781723,0.929343044757843,0.0,0.0,0.0,0.0,0.0,0.0
10676,1724558915107473196,-1.6305482387542725,0.4519346356391907,0.1730407327413559,0.005979019682854414,0.06389058381319046,-0.36237001419067383,0.9298226833343506,0.0,0.0,0.0,0.0,0.0,0.0
10678,1724558915107868804,-1.6306374073028564,0.4519537687301636,0.17320121824741364,0.00611672131344676,0.06428096443414688,-0.3628380000591278,0.9296123385429382,0.0,0.0,0.0,0.0,0.0,0.0
10680,1724558915108236848,-1.6306500434875488,0.45203039050102234,0.17348508536815643,0.006757172755897045,0.06559433788061142,-0.3638436198234558,0.929123044013977,0.0,0.0,0.0,0.0,0.0,0.0
10682,1724558915108556396,-1.6306761503219604,0.45194298028945923,0.1733134537935257,0.006421595346182585,0.06501462310552597,-0.36346912384033203,0.9293127655982971,0.0,0.0,0.0,0.0,0.0,0.0
10684,1724558915108850370,-1.630653977394104,0.4519706070423126,0.1734921634197235,0.00628881948068738,0.06525727361440659,-0.3638615310192108,0.9291430115699768,0.0,0.0,0.0,0.0,0.0,0.0
10686,1724558915117111245,-1.6306432485580444,0.45193222165107727,0.17354725301265717,0.006364978849887848,0.06519278883934021,-0.363824725151062,0.9291614294052124,0.0,0.0,0.0,0.0,0.0,0.0
10688,1724558915135598347,-1.6306676864624023,0.451873242855072,0.17358429729938507,0.006201345473527908,0.06465129554271698,-0.36361780762672424,0.9292813539505005,0.0,0.0,0.0,0.0,0.0,0.0
10690,1724558915137029287,-1.6306076049804688,0.4519045054912567,0.1737610101699829,0.00722764665260911,0.06537280976772308,-0.36391064524650574,0.9291088581085205,0.0,0.0,0.0,0.0,0.0,0.0
10692,1724558915147477044,-1.6306343078613281,0.4519065320491791,0.17380750179290771,0.006792358588427305,0.06549130380153656,-0.36406993865966797,0.9290413856506348,0.0,0.0,0.0,0.0,0.0,0.0
10694,1724558915157501779,-1.630670428276062,0.4518478810787201,0.1738315224647522,0.0071938298642635345,0.0652405172586441,-0.3641224205493927,0.929035484790802,0.0,0.0,0.0,0.0,0.0,0.0
10696,1724558915167661945,-1.6306936740875244,0.4517555832862854,0.1738864630460739,0.007772923447191715,0.0650257095694542,-0.3641446828842163,0.9290371537208557,0.0,0.0,0.0,0.0,0.0,0.0
10698,1724558915177884594,-1.6307108402252197,0.4515834152698517,0.17419660091400146,0.010302899405360222,0.06645702570676804,-0.36458635330200195,0.9287379384040833,0.0,0.0,0.0,0.0,0.0,0.0
10700,1724558915187546847,-1.630776286125183,0.45149123668670654,0.1744474619626999,0.011078691110014915,0.06704841554164886,-0.36489400267601013,0.9285656213760376,0.0,0.0,0.0,0.0,0.0,0.0
10702,1724558915197132468,-1.630858302116394,0.4514506161212921,0.17460386455059052,0.010282361879944801,0.0676884725689888,-0.3650919198989868,0.9284506440162659,0.0,0.0,0.0,0.0,0.0,0.0
10704,1724558915207571268,-1.6309535503387451,0.4513424336910248,0.17466124892234802,0.009352438151836395,0.06763466447591782,-0.364837646484375,0.9285643100738525,0.0,0.0,0.0,0.0,0.0,0.0
10706,1724558915218570472,-1.6310513019561768,0.4511469900608063,0.17469653487205505,0.008601575158536434,0.06700439751148224,-0.36497634649276733,0.9285627603530884,0.0,0.0,0.0,0.0,0.0,0.0
10708,1724558915228240110,-1.6311038732528687,0.45101818442344666,0.17483831942081451,0.008826890029013157,0.06700894981622696,-0.3652433156967163,0.9284553527832031,0.0,0.0,0.0,0.0,0.0,0.0
10710,1724558915237247658,-1.6310518980026245,0.450896680355072,0.17498719692230225,0.009175661019980907,0.06662147492170334,-0.3653440773487091,0.9284401535987854,0.0,0.0,0.0,0.0,0.0,0.0
10712,1724558915247172988,-1.6310551166534424,0.4507749080657959,0.1750708520412445,0.00946088321506977,0.06645026803016663,-0.3656500279903412,0.9283290505409241,0.0,0.0,0.0,0.0,0.0,0.0
10714,1724558915266224216,-1.6309784650802612,0.45065125823020935,0.17526020109653473,0.010006371885538101,0.06638014316558838,-0.3662075996398926,0.9281085729598999,0.0,0.0,0.0,0.0,0.0,0.0
10716,1724558915267288252,-1.6309024095535278,0.4504862427711487,0.17531625926494598,0.010354707017540932,0.06572235375642776,-0.36643725633621216,0.9280610084533691,0.0,0.0,0.0,0.0,0.0,0.0
10718,1724558915311308371,-1.6308382749557495,0.45039814710617065,0.17540860176086426,0.01017497107386589,0.06567699462175369,-0.36669713258743286,0.9279634952545166,0.0,0.0,0.0,0.0,0.0,0.0
10720,1724558915311650787,-1.630759835243225,0.4502161145210266,0.17550569772720337,0.010136743076145649,0.06515446305274963,-0.36689266562461853,0.9279234409332275,0.0,0.0,0.0,0.0,0.0,0.0
10722,1724558915311963912,-1.6306780576705933,0.45004943013191223,0.17568521201610565,0.010671856813132763,0.06531091034412384,-0.3672007620334625,0.9277846217155457,0.0,0.0,0.0,0.0,0.0,0.0
10724,1724558915312246072,-1.6306020021438599,0.44986557960510254,0.1757725030183792,0.010714409872889519,0.06552740931510925,-0.367458313703537,0.9276667833328247,0.0,0.0,0.0,0.0,0.0,0.0
10726,1724558915317009403,-1.6305264234542847,0.4496535360813141,0.17581303417682648,0.009815974161028862,0.0651298388838768,-0.3675459027290344,0.9276700615882874,0.0,0.0,0.0,0.0,0.0,0.0
10728,1724558915328420927,-1.6305053234100342,0.44937989115715027,0.17578066885471344,0.008295776322484016,0.06341706216335297,-0.3676620423793793,0.9277575612068176,0.0,0.0,0.0,0.0,0.0,0.0
10730,1724558915359570097,-1.6303966045379639,0.4490649402141571,0.17580437660217285,0.007809062022715807,0.0625607818365097,-0.3678155839443207,0.927759051322937,0.0,0.0,0.0,0.0,0.0,0.0
10732,1724558915359893220,-1.6302919387817383,0.44873812794685364,0.17603737115859985,0.007561785634607077,0.06143460050225258,-0.36815589666366577,0.9277013540267944,0.0,0.0,0.0,0.0,0.0,0.0
10734,1724558915360208987,-1.6300816535949707,0.44849443435668945,0.17648755013942719,0.009087413549423218,0.06365066766738892,-0.369301438331604,0.9270828366279602,0.0,0.0,0.0,0.0,0.0,0.0
10736,1724558915366936098,-1.6301296949386597,0.44804683327674866,0.1759779453277588,0.005473163444548845,0.06163853406906128,-0.368452787399292,0.9275847673416138,0.0,0.0,0.0,0.0,0.0,0.0
10738,1724558915378352952,-1.6300612688064575,0.4475056529045105,0.1754278838634491,0.0020416700281202793,0.05842233821749687,-0.3672376573085785,0.9282883405685425,0.0,0.0,0.0,0.0,0.0,0.0
10740,1724558915387099085,-1.629765510559082,0.44716519117355347,0.17532382905483246,0.001280204625800252,0.05639195069670677,-0.36713486909866333,0.9284559488296509,0.0,0.0,0.0,0.0,0.0,0.0
10742,1724558915401319210,-1.629475474357605,0.44661614298820496,0.17552047967910767,0.0026323243509978056,0.058396272361278534,-0.3659214377403259,0.9288081526756287,0.0,0.0,0.0,0.0,0.0,0.0
10744,1724558915410482596,-1.629184365272522,0.44652530550956726,0.17593616247177124,0.0030671211425215006,0.056688763201236725,-0.3681384325027466,0.9280362129211426,0.0,0.0,0.0,0.0,0.0,0.0
10746,1724558915417109580,-1.6288554668426514,0.446083128452301,0.17586389183998108,0.002681414596736431,0.05581572651863098,-0.36939167976379395,0.9275921583175659,0.0,0.0,0.0,0.0,0.0,0.0
10748,1724558915431462249,-1.628418207168579,0.4459432363510132,0.17635944485664368,0.0036116375122219324,0.05673031881451607,-0.37104088068008423,0.9268749952316284,0.0,0.0,0.0,0.0,0.0,0.0
10750,1724558915437700857,-1.6280434131622314,0.4456949830055237,0.17669881880283356,0.0033338675275444984,0.056833311915397644,-0.3718476891517639,0.9265463948249817,0.0,0.0,0.0,0.0,0.0,0.0
10752,1724558915462769532,-1.6277780532836914,0.44523802399635315,0.17651933431625366,0.002014345722272992,0.05498773232102394,-0.3715486228466034,0.9267814755439758,0.0,0.0,0.0,0.0,0.0,0.0
10754,1724558915463128554,-1.6273813247680664,0.44481855630874634,0.17654122412204742,0.0024512852542102337,0.05434900522232056,-0.37176406383514404,0.9267317652702332,0.0,0.0,0.0,0.0,0.0,0.0
10756,1724558915468131457,-1.626931071281433,0.44446757435798645,0.17662008106708527,0.0026307713706046343,0.054079458117485046,-0.3725542426109314,0.9264296293258667,0.0,0.0,0.0,0.0,0.0,0.0
10758,1724558915477628550,-1.6263865232467651,0.4441318213939667,0.17679889500141144,0.002789401216432452,0.05395067110657692,-0.3737752437591553,0.9259446859359741,0.0,0.0,0.0,0.0,0.0,0.0
10760,1724558915487712662,-1.625898838043213,0.44377535581588745,0.17701122164726257,0.002610172377899289,0.053283944725990295,-0.3746427297592163,0.9256331920623779,0.0,0.0,0.0,0.0,0.0,0.0
10762,1724558915542814857,-1.625443458557129,0.44341009855270386,0.1772337406873703,0.001818795339204371,0.052426423877477646,-0.3755406141281128,0.9253202080726624,0.0,0.0,0.0,0.0,0.0,0.0
10764,1724558915543208601,-1.6248725652694702,0.4430463910102844,0.17749960720539093,0.002259435597807169,0.0515662357211113,-0.3766274154186249,0.9249257445335388,0.0,0.0,0.0,0.0,0.0,0.0
10766,1724558915543510862,-1.6244231462478638,0.44260281324386597,0.1777803599834442,0.0015226858668029308,0.04876554012298584,-0.37705203890800476,0.9249061942100525,0.0,0.0,0.0,0.0,0.0,0.0
10768,1724558915543783578,-1.6240065097808838,0.4420257806777954,0.17784817516803741,0.000786435033660382,0.046488337218761444,-0.3768789768218994,0.9250949025154114,0.0,0.0,0.0,0.0,0.0,0.0
10770,1724558915544048803,-1.6234456300735474,0.441738486289978,0.17858737707138062,0.001770245609804988,0.046843305230140686,-0.3788917362689972,0.924252986907959,0.0,0.0,0.0,0.0,0.0,0.0
10772,1724558915547465017,-1.6229047775268555,0.4412754476070404,0.1790115237236023,0.002056325552985072,0.04601583629846573,-0.3803136348724365,0.9237099289894104,0.0,0.0,0.0,0.0,0.0,0.0
