seq,stamp,px,py,pz,ox,oy,oz,ow,lx,ly,lz,ax,ay,az
216,1724815776501908291,-2.104138135910034,-1.1457996368408203,0.14564277231693268,0.015682239085435867,-0.06693702191114426,-0.31805920600891113,0.9455748796463013,0.0,0.0,0.0,0.0,0.0,0.0
218,1724815776511020255,-2.104233980178833,-1.14577317237854,0.14555203914642334,0.01551417913287878,-0.06731720268726349,-0.31818684935569763,0.9455077648162842,0.0,0.0,0.0,0.0,0.0,0.0
220,1724815776520406920,-2.1043293476104736,-1.14577054977417,0.1455361247062683,0.015857212245464325,-0.06702177971601486,-0.3182344138622284,0.9455069899559021,0.0,0.0,0.0,0.0,0.0,0.0
222,1724815776534059901,-2.104459524154663,-1.1458162069320679,0.14536650478839874,0.015375801362097263,-0.0675443559885025,-0.3183744549751282,0.9454306960105896,0.0,0.0,0.0,0.0,0.0,0.0
224,1724815776541238299,-2.1044390201568604,-1.1458351612091064,0.14535659551620483,0.015804581344127655,-0.06743253767490387,-0.31822454929351807,0.945482075214386,0.0,0.0,0.0,0.0,0.0,0.0
226,1724815776553185161,-2.1044719219207764,-1.1458368301391602,0.14538227021694183,0.015749730169773102,-0.06721455603837967,-0.3185576796531677,0.9453862905502319,0.0,0.0,0.0,0.0,0.0,0.0
228,1724815776561344154,-2.1044676303863525,-1.1458430290222168,0.14541731774806976,0.015733612701296806,-0.0672280341386795,-0.3184274435043335,0.9454294443130493,0.0,0.0,0.0,0.0,0.0,0.0
230,1724815776572224543,-2.1046266555786133,-1.1457278728485107,0.14559775590896606,0.015698248520493507,-0.06714603304862976,-0.31839659810066223,0.945446252822876,0.0,0.0,0.0,0.0,0.0,0.0
232,1724815776580413027,-2.104630947113037,-1.1457151174545288,0.14563190937042236,0.015714606270194054,-0.06703072041273117,-0.31850767135620117,0.9454167485237122,0.0,0.0,0.0,0.0,0.0,0.0
234,1724815776591374163,-2.1042892932891846,-1.145920753479004,0.14529314637184143,0.016058703884482384,-0.06864874809980392,-0.31751811504364014,0.945627748966217,0.0,0.0,0.0,0.0,0.0,0.0
236,1724815776970931485,-2.09416127204895,-1.143166422843933,0.17502045631408691,0.003596042050048709,-0.002516124164685607,-0.3251349925994873,0.94565749168396,0.0,0.0,0.0,0.0,0.0,0.0
238,1724815776981380481,-2.091444969177246,-1.1430528163909912,0.17816661298274994,0.008606539107859135,-0.009934632107615471,-0.31741437315940857,0.9481958746910095,0.0,0.0,0.0,0.0,0.0,0.0
240,1724815776990463023,-2.090224504470825,-1.1439255475997925,0.17995287477970123,0.011628354899585247,-0.003262236248701811,-0.31749197840690613,0.948184072971344,0.0,0.0,0.0,0.0,0.0,0.0
242,1724815777000995619,-2.0900115966796875,-1.1442584991455078,0.1804206222295761,0.000910427828785032,-0.0006544826901517808,-0.3230944871902466,0.9463661313056946,0.0,0.0,0.0,0.0,0.0,0.0
244,1724815777011353326,-2.088771104812622,-1.1443209648132324,0.18298831582069397,0.00709373177960515,-0.0019391360692679882,-0.32049474120140076,0.9472218155860901,0.0,0.0,0.0,0.0,0.0,0.0
246,1724815777027372027,-2.0871989727020264,-1.1448990106582642,0.18472790718078613,0.00642656534910202,0.0009212876902893186,-0.32017648220062256,0.9473356604576111,0.0,0.0,0.0,0.0,0.0,0.0
248,1724815777030941422,-2.086000442504883,-1.1455258131027222,0.1862243115901947,0.006470430642366409,0.003671342507004738,-0.3184165954589844,0.9479216933250427,0.0,0.0,0.0,0.0,0.0,0.0
250,1724815777040970531,-2.085221767425537,-1.1462228298187256,0.18621358275413513,0.0044215708039700985,0.0015837799292057753,-0.3153117597103119,0.9489765167236328,0.0,0.0,0.0,0.0,0.0,0.0
252,1724815777051129535,-2.0843098163604736,-1.1467581987380981,0.18730230629444122,0.0036497293040156364,0.002500068861991167,-0.3137671947479248,0.9494896531105042,0.0,0.0,0.0,0.0,0.0,0.0
254,1724815777060828758,-2.083979368209839,-1.147145390510559,0.1876811981201172,-0.002597398590296507,0.004626025445759296,-0.3138388395309448,0.9494615197181702,0.0,0.0,0.0,0.0,0.0,0.0
256,1724815777075494493,-2.0830349922180176,-1.1478323936462402,0.18935397267341614,-0.00025254112551920116,0.00559760769829154,-0.3119889497756958,0.9500691890716553,0.0,0.0,0.0,0.0,0.0,0.0
258,1724815777080655719,-2.0823862552642822,-1.1482409238815308,0.1899789422750473,-0.0005884893471375108,0.006422985810786486,-0.31142279505729675,0.9502495527267456,0.0,0.0,0.0,0.0,0.0,0.0
260,1724815777090452063,-2.0817933082580566,-1.148617148399353,0.19037602841854095,0.0007190671167336404,0.006150610279291868,-0.31035006046295166,0.9506021738052368,0.0,0.0,0.0,0.0,0.0,0.0
262,1724815777101237455,-2.0800485610961914,-1.1477936506271362,0.19335904717445374,0.006178631912916899,0.018039526417851448,-0.3155238628387451,0.9487261176109314,0.0,0.0,0.0,0.0,0.0,0.0
264,1724815777110942229,-2.0800204277038574,-1.1478569507598877,0.19367615878582,0.005602395627647638,0.017956947907805443,-0.31579357385635376,0.9486414790153503,0.0,0.0,0.0,0.0,0.0,0.0
266,1724815777120800989,-2.0799403190612793,-1.1478463411331177,0.19413284957408905,0.005369474180042744,0.018998723477125168,-0.316308856010437,0.9484508037567139,0.0,0.0,0.0,0.0,0.0,0.0
268,1724815777131373442,-2.080004930496216,-1.1478888988494873,0.19423572719097137,0.004545050207525492,0.01851504109799862,-0.31647932529449463,0.948407769203186,0.0,0.0,0.0,0.0,0.0,0.0
270,1724815777140350628,-2.0800235271453857,-1.147799015045166,0.1943015158176422,0.004003853537142277,0.01846492849290371,-0.31671690940856934,0.948331892490387,0.0,0.0,0.0,0.0,0.0,0.0
272,1724815777154605931,-2.079911947250366,-1.147827386856079,0.194169282913208,0.004085897468030453,0.018213776871562004,-0.3169122636318207,0.9482712149620056,0.0,0.0,0.0,0.0,0.0,0.0
274,1724815777160238951,-2.0799243450164795,-1.147698163986206,0.1940188854932785,0.004329654388129711,0.017525341361761093,-0.3170483112335205,0.9482375383377075,0.0,0.0,0.0,0.0,0.0,0.0
276,1724815777170761722,-2.0800039768218994,-1.1475790739059448,0.19390968978405,0.004269287921488285,0.017579421401023865,-0.31747448444366455,0.9480942487716675,0.0,0.0,0.0,0.0,0.0,0.0
278,1724815777182429139,-2.0800366401672363,-1.1475138664245605,0.19385847449302673,0.004478464834392071,0.017926275730133057,-0.3178403377532959,0.9479641914367676,0.0,0.0,0.0,0.0,0.0,0.0
280,1724815777190695633,-2.0800564289093018,-1.1474791765213013,0.19385874271392822,0.004835122264921665,0.018347138538956642,-0.31811290979385376,0.947862982749939,0.0,0.0,0.0,0.0,0.0,0.0
282,1724815777200822957,-2.079981803894043,-1.1473119258880615,0.1939692497253418,0.004015711601823568,0.01817365176975727,-0.31818509101867676,0.9478459358215332,0.0,0.0,0.0,0.0,0.0,0.0
284,1724815777211168278,-2.0801103115081787,-1.1473243236541748,0.1939399242401123,0.004303205292671919,0.018343186005949974,-0.3184334635734558,0.9477580189704895,0.0,0.0,0.0,0.0,0.0,0.0
286,1724815777220387321,-2.0800888538360596,-1.1473511457443237,0.19402992725372314,0.004428609739989042,0.018818212673068047,-0.3185024559497833,0.9477249383926392,0.0,0.0,0.0,0.0,0.0,0.0
288,1724815777230970094,-2.080043077468872,-1.147350549697876,0.19403497874736786,0.004755208734422922,0.019005460664629936,-0.31864133477211,0.9476729035377502,0.0,0.0,0.0,0.0,0.0,0.0
290,1724815777240697547,-2.080031633377075,-1.1475181579589844,0.19398358464241028,0.005325370002537966,0.019518334418535233,-0.31893840432167053,0.9475595355033875,0.0,0.0,0.0,0.0,0.0,0.0
292,1724815777250694951,-2.079982280731201,-1.1474683284759521,0.1939970701932907,0.005658394657075405,0.019688135012984276,-0.3191182613372803,0.9474934935569763,0.0,0.0,0.0,0.0,0.0,0.0
294,1724815777260767353,-2.080009937286377,-1.147436261177063,0.19401095807552338,0.005909152794629335,0.0201047882437706,-0.3191893994808197,0.9474592208862305,0.0,0.0,0.0,0.0,0.0,0.0
296,1724815777270517024,-2.080169439315796,-1.147364616394043,0.19411425292491913,0.006336654536426067,0.020278818905353546,-0.31937772035598755,0.9473893642425537,0.0,0.0,0.0,0.0,0.0,0.0
298,1724815777280835135,-2.080256700515747,-1.1473770141601562,0.19410544633865356,0.006494640372693539,0.02049628645181656,-0.31952813267707825,0.9473328590393066,0.0,0.0,0.0,0.0,0.0,0.0
300,1724815777290407385,-2.0801286697387695,-1.1473373174667358,0.19399484992027283,0.006779361981898546,0.02022315002977848,-0.31924721598625183,0.9474314451217651,0.0,0.0,0.0,0.0,0.0,0.0
302,1724815777300679768,-2.079726457595825,-1.1471748352050781,0.1941404789686203,0.006611550226807594,0.02091144025325775,-0.3190321922302246,0.9474900364875793,0.0,0.0,0.0,0.0,0.0,0.0
304,1724815777311327282,-2.0799174308776855,-1.147134780883789,0.194075807929039,0.006791544146835804,0.020758304744958878,-0.3191385269165039,0.9474563598632812,0.0,0.0,0.0,0.0,0.0,0.0
306,1724815777323670910,-2.0799758434295654,-1.147197961807251,0.19427932798862457,0.006761424243450165,0.02185218036174774,-0.31944867968559265,0.9473274350166321,0.0,0.0,0.0,0.0,0.0,0.0
308,1724815777331076425,-2.080179452896118,-1.1471863985061646,0.19419868290424347,0.006749281659722328,0.021487047895789146,-0.31952112913131714,0.9473114609718323,0.0,0.0,0.0,0.0,0.0,0.0
310,1724815777340550054,-2.0799436569213867,-1.1471349000930786,0.1940680742263794,0.007179426494985819,0.021080370992422104,-0.3193415105342865,0.9473780393600464,0.0,0.0,0.0,0.0,0.0,0.0
312,1724815777352119530,-2.079941749572754,-1.1471811532974243,0.1942446529865265,0.007007273379713297,0.02187599614262581,-0.31959497928619385,0.9472757577896118,0.0,0.0,0.0,0.0,0.0,0.0
314,1724815777361246866,-2.0797595977783203,-1.1471158266067505,0.19421115517616272,0.00745411729440093,0.022094527259469032,-0.31922852993011475,0.9473908543586731,0.0,0.0,0.0,0.0,0.0,0.0
316,1724815777372320087,-2.0797998905181885,-1.1471278667449951,0.19416667520999908,0.007405262440443039,0.022059690207242966,-0.31940871477127075,0.9473313689231873,0.0,0.0,0.0,0.0,0.0,0.0
318,1724815777380820937,-2.079779863357544,-1.1471319198608398,0.19418255984783173,0.0074433996342122555,0.022276224568486214,-0.3193824589252472,0.9473348259925842,0.0,0.0,0.0,0.0,0.0,0.0
320,1724815777390620340,-2.079815149307251,-1.1471818685531616,0.19414979219436646,0.007925893180072308,0.022794675081968307,-0.31949570775032043,0.9472803473472595,0.0,0.0,0.0,0.0,0.0,0.0
322,1724815777401443988,-2.07983136177063,-1.1472464799880981,0.19401605427265167,0.008356645703315735,0.023190569132566452,-0.31971994042396545,0.9471914768218994,0.0,0.0,0.0,0.0,0.0,0.0
324,1724815777411131531,-2.080113649368286,-1.1472879648208618,0.1934865564107895,0.01005195826292038,0.02386513166129589,-0.3200802803039551,0.9470365047454834,0.0,0.0,0.0,0.0,0.0,0.0
326,1724815777420427650,-2.0802743434906006,-1.1473323106765747,0.19282175600528717,0.012957503087818623,0.025606097653508186,-0.32038068771362305,0.9468541145324707,0.0,0.0,0.0,0.0,0.0,0.0
328,1724815777432427800,-2.080662488937378,-1.1473755836486816,0.1916932314634323,0.015858963131904602,0.026907717809081078,-0.321037620306015,0.9465512633323669,0.0,0.0,0.0,0.0,0.0,0.0
330,1724815777440468191,-2.0810155868530273,-1.1474970579147339,0.19029781222343445,0.019285742193460464,0.02808513678610325,-0.3212089240550995,0.9463952779769897,0.0,0.0,0.0,0.0,0.0,0.0
332,1724815777453460290,-2.081812858581543,-1.1473721265792847,0.18910717964172363,0.023077810183167458,0.030151354148983955,-0.3218690752983093,0.9460225701332092,0.0,0.0,0.0,0.0,0.0,0.0
334,1724815777460382083,-2.082653760910034,-1.147074580192566,0.1878671497106552,0.02685496211051941,0.03105432540178299,-0.32280007004737854,0.9455763101577759,0.0,0.0,0.0,0.0,0.0,0.0
336,1724815777474475003,-2.0837514400482178,-1.1474759578704834,0.18533435463905334,0.031227577477693558,0.025701601058244705,-0.3208407163619995,0.9462692141532898,0.0,0.0,0.0,0.0,0.0,0.0
338,1724815777486038736,-2.084749937057495,-1.1470849514007568,0.18434341251850128,0.031822603195905685,0.025678256526589394,-0.3200613260269165,0.9465140104293823,0.0,0.0,0.0,0.0,0.0,0.0
340,1724815777490219294,-2.085761547088623,-1.1464838981628418,0.1839853972196579,0.0318305604159832,0.026274461299180984,-0.3209628462791443,0.9461920857429504,0.0,0.0,0.0,0.0,0.0,0.0
342,1724815777501014032,-2.0869414806365967,-1.1465879678726196,0.18209058046340942,0.03845620155334473,0.024582719430327415,-0.3203676640987396,0.9461931586265564,0.0,0.0,0.0,0.0,0.0,0.0
344,1724815777511315803,-2.0879547595977783,-1.146150827407837,0.18170106410980225,0.03871124982833862,0.024020498618483543,-0.3205294609069824,0.9461423754692078,0.0,0.0,0.0,0.0,0.0,0.0
346,1724815777520210593,-2.089092969894409,-1.1460609436035156,0.1812232881784439,0.04072335734963417,0.024980181828141212,-0.32006189227104187,0.9461913704872131,0.0,0.0,0.0,0.0,0.0,0.0
348,1724815777531438322,-2.0905308723449707,-1.145858883857727,0.18048782646656036,0.04413196071982384,0.02382325381040573,-0.3193211853504181,0.9463185667991638,0.0,0.0,0.0,0.0,0.0,0.0
350,1724815777541131063,-2.09362530708313,-1.1479355096817017,0.17618168890476227,0.038126390427351,0.004807340446859598,-0.3044656813144684,0.9517478942871094,0.0,0.0,0.0,0.0,0.0,0.0
352,1724815777550543432,-2.094581127166748,-1.1483654975891113,0.17523571848869324,0.0406431220471859,0.002010009251534939,-0.30318209528923035,0.9520635008811951,0.0,0.0,0.0,0.0,0.0,0.0
354,1724815777560833955,-2.0951406955718994,-1.148321509361267,0.174790158867836,0.04088470712304115,0.002327372319996357,-0.3047407865524292,0.951554536819458,0.0,0.0,0.0,0.0,0.0,0.0
356,1724815777570362382,-2.0963051319122314,-1.1470836400985718,0.17656265199184418,0.040583543479442596,0.023742666468024254,-0.3248293995857239,0.9446031451225281,0.0,0.0,0.0,0.0,0.0,0.0
358,1724815777580294768,-2.0952415466308594,-1.145693063735962,0.17887122929096222,0.05479537323117256,0.023197263479232788,-0.32271090149879456,0.9446253776550293,0.0,0.0,0.0,0.0,0.0,0.0
360,1724815777590966676,-2.0957369804382324,-1.145775318145752,0.17893631756305695,0.05606328696012497,0.02373085357248783,-0.3215358555316925,0.9449383616447449,0.0,0.0,0.0,0.0,0.0,0.0
362,1724815777600528100,-2.0959243774414062,-1.1460154056549072,0.1789097785949707,0.0569525770843029,0.02410336770117283,-0.31987327337265015,0.9454399347305298,0.0,0.0,0.0,0.0,0.0,0.0
364,1724815777610669934,-2.096522808074951,-1.146122932434082,0.178645059466362,0.057106561958789825,0.023356426507234573,-0.3202180862426758,0.9453325867652893,0.0,0.0,0.0,0.0,0.0,0.0
366,1724815777621300315,-2.0971994400024414,-1.1460479497909546,0.17816543579101562,0.0548277348279953,0.02166885696351528,-0.3197987675666809,0.9456495642662048,0.0,0.0,0.0,0.0,0.0,0.0
368,1724815777630547362,-2.0973448753356934,-1.1461747884750366,0.17818884551525116,0.05386406183242798,0.02117973379790783,-0.3190765678882599,0.9459600448608398,0.0,0.0,0.0,0.0,0.0,0.0
370,1724815777640352121,-2.0974345207214355,-1.1463098526000977,0.17817631363868713,0.052488766610622406,0.02121024951338768,-0.3186763525009155,0.9461714625358582,0.0,0.0,0.0,0.0,0.0,0.0
372,1724815777651101185,-2.097334384918213,-1.1465504169464111,0.1783023625612259,0.05262427031993866,0.021402236074209213,-0.31816333532333374,0.9463322758674622,0.0,0.0,0.0,0.0,0.0,0.0
374,1724815777669350762,-2.0969951152801514,-1.1464166641235352,0.1784556806087494,0.05368950217962265,0.020676031708717346,-0.3180847764015198,0.9463150501251221,0.0,0.0,0.0,0.0,0.0,0.0
376,1724815777670468344,-2.096571445465088,-1.146275520324707,0.17843177914619446,0.0498349592089653,0.02116502821445465,-0.3185915946960449,0.9463445544242859,0.0,0.0,0.0,0.0,0.0,0.0
378,1724815777681664142,-2.0963404178619385,-1.1461498737335205,0.17880691587924957,0.04940805956721306,0.02111467532813549,-0.31912243366241455,0.9461892247200012,0.0,0.0,0.0,0.0,0.0,0.0
380,1724815777696476206,-2.096043348312378,-1.1460858583450317,0.17899811267852783,0.049956999719142914,0.02035694755613804,-0.3191010653972626,0.9461840987205505,0.0,0.0,0.0,0.0,0.0,0.0
382,1724815777700793498,-2.0954596996307373,-1.1461154222488403,0.17939433455467224,0.05178884044289589,0.020137429237365723,-0.31849154829978943,0.9462957382202148,0.0,0.0,0.0,0.0,0.0,0.0
384,1724815777711573115,-2.095327854156494,-1.1460576057434082,0.1794632077217102,0.052057959139347076,0.020121503621339798,-0.31849342584609985,0.9462805986404419,0.0,0.0,0.0,0.0,0.0,0.0
386,1724815777720539964,-2.095258951187134,-1.1460148096084595,0.17943152785301208,0.052543241530656815,0.02026580274105072,-0.3184258043766022,0.9462735652923584,0.0,0.0,0.0,0.0,0.0,0.0
388,1724815777732887353,-2.0953028202056885,-1.1459999084472656,0.17948484420776367,0.05225665494799614,0.020344203338027,-0.3185654580593109,0.9462406635284424,0.0,0.0,0.0,0.0,0.0,0.0
390,1724815777740433852,-2.0953521728515625,-1.146026372909546,0.17953866720199585,0.05232648178935051,0.021038031205534935,-0.3186113238334656,0.9462062120437622,0.0,0.0,0.0,0.0,0.0,0.0
392,1724815777752662603,-2.095567464828491,-1.1459708213806152,0.1796325445175171,0.052555494010448456,0.021438872441649437,-0.31856152415275574,0.9462012648582458,0.0,0.0,0.0,0.0,0.0,0.0
394,1724815777762305623,-2.095519542694092,-1.1461765766143799,0.17967817187309265,0.052876152098178864,0.02227158099412918,-0.3183141350746155,0.946247398853302,0.0,0.0,0.0,0.0,0.0,0.0
396,1724815777770804508,-2.0957276821136475,-1.1460636854171753,0.17976416647434235,0.052269820123910904,0.02222052402794361,-0.3186055123806,0.9461843371391296,0.0,0.0,0.0,0.0,0.0,0.0
398,1724815777783028700,-2.0957305431365967,-1.1460708379745483,0.1797930896282196,0.052363570779561996,0.02205660380423069,-0.31869521737098694,0.9461527466773987,0.0,0.0,0.0,0.0,0.0,0.0
400,1724815777791086047,-2.0956947803497314,-1.1460624933242798,0.17983213067054749,0.05288690701127052,0.02236787974834442,-0.3186168372631073,0.9461426734924316,0.0,0.0,0.0,0.0,0.0,0.0
402,1724815777800593567,-2.095686197280884,-1.145993709564209,0.17980541288852692,0.05256877467036247,0.02171056531369686,-0.31883278489112854,0.9461029767990112,0.0,0.0,0.0,0.0,0.0,0.0
404,1724815777810772425,-2.0956339836120605,-1.1459592580795288,0.17982427775859833,0.0523141548037529,0.02153956890106201,-0.3189017176628113,0.9460977911949158,0.0,0.0,0.0,0.0,0.0,0.0
406,1724815777824136410,-2.0955286026000977,-1.1459249258041382,0.17988675832748413,0.0525657944381237,0.021283268928527832,-0.3188439905643463,0.9461090564727783,0.0,0.0,0.0,0.0,0.0,0.0
408,1724815777830627785,-2.0953145027160645,-1.1459994316101074,0.1798701137304306,0.052146028727293015,0.02162565477192402,-0.31883183121681213,0.9461287260055542,0.0,0.0,0.0,0.0,0.0,0.0
410,1724815777841405846,-2.095364809036255,-1.1458505392074585,0.17998367547988892,0.05178990960121155,0.021414563059806824,-0.3188703954219818,0.9461400508880615,0.0,0.0,0.0,0.0,0.0,0.0
412,1724815777851971664,-2.0953209400177,-1.1458345651626587,0.1800103336572647,0.05149943009018898,0.021305575966835022,-0.3189282715320587,0.946138858795166,0.0,0.0,0.0,0.0,0.0,0.0
414,1724815777860771141,-2.0953192710876465,-1.1458531618118286,0.180073082447052,0.05190011486411095,0.02131866104900837,-0.31914445757865906,0.9460437893867493,0.0,0.0,0.0,0.0,0.0,0.0
416,1724815777870928913,-2.0953214168548584,-1.1458778381347656,0.18011851608753204,0.052421215921640396,0.021977480500936508,-0.3190153241157532,0.9460435509681702,0.0,0.0,0.0,0.0,0.0,0.0
418,1724815777881101147,-2.0953526496887207,-1.1458969116210938,0.1802411824464798,0.05193339288234711,0.022246701642870903,-0.318921834230423,0.9460956454277039,0.0,0.0,0.0,0.0,0.0,0.0
420,1724815777891118112,-2.095547914505005,-1.1459788084030151,0.1805429309606552,0.05033588781952858,0.02298603393137455,-0.31931039690971375,0.946033239364624,0.0,0.0,0.0,0.0,0.0,0.0
422,1724815777901374699,-2.0954701900482178,-1.1459808349609375,0.1806335300207138,0.05004757270216942,0.02289314568042755,-0.31921952962875366,0.9460814595222473,0.0,0.0,0.0,0.0,0.0,0.0
424,1724815777910518187,-2.095379114151001,-1.1460273265838623,0.18084974586963654,0.049555703997612,0.0233908761292696,-0.3191857635974884,0.9461066126823425,0.0,0.0,0.0,0.0,0.0,0.0
426,1724815777921390856,-2.0950429439544678,-1.1461544036865234,0.1809137612581253,0.04913826286792755,0.024022499099373817,-0.3189484179019928,0.9461925029754639,0.0,0.0,0.0,0.0,0.0,0.0
428,1724815777932361048,-2.0951249599456787,-1.146161437034607,0.18117755651474,0.048252299427986145,0.024083901196718216,-0.31899598240852356,0.9462205171585083,0.0,0.0,0.0,0.0,0.0,0.0
430,1724815777940527254,-2.094796895980835,-1.146336555480957,0.1813645213842392,0.04861345887184143,0.02452082931995392,-0.3187817633152008,0.9462630748748779,0.0,0.0,0.0,0.0,0.0,0.0
432,1724815777950631670,-2.094708204269409,-1.146462082862854,0.18167297542095184,0.04897535219788551,0.02527417428791523,-0.3187270760536194,0.9462429285049438,0.0,0.0,0.0,0.0,0.0,0.0
434,1724815777966150232,-2.094508647918701,-1.1464916467666626,0.18189877271652222,0.048445381224155426,0.025290150195360184,-0.3186732530593872,0.9462879300117493,0.0,0.0,0.0,0.0,0.0,0.0
436,1724815777971612057,-2.0942938327789307,-1.1465187072753906,0.18208013474941254,0.04755155369639397,0.024927878752350807,-0.3187485933303833,0.9463174939155579,0.0,0.0,0.0,0.0,0.0,0.0
438,1724815777986798879,-2.094083070755005,-1.1466008424758911,0.1822999268770218,0.04788051173090935,0.024894127622246742,-0.3186408579349518,0.9463381171226501,0.0,0.0,0.0,0.0,0.0,0.0
440,1724815777990303889,-2.0938310623168945,-1.146551251411438,0.182491272687912,0.04740157350897789,0.024352917447686195,-0.31851476430892944,0.9464187622070312,0.0,0.0,0.0,0.0,0.0,0.0
442,1724815778000770542,-2.093677520751953,-1.1465585231781006,0.18273372948169708,0.04711996763944626,0.02452726475894451,-0.3182758092880249,0.9465086460113525,0.0,0.0,0.0,0.0,0.0,0.0
444,1724815778011759155,-2.0937726497650146,-1.1467314958572388,0.18295839428901672,0.04811251536011696,0.024805281311273575,-0.31879520416259766,0.9462766647338867,0.0,0.0,0.0,0.0,0.0,0.0
446,1724815778020583120,-2.0942330360412598,-1.1467339992523193,0.18309326469898224,0.04341406375169754,0.02638569101691246,-0.3198438286781311,0.9461073279380798,0.0,0.0,0.0,0.0,0.0,0.0
448,1724815778034161814,-2.094864845275879,-1.147417664527893,0.18196693062782288,0.035510458052158356,0.030345048755407333,-0.3228822946548462,0.9452858567237854,0.0,0.0,0.0,0.0,0.0,0.0
450,1724815778040552466,-2.0933620929718018,-1.1466772556304932,0.18339301645755768,0.046017251908779144,0.025271650403738022,-0.31814247369766235,0.9465882182121277,0.0,0.0,0.0,0.0,0.0,0.0
452,1724815778050803124,-2.0935935974121094,-1.146885633468628,0.18341167271137238,0.047537509351968765,0.025962840765714645,-0.31866487860679626,0.9463185667991638,0.0,0.0,0.0,0.0,0.0,0.0
454,1724815778061261839,-2.093982696533203,-1.146896243095398,0.18348410725593567,0.04536065831780434,0.02804294414818287,-0.3190268576145172,0.9462441205978394,0.0,0.0,0.0,0.0,0.0,0.0
456,1724815778070556807,-2.0948221683502197,-1.147687315940857,0.18214742839336395,0.03612610325217247,0.03189621865749359,-0.3229324221611023,0.9451943635940552,0.0,0.0,0.0,0.0,0.0,0.0
458,1724815778084300025,-2.0947301387786865,-1.1473395824432373,0.18283012509346008,0.037700217217206955,0.029726902022957802,-0.3213645815849304,0.9457377195358276,0.0,0.0,0.0,0.0,0.0,0.0
460,1724815778090763496,-2.0943942070007324,-1.1470754146575928,0.18326370418071747,0.04025310277938843,0.02866547554731369,-0.3198823034763336,0.9461677074432373,0.0,0.0,0.0,0.0,0.0,0.0
462,1724815778100375206,-2.0943620204925537,-1.1471163034439087,0.18326976895332336,0.039119258522987366,0.028347086161375046,-0.32028475403785706,0.9460886716842651,0.0,0.0,0.0,0.0,0.0,0.0
464,1724815778110758681,-2.094423294067383,-1.1472331285476685,0.1832766830921173,0.03833885118365288,0.028950637206435204,-0.3206406831741333,0.9459818005561829,0.0,0.0,0.0,0.0,0.0,0.0
466,1724815778122158722,-2.09409236907959,-1.1470530033111572,0.18350738286972046,0.03943871334195137,0.027901463210582733,-0.3196571469306946,0.9463008642196655,0.0,0.0,0.0,0.0,0.0,0.0
468,1724815778131486361,-2.094142436981201,-1.1470903158187866,0.18359775841236115,0.03881428763270378,0.028599558398127556,-0.31975463032722473,0.9462730288505554,0.0,0.0,0.0,0.0,0.0,0.0
470,1724815778141237183,-2.0938735008239746,-1.1469274759292603,0.1838430017232895,0.0402873232960701,0.02838205173611641,-0.3188626170158386,0.9465188980102539,0.0,0.0,0.0,0.0,0.0,0.0
472,1724815778152289932,-2.093907117843628,-1.1469916105270386,0.18389147520065308,0.03912566974759102,0.02856932394206524,-0.3192101716995239,0.9464448690414429,0.0,0.0,0.0,0.0,0.0,0.0
474,1724815778162372180,-2.093876361846924,-1.146974802017212,0.18385523557662964,0.037445344030857086,0.028759771957993507,-0.31899294257164,0.9465803503990173,0.0,0.0,0.0,0.0,0.0,0.0
476,1724815778170801414,-2.0940494537353516,-1.147201657295227,0.18371298909187317,0.035756006836891174,0.030080214142799377,-0.31995922327041626,0.9462783932685852,0.0,0.0,0.0,0.0,0.0,0.0
478,1724815778185338394,-2.0940101146698,-1.1472313404083252,0.1837655007839203,0.035209640860557556,0.030360732227563858,-0.3200596272945404,0.9462560415267944,0.0,0.0,0.0,0.0,0.0,0.0
480,1724815778191171638,-2.0938031673431396,-1.1470990180969238,0.18390865623950958,0.036166366189718246,0.029308266937732697,-0.3193466365337372,0.9464939832687378,0.0,0.0,0.0,0.0,0.0,0.0
482,1724815778202087243,-2.093691349029541,-1.1470277309417725,0.1840362548828125,0.03655662387609482,0.02934373915195465,-0.31893056631088257,0.9466181397438049,0.0,0.0,0.0,0.0,0.0,0.0
484,1724815778212295510,-2.0936903953552246,-1.1470905542373657,0.1840497851371765,0.03582049161195755,0.029631005600094795,-0.31913501024246216,0.9465684294700623,0.0,0.0,0.0,0.0,0.0,0.0
486,1724815778220734876,-2.09354567527771,-1.1469712257385254,0.1842028647661209,0.036207977682352066,0.029178893193602562,-0.3186059296131134,0.9467459321022034,0.0,0.0,0.0,0.0,0.0,0.0
488,1724815778231609457,-2.0935285091400146,-1.147052526473999,0.18418735265731812,0.035978201776742935,0.029780423268675804,-0.31876569986343384,0.9466822147369385,0.0,0.0,0.0,0.0,0.0,0.0
490,1724815778240219548,-2.0934295654296875,-1.147055745124817,0.18422040343284607,0.0362902469933033,0.02945493720471859,-0.3186628520488739,0.9467151165008545,0.0,0.0,0.0,0.0,0.0,0.0
492,1724815778250671745,-2.0933475494384766,-1.1470640897750854,0.18432879447937012,0.03649294003844261,0.029518360272049904,-0.3183865249156952,0.9467982649803162,0.0,0.0,0.0,0.0,0.0,0.0
494,1724815778261973628,-2.093299150466919,-1.1470494270324707,0.18440721929073334,0.03639299049973488,0.02959347702562809,-0.3183887302875519,0.9467990398406982,0.0,0.0,0.0,0.0,0.0,0.0
496,1724815778270434324,-2.0932905673980713,-1.1471682786941528,0.18433015048503876,0.0364852175116539,0.02966558001935482,-0.31868046522140503,0.9466951489448547,0.0,0.0,0.0,0.0,0.0,0.0
498,1724815778285181675,-2.0932700634002686,-1.1473463773727417,0.1842035949230194,0.03609316051006317,0.030205558985471725,-0.31903114914894104,0.946574866771698,0.0,0.0,0.0,0.0,0.0,0.0
500,1724815778290954296,-2.093273878097534,-1.1473468542099,0.1843131184577942,0.03602460399270058,0.03053111769258976,-0.3187864422798157,0.9466495513916016,0.0,0.0,0.0,0.0,0.0,0.0
502,1724815778300632908,-2.0931589603424072,-1.147376298904419,0.18443278968334198,0.036523785442113876,0.03028750978410244,-0.31854480504989624,0.9467195272445679,0.0,0.0,0.0,0.0,0.0,0.0
504,1724815778310746564,-2.092977523803711,-1.1471174955368042,0.18481354415416718,0.036859869956970215,0.029657838866114616,-0.3176819682121277,0.9470164179801941,0.0,0.0,0.0,0.0,0.0,0.0
506,1724815778320211664,-2.092904567718506,-1.1470181941986084,0.1849692463874817,0.03691411018371582,0.029847698286175728,-0.31728267669677734,0.9471420645713806,0.0,0.0,0.0,0.0,0.0,0.0
508,1724815778331072970,-2.093074321746826,-1.147432804107666,0.1846405416727066,0.03712080046534538,0.03107205405831337,-0.3181322515010834,0.9468096494674683,0.0,0.0,0.0,0.0,0.0,0.0
510,1724815778340595051,-2.092841148376465,-1.1471827030181885,0.18502630293369293,0.037835437804460526,0.030081279575824738,-0.31717556715011597,0.947134256362915,0.0,0.0,0.0,0.0,0.0,0.0
512,1724815778350382442,-2.0928456783294678,-1.1473822593688965,0.1848631650209427,0.03872866928577423,0.030593764036893845,-0.3172312080860138,0.947063148021698,0.0,0.0,0.0,0.0,0.0,0.0
514,1724815778360511581,-2.0928244590759277,-1.147597312927246,0.18466868996620178,0.03968137875199318,0.030857190489768982,-0.31697821617126465,0.9470998048782349,0.0,0.0,0.0,0.0,0.0,0.0
516,1724815778370905604,-2.092712879180908,-1.1475430727005005,0.1848904937505722,0.039685625582933426,0.030710218474268913,-0.31645500659942627,0.9472793936729431,0.0,0.0,0.0,0.0,0.0,0.0
518,1724815778383037615,-2.092515468597412,-1.1472547054290771,0.18555021286010742,0.037773024290800095,0.0312638059258461,-0.31630080938339233,0.9473909139633179,0.0,0.0,0.0,0.0,0.0,0.0
520,1724815778390522520,-2.0924766063690186,-1.1471867561340332,0.1857401579618454,0.03609959036111832,0.03173420950770378,-0.31664153933525085,0.9473267793655396,0.0,0.0,0.0,0.0,0.0,0.0
522,1724815778426624223,-2.0922977924346924,-1.147060513496399,0.18599525094032288,0.03598451986908913,0.03141925856471062,-0.31646230816841125,0.9474014639854431,0.0,0.0,0.0,0.0,0.0,0.0
524,1724815778426909743,-2.092346429824829,-1.1471437215805054,0.18604308366775513,0.034946005791425705,0.031793590635061264,-0.31698328256607056,0.9472537040710449,0.0,0.0,0.0,0.0,0.0,0.0
526,1724815778427152225,-2.0918142795562744,-1.146970510482788,0.18653325736522675,0.04102655127644539,0.030474163591861725,-0.3156883418560028,0.947485625743866,0.0,0.0,0.0,0.0,0.0,0.0
528,1724815778435147455,-2.091796398162842,-1.1469511985778809,0.18658217787742615,0.04035980999469757,0.030561745166778564,-0.31600266695022583,0.9474067091941833,0.0,0.0,0.0,0.0,0.0,0.0
530,1724815778440397184,-2.091761589050293,-1.1469753980636597,0.18670763075351715,0.04066254198551178,0.031117482110857964,-0.3160551190376282,0.9473581314086914,0.0,0.0,0.0,0.0,0.0,0.0
532,1724815778452058887,-2.0916831493377686,-1.14693284034729,0.18680192530155182,0.04088861122727394,0.031118610873818398,-0.3160795569419861,0.9473402500152588,0.0,0.0,0.0,0.0,0.0,0.0
534,1724815778461575726,-2.0916998386383057,-1.1469042301177979,0.18688417971134186,0.04010285809636116,0.0316087007522583,-0.3162221312522888,0.9473099708557129,0.0,0.0,0.0,0.0,0.0,0.0
536,1724815778470752539,-2.091676950454712,-1.1468862295150757,0.18692629039287567,0.040465809404850006,0.03158266097307205,-0.316372811794281,0.947245180606842,0.0,0.0,0.0,0.0,0.0,0.0
538,1724815778488862372,-2.0916614532470703,-1.1468859910964966,0.18696942925453186,0.040765710175037384,0.031822916120290756,-0.31655365228652954,0.9471637606620789,0.0,0.0,0.0,0.0,0.0,0.0
540,1724815778490614936,-2.0915870666503906,-1.1468721628189087,0.1870269477367401,0.041035789996385574,0.031645018607378006,-0.3166498839855194,0.9471259117126465,0.0,0.0,0.0,0.0,0.0,0.0
542,1724815778500870772,-2.09159517288208,-1.1468226909637451,0.1870330423116684,0.04035560414195061,0.03158770874142647,-0.3167608976364136,0.947119951248169,0.0,0.0,0.0,0.0,0.0,0.0
544,1724815778517352199,-2.0915493965148926,-1.1468263864517212,0.18711313605308533,0.04017404094338417,0.03206312283873558,-0.31679007411003113,0.9471019506454468,0.0,0.0,0.0,0.0,0.0,0.0
546,1724815778520214607,-2.0915653705596924,-1.1467713117599487,0.1871005892753601,0.03939840942621231,0.03189316391944885,-0.31701552867889404,0.9470648765563965,0.0,0.0,0.0,0.0,0.0,0.0
548,1724815778534462165,-2.0915074348449707,-1.1467998027801514,0.18720923364162445,0.04013202339410782,0.03202763572335243,-0.3170338571071625,0.9470233917236328,0.0,0.0,0.0,0.0,0.0,0.0
550,1724815778540847579,-2.091498851776123,-1.1467777490615845,0.18725323677062988,0.03995070233941078,0.032214365899562836,-0.31707677245140076,0.947010338306427,0.0,0.0,0.0,0.0,0.0,0.0
552,1724815778550462645,-2.091503143310547,-1.1467726230621338,0.18729321658611298,0.039808791130781174,0.0324099175632,-0.317216694355011,0.9469627737998962,0.0,0.0,0.0,0.0,0.0,0.0
554,1724815778566118927,-2.0914742946624756,-1.1467169523239136,0.18731549382209778,0.03903573751449585,0.03243858367204666,-0.3173002004623413,0.9469659328460693,0.0,0.0,0.0,0.0,0.0,0.0
556,1724815778571572641,-2.091423273086548,-1.1467785835266113,0.18737603724002838,0.04023122414946556,0.032732151448726654,-0.3172997236251831,0.9469059705734253,0.0,0.0,0.0,0.0,0.0,0.0
558,1724815778583286406,-2.0914194583892822,-1.1467976570129395,0.18741007149219513,0.040911685675382614,0.03300805762410164,-0.3173116445541382,0.9468632340431213,0.0,0.0,0.0,0.0,0.0,0.0
560,1724815778590610966,-2.091430187225342,-1.1467931270599365,0.18746761977672577,0.0405578576028347,0.03323489427566528,-0.31736987829208374,0.9468510746955872,0.0,0.0,0.0,0.0,0.0,0.0
562,1724815778600779111,-2.0914177894592285,-1.146782636642456,0.1875203549861908,0.04062269628047943,0.033392589539289474,-0.3173407316207886,0.9468525648117065,0.0,0.0,0.0,0.0,0.0,0.0
564,1724815778610923382,-2.0914435386657715,-1.146803617477417,0.1875663548707962,0.04085472598671913,0.0337953120470047,-0.31733009219169617,0.9468318223953247,0.0,0.0,0.0,0.0,0.0,0.0
566,1724815778625156019,-2.0914504528045654,-1.1468157768249512,0.1876211166381836,0.04110526666045189,0.03426051512360573,-0.3172389268875122,0.9468348026275635,0.0,0.0,0.0,0.0,0.0,0.0
568,1724815778630745843,-2.091407299041748,-1.1467969417572021,0.18762323260307312,0.04132504016160965,0.03403342142701149,-0.31739118695259094,0.9467823505401611,0.0,0.0,0.0,0.0,0.0,0.0
570,1724815778641056975,-2.0913987159729004,-1.1468098163604736,0.18767017126083374,0.04148641973733902,0.03445536643266678,-0.3173389136791229,0.9467775225639343,0.0,0.0,0.0,0.0,0.0,0.0
572,1724815778651589105,-2.091341733932495,-1.1467961072921753,0.1876753866672516,0.041874513030052185,0.03419749066233635,-0.3174775242805481,0.9467233419418335,0.0,0.0,0.0,0.0,0.0,0.0
574,1724815778667396366,-2.091318130493164,-1.146777629852295,0.18771758675575256,0.04171014577150345,0.034400127828121185,-0.3175067901611328,0.9467134475708008,0.0,0.0,0.0,0.0,0.0,0.0
576,1724815778671277956,-2.0913004875183105,-1.146763563156128,0.18776457011699677,0.041649773716926575,0.03447692468762398,-0.3174745738506317,0.9467241168022156,0.0,0.0,0.0,0.0,0.0,0.0
578,1724815778684937576,-2.0913140773773193,-1.1467816829681396,0.18780101835727692,0.0416867695748806,0.03484721854329109,-0.3174384534358978,0.9467210173606873,0.0,0.0,0.0,0.0,0.0,0.0
580,1724815778690813088,-2.0912561416625977,-1.1467547416687012,0.1878512054681778,0.04170091822743416,0.034789953380823135,-0.3174135684967041,0.9467308521270752,0.0,0.0,0.0,0.0,0.0,0.0
582,1724815778700978326,-2.0912818908691406,-1.1467829942703247,0.18785014748573303,0.042069580405950546,0.03511718288064003,-0.31742772459983826,0.9466977119445801,0.0,0.0,0.0,0.0,0.0,0.0
584,1724815778717163805,-2.0912861824035645,-1.1467896699905396,0.18787743151187897,0.04208814725279808,0.03529031202197075,-0.3172815442085266,0.9467394948005676,0.0,0.0,0.0,0.0,0.0,0.0
586,1724815778720137734,-2.091315269470215,-1.1468154191970825,0.18785527348518372,0.0420820415019989,0.03540719673037529,-0.3173353970050812,0.946717381477356,0.0,0.0,0.0,0.0,0.0,0.0
588,1724815778731077215,-2.091301441192627,-1.1468113660812378,0.1878502070903778,0.042208582162857056,0.03530093654990196,-0.31739646196365356,0.9466952681541443,0.0,0.0,0.0,0.0,0.0,0.0
590,1724815778740563630,-2.0913286209106445,-1.1468100547790527,0.1878572404384613,0.04214172065258026,0.03548826649785042,-0.3174326419830322,0.9466789960861206,0.0,0.0,0.0,0.0,0.0,0.0
592,1724815778750723223,-2.091350793838501,-1.1468229293823242,0.1878323256969452,0.04184934124350548,0.03565123304724693,-0.3173610270023346,0.9467098712921143,0.0,0.0,0.0,0.0,0.0,0.0
594,1724815778761431957,-2.091376543045044,-1.1468217372894287,0.18783816695213318,0.04181569442152977,0.035729970782995224,-0.31758564710617065,0.9466331005096436,0.0,0.0,0.0,0.0,0.0,0.0
596,1724815778770608029,-2.091353416442871,-1.1468260288238525,0.18786099553108215,0.042153410613536835,0.03580518811941147,-0.31744998693466187,0.9466607570648193,0.0,0.0,0.0,0.0,0.0,0.0
598,1724815778781281301,-2.0913593769073486,-1.1468409299850464,0.1878463178873062,0.04251546412706375,0.035779766738414764,-0.3175029754638672,0.9466277360916138,0.0,0.0,0.0,0.0,0.0,0.0
600,1724815778790581227,-2.091367483139038,-1.1468174457550049,0.1877915859222412,0.042041923850774765,0.03557940199971199,-0.31749850511550903,0.9466579556465149,0.0,0.0,0.0,0.0,0.0,0.0
602,1724815778800220493,-2.0913236141204834,-1.1468454599380493,0.187799334526062,0.04288782924413681,0.03574974089860916,-0.3173709213733673,0.946656346321106,0.0,0.0,0.0,0.0,0.0,0.0
604,1724815778811372390,-2.091367244720459,-1.1468119621276855,0.187782421708107,0.04246871918439865,0.035634998232126236,-0.31743887066841125,0.9466568231582642,0.0,0.0,0.0,0.0,0.0,0.0
606,1724815778820247324,-2.0913710594177246,-1.1468311548233032,0.1877633035182953,0.04282229766249657,0.03568033128976822,-0.31744185090065,0.9466382265090942,0.0,0.0,0.0,0.0,0.0,0.0
608,1724815778831767414,-2.0913946628570557,-1.1468182802200317,0.18773497641086578,0.04252564534544945,0.03576257824897766,-0.3173671364784241,0.9466734528541565,0.0,0.0,0.0,0.0,0.0,0.0
610,1724815778840498808,-2.0914201736450195,-1.1468150615692139,0.18772104382514954,0.04260987415909767,0.03575146943330765,-0.31747758388519287,0.9466331005096436,0.0,0.0,0.0,0.0,0.0,0.0
612,1724815778850448383,-2.0913848876953125,-1.1468005180358887,0.18776056170463562,0.04244714975357056,0.03548671305179596,-0.31753042340278625,0.9466326832771301,0.0,0.0,0.0,0.0,0.0,0.0
614,1724815778860646051,-2.091398000717163,-1.1467945575714111,0.18775728344917297,0.042596325278282166,0.035565849393606186,-0.31752079725265503,0.9466262459754944,0.0,0.0,0.0,0.0,0.0,0.0
616,1724815778871326170,-2.0914011001586914,-1.1468214988708496,0.18778976798057556,0.04247262328863144,0.03581556677818298,-0.3174362778663635,0.9466506838798523,0.0,0.0,0.0,0.0,0.0,0.0
618,1724815778880859081,-2.0913584232330322,-1.1468135118484497,0.1877979189157486,0.04271293804049492,0.03571793809533119,-0.3174301087856293,0.9466456770896912,0.0,0.0,0.0,0.0,0.0,0.0
620,1724815778905792096,-2.091393232345581,-1.1468088626861572,0.18780216574668884,0.04214903712272644,0.03602670133113861,-0.31744882464408875,0.9466529488563538,0.0,0.0,0.0,0.0,0.0,0.0
622,1724815778906128760,-2.0913467407226562,-1.1467849016189575,0.18781611323356628,0.042106084525585175,0.03568006679415703,-0.317468523979187,0.9466614127159119,0.0,0.0,0.0,0.0,0.0,0.0
624,1724815778911376046,-2.091634750366211,-1.1468909978866577,0.1875448226928711,0.03981691226363182,0.0361982025206089,-0.31787827610969543,0.9466032981872559,0.0,0.0,0.0,0.0,0.0,0.0
626,1724815778920749629,-2.0913407802581787,-1.1468085050582886,0.18779996037483215,0.04291578382253647,0.03561835363507271,-0.3174426555633545,0.9466360211372375,0.0,0.0,0.0,0.0,0.0,0.0
628,1724815778934730647,-2.0913679599761963,-1.1468091011047363,0.1877945512533188,0.04251281917095184,0.03583403676748276,-0.3173735439777374,0.9466692209243774,0.0,0.0,0.0,0.0,0.0,0.0
630,1724815778940613292,-2.0913331508636475,-1.1468182802200317,0.1878359615802765,0.042897820472717285,0.035744041204452515,-0.3173486590385437,0.9466636180877686,0.0,0.0,0.0,0.0,0.0,0.0
632,1724815778953266462,-2.0913383960723877,-1.1468123197555542,0.18783774971961975,0.04271747171878815,0.03584419935941696,-0.3173292577266693,0.9466745257377625,0.0,0.0,0.0,0.0,0.0,0.0
634,1724815778960370026,-2.0913150310516357,-1.1468040943145752,0.18783827126026154,0.04267672076821327,0.03579012304544449,-0.3173801600933075,0.9466612935066223,0.0,0.0,0.0,0.0,0.0,0.0
636,1724815778970680592,-2.0913453102111816,-1.146793007850647,0.18784627318382263,0.041942842304706573,0.03596074506640434,-0.31749626994132996,0.9466486573219299,0.0,0.0,0.0,0.0,0.0,0.0
638,1724815778981659797,-2.0912883281707764,-1.146801471710205,0.18782424926757812,0.04257006570696831,0.03587852790951729,-0.3173525631427765,0.9466720819473267,0.0,0.0,0.0,0.0,0.0,0.0
640,1724815778994218641,-2.0913138389587402,-1.146775245666504,0.18787527084350586,0.041675690561532974,0.036043472588062286,-0.31733807921409607,0.9467104077339172,0.0,0.0,0.0,0.0,0.0,0.0
642,1724815779000962427,-2.0912656784057617,-1.1467779874801636,0.18788063526153564,0.04241470620036125,0.03584819659590721,-0.317314475774765,0.9466928839683533,0.0,0.0,0.0,0.0,0.0,0.0
644,1724815779013053225,-2.0912904739379883,-1.1467735767364502,0.18790316581726074,0.04233315959572792,0.036053042858839035,-0.3173042833805084,0.946692168712616,0.0,0.0,0.0,0.0,0.0,0.0
646,1724815779021246230,-2.0913193225860596,-1.1467702388763428,0.18789039552211761,0.04233325272798538,0.036005619913339615,-0.31753140687942505,0.9466179013252258,0.0,0.0,0.0,0.0,0.0,0.0
648,1724815779032303013,-2.091310501098633,-1.146767497062683,0.18788370490074158,0.04252219945192337,0.03577825054526329,-0.3175731599330902,0.9466040134429932,0.0,0.0,0.0,0.0,0.0,0.0
650,1724815779040586585,-2.0913166999816895,-1.146784782409668,0.18788883090019226,0.04251759499311447,0.03601404279470444,-0.3175047039985657,0.9466182589530945,0.0,0.0,0.0,0.0,0.0,0.0
652,1724815779053254011,-2.0915660858154297,-1.1468344926834106,0.18761907517910004,0.03980725631117821,0.03625361621379852,-0.31795188784599304,0.9465768337249756,0.0,0.0,0.0,0.0,0.0,0.0
654,1724815779061532397,-2.091306447982788,-1.1467609405517578,0.18782289326190948,0.04237980395555496,0.035663239657878876,-0.31750190258026123,0.9466385841369629,0.0,0.0,0.0,0.0,0.0,0.0
656,1724815779073251195,-2.091310977935791,-1.1467746496200562,0.18785402178764343,0.0422728955745697,0.035911668092012405,-0.31746694445610046,0.9466456770896912,0.0,0.0,0.0,0.0,0.0,0.0
658,1724815779080879279,-2.0913329124450684,-1.1467843055725098,0.18780367076396942,0.04260578379034996,0.03584829345345497,-0.31747743487358093,0.9466296434402466,0.0,0.0,0.0,0.0,0.0,0.0
660,1724815779091543192,-2.09132719039917,-1.1467722654342651,0.1878177672624588,0.042259085923433304,0.03596252202987671,-0.31740519404411316,0.9466651082038879,0.0,0.0,0.0,0.0,0.0,0.0
662,1724815779100973438,-2.091339349746704,-1.146809697151184,0.18780311942100525,0.042667288333177567,0.0359598770737648,-0.3174799084663391,0.9466218948364258,0.0,0.0,0.0,0.0,0.0,0.0
664,1724815779110979064,-2.0913233757019043,-1.1468017101287842,0.1878165453672409,0.04287302494049072,0.035870056599378586,-0.31740882992744446,0.9466398358345032,0.0,0.0,0.0,0.0,0.0,0.0
666,1724815779121295649,-2.0913376808166504,-1.146804928779602,0.18779604136943817,0.04271472990512848,0.0358949676156044,-0.3175903856754303,0.9465851187705994,0.0,0.0,0.0,0.0,0.0,0.0
668,1724815779134292584,-2.091338872909546,-1.1468021869659424,0.18779534101486206,0.042631518095731735,0.0359029658138752,-0.3175666928291321,0.9465965628623962,0.0,0.0,0.0,0.0,0.0,0.0
670,1724815779141330771,-2.09131121635437,-1.1467859745025635,0.18783198297023773,0.042825669050216675,0.03578120842576027,-0.31764188408851624,0.946567177772522,0.0,0.0,0.0,0.0,0.0,0.0
672,1724815779151312190,-2.091325521469116,-1.1467499732971191,0.18783274292945862,0.04237287491559982,0.035837896168231964,-0.31757962703704834,0.9466062784194946,0.0,0.0,0.0,0.0,0.0,0.0
674,1724815779162636032,-2.0915541648864746,-1.146871566772461,0.1875738799571991,0.04029780626296997,0.03631284832954407,-0.3177098035812378,0.9466350674629211,0.0,0.0,0.0,0.0,0.0,0.0
676,1724815779170933943,-2.091356039047241,-1.1467490196228027,0.1878078281879425,0.042006175965070724,0.03581834211945534,-0.3176979124546051,0.94658362865448,0.0,0.0,0.0,0.0,0.0,0.0
678,1724815779182716818,-2.0913779735565186,-1.146799921989441,0.1878797560930252,0.04234600067138672,0.03641657531261444,-0.3174542486667633,0.9466274380683899,0.0,0.0,0.0,0.0,0.0,0.0
680,1724815779191315945,-2.091338872909546,-1.146767497062683,0.18782782554626465,0.04235013201832771,0.03588365390896797,-0.31755295395851135,0.9466145038604736,0.0,0.0,0.0,0.0,0.0,0.0
682,1724815779201952239,-2.091352939605713,-1.1467663049697876,0.18780459463596344,0.04241739585995674,0.03599781543016434,-0.3175713121891022,0.9466010332107544,0.0,0.0,0.0,0.0,0.0,0.0
684,1724815779211909234,-2.0915560722351074,-1.1468567848205566,0.1875348687171936,0.04016365483403206,0.03636627271771431,-0.31795772910118103,0.946555495262146,0.0,0.0,0.0,0.0,0.0,0.0
686,1724815779220487865,-2.0913429260253906,-1.1467745304107666,0.1877785623073578,0.04222239553928375,0.035860151052474976,-0.31757447123527527,0.9466139078140259,0.0,0.0,0.0,0.0,0.0,0.0
688,1724815779232097462,-2.091365098953247,-1.1467654705047607,0.1877945214509964,0.041992492973804474,0.03606538847088814,-0.3175286650657654,0.946631669998169,0.0,0.0,0.0,0.0,0.0,0.0
690,1724815779240385574,-2.0913448333740234,-1.146777868270874,0.18779172003269196,0.04218253120779991,0.03580605611205101,-0.3175854980945587,0.9466139674186707,0.0,0.0,0.0,0.0,0.0,0.0
692,1724815779252509949,-2.0913619995117188,-1.1467385292053223,0.18778593838214874,0.04201003164052963,0.03565715625882149,-0.31773385405540466,0.9465775489807129,0.0,0.0,0.0,0.0,0.0,0.0
694,1724815779261494930,-2.091587543487549,-1.1468493938446045,0.18753905594348907,0.04021849110722542,0.036231767386198044,-0.3179679214954376,0.9465548992156982,0.0,0.0,0.0,0.0,0.0,0.0
696,1724815779270439948,-2.091737747192383,-1.1468396186828613,0.18747177720069885,0.038282569497823715,0.03660392016172409,-0.3182263672351837,0.9465339779853821,0.0,0.0,0.0,0.0,0.0,0.0
698,1724815779280870847,-2.0913383960723877,-1.1467583179473877,0.18774929642677307,0.04264913126826286,0.03548808395862579,-0.31756791472435,0.9466109871864319,0.0,0.0,0.0,0.0,0.0,0.0
700,1724815779290869668,-2.0916171073913574,-1.1468489170074463,0.1874903440475464,0.039912138134241104,0.03602304309606552,-0.3179500699043274,0.9465818405151367,0.0,0.0,0.0,0.0,0.0,0.0
702,1724815779300680687,-2.091350555419922,-1.1467729806900024,0.187714621424675,0.042203955352306366,0.035533420741558075,-0.31746384501457214,0.9466641545295715,0.0,0.0,0.0,0.0,0.0,0.0
704,1724815779311443228,-2.0913443565368652,-1.1467700004577637,0.18773455917835236,0.042333852499723434,0.03571903333067894,-0.31753432750701904,0.9466277360916138,0.0,0.0,0.0,0.0,0.0,0.0
706,1724815779323428560,-2.0913469791412354,-1.1467921733856201,0.1877099573612213,0.042733050882816315,0.035780422389507294,-0.31755390763282776,0.9466009140014648,0.0,0.0,0.0,0.0,0.0,0.0
708,1724815779331301677,-2.091364622116089,-1.146766185760498,0.1877133548259735,0.042097534984350204,0.035770170390605927,-0.31757012009620667,0.9466243386268616,0.0,0.0,0.0,0.0,0.0,0.0
710,1724815779341899671,-2.0913288593292236,-1.1467416286468506,0.1876978874206543,0.04246922582387924,0.03548328951001167,-0.3176845610141754,0.9465801119804382,0.0,0.0,0.0,0.0,0.0,0.0
712,1724815779350762195,-2.0913336277008057,-1.1467722654342651,0.1877167522907257,0.04245844855904579,0.03593580052256584,-0.31753382086753845,0.9466140866279602,0.0,0.0,0.0,0.0,0.0,0.0
714,1724815779363536378,-2.091366767883301,-1.1467671394348145,0.1877140998840332,0.042329177260398865,0.0358760766685009,-0.3176051378250122,0.9465981721878052,0.0,0.0,0.0,0.0,0.0,0.0
716,1724815779371725610,-2.0916032791137695,-1.1468753814697266,0.1874675452709198,0.040253542363643646,0.03624902665615082,-0.31779539585113525,0.946610689163208,0.0,0.0,0.0,0.0,0.0,0.0
718,1724815779385138948,-2.091383695602417,-1.146763563156128,0.18770632147789001,0.041746724396944046,0.03562236577272415,-0.3175690174102783,0.9466457962989807,0.0,0.0,0.0,0.0,0.0,0.0
720,1724815779391180629,-2.091395139694214,-1.1467995643615723,0.1877034455537796,0.04216264933347702,0.03597017005085945,-0.31743842363357544,0.9466579556465149,0.0,0.0,0.0,0.0,0.0,0.0
722,1724815779431353060,-2.091665744781494,-1.1468671560287476,0.18736344575881958,0.038480598479509354,0.0367947593331337,-0.3176785707473755,0.9467025399208069,0.0,0.0,0.0,0.0,0.0,0.0
724,1724815779431830376,-2.0916924476623535,-1.1468034982681274,0.1872071921825409,0.03604154661297798,0.0381959043443203,-0.3178662359714508,0.9466801285743713,0.0,0.0,0.0,0.0,0.0,0.0
726,1724815779432220948,-2.0915725231170654,-1.1467461585998535,0.18701526522636414,0.0346962995827198,0.039327606558799744,-0.31755831837654114,0.9467873573303223,0.0,0.0,0.0,0.0,0.0,0.0
728,1724815779432472683,-2.0914645195007324,-1.1466891765594482,0.18680278956890106,0.03283225744962692,0.040593355894088745,-0.31723880767822266,0.9469075202941895,0.0,0.0,0.0,0.0,0.0,0.0
730,1724815779440507655,-2.0912997722625732,-1.1465699672698975,0.18665747344493866,0.031868431717157364,0.04201582446694374,-0.316188782453537,0.9472295641899109,0.0,0.0,0.0,0.0,0.0,0.0
732,1724815779451119488,-2.091355562210083,-1.1465789079666138,0.18641673028469086,0.02910252846777439,0.04400524124503136,-0.31617218255996704,0.9472337365150452,0.0,0.0,0.0,0.0,0.0,0.0
734,1724815779460664185,-2.090513229370117,-1.1462202072143555,0.1865076720714569,0.03173064440488815,0.04373370110988617,-0.3138844668865204,0.9479224681854248,0.0,0.0,0.0,0.0,0.0,0.0
736,1724815779470287314,-2.090311288833618,-1.1461679935455322,0.18642568588256836,0.030643045902252197,0.04530009999871254,-0.31308335065841675,0.9481496810913086,0.0,0.0,0.0,0.0,0.0,0.0
738,1724815779481189949,-2.0901501178741455,-1.1461282968521118,0.18637701869010925,0.02918398752808571,0.046700187027454376,-0.31233590841293335,0.9483742713928223,0.0,0.0,0.0,0.0,0.0,0.0
740,1724815779490396787,-2.090003252029419,-1.146097183227539,0.18645288050174713,0.028358792886137962,0.04817340523004532,-0.3115573525428772,0.9485817551612854,0.0,0.0,0.0,0.0,0.0,0.0
742,1724815779503694908,-2.0896687507629395,-1.1458117961883545,0.1866266131401062,0.026703646406531334,0.04951974004507065,-0.31024444103240967,0.9489906430244446,0.0,0.0,0.0,0.0,0.0,0.0
744,1724815779510999486,-2.0897774696350098,-1.1460702419281006,0.18673653900623322,0.02703879028558731,0.0497002936899662,-0.3109411299228668,0.9487436413764954,0.0,0.0,0.0,0.0,0.0,0.0
746,1724815779520533980,-2.08970308303833,-1.1460593938827515,0.1868533492088318,0.026475906372070312,0.050091080367565155,-0.3108656704425812,0.9487636685371399,0.0,0.0,0.0,0.0,0.0,0.0
748,1724815779531722091,-2.0895743370056152,-1.1460500955581665,0.1869894564151764,0.026056285947561264,0.05051785707473755,-0.3106723427772522,0.9488159418106079,0.0,0.0,0.0,0.0,0.0,0.0
750,1724815779540655868,-2.089440107345581,-1.1460082530975342,0.18705713748931885,0.025497669354081154,0.051075730472803116,-0.3105357587337494,0.9488459825515747,0.0,0.0,0.0,0.0,0.0,0.0
752,1724815779550325919,-2.0891764163970947,-1.145674467086792,0.187195286154747,0.02352350763976574,0.05179284140467644,-0.3099328279495239,0.9490551948547363,0.0,0.0,0.0,0.0,0.0,0.0
754,1724815779561060919,-2.089245557785034,-1.1456005573272705,0.18727877736091614,0.022237595170736313,0.052492134273052216,-0.31040823459625244,0.9488924145698547,0.0,0.0,0.0,0.0,0.0,0.0
756,1724815779571645524,-2.0895192623138428,-1.1456221342086792,0.18741612136363983,0.021816754713654518,0.052858952432870865,-0.3114033043384552,0.9485557675361633,0.0,0.0,0.0,0.0,0.0,0.0
758,1724815779580443341,-2.0895090103149414,-1.1456618309020996,0.18766142427921295,0.022507984191179276,0.05280402675271034,-0.31229302287101746,0.9482500553131104,0.0,0.0,0.0,0.0,0.0,0.0
760,1724815779591076810,-2.088850498199463,-1.145601511001587,0.18756583333015442,0.025400735437870026,0.05118357017636299,-0.3118950426578522,0.9483968019485474,0.0,0.0,0.0,0.0,0.0,0.0
762,1724815779600956503,-2.088759660720825,-1.1456851959228516,0.18720228970050812,0.02767583727836609,0.050741564482450485,-0.3122028708457947,0.9482556581497192,0.0,0.0,0.0,0.0,0.0,0.0
764,1724815779611042950,-2.08862042427063,-1.1455557346343994,0.18732289969921112,0.026950892060995102,0.051093585789203644,-0.3119536340236664,0.948339581489563,0.0,0.0,0.0,0.0,0.0,0.0
766,1724815779622042565,-2.0885212421417236,-1.1454133987426758,0.18726462125778198,0.027027904987335205,0.051477767527103424,-0.3116101026535034,0.9484296441078186,0.0,0.0,0.0,0.0,0.0,0.0
768,1724815779634462911,-2.0884482860565186,-1.1453315019607544,0.18725945055484772,0.027256866917014122,0.05208456143736839,-0.3112477660179138,0.9485089182853699,0.0,0.0,0.0,0.0,0.0,0.0
770,1724815779640995999,-2.088465929031372,-1.1452662944793701,0.1872183233499527,0.027037363499403,0.05212538316845894,-0.31130141019821167,0.9484953880310059,0.0,0.0,0.0,0.0,0.0,0.0
772,1724815779657441854,-2.0884311199188232,-1.1451894044876099,0.18715688586235046,0.026890380308032036,0.0526331327855587,-0.3110819458961487,0.9485435485839844,0.0,0.0,0.0,0.0,0.0,0.0
774,1724815779661108224,-2.0884599685668945,-1.1451821327209473,0.18715538084506989,0.027067629620432854,0.05295848473906517,-0.31118243932724,0.9484873414039612,0.0,0.0,0.0,0.0,0.0,0.0
776,1724815779671042554,-2.0884647369384766,-1.1451425552368164,0.18715155124664307,0.02692059800028801,0.052833229303359985,-0.31122007966041565,0.9484861493110657,0.0,0.0,0.0,0.0,0.0,0.0
778,1724815779681587134,-2.0884904861450195,-1.1451376676559448,0.1871650665998459,0.027082320302724838,0.05302919074892998,-0.3112426996231079,0.9484632015228271,0.0,0.0,0.0,0.0,0.0,0.0
780,1724815779690568659,-2.0889670848846436,-1.1455862522125244,0.1870911717414856,0.027605287730693817,0.05351487547159195,-0.31173694133758545,0.9482585191726685,0.0,0.0,0.0,0.0,0.0,0.0
782,1724815779704704279,-2.0888328552246094,-1.1453135013580322,0.18721166253089905,0.026131318882107735,0.053375180810689926,-0.3115554451942444,0.9483678340911865,0.0,0.0,0.0,0.0,0.0,0.0
784,1724815779711452525,-2.0891544818878174,-1.145381212234497,0.18725144863128662,0.025478903204202652,0.05367257073521614,-0.3123082220554352,0.9481211304664612,0.0,0.0,0.0,0.0,0.0,0.0
786,1724815779720640691,-2.0891826152801514,-1.1454293727874756,0.18729765713214874,0.026026980951428413,0.05362161621451378,-0.31252771615982056,0.948036789894104,0.0,0.0,0.0,0.0,0.0,0.0
788,1724815779731695919,-2.089045763015747,-1.1453678607940674,0.1872778832912445,0.02652493119239807,0.05332000553607941,-0.312343567609787,0.9481006860733032,0.0,0.0,0.0,0.0,0.0,0.0
790,1724815779740417118,-2.089055299758911,-1.145432949066162,0.18697018921375275,0.027038104832172394,0.05347190424799919,-0.3120354115962982,0.9481791257858276,0.0,0.0,0.0,0.0,0.0,0.0
792,1724815779750696591,-2.0888593196868896,-1.145312786102295,0.18711604177951813,0.027627406641840935,0.053128406405448914,-0.31195083260536194,0.9482092261314392,0.0,0.0,0.0,0.0,0.0,0.0
794,1724815779761537569,-2.0887467861175537,-1.1452786922454834,0.187106654047966,0.027994226664304733,0.05309171974658966,-0.31190547347068787,0.9482155442237854,0.0,0.0,0.0,0.0,0.0,0.0
796,1724815779770690909,-2.0890467166900635,-1.1455448865890503,0.1869414746761322,0.027712196111679077,0.0533159114420414,-0.3118531107902527,0.9482284188270569,0.0,0.0,0.0,0.0,0.0,0.0
798,1724815779780978709,-2.0891034603118896,-1.1455297470092773,0.18691353499889374,0.02771446667611599,0.053019437938928604,-0.3120403587818146,0.9481834173202515,0.0,0.0,0.0,0.0,0.0,0.0
800,1724815779790533993,-2.088960886001587,-1.145288348197937,0.18700675666332245,0.026433100923895836,0.05313148349523544,-0.3117391765117645,0.9483126997947693,0.0,0.0,0.0,0.0,0.0,0.0
802,1724815779800450983,-2.089203357696533,-1.1453102827072144,0.18707264959812164,0.0259677954018116,0.05357244983315468,-0.3123648464679718,0.94809490442276,0.0,0.0,0.0,0.0,0.0,0.0
804,1724815779810632623,-2.0893118381500244,-1.1454253196716309,0.18699538707733154,0.02661609649658203,0.053609684109687805,-0.3125534951686859,0.9480125904083252,0.0,0.0,0.0,0.0,0.0,0.0
806,1724815779821771184,-2.0891478061676025,-1.145313024520874,0.18704649806022644,0.026794467121362686,0.053301822394132614,-0.3123554289340973,0.9480901956558228,0.0,0.0,0.0,0.0,0.0,0.0
808,1724815779830899871,-2.0892269611358643,-1.145396113395691,0.18673214316368103,0.026842905208468437,0.053387682884931564,-0.31218478083610535,0.9481402039527893,0.0,0.0,0.0,0.0,0.0,0.0
810,1724815779840534928,-2.088986873626709,-1.1452698707580566,0.18691062927246094,0.027551522478461266,0.05318325757980347,-0.31198257207870483,0.9481979608535767,0.0,0.0,0.0,0.0,0.0,0.0
812,1724815779850528481,-2.0888559818267822,-1.145229458808899,0.1869344264268875,0.02806805446743965,0.05290616303682327,-0.3118803799152374,0.9482319355010986,0.0,0.0,0.0,0.0,0.0,0.0
814,1724815779860564699,-2.0887765884399414,-1.1451807022094727,0.18689711391925812,0.027981095016002655,0.05293096974492073,-0.31169527769088745,0.948293924331665,0.0,0.0,0.0,0.0,0.0,0.0
816,1724815779872071263,-2.0891613960266113,-1.1455307006835938,0.1867372989654541,0.02807033434510231,0.053315550088882446,-0.3118678629398346,0.9482131004333496,0.0,0.0,0.0,0.0,0.0,0.0
818,1724815779881191554,-2.0889620780944824,-1.1452466249465942,0.1868724524974823,0.02699085883796215,0.05336795374751091,-0.31155648827552795,0.9483437538146973,0.0,0.0,0.0,0.0,0.0,0.0
820,1724815779890632888,-2.0891666412353516,-1.1455259323120117,0.18673549592494965,0.02780289202928543,0.05314740538597107,-0.31186848878860474,0.9482301473617554,0.0,0.0,0.0,0.0,0.0,0.0
822,1724815779900492778,-2.0891823768615723,-1.1455515623092651,0.18670839071273804,0.028023602440953255,0.053173329681158066,-0.3117123246192932,0.9482735395431519,0.0,0.0,0.0,0.0,0.0,0.0
824,1724815779910547080,-2.088980197906494,-1.1452596187591553,0.1868159919977188,0.026642795652151108,0.05316254496574402,-0.31151869893074036,0.9483776092529297,0.0,0.0,0.0,0.0,0.0,0.0
826,1724815779944118484,-2.089139699935913,-1.145499348640442,0.1867174208164215,0.028045887127518654,0.05302733927965164,-0.31192076206207275,0.9482125043869019,0.0,0.0,0.0,0.0,0.0,0.0
828,1724815779944358497,-2.0891549587249756,-1.1455341577529907,0.18669496476650238,0.02787778712809086,0.05298252031207085,-0.3119393587112427,0.9482138752937317,0.0,0.0,0.0,0.0,0.0,0.0
830,1724815779944821955,-2.088972806930542,-1.1452486515045166,0.1868046224117279,0.026692325249314308,0.0530359148979187,-0.3116234540939331,0.9483489394187927,0.0,0.0,0.0,0.0,0.0,0.0
832,1724815779950891482,-2.0891435146331787,-1.1455022096633911,0.18670310080051422,0.027935516089200974,0.052907511591911316,-0.3120087683200836,0.9481934905052185,0.0,0.0,0.0,0.0,0.0,0.0
834,1724815779960999141,-2.0891671180725098,-1.1454981565475464,0.1866723895072937,0.027666741982102394,0.052898138761520386,-0.31192466616630554,0.9482296109199524,0.0,0.0,0.0,0.0,0.0,0.0
836,1724815779970920961,-2.0891358852386475,-1.1454883813858032,0.18669337034225464,0.027577463537454605,0.052860137075185776,-0.31195977330207825,0.9482227563858032,0.0,0.0,0.0,0.0,0.0,0.0
838,1724815779981384049,-2.0891363620758057,-1.1455086469650269,0.18667446076869965,0.028180455788969994,0.05283999443054199,-0.3118717670440674,0.9482350945472717,0.0,0.0,0.0,0.0,0.0,0.0
840,1724815779990543703,-2.088975429534912,-1.1452287435531616,0.18683607876300812,0.026547105982899666,0.05293792858719826,-0.3115825951099396,0.9483718872070312,0.0,0.0,0.0,0.0,0.0,0.0
842,1724815780000702054,-2.0892977714538574,-1.1452969312667847,0.1868745982646942,0.02591528184711933,0.05333862453699112,-0.31231528520584106,0.9481257796287537,0.0,0.0,0.0,0.0,0.0,0.0
844,1724815780011576762,-2.0894112586975098,-1.1453773975372314,0.18689417839050293,0.0259629525244236,0.05353257432579994,-0.3125232756137848,0.9480450749397278,0.0,0.0,0.0,0.0,0.0,0.0
846,1724815780020256501,-2.089193344116211,-1.1454888582229614,0.18669536709785461,0.027558526024222374,0.05296061560511589,-0.3119620084762573,0.94821697473526,0.0,0.0,0.0,0.0,0.0,0.0
848,1724815780031542362,-2.0891079902648926,-1.1452698707580566,0.1868210732936859,0.02643578127026558,0.05307994782924652,-0.3119027316570282,0.9482617378234863,0.0,0.0,0.0,0.0,0.0,0.0
850,1724815780040587034,-2.0891573429107666,-1.1455157995224,0.18668213486671448,0.02782370150089264,0.05301828682422638,-0.3118627071380615,0.948238730430603,0.0,0.0,0.0,0.0,0.0,0.0
852,1724815780050932062,-2.0890262126922607,-1.1452640295028687,0.18681997060775757,0.02659943327307701,0.05316147953271866,-0.3116612434387207,0.9483320713043213,0.0,0.0,0.0,0.0,0.0,0.0
854,1724815780061447227,-2.089355707168579,-1.1453516483306885,0.18687735497951508,0.025882882997393608,0.05363890156149864,-0.31245335936546326,0.9480642676353455,0.0,0.0,0.0,0.0,0.0,0.0
856,1724815780071017322,-2.089141607284546,-1.1455166339874268,0.18671245872974396,0.027663366869091988,0.05311491712927818,-0.311723530292511,0.9482837319374084,0.0,0.0,0.0,0.0,0.0,0.0
858,1724815780097868027,-2.088937997817993,-1.1452387571334839,0.186809241771698,0.026872137561440468,0.053158052265644073,-0.311509370803833,0.9483744502067566,0.0,0.0,0.0,0.0,0.0,0.0
860,1724815780098124498,-2.0891661643981934,-1.1454960107803345,0.18667817115783691,0.02777661755681038,0.053081758320331573,-0.3118833899497986,0.9482297301292419,0.0,0.0,0.0,0.0,0.0,0.0
862,1724815780100229287,-2.0891289710998535,-1.1454994678497314,0.18668587505817413,0.027874046936631203,0.052878256887197495,-0.3117789626121521,0.9482725858688354,0.0,0.0,0.0,0.0,0.0,0.0
864,1724815780110583009,-2.089139223098755,-1.1454944610595703,0.18666689097881317,0.027545833960175514,0.053001128137111664,-0.31165581941604614,0.9483157992362976,0.0,0.0,0.0,0.0,0.0,0.0
866,1724815780129390971,-2.0891549587249756,-1.1454837322235107,0.18666869401931763,0.02765721268951893,0.05289570987224579,-0.3118835389614105,0.9482435584068298,0.0,0.0,0.0,0.0,0.0,0.0
868,1724815780130719771,-2.089123487472534,-1.1455066204071045,0.1866821050643921,0.027759453281760216,0.05282048135995865,-0.3117268979549408,0.9482962489128113,0.0,0.0,0.0,0.0,0.0,0.0
870,1724815780140567754,-2.0891382694244385,-1.1455010175704956,0.18667921423912048,0.027530096471309662,0.05275719612836838,-0.3118021786212921,0.9482817053794861,0.0,0.0,0.0,0.0,0.0,0.0
872,1724815780150915239,-2.0891120433807373,-1.1454989910125732,0.1866685003042221,0.027752934023737907,0.05283283814787865,-0.311710923910141,0.9483010172843933,0.0,0.0,0.0,0.0,0.0,0.0
874,1724815780160489273,-2.0891366004943848,-1.145485281944275,0.18666763603687286,0.027488872408866882,0.05278223752975464,-0.3118608891963959,0.9482622146606445,0.0,0.0,0.0,0.0,0.0,0.0
876,1724815780170413390,-2.088932752609253,-1.1452043056488037,0.1867794245481491,0.026320217177271843,0.05278301611542702,-0.3114021122455597,0.9484460353851318,0.0,0.0,0.0,0.0,0.0,0.0
878,1724815780181773621,-2.0893313884735107,-1.1453115940093994,0.18686319887638092,0.02543935365974903,0.05339464172720909,-0.31234151124954224,0.9481269717216492,0.0,0.0,0.0,0.0,0.0,0.0
880,1724815780190903654,-2.089122772216797,-1.1454710960388184,0.18671487271785736,0.027414212003350258,0.05282401293516159,-0.31176191568374634,0.9482946395874023,0.0,0.0,0.0,0.0,0.0,0.0
882,1724815780209100565,-2.0891220569610596,-1.1454840898513794,0.1866968870162964,0.027432771399617195,0.052900705486536026,-0.3117964565753937,0.9482783675193787,0.0,0.0,0.0,0.0,0.0,0.0
884,1724815780210675192,-2.0889906883239746,-1.1452324390411377,0.18682506680488586,0.026239508762955666,0.0529429093003273,-0.3116239607334137,0.9483665227890015,0.0,0.0,0.0,0.0,0.0,0.0
886,1724815780221115549,-2.0892605781555176,-1.1453063488006592,0.18690386414527893,0.025402653962373734,0.05320463702082634,-0.31229594349861145,0.9481536149978638,0.0,0.0,0.0,0.0,0.0,0.0
888,1724815780232796876,-2.0891473293304443,-1.1454941034317017,0.1867283582687378,0.027289291843771935,0.05287657678127289,-0.31193289160728455,0.9482390880584717,0.0,0.0,0.0,0.0,0.0,0.0
890,1724815780240301280,-2.0891363620758057,-1.145503044128418,0.18670089542865753,0.027539025992155075,0.052944909781217575,-0.31178194284439087,0.9482776522636414,0.0,0.0,0.0,0.0,0.0,0.0
892,1724815780250851022,-2.089110851287842,-1.145504117012024,0.18670958280563354,0.027477510273456573,0.05287346616387367,-0.3117411434650421,0.9482967853546143,0.0,0.0,0.0,0.0,0.0,0.0
894,1724815780261760472,-2.089104413986206,-1.1455199718475342,0.18670128285884857,0.027600815519690514,0.05278224125504494,-0.3117719292640686,0.9482882618904114,0.0,0.0,0.0,0.0,0.0,0.0
896,1724815780270555793,-2.088895320892334,-1.1452288627624512,0.18679600954055786,0.026310622692108154,0.052985578775405884,-0.3113015294075012,0.9484681487083435,0.0,0.0,0.0,0.0,0.0,0.0
898,1724815780281179280,-2.0892930030822754,-1.1452995538711548,0.18692466616630554,0.025474468246102333,0.0532773919403553,-0.31226369738578796,0.9481582045555115,0.0,0.0,0.0,0.0,0.0,0.0
900,1724815780291036686,-2.0894417762756348,-1.1453931331634521,0.18687181174755096,0.025295037776231766,0.05357508733868599,-0.31242209672927856,0.9480940103530884,0.0,0.0,0.0,0.0,0.0,0.0
902,1724815780300542394,-2.08919095993042,-1.145371437072754,0.18711277842521667,0.026951979845762253,0.05346302688121796,-0.31247660517692566,0.948036789894104,0.0,0.0,0.0,0.0,0.0,0.0
904,1724815780312463288,-2.0891499519348145,-1.1453404426574707,0.18684342503547668,0.02674434334039688,0.05331895127892494,-0.31219521164894104,0.9481434226036072,0.0,0.0,0.0,0.0,0.0,0.0
906,1724815780321577299,-2.0889079570770264,-1.1452736854553223,0.18689937889575958,0.02776787430047989,0.052919670939445496,-0.31212297081947327,0.9481601715087891,0.0,0.0,0.0,0.0,0.0,0.0
908,1724815780331041362,-2.088775157928467,-1.145207166671753,0.18692100048065186,0.027788657695055008,0.05294910445809364,-0.3116387128829956,0.9483171701431274,0.0,0.0,0.0,0.0,0.0,0.0
910,1724815780342690836,-2.0887224674224854,-1.1451568603515625,0.1869146078824997,0.027657272294163704,0.05301696062088013,-0.31151050329208374,0.9483594298362732,0.0,0.0,0.0,0.0,0.0,0.0
912,1724815780350586471,-2.0886967182159424,-1.1451317071914673,0.18692152202129364,0.027738021686673164,0.05291975289583206,-0.31145161390304565,0.9483818411827087,0.0,0.0,0.0,0.0,0.0,0.0
914,1724815780360495755,-2.0890631675720215,-1.1454837322235107,0.18676596879959106,0.027881622314453125,0.05333438888192177,-0.3117275536060333,0.9482637047767639,0.0,0.0,0.0,0.0,0.0,0.0
916,1724815780371259805,-2.088977575302124,-1.1452258825302124,0.18691623210906982,0.02652466855943203,0.05332258716225624,-0.3116503357887268,0.9483286738395691,0.0,0.0,0.0,0.0,0.0,0.0
918,1724815780380995237,-2.0891129970550537,-1.1455016136169434,0.18678918480873108,0.027723461389541626,0.053283121436834335,-0.31185266375541687,0.9482300281524658,0.0,0.0,0.0,0.0,0.0,0.0
920,1724815780390498480,-2.0891149044036865,-1.1454991102218628,0.1867832988500595,0.027701759710907936,0.05310908332467079,-0.31183183193206787,0.9482473134994507,0.0,0.0,0.0,0.0,0.0,0.0
922,1724815780402162803,-2.088874101638794,-1.1451534032821655,0.18686789274215698,0.026357661932706833,0.05302265286445618,-0.3114652931690216,0.9484109878540039,0.0,0.0,0.0,0.0,0.0,0.0
924,1724815780411004575,-2.089169979095459,-1.1454203128814697,0.18658661842346191,0.026606980711221695,0.05271945521235466,-0.3119197487831116,0.9482715129852295,0.0,0.0,0.0,0.0,0.0,0.0
926,1724815780420843005,-2.0892679691314697,-1.1454108953475952,0.18628312647342682,0.02616233192384243,0.05257177725434303,-0.3118055760860443,0.9483296275138855,0.0,0.0,0.0,0.0,0.0,0.0
928,1724815780435346941,-2.0888941287994385,-1.1451667547225952,0.18650731444358826,0.025426480919122696,0.053842347115278244,-0.31230151653289795,0.9481151103973389,0.0,0.0,0.0,0.0,0.0,0.0
930,1724815780441289612,-2.0891027450561523,-1.145268440246582,0.18613536655902863,0.02523859776556492,0.05467183515429497,-0.31198209524154663,0.9481778144836426,0.0,0.0,0.0,0.0,0.0,0.0
932,1724815780453203885,-2.0893030166625977,-1.1452629566192627,0.1856498420238495,0.024967027828097343,0.0541185662150383,-0.3117755651473999,0.9482846856117249,0.0,0.0,0.0,0.0,0.0,0.0
934,1724815780461904919,-2.0894839763641357,-1.1454013586044312,0.18520420789718628,0.02491922490298748,0.05393935367465019,-0.31118243932724,0.9484909772872925,0.0,0.0,0.0,0.0,0.0,0.0
936,1724815780471258543,-2.0896873474121094,-1.145643711090088,0.1847868412733078,0.02485404536128044,0.053759749978780746,-0.3108679950237274,0.9486059546470642,0.0,0.0,0.0,0.0,0.0,0.0
938,1724815780482038066,-2.0909321308135986,-1.1463508605957031,0.18376876413822174,0.024134723469614983,0.05139438807964325,-0.3101576268672943,0.948988139629364,0.0,0.0,0.0,0.0,0.0,0.0
940,1724815780490275398,-2.0909347534179688,-1.1467013359069824,0.1834508627653122,0.02467522956430912,0.050690263509750366,-0.3095335364341736,0.9492157697677612,0.0,0.0,0.0,0.0,0.0,0.0
942,1724815780502128390,-2.091151714324951,-1.1470738649368286,0.1832154542207718,0.02438882738351822,0.05012084171175957,-0.309183806180954,0.9493674635887146,0.0,0.0,0.0,0.0,0.0,0.0
944,1724815780512271377,-2.09161376953125,-1.1476627588272095,0.1825977861881256,0.023936409503221512,0.04873016104102135,-0.30895766615867615,0.949524998664856,0.0,0.0,0.0,0.0,0.0,0.0
946,1724815780520284229,-2.0917117595672607,-1.148011565208435,0.18231849372386932,0.024181220680475235,0.04783264547586441,-0.30864229798316956,0.9496669173240662,0.0,0.0,0.0,0.0,0.0,0.0
948,1724815780554499065,-2.091604232788086,-1.1479629278182983,0.1829576939344406,0.022879766300320625,0.049419328570365906,-0.3104551434516907,0.9490267634391785,0.0,0.0,0.0,0.0,0.0,0.0
950,1724815780554724319,-2.091500759124756,-1.1481318473815918,0.18293771147727966,0.02262408472597599,0.04933399334549904,-0.30955711007118225,0.9493306875228882,0.0,0.0,0.0,0.0,0.0,0.0
952,1724815780555066987,-2.0920400619506836,-1.1493830680847168,0.18156901001930237,0.020024284720420837,0.040868308395147324,-0.3030606210231781,0.9518839716911316,0.0,0.0,0.0,0.0,0.0,0.0
954,1724815780560714442,-2.091919422149658,-1.1492252349853516,0.1822730302810669,0.021656185388565063,0.04592540115118027,-0.30550071597099304,0.9508371353149414,0.0,0.0,0.0,0.0,0.0,0.0
956,1724815780579680321,-2.0921549797058105,-1.1496902704238892,0.1814897507429123,0.020505240187048912,0.041417934000492096,-0.3031539022922516,0.9518202543258667,0.0,0.0,0.0,0.0,0.0,0.0
958,1724815780580326922,-2.0921871662139893,-1.14982271194458,0.181431382894516,0.021080749109387398,0.0415055975317955,-0.3030790388584137,0.9518277049064636,0.0,0.0,0.0,0.0,0.0,0.0
960,1724815780591442695,-2.0922799110412598,-1.1499947309494019,0.18113648891448975,0.021205894649028778,0.04066275432705879,-0.3024868369102478,0.952049732208252,0.0,0.0,0.0,0.0,0.0,0.0
962,1724815780600490134,-2.092315196990967,-1.150038480758667,0.18103618919849396,0.02125813439488411,0.040361784398555756,-0.30230244994163513,0.9521198272705078,0.0,0.0,0.0,0.0,0.0,0.0
964,1724815780610876465,-2.0923640727996826,-1.1500988006591797,0.18093284964561462,0.021624693647027016,0.0402313657104969,-0.30225783586502075,0.9521313905715942,0.0,0.0,0.0,0.0,0.0,0.0
966,1724815780620902639,-2.0922327041625977,-1.1498061418533325,0.18145881593227386,0.022762365639209747,0.044248610734939575,-0.30429807305336,0.9512763023376465,0.0,0.0,0.0,0.0,0.0,0.0
968,1724815780630346279,-2.092088460922241,-1.1499605178833008,0.1810283064842224,0.022899508476257324,0.04276952147483826,-0.30363893508911133,0.9515513181686401,0.0,0.0,0.0,0.0,0.0,0.0
970,1724815780640438796,-2.0941734313964844,-1.1517401933670044,0.17769141495227814,0.01462053693830967,0.027614034712314606,-0.2901935577392578,0.9564578533172607,0.0,0.0,0.0,0.0,0.0,0.0
972,1724815780650738298,-2.0938119888305664,-1.151429295539856,0.17782215774059296,0.016586247831583023,0.029007811099290848,-0.2932499647140503,0.9554516673088074,0.0,0.0,0.0,0.0,0.0,0.0
974,1724815780679836388,-2.093601942062378,-1.1512480974197388,0.1779767870903015,0.0181779395788908,0.029636263847351074,-0.2945537865161896,0.9550023674964905,0.0,0.0,0.0,0.0,0.0,0.0
976,1724815780680191112,-2.093532085418701,-1.151112675666809,0.1780601441860199,0.018869813531637192,0.029932349920272827,-0.29530131816864014,0.9547486901283264,0.0,0.0,0.0,0.0,0.0,0.0
978,1724815780681564320,-2.09346866607666,-1.1510376930236816,0.17807632684707642,0.019472330808639526,0.030082983896136284,-0.29573193192481995,0.954598605632782,0.0,0.0,0.0,0.0,0.0,0.0
980,1724815780690671480,-2.0937700271606445,-1.1515017747879028,0.17761646211147308,0.01888955757021904,0.027827929705381393,-0.29243189096450806,0.9556947350502014,0.0,0.0,0.0,0.0,0.0,0.0
982,1724815780700849467,-2.0935864448547363,-1.151167631149292,0.17782196402549744,0.01961957849562168,0.02925187349319458,-0.2947375178337097,0.9549289345741272,0.0,0.0,0.0,0.0,0.0,0.0
984,1724815780713701571,-2.0935044288635254,-1.151051640510559,0.17791619896888733,0.01979875937104225,0.029602069407701492,-0.29548221826553345,0.9546842575073242,0.0,0.0,0.0,0.0,0.0,0.0
986,1724815780721962499,-2.0938286781311035,-1.1514794826507568,0.1774970293045044,0.01898999884724617,0.027496645227074623,-0.29228678345680237,0.9557466506958008,0.0,0.0,0.0,0.0,0.0,0.0
988,1724815780731751155,-2.093569040298462,-1.1511385440826416,0.17779457569122314,0.02008712850511074,0.02906944788992405,-0.2947935163974762,0.9549074172973633,0.0,0.0,0.0,0.0,0.0,0.0
990,1724815780740494584,-2.09344744682312,-1.1509968042373657,0.17805756628513336,0.020502803847193718,0.030286863446235657,-0.2959491014480591,0.9545032978057861,0.0,0.0,0.0,0.0,0.0,0.0
992,1724815780752814673,-2.0934619903564453,-1.151036262512207,0.17803169786930084,0.020257115364074707,0.030108638107776642,-0.29553234577178955,0.9546432495117188,0.0,0.0,0.0,0.0,0.0,0.0
994,1724815780763967056,-2.093742609024048,-1.1515192985534668,0.177658349275589,0.019115298986434937,0.027919501066207886,-0.2923058569431305,0.955726146697998,0.0,0.0,0.0,0.0,0.0,0.0
996,1724815780770291133,-2.0934126377105713,-1.1510974168777466,0.1781056672334671,0.01999247632920742,0.03013494238257408,-0.2952694296836853,0.9547293186187744,0.0,0.0,0.0,0.0,0.0,0.0
998,1724815780780990174,-2.0932843685150146,-1.1509768962860107,0.178266242146492,0.02035660482943058,0.030675090849399567,-0.295999139547348,0.9544785022735596,0.0,0.0,0.0,0.0,0.0,0.0
1000,1724815780790414425,-2.0932815074920654,-1.150931715965271,0.17831459641456604,0.02056746371090412,0.030949192121624947,-0.29622137546539307,0.9543961882591248,0.0,0.0,0.0,0.0,0.0,0.0
1002,1724815780801577273,-2.0932998657226562,-1.1509287357330322,0.17829784750938416,0.02050713077187538,0.03105814941227436,-0.2963668406009674,0.9543487429618835,0.0,0.0,0.0,0.0,0.0,0.0
1004,1724815780810954022,-2.093658208847046,-1.1514533758163452,0.17776137590408325,0.01967187225818634,0.02837822027504444,-0.2929501235485077,0.9555040597915649,0.0,0.0,0.0,0.0,0.0,0.0
1006,1724815780820481965,-2.093667507171631,-1.151466965675354,0.17775031924247742,0.019841354340314865,0.0284563135355711,-0.2930668890476227,0.9554623961448669,0.0,0.0,0.0,0.0,0.0,0.0
1008,1724815780831004307,-2.093534231185913,-1.1510953903198242,0.17784634232521057,0.020196514204144478,0.029745491221547127,-0.29543042182922363,0.9546875953674316,0.0,0.0,0.0,0.0,0.0,0.0
1010,1724815780840693542,-2.0936193466186523,-1.1510558128356934,0.17772448062896729,0.020580168813467026,0.02965795435011387,-0.29561981558799744,0.9546234011650085,0.0,0.0,0.0,0.0,0.0,0.0
1012,1724815780850606769,-2.0939812660217285,-1.151482105255127,0.17718635499477386,0.020277248695492744,0.027376463636755943,-0.29334262013435364,0.9554001688957214,0.0,0.0,0.0,0.0,0.0,0.0
1014,1724815780860745259,-2.0938169956207275,-1.1507511138916016,0.17776063084602356,0.018395019695162773,0.031620170921087265,-0.297868549823761,0.9539058208465576,0.0,0.0,0.0,0.0,0.0,0.0
1016,1724815780873294248,-2.0939528942108154,-1.1506438255310059,0.17752213776111603,0.018568968400359154,0.031167173758149147,-0.29809415340423584,0.9538467526435852,0.0,0.0,0.0,0.0,0.0,0.0
1018,1724815780880928344,-2.094109535217285,-1.1507028341293335,0.1770072877407074,0.020850136876106262,0.029334623366594315,-0.2975669503211975,0.9540224075317383,0.0,0.0,0.0,0.0,0.0,0.0
1020,1724815780890685897,-2.0943496227264404,-1.1504844427108765,0.1766723096370697,0.020700769498944283,0.02943754941225052,-0.29829511046409607,0.9537950158119202,0.0,0.0,0.0,0.0,0.0,0.0
1022,1724815780900426457,-2.0946269035339355,-1.1501047611236572,0.1761939525604248,0.020781071856617928,0.02924938127398491,-0.2995426058769226,0.9534080028533936,0.0,0.0,0.0,0.0,0.0,0.0
1024,1724815780911018477,-2.0949628353118896,-1.149908423423767,0.17578351497650146,0.022009722888469696,0.03003324754536152,-0.3002561926841736,0.9531315565109253,0.0,0.0,0.0,0.0,0.0,0.0
1026,1724815780920553376,-2.0954599380493164,-1.1496055126190186,0.17482995986938477,0.023502560332417488,0.02817871980369091,-0.30227965116500854,0.9525128602981567,0.0,0.0,0.0,0.0,0.0,0.0
1028,1724815780932293891,-2.0952463150024414,-1.1487587690353394,0.17560017108917236,0.024726727977395058,0.031785085797309875,-0.3046918511390686,0.9515992999076843,0.0,0.0,0.0,0.0,0.0,0.0
1030,1724815780968096793,-2.0959904193878174,-1.148311972618103,0.1747763305902481,0.025057168677449226,0.029330862686038017,-0.3065313398838043,0.9510785341262817,0.0,0.0,0.0,0.0,0.0,0.0
1032,1724815780968486299,-2.096705198287964,-1.1481143236160278,0.17400212585926056,0.02732975222170353,0.02864239737391472,-0.30798813700675964,0.9505661725997925,0.0,0.0,0.0,0.0,0.0,0.0
1034,1724815780968775450,-2.097327947616577,-1.1476824283599854,0.1734178066253662,0.027444100007414818,0.029034359380602837,-0.30865249037742615,0.9503354430198669,0.0,0.0,0.0,0.0,0.0,0.0
1036,1724815780970765086,-2.097630023956299,-1.147350549697876,0.17277902364730835,0.02777448296546936,0.029019875451922417,-0.3080095052719116,0.9505348801612854,0.0,0.0,0.0,0.0,0.0,0.0
1038,1724815780981930325,-2.097633123397827,-1.1465182304382324,0.17253994941711426,0.027445277199149132,0.029839562252163887,-0.3073655366897583,0.9507275819778442,0.0,0.0,0.0,0.0,0.0,0.0
1040,1724815780990314220,-2.0983877182006836,-1.1460216045379639,0.1720459908246994,0.030588312074542046,0.03058355487883091,-0.3077338635921478,0.950488805770874,0.0,0.0,0.0,0.0,0.0,0.0
1042,1724815781000616559,-2.0990447998046875,-1.1454086303710938,0.17137815058231354,0.03198949247598648,0.030575551092624664,-0.30687692761421204,0.950719952583313,0.0,0.0,0.0,0.0,0.0,0.0
1044,1724815781011831572,-2.099621057510376,-1.144872784614563,0.17078179121017456,0.033056993037462234,0.030729807913303375,-0.30682072043418884,0.950696587562561,0.0,0.0,0.0,0.0,0.0,0.0
1046,1724815781020932774,-2.1003007888793945,-1.1442617177963257,0.17005862295627594,0.03348282724618912,0.030160753056406975,-0.3070138096809387,0.9506375193595886,0.0,0.0,0.0,0.0,0.0,0.0
1048,1724815781038051013,-2.10090708732605,-1.1436491012573242,0.16928642988204956,0.03262227401137352,0.02938883751630783,-0.3074297308921814,0.950557291507721,0.0,0.0,0.0,0.0,0.0,0.0
1050,1724815781041039579,-2.1019480228424072,-1.1434413194656372,0.1677391231060028,0.032410915940999985,0.026098549365997314,-0.3065272867679596,0.950951874256134,0.0,0.0,0.0,0.0,0.0,0.0
1052,1724815781050436087,-2.1024420261383057,-1.14313542842865,0.16728273034095764,0.03438177332282066,0.0264041218906641,-0.3074623644351959,0.9505722522735596,0.0,0.0,0.0,0.0,0.0,0.0
1054,1724815781060895744,-2.102926015853882,-1.1429141759872437,0.16648277640342712,0.03591158241033554,0.02449975535273552,-0.30765730142593384,0.9505036473274231,0.0,0.0,0.0,0.0,0.0,0.0
1056,1724815781071618699,-2.103105068206787,-1.14290189743042,0.16617119312286377,0.03745202347636223,0.02442065440118313,-0.3079417943954468,0.9503540396690369,0.0,0.0,0.0,0.0,0.0,0.0
1058,1724815781084780077,-2.1032660007476807,-1.1429089307785034,0.1659626066684723,0.037882085889577866,0.024006938561797142,-0.3077659606933594,0.9504045844078064,0.0,0.0,0.0,0.0,0.0,0.0
1060,1724815781090437372,-2.103604316711426,-1.1436060667037964,0.1642952561378479,0.04034362733364105,0.019119281321763992,-0.307111531496048,0.9506257772445679,0.0,0.0,0.0,0.0,0.0,0.0
1062,1724815781100646684,-2.1034116744995117,-1.1432448625564575,0.16535131633281708,0.03639860451221466,0.020721077919006348,-0.30481651425361633,0.9514897465705872,0.0,0.0,0.0,0.0,0.0,0.0
1064,1724815781110917118,-2.103381872177124,-1.1434258222579956,0.1654081642627716,0.03655758127570152,0.020261162891983986,-0.30501753091812134,0.9514291286468506,0.0,0.0,0.0,0.0,0.0,0.0
1066,1724815781121022784,-2.1033859252929688,-1.1435011625289917,0.16556835174560547,0.036177683621644974,0.020687147974967957,-0.3051835298538208,0.9513812065124512,0.0,0.0,0.0,0.0,0.0,0.0
1068,1724815781131724070,-2.1033785343170166,-1.1435413360595703,0.16575202345848083,0.035910509526729584,0.021456437185406685,-0.30556532740592957,0.951251745223999,0.0,0.0,0.0,0.0,0.0,0.0
1070,1724815781140941859,-2.1033222675323486,-1.143574595451355,0.16571173071861267,0.03558771684765816,0.02141181379556656,-0.3051406145095825,0.9514011740684509,0.0,0.0,0.0,0.0,0.0,0.0
1072,1724815781151185443,-2.1038336753845215,-1.144072413444519,0.1650833636522293,0.03530530631542206,0.019280092790722847,-0.3045498728752136,0.951646625995636,0.0,0.0,0.0,0.0,0.0,0.0
1074,1724815781160830939,-2.1037256717681885,-1.1436138153076172,0.16574624180793762,0.03541022166609764,0.02211751975119114,-0.3060554563999176,0.951097846031189,0.0,0.0,0.0,0.0,0.0,0.0
1076,1724815781170834974,-2.105289936065674,-1.1436885595321655,0.16542428731918335,0.03397752717137337,0.022017013281583786,-0.3093716502189636,0.9500789046287537,0.0,0.0,0.0,0.0,0.0,0.0
1078,1724815781181676888,-2.1044235229492188,-1.1435189247131348,0.16567480564117432,0.035807766020298004,0.02286290004849434,-0.30810970067977905,0.950401782989502,0.0,0.0,0.0,0.0,0.0,0.0
1080,1724815781190309497,-2.1036360263824463,-1.1434974670410156,0.16533362865447998,0.0363372266292572,0.02057311311364174,-0.3057394325733185,0.9511991739273071,0.0,0.0,0.0,0.0,0.0,0.0
1082,1724815781201186019,-2.1035103797912598,-1.1437216997146606,0.16494834423065186,0.03673436492681503,0.018503883853554726,-0.3041922152042389,0.9517223834991455,0.0,0.0,0.0,0.0,0.0,0.0
1084,1724815781213587639,-2.1035022735595703,-1.1437233686447144,0.16518522799015045,0.03692394495010376,0.0195857435464859,-0.30494171380996704,0.951453447341919,0.0,0.0,0.0,0.0,0.0,0.0
1086,1724815781220200136,-2.1034951210021973,-1.1436352729797363,0.16533008217811584,0.036376241594552994,0.020701315253973007,-0.3050086498260498,0.9514294862747192,0.0,0.0,0.0,0.0,0.0,0.0
1088,1724815781231341920,-2.103424549102783,-1.1434892416000366,0.1656116247177124,0.03589857369661331,0.022329263389110565,-0.3055863380432129,0.9512253999710083,0.0,0.0,0.0,0.0,0.0,0.0
1090,1724815781240299415,-2.103494882583618,-1.1437699794769287,0.16482840478420258,0.037335846573114395,0.017836442217230797,-0.3037179112434387,0.951863169670105,0.0,0.0,0.0,0.0,0.0,0.0
1092,1724815781250485063,-2.1035022735595703,-1.143718957901001,0.16484583914279938,0.03753064572811127,0.018095895648002625,-0.30386045575141907,0.951805055141449,0.0,0.0,0.0,0.0,0.0,0.0
1094,1724815781261120323,-2.1034607887268066,-1.143666386604309,0.16489185392856598,0.037397585809230804,0.01803605444729328,-0.3038226366043091,0.9518234729766846,0.0,0.0,0.0,0.0,0.0,0.0
1096,1724815781273143542,-2.1034603118896484,-1.1436467170715332,0.16495689749717712,0.03772646188735962,0.018585510551929474,-0.3041968047618866,0.9516804218292236,0.0,0.0,0.0,0.0,0.0,0.0
1098,1724815781296470716,-2.103416919708252,-1.1433916091918945,0.165520578622818,0.036434635519981384,0.021649587899446487,-0.3055993318557739,0.9512165784835815,0.0,0.0,0.0,0.0,0.0,0.0
1100,1724815781296928153,-2.103431224822998,-1.1433695554733276,0.16553418338298798,0.036449164152145386,0.02172221429646015,-0.30581653118133545,0.9511445760726929,0.0,0.0,0.0,0.0,0.0,0.0
1102,1724815781300551768,-2.10341477394104,-1.1433758735656738,0.16554731130599976,0.03626924008131027,0.021757669746875763,-0.305848091840744,0.9511404633522034,0.0,0.0,0.0,0.0,0.0,0.0
1104,1724815781310989987,-2.1034483909606934,-1.1433615684509277,0.16554369032382965,0.03608384728431702,0.021698815748095512,-0.30597802996635437,0.9511070251464844,0.0,0.0,0.0,0.0,0.0,0.0
1106,1724815781320279940,-2.1034600734710693,-1.1433353424072266,0.1655302196741104,0.03621528670191765,0.021770723164081573,-0.3061896860599518,0.951032280921936,0.0,0.0,0.0,0.0,0.0,0.0
1108,1724815781331505653,-2.103425979614258,-1.143318772315979,0.16549503803253174,0.036399077624082565,0.021792475134134293,-0.3062402009963989,0.9510084986686707,0.0,0.0,0.0,0.0,0.0,0.0
1110,1724815781340699838,-2.103487253189087,-1.1433203220367432,0.16550610959529877,0.03635312244296074,0.021771416068077087,-0.3062392473220825,0.951011061668396,0.0,0.0,0.0,0.0,0.0,0.0
1112,1724815781359185677,-2.103581666946411,-1.143258810043335,0.16542501747608185,0.03670424595475197,0.021458255127072334,-0.30674463510513306,0.9508418440818787,0.0,0.0,0.0,0.0,0.0,0.0
1114,1724815781360761130,-2.1034512519836426,-1.1433119773864746,0.16552531719207764,0.03641263768076897,0.021864578127861023,-0.30629047751426697,0.9509901404380798,0.0,0.0,0.0,0.0,0.0,0.0
1116,1724815781371265135,-2.103409767150879,-1.1432918310165405,0.16557280719280243,0.03642643988132477,0.02196166291832924,-0.306274950504303,0.9509924054145813,0.0,0.0,0.0,0.0,0.0,0.0
1118,1724815781382635747,-2.103412389755249,-1.1432867050170898,0.16550718247890472,0.0362265482544899,0.021696127951145172,-0.3062833249568939,0.9510034322738647,0.0,0.0,0.0,0.0,0.0,0.0
1120,1724815781390776675,-2.1034510135650635,-1.143286108970642,0.16554686427116394,0.036286260932683945,0.02203313075006008,-0.3063780665397644,0.9509628415107727,0.0,0.0,0.0,0.0,0.0,0.0
1122,1724815781401168243,-2.103443145751953,-1.143277883529663,0.16555608808994293,0.036106206476688385,0.02183609828352928,-0.30619344115257263,0.9510337114334106,0.0,0.0,0.0,0.0,0.0,0.0
1124,1724815781410524250,-2.103525400161743,-1.143303632736206,0.16553711891174316,0.0360216349363327,0.02207733504474163,-0.30637359619140625,0.9509733319282532,0.0,0.0,0.0,0.0,0.0,0.0
1126,1724815781423145416,-2.103492259979248,-1.143267273902893,0.16550368070602417,0.03606465831398964,0.02168113924562931,-0.3062370717525482,0.9510247707366943,0.0,0.0,0.0,0.0,0.0,0.0
1128,1724815781431574617,-2.1034979820251465,-1.1432682275772095,0.1655329167842865,0.03602439537644386,0.021899214014410973,-0.30640822649002075,0.9509662389755249,0.0,0.0,0.0,0.0,0.0,0.0
1130,1724815781440295658,-2.1034860610961914,-1.1432756185531616,0.16553057730197906,0.03596624732017517,0.02166210114955902,-0.30623674392700195,0.9510290622711182,0.0,0.0,0.0,0.0,0.0,0.0
1132,1724815781450586604,-2.1034510135650635,-1.1432634592056274,0.16551323235034943,0.03576705604791641,0.021416930481791496,-0.3062916398048401,0.9510244131088257,0.0,0.0,0.0,0.0,0.0,0.0
1134,1724815781478219904,-2.1034531593322754,-1.1432552337646484,0.1655406802892685,0.035723976790905,0.021573079749941826,-0.30622485280036926,0.9510440826416016,0.0,0.0,0.0,0.0,0.0,0.0
1136,1724815781478601546,-2.103506565093994,-1.1432607173919678,0.16550740599632263,0.0358072929084301,0.021624071523547173,-0.30625787377357483,0.9510291814804077,0.0,0.0,0.0,0.0,0.0,0.0
1138,1724815781481919776,-2.1035139560699463,-1.143254280090332,0.16551735997200012,0.03597954660654068,0.02161681093275547,-0.3063333034515381,0.9509985446929932,0.0,0.0,0.0,0.0,0.0,0.0
1140,1724815781490248720,-2.1035048961639404,-1.1432623863220215,0.1655387580394745,0.036134254187345505,0.021798543632030487,-0.3063381016254425,0.950986921787262,0.0,0.0,0.0,0.0,0.0,0.0
1142,1724815781501005995,-2.103501081466675,-1.143249750137329,0.16550107300281525,0.03595409542322159,0.021643176674842834,-0.3062649369239807,0.9510208964347839,0.0,0.0,0.0,0.0,0.0,0.0
1144,1724815781512667532,-2.1034762859344482,-1.1432527303695679,0.16551101207733154,0.036005400121212006,0.021585367619991302,-0.30620208382606506,0.951040506362915,0.0,0.0,0.0,0.0,0.0,0.0
1146,1724815781520303156,-2.1034655570983887,-1.143248438835144,0.165521502494812,0.0359029583632946,0.021525196731090546,-0.30605044960975647,0.9510945081710815,0.0,0.0,0.0,0.0,0.0,0.0
1148,1724815781535578068,-2.1034841537475586,-1.1432663202285767,0.1655326932668686,0.035957735031843185,0.02155645564198494,-0.3061814308166504,0.9510495662689209,0.0,0.0,0.0,0.0,0.0,0.0
1150,1724815781542420695,-2.103489398956299,-1.1432793140411377,0.16552335023880005,0.03596649691462517,0.021574586629867554,-0.30614975094795227,0.9510590434074402,0.0,0.0,0.0,0.0,0.0,0.0
1152,1724815781557278750,-2.103484869003296,-1.1432771682739258,0.1655343770980835,0.0359543040394783,0.021731266751885414,-0.3061305284500122,0.9510620832443237,0.0,0.0,0.0,0.0,0.0,0.0
1154,1724815781561099152,-2.103487253189087,-1.1432790756225586,0.16555605828762054,0.036308690905570984,0.02185564488172531,-0.30618324875831604,0.9510288238525391,0.0,0.0,0.0,0.0,0.0,0.0
1156,1724815781571352125,-2.1035146713256836,-1.1432814598083496,0.16555768251419067,0.036350809037685394,0.021792197600007057,-0.30623888969421387,0.9510107636451721,0.0,0.0,0.0,0.0,0.0,0.0
1158,1724815781580405018,-2.1035149097442627,-1.1432870626449585,0.16553455591201782,0.036109715700149536,0.02165590412914753,-0.306124746799469,0.9510598182678223,0.0,0.0,0.0,0.0,0.0,0.0
1160,1724815781591383633,-2.1035079956054688,-1.1432944536209106,0.16550098359584808,0.03600011393427849,0.021574320271611214,-0.30609557032585144,0.9510751962661743,0.0,0.0,0.0,0.0,0.0,0.0
1162,1724815781607542668,-2.103503704071045,-1.1432909965515137,0.165522038936615,0.03616471216082573,0.021693235263228416,-0.3061194121837616,0.9510586261749268,0.0,0.0,0.0,0.0,0.0,0.0
1164,1724815781611040804,-2.1034765243530273,-1.1432591676712036,0.16549046337604523,0.035930752754211426,0.02146267145872116,-0.3060324192047119,0.9511006474494934,0.0,0.0,0.0,0.0,0.0,0.0
1166,1724815781621159440,-2.103508949279785,-1.143279790878296,0.16550274193286896,0.03611134737730026,0.021691715344786644,-0.30621278285980225,0.9510305523872375,0.0,0.0,0.0,0.0,0.0,0.0
1168,1724815781633130673,-2.104099988937378,-1.1440027952194214,0.16457542777061462,0.03593616560101509,0.01782834716141224,-0.30460023880004883,0.9516351819038391,0.0,0.0,0.0,0.0,0.0,0.0
1170,1724815781640730593,-2.1040024757385254,-1.1435768604278564,0.16541188955307007,0.036102280020713806,0.02136179804801941,-0.30652543902397156,0.9509376287460327,0.0,0.0,0.0,0.0,0.0,0.0
1172,1724815781651694901,-2.104748249053955,-1.1435695886611938,0.16537395119667053,0.035071685910224915,0.021942272782325745,-0.3081686794757843,0.9504318237304688,0.0,0.0,0.0,0.0,0.0,0.0
1174,1724815781660711360,-2.1044654846191406,-1.1435554027557373,0.16544798016548157,0.03574531897902489,0.021657047793269157,-0.30802321434020996,0.9504604339599609,0.0,0.0,0.0,0.0,0.0,0.0
1176,1724815781673344178,-2.103747606277466,-1.1435999870300293,0.16537700593471527,0.03670721501111984,0.020881429314613342,-0.30589428544044495,0.9511284828186035,0.0,0.0,0.0,0.0,0.0,0.0
1178,1724815781734178250,-2.1041109561920166,-1.143994927406311,0.1646520048379898,0.03595521301031113,0.018202688544988632,-0.30496805906295776,0.9515094757080078,0.0,0.0,0.0,0.0,0.0,0.0
1180,1724815781734870913,-2.104004144668579,-1.143603801727295,0.16539426147937775,0.0366448350250721,0.02143438346683979,-0.3068152368068695,0.9508218765258789,0.0,0.0,0.0,0.0,0.0,0.0
1182,1724815781738801200,-2.105224847793579,-1.1437172889709473,0.16518600285053253,0.03431772440671921,0.02180083468556404,-0.30906301736831665,0.9501721858978271,0.0,0.0,0.0,0.0,0.0,0.0
1184,1724815781739179522,-2.1046457290649414,-1.1435847282409668,0.16535407304763794,0.035740144550800323,0.021429764106869698,-0.3083421289920807,0.9503623247146606,0.0,0.0,0.0,0.0,0.0,0.0
1186,1724815781739494087,-2.103740692138672,-1.1435903310775757,0.16525714099407196,0.03666435927152634,0.0200545322149992,-0.305837482213974,0.9511661529541016,0.0,0.0,0.0,0.0,0.0,0.0
1188,1724815781739885957,-2.1035430431365967,-1.1437058448791504,0.1647457778453827,0.037229426205158234,0.017115004360675812,-0.3043721616268158,0.9516714811325073,0.0,0.0,0.0,0.0,0.0,0.0
1190,1724815781740525676,-2.1039633750915527,-1.143532395362854,0.16415125131607056,0.03553495928645134,0.012814899906516075,-0.308075875043869,0.9506115913391113,0.0,0.0,0.0,0.0,0.0,0.0
1192,1724815781750673633,-2.1037850379943848,-1.143610954284668,0.16410446166992188,0.03730005770921707,0.011390650644898415,-0.3074609935283661,0.950761079788208,0.0,0.0,0.0,0.0,0.0,0.0
1194,1724815781761023590,-2.103787660598755,-1.143497347831726,0.16400831937789917,0.0363306887447834,0.010385053232312202,-0.3079282343387604,0.9506589770317078,0.0,0.0,0.0,0.0,0.0,0.0
1196,1724815781770740104,-2.103750467300415,-1.1434682607650757,0.16382502019405365,0.03613940253853798,0.01026326883584261,-0.3080439865589142,0.9506300687789917,0.0,0.0,0.0,0.0,0.0,0.0
1198,1724815781781169743,-2.1037397384643555,-1.1434640884399414,0.16369125247001648,0.036604903638362885,0.00974253099411726,-0.30850645899772644,0.9504677653312683,0.0,0.0,0.0,0.0,0.0,0.0
1200,1724815781790703005,-2.103600263595581,-1.1434173583984375,0.16396118700504303,0.03738854452967644,0.009523306041955948,-0.3090589940547943,0.9502599835395813,0.0,0.0,0.0,0.0,0.0,0.0
1202,1724815781807312517,-2.1035139560699463,-1.1434139013290405,0.1639402210712433,0.037513941526412964,0.009289287030696869,-0.3094622790813446,0.950126051902771,0.0,0.0,0.0,0.0,0.0,0.0
1204,1724815781810958681,-2.103329658508301,-1.1433669328689575,0.1638595312833786,0.0379321426153183,0.00826579425483942,-0.3100217878818512,0.9499365091323853,0.0,0.0,0.0,0.0,0.0,0.0
1206,1724815781820886248,-2.103105068206787,-1.1433520317077637,0.16382665932178497,0.038277529180049896,0.007677915506064892,-0.31035181879997253,0.949819803237915,0.0,0.0,0.0,0.0,0.0,0.0
1208,1724815781831092216,-2.102783203125,-1.1433337926864624,0.1637205332517624,0.03885457292199135,0.007080938201397657,-0.3106424808502197,0.9497060179710388,0.0,0.0,0.0,0.0,0.0,0.0
1210,1724815781840476222,-2.102513551712036,-1.1434191465377808,0.1638229340314865,0.03946778178215027,0.007118259556591511,-0.31092289090156555,0.9495885968208313,0.0,0.0,0.0,0.0,0.0,0.0
1212,1724815781850699236,-2.102138042449951,-1.143442988395691,0.16389824450016022,0.039722222834825516,0.007866239175200462,-0.3109148442745209,0.9495747685432434,0.0,0.0,0.0,0.0,0.0,0.0
1214,1724815781886000771,-2.1015782356262207,-1.1436052322387695,0.1645270138978958,0.04221617802977562,0.01263697724789381,-0.31101205945014954,0.9493838548660278,0.0,0.0,0.0,0.0,0.0,0.0
1216,1724815781886309829,-2.1009294986724854,-1.143162727355957,0.1638096421957016,0.03905854374170303,0.00864345207810402,-0.31215232610702515,0.9491894841194153,0.0,0.0,0.0,0.0,0.0,0.0
1218,1724815781887139343,-2.10064435005188,-1.1434472799301147,0.16395114362239838,0.04027722030878067,0.00835324451327324,-0.3123109042644501,0.9490890502929688,0.0,0.0,0.0,0.0,0.0,0.0
1220,1724815781890309778,-2.100188732147217,-1.1435065269470215,0.16390249133110046,0.039553817361593246,0.007145165931433439,-0.3127855360507965,0.9489729404449463,0.0,0.0,0.0,0.0,0.0,0.0
1222,1724815781901042674,-2.0994434356689453,-1.1432645320892334,0.1639385223388672,0.03896452113986015,0.005210039205849171,-0.3140442967414856,0.9485941529273987,0.0,0.0,0.0,0.0,0.0,0.0
1224,1724815781910794469,-2.0988895893096924,-1.143580436706543,0.16373620927333832,0.04143746569752693,0.004410835914313793,-0.313618540763855,0.9486342668533325,0.0,0.0,0.0,0.0,0.0,0.0
1226,1724815781920627969,-2.098660707473755,-1.1437138319015503,0.16350500285625458,0.03847678005695343,0.004079835023730993,-0.3149639964103699,0.9483146071434021,0.0,0.0,0.0,0.0,0.0,0.0
1228,1724815781933968254,-2.098789930343628,-1.1440505981445312,0.16335046291351318,0.035193998366594315,0.00542405666783452,-0.3174789845943451,0.947596549987793,0.0,0.0,0.0,0.0,0.0,0.0
1230,1724815781940403852,-2.096924304962158,-1.1437835693359375,0.16429977118968964,0.04232095554471016,0.004747533705085516,-0.314609557390213,0.9482654333114624,0.0,0.0,0.0,0.0,0.0,0.0
1232,1724815781950728422,-2.0962674617767334,-1.1439697742462158,0.16360296308994293,0.0428081639111042,0.0012328663142398,-0.31525924801826477,0.9480388760566711,0.0,0.0,0.0,0.0,0.0,0.0
1234,1724815781962034913,-2.096935272216797,-1.144607424736023,0.1626957803964615,0.032081522047519684,0.004254700616002083,-0.3202029764652252,0.9467961192131042,0.0,0.0,0.0,0.0,0.0,0.0
1236,1724815781970430715,-2.096336603164673,-1.1439878940582275,0.16382576525211334,0.036605991423130035,0.001613424625247717,-0.31760597229003906,0.9475146532058716,0.0,0.0,0.0,0.0,0.0,0.0
1238,1724815781981978566,-2.095820665359497,-1.1440757513046265,0.16381345689296722,0.03629736974835396,0.0006081482861191034,-0.3183296322822571,0.9472847580909729,0.0,0.0,0.0,0.0,0.0,0.0
1240,1724815781990619298,-2.095174789428711,-1.1442850828170776,0.16387279331684113,0.03542407229542732,-0.0006437760312110186,-0.31931009888648987,0.9469877481460571,0.0,0.0,0.0,0.0,0.0,0.0
1242,1724815782001569357,-2.0935544967651367,-1.1442762613296509,0.16371877491474152,0.04004634916782379,-0.0007435820298269391,-0.31646692752838135,0.9477576017379761,0.0,0.0,0.0,0.0,0.0,0.0
1244,1724815782011360600,-2.092219591140747,-1.1443638801574707,0.16344419121742249,0.04119214788079262,-0.003566307947039604,-0.31523966789245605,0.9481109976768494,0.0,0.0,0.0,0.0,0.0,0.0
1246,1724815782020422021,-2.0912742614746094,-1.1445435285568237,0.16354985535144806,0.04275723919272423,-0.00400810781866312,-0.31477805972099304,0.9481933116912842,0.0,0.0,0.0,0.0,0.0,0.0
1248,1724815782031374812,-2.0904483795166016,-1.1447498798370361,0.16363681852817535,0.04399946331977844,-0.004297946114093065,-0.3144896626472473,0.9482309818267822,0.0,0.0,0.0,0.0,0.0,0.0
1250,1724815782040693821,-2.089804172515869,-1.144547462463379,0.16404560208320618,0.04050007462501526,-0.004124303814023733,-0.3154900074005127,0.9480552673339844,0.0,0.0,0.0,0.0,0.0,0.0
1252,1724815782176024126,-2.0886664390563965,-1.144798994064331,0.16469064354896545,0.041106224060058594,-0.0025202964898198843,-0.31666234135627747,0.9476439356803894,0.0,0.0,0.0,0.0,0.0,0.0
1254,1724815782176384588,-2.088102102279663,-1.1448451280593872,0.16510798037052155,0.04208128899335861,-0.001211625407449901,-0.31709104776382446,0.9474603533744812,0.0,0.0,0.0,0.0,0.0,0.0
1256,1724815782176742125,-2.088156223297119,-1.1450573205947876,0.16467896103858948,0.037665121257305145,-0.000928856956306845,-0.3187047839164734,0.9471049904823303,0.0,0.0,0.0,0.0,0.0,0.0
1258,1724815782177088171,-2.0863590240478516,-1.1451259851455688,0.16450412571430206,0.03986227884888649,-0.005032885354012251,-0.3162325322628021,0.9478304982185364,0.0,0.0,0.0,0.0,0.0,0.0
1260,1724815782177501487,-2.085768938064575,-1.145456314086914,0.16429519653320312,0.03962308540940285,-0.0059696342796087265,-0.31686151027679443,0.9476250410079956,0.0,0.0,0.0,0.0,0.0,0.0
1262,1724815782177846620,-2.0857021808624268,-1.1461769342422485,0.16374938189983368,0.03638022020459175,-0.004383616149425507,-0.3184882402420044,0.9472183585166931,0.0,0.0,0.0,0.0,0.0,0.0
1264,1724815782178107509,-2.0850610733032227,-1.1477776765823364,0.1621592789888382,0.03918084874749184,-0.016865190118551254,-0.30535852909088135,0.9512816071510315,0.0,0.0,0.0,0.0,0.0,0.0
1266,1724815782178462303,-2.0836546421051025,-1.1466643810272217,0.16334415972232819,0.04022182896733284,-0.011890126392245293,-0.3101753294467926,0.9497538208961487,0.0,0.0,0.0,0.0,0.0,0.0
1268,1724815782178774349,-2.0825674533843994,-1.1463278532028198,0.16519799828529358,0.04572664573788643,-0.002916764933615923,-0.31619104743003845,0.9475885033607483,0.0,0.0,0.0,0.0,0.0,0.0
1270,1724815782179021602,-2.0820865631103516,-1.1462210416793823,0.16483528912067413,0.04371355101466179,-0.0031603993847966194,-0.3180229067802429,0.947069525718689,0.0,0.0,0.0,0.0,0.0,0.0
1272,1724815782179268649,-2.0816526412963867,-1.1463371515274048,0.16531884670257568,0.04349086806178093,-0.001277967356145382,-0.31896886229515076,0.9467659592628479,0.0,0.0,0.0,0.0,0.0,0.0
1274,1724815782179517791,-2.0801572799682617,-1.1463344097137451,0.16606086492538452,0.043761081993579865,0.0006496853311546147,-0.31820762157440186,0.9470102787017822,0.0,0.0,0.0,0.0,0.0,0.0
1276,1724815782179772428,-2.080130100250244,-1.1466870307922363,0.16561760008335114,0.043023500591516495,-0.0007744446629658341,-0.3184092044830322,0.9469762444496155,0.0,0.0,0.0,0.0,0.0,0.0
1278,1724815782182726213,-2.0799343585968018,-1.1469860076904297,0.16504472494125366,0.04231369122862816,-0.0023979234974831343,-0.31832608580589294,0.9470334053039551,0.0,0.0,0.0,0.0,0.0,0.0
1280,1724815782190247670,-2.079648017883301,-1.1474136114120483,0.16459129750728607,0.04190351814031601,-0.003987845499068499,-0.3171333372592926,0.9474464654922485,0.0,0.0,0.0,0.0,0.0,0.0
1282,1724815782203853495,-2.0793750286102295,-1.1479735374450684,0.16388025879859924,0.04063110053539276,-0.004371503368020058,-0.31729140877723694,0.9474472403526306,0.0,0.0,0.0,0.0,0.0,0.0
1284,1724815782211086170,-2.0765292644500732,-1.146355390548706,0.16734372079372406,0.04791507497429848,0.007704142946749926,-0.3229592740535736,0.9451677799224854,0.0,0.0,0.0,0.0,0.0,0.0
1286,1724815782220340486,-2.075671434402466,-1.1461656093597412,0.1679413914680481,0.04822703078389168,0.008434928953647614,-0.32243648171424866,0.9453241229057312,0.0,0.0,0.0,0.0,0.0,0.0
1288,1724815782231707368,-2.075650453567505,-1.146933913230896,0.1674799919128418,0.045246466994285583,0.005773392040282488,-0.3178199231624603,0.9470533728599548,0.0,0.0,0.0,0.0,0.0,0.0
1290,1724815782240319114,-2.075640916824341,-1.1472872495651245,0.16676031053066254,0.04481950402259827,0.003187400521710515,-0.31799396872520447,0.9470274448394775,0.0,0.0,0.0,0.0,0.0,0.0
1292,1724815782255888398,-2.075165271759033,-1.1475551128387451,0.1666942536830902,0.044120948761701584,0.0019819734152406454,-0.3170832693576813,0.947368860244751,0.0,0.0,0.0,0.0,0.0,0.0
1294,1724815782261124388,-2.0748372077941895,-1.1479769945144653,0.16663189232349396,0.04377065598964691,0.0006107473163865507,-0.31612473726272583,0.9477071762084961,0.0,0.0,0.0,0.0,0.0,0.0
1296,1724815782287327305,-2.07479190826416,-1.1485893726348877,0.16602163016796112,0.04349197447299957,-0.00022223977430257946,-0.31664136052131653,0.9475477337837219,0.0,0.0,0.0,0.0,0.0,0.0
1298,1724815782287735789,-2.074155807495117,-1.14824640750885,0.1665503978729248,0.04738190025091171,0.006593868602067232,-0.32117313146591187,0.9458115100860596,0.0,0.0,0.0,0.0,0.0,0.0
1300,1724815782290544178,-2.072178363800049,-1.1481941938400269,0.16781681776046753,0.0456954650580883,0.005028632469475269,-0.3187117576599121,0.9467363357543945,0.0,0.0,0.0,0.0,0.0,0.0
1302,1724815782300971843,-2.071988582611084,-1.1489864587783813,0.1673639416694641,0.044334352016448975,0.002071420196443796,-0.3156692683696747,0.9478307962417603,0.0,0.0,0.0,0.0,0.0,0.0
1304,1724815782311134868,-2.0721185207366943,-1.1493470668792725,0.1667250692844391,0.04314117133617401,-0.0005061330739408731,-0.3159962296485901,0.9477789402008057,0.0,0.0,0.0,0.0,0.0,0.0
1306,1724815782320441212,-2.0712943077087402,-1.149638295173645,0.16670207679271698,0.04317421466112137,-0.001444847323000431,-0.31577152013778687,0.9478513598442078,0.0,0.0,0.0,0.0,0.0,0.0
1308,1724815782335203520,-2.070556163787842,-1.1499743461608887,0.16655829548835754,0.042473066598176956,-0.0025842466857284307,-0.3154936134815216,0.9479731917381287,0.0,0.0,0.0,0.0,0.0,0.0
1310,1724815782340515535,-2.0688798427581787,-1.1488430500030518,0.16793674230575562,0.04624546691775322,0.006303910166025162,-0.3253934383392334,0.9444261193275452,0.0,0.0,0.0,0.0,0.0,0.0
1312,1724815782350532094,-2.067286729812622,-1.1494120359420776,0.16861622035503387,0.04504008963704109,0.006706684362143278,-0.3226262927055359,0.9454304575920105,0.0,0.0,0.0,0.0,0.0,0.0
1314,1724815782361042248,-2.0677571296691895,-1.1507350206375122,0.16753721237182617,0.04341371729969978,0.0008553427760489285,-0.31649523973464966,0.9475998282432556,0.0,0.0,0.0,0.0,0.0,0.0
1316,1724815782370749508,-2.066910743713379,-1.150378704071045,0.1676744818687439,0.04378693178296089,0.0030737421475350857,-0.3216339647769928,0.9458461999893188,0.0,0.0,0.0,0.0,0.0,0.0
1318,1724815782381362063,-2.0668230056762695,-1.1516178846359253,0.1669822335243225,0.0410265289247036,-0.0021575128193944693,-0.31632503867149353,0.9477608799934387,0.0,0.0,0.0,0.0,0.0,0.0
1320,1724815782390594646,-2.065129280090332,-1.1507741212844849,0.16800501942634583,0.04488559067249298,0.0027918864507228136,-0.32259631156921387,0.9454677104949951,0.0,0.0,0.0,0.0,0.0,0.0
1322,1724815782401733230,-2.064619302749634,-1.15120267868042,0.16786646842956543,0.04363512620329857,0.0030178462620824575,-0.3219105005264282,0.9457592964172363,0.0,0.0,0.0,0.0,0.0,0.0
1324,1724815782410745433,-2.0644748210906982,-1.152492880821228,0.1671484410762787,0.041676491498947144,-0.00312256533652544,-0.3159976899623871,0.9478390216827393,0.0,0.0,0.0,0.0,0.0,0.0
1326,1724815782420782000,-2.064007043838501,-1.1530373096466064,0.16711916029453278,0.04151109606027603,-0.0037777938414365053,-0.3156293034553528,0.9479666352272034,0.0,0.0,0.0,0.0,0.0,0.0
1328,1724815782432900319,-2.0606119632720947,-1.1508362293243408,0.169016495347023,0.044168371707201004,0.0041154976934194565,-0.32747682929039,0.9438173174858093,0.0,0.0,0.0,0.0,0.0,0.0
1330,1724815782440242780,-2.0608861446380615,-1.1522687673568726,0.16837331652641296,0.045380011200904846,0.003184148110449314,-0.324198454618454,0.9448946118354797,0.0,0.0,0.0,0.0,0.0,0.0
1332,1724815782523627602,-2.061671733856201,-1.1545196771621704,0.1670357584953308,0.0426962673664093,-0.0019013393903151155,-0.3174590468406677,0.9473084211349487,0.0,0.0,0.0,0.0,0.0,0.0
1334,1724815782524150220,-2.059760808944702,-1.153468132019043,0.16799576580524445,0.04327256605029106,0.0006770270993001759,-0.3220634162425995,0.9457283616065979,0.0,0.0,0.0,0.0,0.0,0.0
1336,1724815782524486300,-2.059633731842041,-1.1547267436981201,0.16740621626377106,0.04180445894598961,-0.00426947046071291,-0.3172180950641632,0.9474211931228638,0.0,0.0,0.0,0.0,0.0,0.0
1338,1724815782524721031,-2.058505058288574,-1.1547298431396484,0.16754162311553955,0.040175095200538635,-0.004846562165766954,-0.3175467848777771,0.9473788142204285,0.0,0.0,0.0,0.0,0.0,0.0
1340,1724815782524970244,-2.0580267906188965,-1.1554213762283325,0.1671256422996521,0.03950909525156021,-0.007355435285717249,-0.31613820791244507,0.9478615522384644,0.0,0.0,0.0,0.0,0.0,0.0
1342,1724815782525217410,-2.057246208190918,-1.1557451486587524,0.16716954112052917,0.04044675454497337,-0.008713169023394585,-0.3160175383090973,0.9478508234024048,0.0,0.0,0.0,0.0,0.0,0.0
1344,1724815782525463857,-2.0557048320770264,-1.154990315437317,0.16825273633003235,0.044258881360292435,-0.002719666576012969,-0.3229711949825287,0.9453694224357605,0.0,0.0,0.0,0.0,0.0,0.0
1346,1724815782525709911,-2.0558855533599854,-1.1564322710037231,0.1675233393907547,0.04101354628801346,-0.007688597310334444,-0.3168761730194092,0.9475485682487488,0.0,0.0,0.0,0.0,0.0,0.0
1348,1724815782531682264,-2.0554354190826416,-1.1568886041641235,0.16763485968112946,0.04090175777673721,-0.0083308145403862,-0.31636494398117065,0.9477187991142273,0.0,0.0,0.0,0.0,0.0,0.0
1350,1724815782540630763,-2.0553627014160156,-1.1578834056854248,0.16738729178905487,0.038865748792886734,-0.010137434117496014,-0.3150302469730377,0.9482313394546509,0.0,0.0,0.0,0.0,0.0,0.0
1352,1724815782551408485,-2.0549957752227783,-1.1583926677703857,0.16751216351985931,0.039776843041181564,-0.010176096111536026,-0.3144308626651764,0.9483920335769653,0.0,0.0,0.0,0.0,0.0,0.0
1354,1724815782561447110,-2.0546817779541016,-1.1589634418487549,0.1674681156873703,0.03984278067946434,-0.01069237943738699,-0.3145219087600708,0.9483534097671509,0.0,0.0,0.0,0.0,0.0,0.0
1356,1724815782571998565,-2.0533599853515625,-1.158398151397705,0.1680305451154709,0.04263928532600403,-0.00647339504212141,-0.3205517828464508,0.9462486505508423,0.0,0.0,0.0,0.0,0.0,0.0
1358,1724815782581447221,-2.053903102874756,-1.1595861911773682,0.16739210486412048,0.04233042523264885,-0.007852909155189991,-0.31907135248184204,0.9467523694038391,0.0,0.0,0.0,0.0,0.0,0.0
1360,1724815782600927027,-2.0521135330200195,-1.1589323282241821,0.1684316098690033,0.04356572777032852,-0.004480451345443726,-0.324429452419281,0.9448955059051514,0.0,0.0,0.0,0.0,0.0,0.0
1362,1724815782601506221,-2.0512921810150146,-1.1585712432861328,0.1688358336687088,0.044092677533626556,-0.002813916187733412,-0.32872065901756287,0.9433931708335876,0.0,0.0,0.0,0.0,0.0,0.0
1364,1724815782610415879,-2.052321195602417,-1.1608738899230957,0.16785691678524017,0.041376639157533646,-0.009313833899796009,-0.31752556562423706,0.9473007321357727,0.0,0.0,0.0,0.0,0.0,0.0
1366,1724815782626917342,-2.052191734313965,-1.16145920753479,0.16766682267189026,0.04061216488480568,-0.010989728383719921,-0.3173622190952301,0.9473706483840942,0.0,0.0,0.0,0.0,0.0,0.0
1368,1724815782630528700,-2.052823305130005,-1.162537693977356,0.1670934557914734,0.03999806195497513,-0.012475237250328064,-0.3175801634788513,0.9473053812980652,0.0,0.0,0.0,0.0,0.0,0.0
1370,1724815782643119688,-2.0521128177642822,-1.1630189418792725,0.1668182760477066,0.038508620113134384,-0.015306517481803894,-0.31570959091186523,0.9479506611824036,0.0,0.0,0.0,0.0,0.0,0.0
1372,1724815782651418787,-2.052142381668091,-1.163969874382019,0.1661255657672882,0.038255609571933746,-0.017549633979797363,-0.31489628553390503,0.9481924176216125,0.0,0.0,0.0,0.0,0.0,0.0
1374,1724815782660856432,-2.0502424240112305,-1.1629784107208252,0.16806548833847046,0.04129280149936676,-0.008689705282449722,-0.32253509759902954,0.9456164836883545,0.0,0.0,0.0,0.0,0.0,0.0
1376,1724815782671309334,-2.0499556064605713,-1.1632554531097412,0.1683204621076584,0.04133649542927742,-0.008202883414924145,-0.3231566846370697,0.9454067349433899,0.0,0.0,0.0,0.0,0.0,0.0
1378,1724815782681654795,-2.049344301223755,-1.163213849067688,0.16853126883506775,0.041361697018146515,-0.007557129021733999,-0.3257562518119812,0.9445184469223022,0.0,0.0,0.0,0.0,0.0,0.0
1380,1724815782690382863,-2.050438165664673,-1.1656882762908936,0.16724367439746857,0.03833223506808281,-0.014782055281102657,-0.3140965402126312,0.9485017657279968,0.0,0.0,0.0,0.0,0.0,0.0
1382,1724815782700969230,-2.0509872436523438,-1.1665135622024536,0.16665580868721008,0.03765714913606644,-0.015903616324067116,-0.31583085656166077,0.9479345083236694,0.0,0.0,0.0,0.0,0.0,0.0
1384,1724815782712981876,-2.049806594848633,-1.1662325859069824,0.16744311153888702,0.039892058819532394,-0.012362200766801834,-0.317404180765152,0.9473703503608704,0.0,0.0,0.0,0.0,0.0,0.0
1386,1724815782720644665,-2.0491280555725098,-1.1663472652435303,0.16749770939350128,0.04057084023952484,-0.01209424901753664,-0.3190161883831024,0.9468032717704773,0.0,0.0,0.0,0.0,0.0,0.0
1388,1724815782731714209,-2.048067092895508,-1.1659435033798218,0.1680724322795868,0.04065758362412453,-0.009873774833977222,-0.32359597086906433,0.9452699422836304,0.0,0.0,0.0,0.0,0.0,0.0
1390,1724815782740687383,-2.048675298690796,-1.1676695346832275,0.16718454658985138,0.039151836186647415,-0.0149924848228693,-0.3172578811645508,0.9474121332168579,0.0,0.0,0.0,0.0,0.0,0.0
1392,1724815782750512324,-2.0480003356933594,-1.167983889579773,0.16731318831443787,0.039541423320770264,-0.01605091243982315,-0.31679025292396545,0.9475350975990295,0.0,0.0,0.0,0.0,0.0,0.0
1394,1724815782761777546,-2.047947883605957,-1.1689426898956299,0.1664876788854599,0.03845764696598053,-0.020404012873768806,-0.31448036432266235,0.9482651352882385,0.0,0.0,0.0,0.0,0.0,0.0
1396,1724815782770225559,-2.046211004257202,-1.1681574583053589,0.16774356365203857,0.041161708533763885,-0.013705143705010414,-0.32144254446029663,0.9459348320960999,0.0,0.0,0.0,0.0,0.0,0.0
1398,1724815782781511365,-2.046041488647461,-1.1688913106918335,0.1667608916759491,0.046703632920980453,-0.009885313920676708,-0.32671481370925903,0.9439165592193604,0.0,0.0,0.0,0.0,0.0,0.0
1400,1724815782790954428,-2.0458874702453613,-1.1693050861358643,0.16710159182548523,0.041512563824653625,-0.01664772443473339,-0.3193172812461853,0.9465917944908142,0.0,0.0,0.0,0.0,0.0,0.0
1402,1724815782800811975,-2.0459771156311035,-1.1709479093551636,0.16588802635669708,0.04023372381925583,-0.0242313202470541,-0.3126446008682251,0.9487084150314331,0.0,0.0,0.0,0.0,0.0,0.0
1404,1724815782810940183,-2.0450048446655273,-1.170885682106018,0.16638104617595673,0.03977455571293831,-0.024242576211690903,-0.3124467134475708,0.948792576789856,0.0,0.0,0.0,0.0,0.0,0.0
1406,1724815782820501529,-2.0442516803741455,-1.1712896823883057,0.16615639626979828,0.039551522582769394,-0.02647530287504196,-0.31081780791282654,0.9492771625518799,0.0,0.0,0.0,0.0,0.0,0.0
1408,1724815782831362160,-2.043592691421509,-1.17195725440979,0.16574101150035858,0.03933560475707054,-0.030370673164725304,-0.30801963806152344,0.9500812292098999,0.0,0.0,0.0,0.0,0.0,0.0
1410,1724815782840533226,-2.041240930557251,-1.1706717014312744,0.1682998239994049,0.0425909049808979,-0.02087043784558773,-0.314542680978775,0.9480577111244202,0.0,0.0,0.0,0.0,0.0,0.0
1412,1724815782850347733,-2.0404977798461914,-1.1706936359405518,0.1684509962797165,0.0427459292113781,-0.021418705582618713,-0.31492629647254944,0.9479111433029175,0.0,0.0,0.0,0.0,0.0,0.0
1414,1724815782860451610,-2.040442943572998,-1.1714446544647217,0.16750898957252502,0.04485471174120903,-0.01998008042573929,-0.31798607110977173,0.9468229413032532,0.0,0.0,0.0,0.0,0.0,0.0
1416,1724815782872405557,-2.0402324199676514,-1.172568440437317,0.1668761968612671,0.04032303765416145,-0.029202641919255257,-0.30740487575531006,0.9502755403518677,0.0,0.0,0.0,0.0,0.0,0.0
1418,1724815782881603233,-2.039370536804199,-1.1731082201004028,0.16670158505439758,0.03978060185909271,-0.03234275057911873,-0.30410251021385193,0.9512587785720825,0.0,0.0,0.0,0.0,0.0,0.0
1420,1724815782891014642,-2.03792667388916,-1.1726502180099487,0.16774730384349823,0.0417708195745945,-0.02856607176363468,-0.30795779824256897,0.9500532746315002,0.0,0.0,0.0,0.0,0.0,0.0
1422,1724815782901629985,-2.037303924560547,-1.173223614692688,0.16755890846252441,0.04072922095656395,-0.030007196590304375,-0.3064596951007843,0.9505383372306824,0.0,0.0,0.0,0.0,0.0,0.0
1424,1724815782910392432,-2.0365407466888428,-1.1734899282455444,0.16759830713272095,0.040839534252882004,-0.029847074300050735,-0.3063869774341583,0.9505621194839478,0.0,0.0,0.0,0.0,0.0,0.0
1426,1724815782920551206,-2.036168336868286,-1.1745439767837524,0.16726650297641754,0.040649183094501495,-0.0313669890165329,-0.3032953143119812,0.9515123963356018,0.0,0.0,0.0,0.0,0.0,0.0
1428,1724815782932819571,-2.0348057746887207,-1.1745915412902832,0.16768106818199158,0.04001542925834656,-0.031126759946346283,-0.3017231822013855,0.952046811580658,0.0,0.0,0.0,0.0,0.0,0.0
1430,1724815782940450477,-2.0341923236846924,-1.1750088930130005,0.16747835278511047,0.03964291140437126,-0.03210143372416496,-0.30169931054115295,0.952037513256073,0.0,0.0,0.0,0.0,0.0,0.0
1432,1724815782954483171,-2.0330660343170166,-1.1746699810028076,0.1679355800151825,0.04218459129333496,-0.030367277562618256,-0.3033357858657837,0.9514650106430054,0.0,0.0,0.0,0.0,0.0,0.0
1434,1724815782966032248,-2.031630516052246,-1.1746141910552979,0.1677759885787964,0.04012798145413399,-0.03223933279514313,-0.3018345832824707,0.9519697427749634,0.0,0.0,0.0,0.0,0.0,0.0
1436,1724815782970930317,-2.0307183265686035,-1.174887776374817,0.16760557889938354,0.04018743708729744,-0.03377549350261688,-0.30056270956993103,0.9523163437843323,0.0,0.0,0.0,0.0,0.0,0.0
1438,1724815782983988005,-2.0276107788085938,-1.1727358102798462,0.1691504269838333,0.043090447783470154,-0.026249587535858154,-0.31527960300445557,0.9476565718650818,0.0,0.0,0.0,0.0,0.0,0.0
1440,1724815782991210600,-2.0275051593780518,-1.1734946966171265,0.1688000112771988,0.041725486516952515,-0.02657920867204666,-0.3110544681549072,0.9491036534309387,0.0,0.0,0.0,0.0,0.0,0.0
1442,1724815783001462728,-2.0256431102752686,-1.1724752187728882,0.16953858733177185,0.04243217408657074,-0.025452569127082825,-0.31517019867897034,0.9477444291114807,0.0,0.0,0.0,0.0,0.0,0.0
1444,1724815783012110278,-2.0270490646362305,-1.1752418279647827,0.1680397093296051,0.04065397381782532,-0.03276544436812401,-0.2984766364097595,0.9529876708984375,0.0,0.0,0.0,0.0,0.0,0.0
1446,1724815783021198649,-2.026050329208374,-1.1752604246139526,0.16824455559253693,0.04127698391675949,-0.031096547842025757,-0.29973334074020386,0.9526222348213196,0.0,0.0,0.0,0.0,0.0,0.0
1448,1724815783031473303,-2.026068925857544,-1.1761826276779175,0.16701501607894897,0.03965623676776886,-0.03497544676065445,-0.29785895347595215,0.9531444311141968,0.0,0.0,0.0,0.0,0.0,0.0
1450,1724815783041568557,-2.025033950805664,-1.1759533882141113,0.16736960411071777,0.03854701295495033,-0.03607088327407837,-0.2951514720916748,0.9539908766746521,0.0,0.0,0.0,0.0,0.0,0.0
1452,1724815783054900572,-2.024116277694702,-1.1756209135055542,0.16799843311309814,0.04032066464424133,-0.03455950319766998,-0.2961484491825104,0.9536645412445068,0.0,0.0,0.0,0.0,0.0,0.0
1454,1724815783060809248,-2.02251935005188,-1.1755540370941162,0.16858141124248505,0.04170626401901245,-0.03262763470411301,-0.2968796491622925,0.9534456133842468,0.0,0.0,0.0,0.0,0.0,0.0
1456,1724815783070520472,-2.0206081867218018,-1.1735239028930664,0.16954325139522552,0.0423269160091877,-0.03187356889247894,-0.3040742576122284,0.9511736631393433,0.0,0.0,0.0,0.0,0.0,0.0
1458,1724815783081347017,-2.019977569580078,-1.1736160516738892,0.1694536805152893,0.04152274876832962,-0.03313509002327919,-0.3033899664878845,0.9513844847679138,0.0,0.0,0.0,0.0,0.0,0.0
1460,1724815783090442839,-2.021954298019409,-1.1769371032714844,0.16793620586395264,0.04019401594996452,-0.038513120263814926,-0.2902812361717224,0.9553208947181702,0.0,0.0,0.0,0.0,0.0,0.0
1462,1724815783101104479,-2.0210933685302734,-1.1767771244049072,0.1682172566652298,0.040318563580513,-0.03824549540877342,-0.29008981585502625,0.9553845524787903,0.0,0.0,0.0,0.0,0.0,0.0
1464,1724815783110511299,-2.020597457885742,-1.1768330335617065,0.16800931096076965,0.041313398629426956,-0.039249420166015625,-0.2913530766963959,0.954916775226593,0.0,0.0,0.0,0.0,0.0,0.0
1466,1724815783120640630,-2.0200679302215576,-1.1770235300064087,0.16825330257415771,0.041147224605083466,-0.03890790790319443,-0.29116278886795044,0.9549960494041443,0.0,0.0,0.0,0.0,0.0,0.0
1468,1724815783270457132,-2.019740104675293,-1.1776180267333984,0.1678416132926941,0.04122897610068321,-0.041073720902204514,-0.2901019752025604,0.9552246332168579,0.0,0.0,0.0,0.0,0.0,0.0
1470,1724815783271002700,-2.0190062522888184,-1.1775963306427002,0.16824530065059662,0.041106484830379486,-0.03964824974536896,-0.2908141016960144,0.9550735354423523,0.0,0.0,0.0,0.0,0.0,0.0
1472,1724815783271368164,-2.018761396408081,-1.1780349016189575,0.1680724173784256,0.04163946956396103,-0.04014744237065315,-0.2901524603366852,0.9552308320999146,0.0,0.0,0.0,0.0,0.0,0.0
1474,1724815783271790649,-2.0182340145111084,-1.1786712408065796,0.16779778897762299,0.04035608842968941,-0.042562343180179596,-0.28697487711906433,0.9561408758163452,0.0,0.0,0.0,0.0,0.0,0.0
1476,1724815783272292542,-2.017758846282959,-1.179202914237976,0.1673675924539566,0.03966357931494713,-0.044907256960868835,-0.285521537065506,0.9564976096153259,0.0,0.0,0.0,0.0,0.0,0.0
1478,1724815783272880221,-2.0150411128997803,-1.1770007610321045,0.1691049039363861,0.04460632801055908,-0.036325134336948395,-0.30210986733436584,0.9515358805656433,0.0,0.0,0.0,0.0,0.0,0.0
1480,1724815783273427059,-2.014963388442993,-1.1779429912567139,0.16890566051006317,0.04437171295285225,-0.03740215674042702,-0.2986956238746643,0.9525824189186096,0.0,0.0,0.0,0.0,0.0,0.0
1482,1724815783273889918,-2.0162570476531982,-1.180293083190918,0.1681419163942337,0.04283928498625755,-0.04058247059583664,-0.287007212638855,0.9561091661453247,0.0,0.0,0.0,0.0,0.0,0.0
1484,1724815783274165095,-2.0160634517669678,-1.180784821510315,0.16755244135856628,0.04165029153227806,-0.043486565351486206,-0.2855882942676544,0.9564588069915771,0.0,0.0,0.0,0.0,0.0,0.0
