seq,stamp,px,py,pz,ox,oy,oz,ow,lx,ly,lz,ax,ay,az
34410,1724913277969717155,-1.3661547899246216,-0.33569008111953735,0.20662786066532135,0.006034241057932377,-0.06402093917131424,-0.28631407022476196,0.9559755325317383,0.0,0.0,0.0,0.0,0.0,0.0
34412,1724913277979420727,-1.3676608800888062,-0.33551135659217834,0.20567236840724945,0.005281983409076929,-0.06744737178087234,-0.28513669967651367,0.9560962915420532,0.0,0.0,0.0,0.0,0.0,0.0
34414,1724913277989913529,-1.3691738843917847,-0.33530840277671814,0.20464928448200226,0.004919951315969229,-0.0709637776017189,-0.2851615250110626,0.9558362364768982,0.0,0.0,0.0,0.0,0.0,0.0
34416,1724913277999818618,-1.3704962730407715,-0.335186630487442,0.20380166172981262,0.005692306440323591,-0.073745958507061,-0.28514358401298523,0.9556266069412231,0.0,0.0,0.0,0.0,0.0,0.0
34418,1724913278009450644,-1.3717913627624512,-0.3351706862449646,0.2030765265226364,0.004961173981428146,-0.07609973102807999,-0.2848225235939026,0.9555419087409973,0.0,0.0,0.0,0.0,0.0,0.0
34420,1724913278019564580,-1.372944712638855,-0.335116446018219,0.20256204903125763,0.004946467466652393,-0.07755386829376221,-0.28500357270240784,0.9553711414337158,0.0,0.0,0.0,0.0,0.0,0.0
34422,1724913278029147867,-1.373961091041565,-0.335129976272583,0.20193880796432495,0.005178991239517927,-0.07905757427215576,-0.28487586975097656,0.9552847743034363,0.0,0.0,0.0,0.0,0.0,0.0
34424,1724913278040020247,-1.3749443292617798,-0.3351568281650543,0.20117776095867157,0.004364631604403257,-0.0806436538696289,-0.2844713628292084,0.9552767872810364,0.0,0.0,0.0,0.0,0.0,0.0
34426,1724913278049172559,-1.3757416009902954,-0.33528923988342285,0.20047999918460846,0.0034782043658196926,-0.08252760767936707,-0.2837146818637848,0.9553444981575012,0.0,0.0,0.0,0.0,0.0,0.0
34428,1724913278059247415,-1.3763468265533447,-0.33527106046676636,0.20000874996185303,0.0037999870255589485,-0.08410026878118515,-0.28372830152511597,0.955202043056488,0.0,0.0,0.0,0.0,0.0,0.0
34430,1724913278071837513,-1.3767740726470947,-0.33512189984321594,0.1997728943824768,0.005216105375438929,-0.08414219319820404,-0.2845948040485382,0.9549338817596436,0.0,0.0,0.0,0.0,0.0,0.0
34432,1724913278079675471,-1.3771744966506958,-0.3349957764148712,0.19935005903244019,0.005051897373050451,-0.08534110337495804,-0.2851583957672119,0.9546602368354797,0.0,0.0,0.0,0.0,0.0,0.0
34434,1724913278089455943,-1.3774677515029907,-0.334831178188324,0.19895005226135254,0.005032802000641823,-0.08667580038309097,-0.2859632670879364,0.9542992115020752,0.0,0.0,0.0,0.0,0.0,0.0
34436,1724913278112583273,-1.3777536153793335,-0.33468928933143616,0.19851870834827423,0.004941040650010109,-0.0875050500035286,-0.2863454222679138,0.9541093707084656,0.0,0.0,0.0,0.0,0.0,0.0
34438,1724913278112925195,-1.377964973449707,-0.3346576988697052,0.1979847103357315,0.0043450528755784035,-0.09003286808729172,-0.285828173160553,0.9540322422981262,0.0,0.0,0.0,0.0,0.0,0.0
34440,1724913278119759513,-1.3781658411026,-0.33460041880607605,0.1975601762533188,0.004129575565457344,-0.09156794100999832,-0.28564533591270447,0.953941822052002,0.0,0.0,0.0,0.0,0.0,0.0
34442,1724913278130983878,-1.3783701658248901,-0.33452776074409485,0.19726596772670746,0.0037371856160461903,-0.09222226589918137,-0.28558409214019775,0.9538987874984741,0.0,0.0,0.0,0.0,0.0,0.0
34444,1724913278156183715,-1.3785934448242188,-0.33443865180015564,0.1969292163848877,0.0034904545173048973,-0.09303901344537735,-0.285348504781723,0.953890860080719,0.0,0.0,0.0,0.0,0.0,0.0
34446,1724913278156556134,-1.3788387775421143,-0.3344303071498871,0.1965382695198059,0.0029153204523026943,-0.09452831000089645,-0.28454136848449707,0.9539875388145447,0.0,0.0,0.0,0.0,0.0,0.0
34448,1724913278159401090,-1.3790724277496338,-0.334347665309906,0.19626584649085999,0.0034404131583869457,-0.09528316557407379,-0.2843436002731323,0.9539696574211121,0.0,0.0,0.0,0.0,0.0,0.0
34450,1724913278169708482,-1.3792870044708252,-0.33425265550613403,0.19607576727867126,0.004175776615738869,-0.09579294174909592,-0.2841269075870514,0.9539802670478821,0.0,0.0,0.0,0.0,0.0,0.0
34452,1724913278180482860,-1.3795435428619385,-0.33411914110183716,0.1960119903087616,0.004332554992288351,-0.09594084322452545,-0.2845821976661682,0.9538288712501526,0.0,0.0,0.0,0.0,0.0,0.0
34454,1724913278189085994,-1.3797802925109863,-0.33405888080596924,0.19583144783973694,0.004367051646113396,-0.09659437090158463,-0.28435075283050537,0.9538317918777466,0.0,0.0,0.0,0.0,0.0,0.0
34456,1724913278199297524,-1.3799937963485718,-0.3340212106704712,0.19575782120227814,0.004590416327118874,-0.09633727371692657,-0.28417885303497314,0.9539080262184143,0.0,0.0,0.0,0.0,0.0,0.0
34458,1724913278212444355,-1.3801864385604858,-0.33399876952171326,0.19567500054836273,0.004565445706248283,-0.0965433418750763,-0.28395724296569824,0.9539532661437988,0.0,0.0,0.0,0.0,0.0,0.0
34460,1724913278221408434,-1.3803157806396484,-0.3339712619781494,0.1956356167793274,0.004749984946101904,-0.09686178714036942,-0.28362005949020386,0.9540204405784607,0.0,0.0,0.0,0.0,0.0,0.0
34462,1724913278229781414,-1.3804669380187988,-0.33396145701408386,0.19562630355358124,0.004507857840508223,-0.0970354825258255,-0.28346362709999084,0.9540504813194275,0.0,0.0,0.0,0.0,0.0,0.0
34464,1724913278242512331,-1.3805620670318604,-0.3338690996170044,0.19585520029067993,0.005089223850518465,-0.0959271639585495,-0.28396254777908325,0.9540112018585205,0.0,0.0,0.0,0.0,0.0,0.0
34466,1724913278255468796,-1.3807038068771362,-0.33388403058052063,0.1958497315645218,0.004970228765159845,-0.0959431603550911,-0.28337588906288147,0.9541847109794617,0.0,0.0,0.0,0.0,0.0,0.0
34468,1724913278259771996,-1.3808802366256714,-0.3338247239589691,0.19588987529277802,0.004917777143418789,-0.09542331844568253,-0.2832324802875519,0.9542796015739441,0.0,0.0,0.0,0.0,0.0,0.0
34470,1724913278270918438,-1.3810365200042725,-0.33383476734161377,0.19581325352191925,0.0051546720787882805,-0.09581209719181061,-0.28261420130729675,0.9544227719306946,0.0,0.0,0.0,0.0,0.0,0.0
34472,1724913278280350462,-1.3812081813812256,-0.333758682012558,0.19582685828208923,0.005587870255112648,-0.09577970206737518,-0.28279033303260803,0.9543713331222534,0.0,0.0,0.0,0.0,0.0,0.0
34474,1724913278290095860,-1.3814431428909302,-0.33377453684806824,0.1957082748413086,0.005431591998785734,-0.09632356464862823,-0.2823725938796997,0.954441249370575,0.0,0.0,0.0,0.0,0.0,0.0
34476,1724913278304405268,-1.3816964626312256,-0.3337704539299011,0.19566026329994202,0.005371715407818556,-0.09662140905857086,-0.2819253206253052,0.9545436501502991,0.0,0.0,0.0,0.0,0.0,0.0
34478,1724913278309851135,-1.3819382190704346,-0.33375027775764465,0.19562876224517822,0.005608456674963236,-0.09723944216966629,-0.2813809812068939,0.9546401500701904,0.0,0.0,0.0,0.0,0.0,0.0
34480,1724913278322510816,-1.38224458694458,-0.333739697933197,0.19560952484607697,0.004998514894396067,-0.09757861495018005,-0.2806950509548187,0.9548108577728271,0.0,0.0,0.0,0.0,0.0,0.0
34482,1724913278329726421,-1.3825119733810425,-0.33381783962249756,0.1955574005842209,0.005056712776422501,-0.09832203388214111,-0.2796459496021271,0.9550420641899109,0.0,0.0,0.0,0.0,0.0,0.0
34484,1724913278339436616,-1.3828063011169434,-0.33382943272590637,0.1955767422914505,0.004927300848066807,-0.0990355983376503,-0.27884945273399353,0.9552019238471985,0.0,0.0,0.0,0.0,0.0,0.0
34486,1724913278350854014,-1.3830980062484741,-0.33383041620254517,0.1955965906381607,0.005154141690582037,-0.09927584230899811,-0.278049498796463,0.9554089307785034,0.0,0.0,0.0,0.0,0.0,0.0
34488,1724913278361182112,-1.3834116458892822,-0.3338187336921692,0.19559046626091003,0.005190668627619743,-0.09929477423429489,-0.2770622968673706,0.9556936025619507,0.0,0.0,0.0,0.0,0.0,0.0
34490,1724913278371659714,-1.3837475776672363,-0.3338685631752014,0.1954292207956314,0.00450113182887435,-0.10011904686689377,-0.27598464488983154,0.9559228420257568,0.0,0.0,0.0,0.0,0.0,0.0
34492,1724913278380159420,-1.3840513229370117,-0.3338651657104492,0.19537381827831268,0.004501991905272007,-0.10008329153060913,-0.27532708644866943,0.9561161994934082,0.0,0.0,0.0,0.0,0.0,0.0
34494,1724913278389596030,-1.3843599557876587,-0.33382102847099304,0.19538530707359314,0.0047807227820158005,-0.09954019635915756,-0.2746587097644806,0.9563636779785156,0.0,0.0,0.0,0.0,0.0,0.0
34496,1724913278400470225,-1.3846814632415771,-0.33363857865333557,0.19554533064365387,0.0048730517737567425,-0.09848597645759583,-0.2745767831802368,0.9564959406852722,0.0,0.0,0.0,0.0,0.0,0.0
34498,1724913278409355318,-1.3850600719451904,-0.3334597051143646,0.1956130415201187,0.005040537565946579,-0.09722325950860977,-0.2738145887851715,0.9568426012992859,0.0,0.0,0.0,0.0,0.0,0.0
34500,1724913278419945052,-1.385387659072876,-0.3332737386226654,0.19564056396484375,0.005614006891846657,-0.09698670357465744,-0.2731424868106842,0.9570555090904236,0.0,0.0,0.0,0.0,0.0,0.0
34502,1724913278429723060,-1.3856730461120605,-0.33300259709358215,0.1959151178598404,0.005891784094274044,-0.09654232114553452,-0.2730916738510132,0.9571133255958557,0.0,0.0,0.0,0.0,0.0,0.0
34504,1724913278439392825,-1.3858821392059326,-0.33269134163856506,0.19632330536842346,0.0065419431775808334,-0.09558472037315369,-0.27326977252960205,0.9571543335914612,0.0,0.0,0.0,0.0,0.0,0.0
34506,1724913278451239153,-1.3860359191894531,-0.3323032855987549,0.19683058559894562,0.0067820241674780846,-0.09425733238458633,-0.27314361929893494,0.9573202729225159,0.0,0.0,0.0,0.0,0.0,0.0
34508,1724913278459380600,-1.3861414194107056,-0.3319211006164551,0.1971670687198639,0.00681018503382802,-0.09295643866062164,-0.2727554440498352,0.9575579762458801,0.0,0.0,0.0,0.0,0.0,0.0
34510,1724913278469445009,-1.3861639499664307,-0.3314887583255768,0.19744768738746643,0.005791563540697098,-0.09168408066034317,-0.2725396752357483,0.9577487707138062,0.0,0.0,0.0,0.0,0.0,0.0
34512,1724913278479811927,-1.3862383365631104,-0.33126088976860046,0.19745083153247833,0.0038588682655245066,-0.09262751787900925,-0.27138394117355347,0.9579958319664001,0.0,0.0,0.0,0.0,0.0,0.0
34514,1724913278490628300,-1.3860723972320557,-0.3307593762874603,0.19796571135520935,0.004484789911657572,-0.0893053263425827,-0.2718833088874817,0.9581669569015503,0.0,0.0,0.0,0.0,0.0,0.0
34516,1724913278500085076,-1.3859198093414307,-0.3303702771663666,0.19847023487091064,0.004571432713419199,-0.08756279200315475,-0.27188462018966675,0.9583269953727722,0.0,0.0,0.0,0.0,0.0,0.0
34518,1724913278509472807,-1.3857231140136719,-0.3300432860851288,0.19889184832572937,0.004995974246412516,-0.08638793975114822,-0.2720009684562683,0.9583984613418579,0.0,0.0,0.0,0.0,0.0,0.0
34520,1724913278521722069,-1.385504961013794,-0.32980138063430786,0.19927777349948883,0.005330544896423817,-0.08568565547466278,-0.27180880308151245,0.9585142135620117,0.0,0.0,0.0,0.0,0.0,0.0
34522,1724913278529693387,-1.3851172924041748,-0.32963457703590393,0.199774369597435,0.006109088193625212,-0.08461248874664307,-0.2722914516925812,0.958467960357666,0.0,0.0,0.0,0.0,0.0,0.0
34524,1724913278539624675,-1.384719729423523,-0.32956206798553467,0.20024655759334564,0.0067510283552110195,-0.08341370522975922,-0.2724272608757019,0.9585301280021667,0.0,0.0,0.0,0.0,0.0,0.0
34526,1724913278553056893,-1.384331464767456,-0.32954761385917664,0.20064672827720642,0.006705927662551403,-0.08293190598487854,-0.2721743881702423,0.9586440324783325,0.0,0.0,0.0,0.0,0.0,0.0
34528,1724913278559274147,-1.383912444114685,-0.3294994831085205,0.2011614739894867,0.006476826034486294,-0.08138373494148254,-0.27213338017463684,0.9587899446487427,0.0,0.0,0.0,0.0,0.0,0.0
34530,1724913278569972737,-1.3834117650985718,-0.3294737935066223,0.20164059102535248,0.005994684528559446,-0.0790480300784111,-0.2717919647693634,0.9590852856636047,0.0,0.0,0.0,0.0,0.0,0.0
34532,1724913278579887301,-1.3828264474868774,-0.3293355405330658,0.20216389000415802,0.00509355403482914,-0.07609555125236511,-0.2714707851409912,0.9594203233718872,0.0,0.0,0.0,0.0,0.0,0.0
34534,1724913278589472661,-1.3820860385894775,-0.32914096117019653,0.20290344953536987,0.00639752484858036,-0.0725398063659668,-0.27128756046295166,0.959739625453949,0.0,0.0,0.0,0.0,0.0,0.0
34536,1724913278608640328,-1.3814194202423096,-0.3290969133377075,0.20330649614334106,0.006260822527110577,-0.07075268030166626,-0.2705199718475342,0.9600905179977417,0.0,0.0,0.0,0.0,0.0,0.0
34538,1724913278609268502,-1.3807532787322998,-0.3291129469871521,0.20368778705596924,0.0059836385771632195,-0.06905289739370346,-0.2703307867050171,0.9602693915367126,0.0,0.0,0.0,0.0,0.0,0.0
34540,1724913278621500614,-1.3798842430114746,-0.32910311222076416,0.20422156155109406,0.005293605383485556,-0.06648201495409012,-0.2702776789665222,0.9604697823524475,0.0,0.0,0.0,0.0,0.0,0.0
34542,1724913278631082254,-1.3788182735443115,-0.32921290397644043,0.20481359958648682,0.005110224708914757,-0.061879489570856094,-0.2702604830265045,0.960783064365387,0.0,0.0,0.0,0.0,0.0,0.0
34544,1724913278639954675,-1.3777860403060913,-0.329338014125824,0.2053534984588623,0.005145276430994272,-0.05729009583592415,-0.2706888020038605,0.9609468579292297,0.0,0.0,0.0,0.0,0.0,0.0
34546,1724913278656191777,-1.3768154382705688,-0.3295213282108307,0.20549584925174713,0.004384500905871391,-0.055237334221601486,-0.2695015072822571,0.9614045023918152,0.0,0.0,0.0,0.0,0.0,0.0
34548,1724913278659643437,-1.3757331371307373,-0.32955965399742126,0.20592358708381653,0.004913833923637867,-0.05164387822151184,-0.2685667872428894,0.9618632197380066,0.0,0.0,0.0,0.0,0.0,0.0
34550,1724913278669140734,-1.3745741844177246,-0.3295431137084961,0.2065553367137909,0.005377575289458036,-0.04552602395415306,-0.2688801884651184,0.9620820879936218,0.0,0.0,0.0,0.0,0.0,0.0
34552,1724913278679420782,-1.3732088804244995,-0.32972824573516846,0.20667940378189087,0.004749632906168699,-0.04141778126358986,-0.26764509081840515,0.9626153111457825,0.0,0.0,0.0,0.0,0.0,0.0
34554,1724913278689960145,-1.3716974258422852,-0.3297490179538727,0.20705819129943848,0.00440170569345355,-0.03668500483036041,-0.2675718665122986,0.9628292322158813,0.0,0.0,0.0,0.0,0.0,0.0
34556,1724913278700270382,-1.370238184928894,-0.3300015926361084,0.2070426642894745,0.0034873750992119312,-0.03303614631295204,-0.2661610543727875,0.9633559584617615,0.0,0.0,0.0,0.0,0.0,0.0
34558,1724913278709735986,-1.3685206174850464,-0.33006760478019714,0.20739001035690308,0.005683025810867548,-0.026575298979878426,-0.2655780613422394,0.9637062549591064,0.0,0.0,0.0,0.0,0.0,0.0
34560,1724913278719954732,-1.3668437004089355,-0.33038508892059326,0.2073163241147995,0.004743658006191254,-0.022846199572086334,-0.2642727792263031,0.9641656875610352,0.0,0.0,0.0,0.0,0.0,0.0
34562,1724913278729395916,-1.3651728630065918,-0.33057597279548645,0.20748364925384521,0.005288940388709307,-0.019828731194138527,-0.26309794187545776,0.9645509123802185,0.0,0.0,0.0,0.0,0.0,0.0
34564,1724913278740173701,-1.3632758855819702,-0.3307786285877228,0.2078283131122589,0.0061461953446269035,-0.015184979885816574,-0.2628791332244873,0.9646896719932556,0.0,0.0,0.0,0.0,0.0,0.0
34566,1724913278752087423,-1.3616688251495361,-0.3310317397117615,0.20826178789138794,0.0038515140768140554,-0.012899000197649002,-0.2624818980693817,0.9648429751396179,0.0,0.0,0.0,0.0,0.0,0.0
34568,1724913278759447849,-1.3604336977005005,-0.3310433030128479,0.20904549956321716,0.004783612675964832,-0.011184778064489365,-0.2627866566181183,0.9647772908210754,0.0,0.0,0.0,0.0,0.0,0.0
34570,1724913278772261983,-1.3594101667404175,-0.3311617970466614,0.2098204493522644,0.005039180163294077,-0.011111905798316002,-0.26163777709007263,0.9650890231132507,0.0,0.0,0.0,0.0,0.0,0.0
34572,1724913278779116509,-1.3584179878234863,-0.3310782313346863,0.21130900084972382,0.0051057911477983,-0.007700046990066767,-0.261531263589859,0.9651508927345276,0.0,0.0,0.0,0.0,0.0,0.0
34574,1724913278789361857,-1.3578656911849976,-0.330985426902771,0.2123434990644455,0.0040080007165670395,-0.006804614327847958,-0.26080042123794556,0.9653604626655579,0.0,0.0,0.0,0.0,0.0,0.0
34576,1724913278802202724,-1.3575522899627686,-0.3308250308036804,0.2133955955505371,0.0037117991596460342,-0.005307172890752554,-0.2607640027999878,0.9653809666633606,0.0,0.0,0.0,0.0,0.0,0.0
34578,1724913278809128018,-1.3573880195617676,-0.33055832982063293,0.21458491683006287,0.0043835947290062904,-0.0018767011351883411,-0.2613428831100464,0.9652342200279236,0.0,0.0,0.0,0.0,0.0,0.0
34580,1724913278820163711,-1.3574943542480469,-0.33032968640327454,0.21537132561206818,0.0037342903669923544,-0.001001617405563593,-0.26141855120658875,0.9652177691459656,0.0,0.0,0.0,0.0,0.0,0.0
34582,1724913278830099163,-1.3578598499298096,-0.3298569321632385,0.21651200950145721,0.0035028967540711164,0.000592633499763906,-0.262210488319397,0.9650042057037354,0.0,0.0,0.0,0.0,0.0,0.0
34584,1724913278839662827,-1.358452558517456,-0.3293364346027374,0.21786367893218994,0.003728114999830723,0.002763303928077221,-0.26348453760147095,0.9646525382995605,0.0,0.0,0.0,0.0,0.0,0.0
34586,1724913278850541871,-1.3593772649765015,-0.3289774954319,0.21890048682689667,0.004318995401263237,0.002706239465624094,-0.26353371143341064,0.9646366834640503,0.0,0.0,0.0,0.0,0.0,0.0
34588,1724913278859453405,-1.360445261001587,-0.3284960687160492,0.21987439692020416,0.005718654952943325,0.0022524085361510515,-0.263889878988266,0.964533269405365,0.0,0.0,0.0,0.0,0.0,0.0
34590,1724913278869735914,-1.361445665359497,-0.3279012143611908,0.2207382172346115,0.0069566997699439526,0.004048874136060476,-0.2650080621242523,0.9642125964164734,0.0,0.0,0.0,0.0,0.0,0.0
34592,1724913278880285660,-1.3625836372375488,-0.3274849057197571,0.22135892510414124,0.006152823101729155,0.002924858359619975,-0.2645670175552368,0.9643431901931763,0.0,0.0,0.0,0.0,0.0,0.0
34594,1724913278889200130,-1.3636418581008911,-0.32700297236442566,0.22226490080356598,0.0059076277539134026,0.002753718988969922,-0.26517513394355774,0.9641783237457275,0.0,0.0,0.0,0.0,0.0,0.0
34596,1724913278899737719,-1.3646106719970703,-0.3264530897140503,0.2231905162334442,0.007201877422630787,0.0035645554307848215,-0.2666395902633667,0.9637628197669983,0.0,0.0,0.0,0.0,0.0,0.0
34598,1724913278910828670,-1.365537405014038,-0.32598206400871277,0.22390757501125336,0.008137436583638191,0.004247840493917465,-0.267319917678833,0.9635640978813171,0.0,0.0,0.0,0.0,0.0,0.0
34600,1724913278920243785,-1.3664541244506836,-0.3255762457847595,0.22428512573242188,0.009099637158215046,0.004363182466477156,-0.2675425112247467,0.963493287563324,0.0,0.0,0.0,0.0,0.0,0.0
34602,1724913278929223553,-1.3673328161239624,-0.32499241828918457,0.2248993217945099,0.010193711146712303,0.007723193150013685,-0.26974451541900635,0.962847113609314,0.0,0.0,0.0,0.0,0.0,0.0
34604,1724913278939291231,-1.3681679964065552,-0.3245738744735718,0.22533711791038513,0.010195211507380009,0.008292079903185368,-0.27111542224884033,0.9624571204185486,0.0,0.0,0.0,0.0,0.0,0.0
34606,1724913278951444199,-1.3689111471176147,-0.3242054283618927,0.22562313079833984,0.011025659739971161,0.008029351942241192,-0.27206307649612427,0.9621828198432922,0.0,0.0,0.0,0.0,0.0,0.0
34608,1724913278959684745,-1.3696019649505615,-0.32399389147758484,0.22567421197891235,0.011126365512609482,0.006307675968855619,-0.2714311480522156,0.9623729586601257,0.0,0.0,0.0,0.0,0.0,0.0
34610,1724913278969472791,-1.3701493740081787,-0.32365286350250244,0.2257995456457138,0.011392575688660145,0.0067591359838843346,-0.27117720246315,0.9624382853507996,0.0,0.0,0.0,0.0,0.0,0.0
34612,1724913278979451587,-1.370597243309021,-0.32338133454322815,0.22576768696308136,0.011123853735625744,0.006889753043651581,-0.26983442902565,0.9628178477287292,0.0,0.0,0.0,0.0,0.0,0.0
34614,1724913278989997309,-1.3708304166793823,-0.3231315612792969,0.22577396035194397,0.011444921605288982,0.00723299803212285,-0.2692623436450958,0.9629716873168945,0.0,0.0,0.0,0.0,0.0,0.0
34616,1724913279003325870,-1.3708842992782593,-0.3229635953903198,0.22571411728858948,0.011200806125998497,0.007103618700057268,-0.2682877779006958,0.963247537612915,0.0,0.0,0.0,0.0,0.0,0.0
34618,1724913279009279120,-1.3707994222640991,-0.3228221535682678,0.22568728029727936,0.01100248284637928,0.006904500536620617,-0.26787856221199036,0.9633651375770569,0.0,0.0,0.0,0.0,0.0,0.0
34620,1724913279019855766,-1.3706223964691162,-0.3227105438709259,0.22563385963439941,0.010824935510754585,0.0065694162622094154,-0.2675357162952423,0.9634647369384766,0.0,0.0,0.0,0.0,0.0,0.0
34622,1724913279032308183,-1.370417594909668,-0.32265597581863403,0.22558028995990753,0.01118671614676714,0.0061417873948812485,-0.2670995593070984,0.9635844826698303,0.0,0.0,0.0,0.0,0.0,0.0
34624,1724913279080494193,-1.3701674938201904,-0.3225972652435303,0.2255944013595581,0.011539153754711151,0.005578209180384874,-0.26672178506851196,0.9636884331703186,0.0,0.0,0.0,0.0,0.0,0.0
34626,1724913279081172785,-1.3699098825454712,-0.3225581645965576,0.22564657032489777,0.011740230955183506,0.005045517813414335,-0.2663762867450714,0.963784396648407,0.0,0.0,0.0,0.0,0.0,0.0
34628,1724913279081501339,-1.3695847988128662,-0.32249197363853455,0.22582097351551056,0.011794550344347954,0.004482019226998091,-0.26608145236968994,0.9638680219650269,0.0,0.0,0.0,0.0,0.0,0.0
34630,1724913279081915726,-1.3692818880081177,-0.32239049673080444,0.22598056495189667,0.011963344179093838,0.0042745089158415794,-0.26570773124694824,0.9639699459075928,0.0,0.0,0.0,0.0,0.0,0.0
34632,1724913279082290419,-1.368960976600647,-0.32228052616119385,0.22630442678928375,0.012788333930075169,0.005381427705287933,-0.2659372389316559,0.9638904929161072,0.0,0.0,0.0,0.0,0.0,0.0
34634,1724913279089553454,-1.368666172027588,-0.3222382366657257,0.22629554569721222,0.013005566783249378,0.004482334479689598,-0.2653956413269043,0.9640414714813232,0.0,0.0,0.0,0.0,0.0,0.0
34636,1724913279101614312,-1.3683069944381714,-0.32219764590263367,0.22640642523765564,0.012992343865334988,0.0038664694875478745,-0.26492807269096375,0.964172899723053,0.0,0.0,0.0,0.0,0.0,0.0
34638,1724913279109571376,-1.3678900003433228,-0.3220875561237335,0.22666500508785248,0.012982322834432125,0.003665520576760173,-0.2646927535533905,0.9642385244369507,0.0,0.0,0.0,0.0,0.0,0.0
34640,1724913279120261079,-1.3674663305282593,-0.3220503628253937,0.22683009505271912,0.012603389099240303,0.0028801120352,-0.26392772793769836,0.964455783367157,0.0,0.0,0.0,0.0,0.0,0.0
34642,1724913279130057478,-1.3670768737792969,-0.3220815062522888,0.22681565582752228,0.011377829127013683,0.0010410425020381808,-0.2626269459724426,0.9648299217224121,0.0,0.0,0.0,0.0,0.0,0.0
34644,1724913279139751991,-1.3666317462921143,-0.32204756140708923,0.2269357293844223,0.01089566107839346,2.6414567400934175e-05,-0.2624278664588928,0.9648901224136353,0.0,0.0,0.0,0.0,0.0,0.0
34646,1724913279149496836,-1.366143822669983,-0.3220163881778717,0.22702407836914062,0.010906827636063099,-0.0007618995732627809,-0.2618948519229889,0.965034544467926,0.0,0.0,0.0,0.0,0.0,0.0
34648,1724913279159624907,-1.365567922592163,-0.321907639503479,0.22708773612976074,0.012240729294717312,-0.0009059514850378036,-0.26150181889533997,0.9651249051094055,0.0,0.0,0.0,0.0,0.0,0.0
34650,1724913279169602793,-1.3649940490722656,-0.3219638466835022,0.2269013375043869,0.011936756782233715,-0.003091751132160425,-0.26015329360961914,0.965488612651825,0.0,0.0,0.0,0.0,0.0,0.0
34652,1724913279180078654,-1.3643834590911865,-0.3218696415424347,0.22698190808296204,0.011902245692908764,-0.0037214618641883135,-0.25994861125946045,0.9655418992042542,0.0,0.0,0.0,0.0,0.0,0.0
34654,1724913279189272143,-1.3638654947280884,-0.3218383491039276,0.22698171436786652,0.011897627264261246,-0.0042123994790017605,-0.2595652639865875,0.965643048286438,0.0,0.0,0.0,0.0,0.0,0.0
34656,1724913279201146628,-1.3634049892425537,-0.321778267621994,0.22702132165431976,0.011787381954491138,-0.005040525924414396,-0.25866803526878357,0.9658812284469604,0.0,0.0,0.0,0.0,0.0,0.0
34658,1724913279210740938,-1.3628456592559814,-0.32169032096862793,0.22716157138347626,0.012349598109722137,-0.00513801071792841,-0.25855928659439087,0.9659028053283691,0.0,0.0,0.0,0.0,0.0,0.0
34660,1724913279220011010,-1.3623034954071045,-0.3216105103492737,0.22728629410266876,0.012705560773611069,-0.005353919230401516,-0.25861507654190063,0.9658821225166321,0.0,0.0,0.0,0.0,0.0,0.0
34662,1724913279229451202,-1.361741542816162,-0.3215121626853943,0.22740165889263153,0.013466841541230679,-0.004491014406085014,-0.2589891254901886,0.9657759070396423,0.0,0.0,0.0,0.0,0.0,0.0
34664,1724913279239783708,-1.361216425895691,-0.3214867115020752,0.22739790380001068,0.013940408825874329,-0.005172595381736755,-0.2586217224597931,0.9658642411231995,0.0,0.0,0.0,0.0,0.0,0.0
34666,1724913279250310152,-1.3607709407806396,-0.32144027948379517,0.22733932733535767,0.01406895648688078,-0.005779321305453777,-0.2581343948841095,0.965989351272583,0.0,0.0,0.0,0.0,0.0,0.0
34668,1724913279259218267,-1.3603779077529907,-0.32138192653656006,0.22730980813503265,0.014171569608151913,-0.006204681470990181,-0.2576981484889984,0.9661015868186951,0.0,0.0,0.0,0.0,0.0,0.0
34670,1724913279270431599,-1.359994888305664,-0.3213171362876892,0.2273082584142685,0.014085451140999794,-0.007074052467942238,-0.25714462995529175,0.9662443995475769,0.0,0.0,0.0,0.0,0.0,0.0
34672,1724913279279678621,-1.359653353691101,-0.3212612271308899,0.2272316813468933,0.013353101909160614,-0.009030473418533802,-0.25673913955688477,0.9663463830947876,0.0,0.0,0.0,0.0,0.0,0.0
34674,1724913279289938543,-1.359293818473816,-0.32116565108299255,0.22733663022518158,0.012705951929092407,-0.009606859646737576,-0.2567403316497803,0.9663491249084473,0.0,0.0,0.0,0.0,0.0,0.0
34676,1724913279300504903,-1.358960509300232,-0.32103416323661804,0.22737309336662292,0.011520643718540668,-0.009966148063540459,-0.2562432587146759,0.9664922952651978,0.0,0.0,0.0,0.0,0.0,0.0
34678,1724913279419694164,-1.3585727214813232,-0.3209981322288513,0.22732800245285034,0.011664911173284054,-0.010859925299882889,-0.2552482485771179,0.9667442440986633,0.0,0.0,0.0,0.0,0.0,0.0
34680,1724913279420208334,-1.3582123517990112,-0.32088011503219604,0.22734101116657257,0.011992002837359905,-0.011056655086576939,-0.25466760993003845,0.9668911099433899,0.0,0.0,0.0,0.0,0.0,0.0
34682,1724913279420597846,-1.3578048944473267,-0.3207632005214691,0.2274315059185028,0.01297497097402811,-0.011464769020676613,-0.2544510066509247,0.9669306874275208,0.0,0.0,0.0,0.0,0.0,0.0
34684,1724913279420931379,-1.357419490814209,-0.3206075131893158,0.22737550735473633,0.013406024314463139,-0.011873011477291584,-0.253642201423645,0.9671323299407959,0.0,0.0,0.0,0.0,0.0,0.0
34686,1724913279421262876,-1.3570395708084106,-0.32047900557518005,0.22738449275493622,0.013984070159494877,-0.011998005211353302,-0.2528267800807953,0.967336118221283,0.0,0.0,0.0,0.0,0.0,0.0
34688,1724913279421590530,-1.3566213846206665,-0.3202880918979645,0.22768858075141907,0.014572277665138245,-0.01116203423589468,-0.2527306079864502,0.9673625230789185,0.0,0.0,0.0,0.0,0.0,0.0
34690,1724913279421917543,-1.3562787771224976,-0.32011690735816956,0.22788961231708527,0.014683911576867104,-0.011339510791003704,-0.251708447933197,0.9676253199577332,0.0,0.0,0.0,0.0,0.0,0.0
34692,1724913279422243954,-1.355898141860962,-0.32001492381095886,0.22784236073493958,0.014187340624630451,-0.011808237060904503,-0.25089457631111145,0.9678384065628052,0.0,0.0,0.0,0.0,0.0,0.0
34694,1724913279422929011,-1.3554644584655762,-0.319844514131546,0.2279568612575531,0.014696629717946053,-0.011628854088485241,-0.25045618414878845,0.9679465293884277,0.0,0.0,0.0,0.0,0.0,0.0
34696,1724913279423255709,-1.3550454378128052,-0.31968727707862854,0.22798922657966614,0.01534865703433752,-0.011952792294323444,-0.24949140846729279,0.9681816101074219,0.0,0.0,0.0,0.0,0.0,0.0
34698,1724913279423581785,-1.3547102212905884,-0.31950122117996216,0.22809214890003204,0.015534347854554653,-0.012096939608454704,-0.24889831244945526,0.9683295488357544,0.0,0.0,0.0,0.0,0.0,0.0
34700,1724913279423908118,-1.3544390201568604,-0.3192799985408783,0.2281792312860489,0.015116982161998749,-0.012202256359159946,-0.24812063574790955,0.9685342907905579,0.0,0.0,0.0,0.0,0.0,0.0
34702,1724913279429635091,-1.3541464805603027,-0.3190999925136566,0.22822272777557373,0.014803862199187279,-0.012838790193200111,-0.24730831384658813,0.9687387347221375,0.0,0.0,0.0,0.0,0.0,0.0
34704,1724913279441026712,-1.3538367748260498,-0.31899166107177734,0.22819159924983978,0.015124907717108727,-0.013478966429829597,-0.2465440183877945,0.9689198732376099,0.0,0.0,0.0,0.0,0.0,0.0
34706,1724913279451386392,-1.3535211086273193,-0.31887713074684143,0.22819727659225464,0.015302279964089394,-0.013951510190963745,-0.24614930152893066,0.9690106511116028,0.0,0.0,0.0,0.0,0.0,0.0
34708,1724913279459197080,-1.3532228469848633,-0.3187697231769562,0.22817277908325195,0.015586091205477715,-0.01427950244396925,-0.2459062933921814,0.9690631628036499,0.0,0.0,0.0,0.0,0.0,0.0
34710,1724913279470103840,-1.352970838546753,-0.3187805414199829,0.2279488742351532,0.015154171735048294,-0.016223032027482986,-0.24502748250961304,0.969261884689331,0.0,0.0,0.0,0.0,0.0,0.0
34712,1724913279479641568,-1.3526458740234375,-0.3187223970890045,0.2279229760169983,0.015486635267734528,-0.017000729218125343,-0.24465997517108917,0.9693361520767212,0.0,0.0,0.0,0.0,0.0,0.0
34714,1724913279490059969,-1.3523313999176025,-0.3186568021774292,0.22798939049243927,0.016300175338983536,-0.016955912113189697,-0.2445441037416458,0.9693528413772583,0.0,0.0,0.0,0.0,0.0,0.0
34716,1724913279499698536,-1.3519742488861084,-0.3184981644153595,0.22827447950839996,0.017490815371274948,-0.015332906506955624,-0.24484442174434662,0.9692833423614502,0.0,0.0,0.0,0.0,0.0,0.0
34718,1724913279509454145,-1.3517217636108398,-0.3184654414653778,0.22829200327396393,0.017621979117393494,-0.015293807722628117,-0.2445068359375,0.9693668484687805,0.0,0.0,0.0,0.0,0.0,0.0
34720,1724913279521435752,-1.3515561819076538,-0.3185746669769287,0.2280469685792923,0.017239222303032875,-0.017329277470707893,-0.2434665858745575,0.9696012735366821,0.0,0.0,0.0,0.0,0.0,0.0
34722,1724913279540129343,-1.3513264656066895,-0.3186012804508209,0.22801263630390167,0.016971031203866005,-0.01783236861228943,-0.24318140745162964,0.9696683883666992,0.0,0.0,0.0,0.0,0.0,0.0
34724,1724913279540479629,-1.3510323762893677,-0.31864967942237854,0.22790953516960144,0.016724277287721634,-0.018535926938056946,-0.24271366000175476,0.9697766900062561,0.0,0.0,0.0,0.0,0.0,0.0
34726,1724913279549095717,-1.3507226705551147,-0.31867480278015137,0.22782666981220245,0.017134157940745354,-0.018949193879961967,-0.24187447130680084,0.969971239566803,0.0,0.0,0.0,0.0,0.0,0.0
34728,1724913279559468488,-1.350359320640564,-0.3187619745731354,0.22764481604099274,0.017315374687314034,-0.01923813298344612,-0.24101819097995758,0.9701753854751587,0.0,0.0,0.0,0.0,0.0,0.0
34730,1724913279572437787,-1.3499395847320557,-0.31885936856269836,0.22742319107055664,0.01848653331398964,-0.019563499838113785,-0.24064630270004272,0.9702395796775818,0.0,0.0,0.0,0.0,0.0,0.0
34732,1724913279579361770,-1.3493791818618774,-0.3190453052520752,0.22699065506458282,0.019458143040537834,-0.020241770893335342,-0.23998449742794037,0.9703705906867981,0.0,0.0,0.0,0.0,0.0,0.0
34734,1724913279589605731,-1.3487690687179565,-0.31915274262428284,0.22665829956531525,0.020740043371915817,-0.019815633073449135,-0.24028319120407104,0.9702789783477783,0.0,0.0,0.0,0.0,0.0,0.0
34736,1724913279600260603,-1.3481827974319458,-0.319338858127594,0.22627852857112885,0.020597273483872414,-0.01959049329161644,-0.24027124047279358,0.9702895283699036,0.0,0.0,0.0,0.0,0.0,0.0
34738,1724913279609151768,-1.3475536108016968,-0.3195910155773163,0.22607862949371338,0.0210762619972229,-0.01743687503039837,-0.24002917110919952,0.9703801870346069,0.0,0.0,0.0,0.0,0.0,0.0
34740,1724913279619271601,-1.3469911813735962,-0.3199661374092102,0.22561053931713104,0.02220379374921322,-0.017249152064323425,-0.23924581706523895,0.9705519080162048,0.0,0.0,0.0,0.0,0.0,0.0
34742,1724913279631489012,-1.3464288711547852,-0.3203449845314026,0.2250780314207077,0.02299872785806656,-0.017986444756388664,-0.23895174264907837,0.9705924391746521,0.0,0.0,0.0,0.0,0.0,0.0
34744,1724913279639430697,-1.3458284139633179,-0.32075923681259155,0.22430580854415894,0.024479813873767853,-0.01981217972934246,-0.23893733322620392,0.970524251461029,0.0,0.0,0.0,0.0,0.0,0.0
34746,1724913279649666672,-1.3452283143997192,-0.3210896849632263,0.22353684902191162,0.02559894509613514,-0.020515451207756996,-0.2389419823884964,0.9704795479774475,0.0,0.0,0.0,0.0,0.0,0.0
34748,1724913279661058607,-1.3447173833847046,-0.32148224115371704,0.22311697900295258,0.026206474751234055,-0.019379112869501114,-0.23917622864246368,0.9704290628433228,0.0,0.0,0.0,0.0,0.0,0.0
34750,1724913279669498918,-1.3442871570587158,-0.3220314383506775,0.22262921929359436,0.026309574022889137,-0.019220564514398575,-0.2392679750919342,0.970406711101532,0.0,0.0,0.0,0.0,0.0,0.0
34752,1724913279680331140,-1.3438142538070679,-0.3226407468318939,0.22235709428787231,0.026480311527848244,-0.018927760422229767,-0.23953783512115479,0.9703412652015686,0.0,0.0,0.0,0.0,0.0,0.0
34754,1724913279689454810,-1.343369483947754,-0.32309770584106445,0.22219377756118774,0.025453204289078712,-0.01847555674612522,-0.24010193347930908,0.9702380299568176,0.0,0.0,0.0,0.0,0.0,0.0
34756,1724913279703509055,-1.3428990840911865,-0.32349130511283875,0.22213128209114075,0.02475374937057495,-0.018691251054406166,-0.24084331095218658,0.9700682759284973,0.0,0.0,0.0,0.0,0.0,0.0
34758,1724913279709402970,-1.34246826171875,-0.3238459527492523,0.2220427244901657,0.02411055564880371,-0.018594013527035713,-0.24104610085487366,0.970035970211029,0.0,0.0,0.0,0.0,0.0,0.0
34760,1724913279719715429,-1.3418762683868408,-0.3241978883743286,0.22197774052619934,0.023708084598183632,-0.01723754033446312,-0.24121399223804474,0.9700292348861694,0.0,0.0,0.0,0.0,0.0,0.0
34762,1724913279729483979,-1.3411755561828613,-0.324424684047699,0.22166281938552856,0.023352697491645813,-0.015139972791075706,-0.2414415180683136,0.9700162410736084,0.0,0.0,0.0,0.0,0.0,0.0
34764,1724913279739639244,-1.3404604196548462,-0.3244273066520691,0.22120235860347748,0.02240697108209133,-0.013815849088132381,-0.24238400161266327,0.9698232412338257,0.0,0.0,0.0,0.0,0.0,0.0
34766,1724913279751860469,-1.3397283554077148,-0.3244645893573761,0.2204398661851883,0.01979781687259674,-0.013828884810209274,-0.24314738810062408,0.9696887731552124,0.0,0.0,0.0,0.0,0.0,0.0
34768,1724913279759195750,-1.3388118743896484,-0.32435786724090576,0.21996761858463287,0.017888421192765236,-0.012761540710926056,-0.24486851692199707,0.9693073034286499,0.0,0.0,0.0,0.0,0.0,0.0
34770,1724913279771274977,-1.337853193283081,-0.32415109872817993,0.21939617395401,0.015256989747285843,-0.011684217490255833,-0.24677634239196777,0.9688819646835327,0.0,0.0,0.0,0.0,0.0,0.0
34772,1724913279779575697,-1.3368109464645386,-0.32384777069091797,0.2186543196439743,0.013873244635760784,-0.010650706477463245,-0.24797981977462769,0.9686073660850525,0.0,0.0,0.0,0.0,0.0,0.0
34774,1724913279789895166,-1.3357219696044922,-0.32338085770606995,0.2180221527814865,0.01269967295229435,-0.00759853795170784,-0.24977262318134308,0.968191385269165,0.0,0.0,0.0,0.0,0.0,0.0
34776,1724913279803755584,-1.3346699476242065,-0.3230361044406891,0.21726195514202118,0.010215108282864094,-0.007332022301852703,-0.25103798508644104,0.9678956270217896,0.0,0.0,0.0,0.0,0.0,0.0
34778,1724913279809266704,-1.333522915840149,-0.3225862681865692,0.2167922705411911,0.00845174491405487,-0.004877446684986353,-0.2539976239204407,0.9671556353569031,0.0,0.0,0.0,0.0,0.0,0.0
34780,1724913279821192272,-1.3326927423477173,-0.3223499655723572,0.2162330448627472,0.008248969912528992,-0.005002627149224281,-0.2558760643005371,0.9666615128517151,0.0,0.0,0.0,0.0,0.0,0.0
34782,1724913279829523746,-1.331855297088623,-0.32198742032051086,0.21585722267627716,0.006071210373193026,-0.00670356722548604,-0.2569540739059448,0.966381311416626,0.0,0.0,0.0,0.0,0.0,0.0
34784,1724913279839530004,-1.3310487270355225,-0.3215807378292084,0.21575549244880676,0.005943102762103081,-0.007139408495277166,-0.25895482301712036,0.9658448100090027,0.0,0.0,0.0,0.0,0.0,0.0
34786,1724913279850633694,-1.3305227756500244,-0.32143133878707886,0.21556653082370758,0.0054396530613303185,-0.009635690599679947,-0.25981640815734863,0.9655946493148804,0.0,0.0,0.0,0.0,0.0,0.0
34788,1724913279859471245,-1.3301186561584473,-0.32116952538490295,0.21570877730846405,0.005045084282755852,-0.010904788970947266,-0.26042240858078003,0.9654200673103333,0.0,0.0,0.0,0.0,0.0,0.0
34790,1724913279869950609,-1.330020546913147,-0.32090264558792114,0.21594329178333282,0.005485618021339178,-0.012422528117895126,-0.2609316408634186,0.9652618169784546,0.0,0.0,0.0,0.0,0.0,0.0
34792,1724913279880526358,-1.3301371335983276,-0.3205016851425171,0.21615341305732727,0.006462217774242163,-0.013143760152161121,-0.26158928871154785,0.9650681614875793,0.0,0.0,0.0,0.0,0.0,0.0
34794,1724913279889380387,-1.3306255340576172,-0.32014572620391846,0.21605327725410461,0.005756598897278309,-0.015437214635312557,-0.2617029845714569,0.9650077819824219,0.0,0.0,0.0,0.0,0.0,0.0
34796,1724913279899636516,-1.331383228302002,-0.3197968900203705,0.21577216684818268,0.005383122246712446,-0.01864578388631344,-0.26143375039100647,0.965026319026947,0.0,0.0,0.0,0.0,0.0,0.0
34798,1724913279912394994,-1.3324689865112305,-0.3194689452648163,0.2153550684452057,0.003747451351955533,-0.023098358884453773,-0.2610117197036743,0.9650519490242004,0.0,0.0,0.0,0.0,0.0,0.0
34800,1724913279919727383,-1.3337905406951904,-0.31921714544296265,0.21494440734386444,0.0018131056567654014,-0.02735253795981407,-0.2601839601993561,0.9651698470115662,0.0,0.0,0.0,0.0,0.0,0.0
34802,1724913279929284348,-1.3351755142211914,-0.3189335763454437,0.214590385556221,0.0019965185783803463,-0.031570471823215485,-0.25897520780563354,0.9653658270835876,0.0,0.0,0.0,0.0,0.0,0.0
34804,1724913279939359555,-1.3367667198181152,-0.3183976411819458,0.2144000381231308,0.0029029203578829765,-0.033176157623529434,-0.2604045271873474,0.9649251103401184,0.0,0.0,0.0,0.0,0.0,0.0
34806,1724913279949348626,-1.338399887084961,-0.3180743455886841,0.21385425329208374,0.003711128141731024,-0.03691432997584343,-0.26000678539276123,0.9648938775062561,0.0,0.0,0.0,0.0,0.0,0.0
34808,1724913279959629541,-1.3401963710784912,-0.31771162152290344,0.21312204003334045,0.002952496288344264,-0.04172728583216667,-0.25914546847343445,0.9649319648742676,0.0,0.0,0.0,0.0,0.0,0.0
34810,1724913279969618303,-1.3419690132141113,-0.31737127900123596,0.21245217323303223,0.0029628295451402664,-0.04567897319793701,-0.2587813436985016,0.9648507237434387,0.0,0.0,0.0,0.0,0.0,0.0
34812,1724913279979639559,-1.3439104557037354,-0.3169585168361664,0.2116326242685318,0.0026895401533693075,-0.04865383729338646,-0.2587600350379944,0.9647117853164673,0.0,0.0,0.0,0.0,0.0,0.0
34814,1724913279990502782,-1.3457982540130615,-0.3165166974067688,0.2107485979795456,0.0027526163030415773,-0.05255900323390961,-0.2578107714653015,0.9647608995437622,0.0,0.0,0.0,0.0,0.0,0.0
34816,1724913279999732015,-1.3476592302322388,-0.31592684984207153,0.21003012359142303,0.004666066728532314,-0.054156553000211716,-0.257954478263855,0.9646268486976624,0.0,0.0,0.0,0.0,0.0,0.0
34818,1724913280009701207,-1.3494579792022705,-0.3155643343925476,0.20895151793956757,0.004782960284501314,-0.05874503776431084,-0.2582821547985077,0.9642699360847473,0.0,0.0,0.0,0.0,0.0,0.0
34820,1724913280020403368,-1.351235270500183,-0.31545212864875793,0.2079557478427887,0.004566187504678965,-0.06252054870128632,-0.2569046914577484,0.9644015431404114,0.0,0.0,0.0,0.0,0.0,0.0
34822,1724913280029226391,-1.3529934883117676,-0.31530269980430603,0.20708073675632477,0.004444754216820002,-0.06590382754802704,-0.25682032108306885,0.9641993045806885,0.0,0.0,0.0,0.0,0.0,0.0
34824,1724913280039716488,-1.3546675443649292,-0.31511956453323364,0.20618806779384613,0.005404330790042877,-0.06912966072559357,-0.2563015818595886,0.964106559753418,0.0,0.0,0.0,0.0,0.0,0.0
34826,1724913280055286328,-1.3563486337661743,-0.3149789869785309,0.20518584549427032,0.0056768241338431835,-0.07333458214998245,-0.25544610619544983,0.9640213847160339,0.0,0.0,0.0,0.0,0.0,0.0
34828,1724913280059026576,-1.3578693866729736,-0.31472647190093994,0.20476967096328735,0.005517908371984959,-0.07416512072086334,-0.2553538680076599,0.9639831185340881,0.0,0.0,0.0,0.0,0.0,0.0
34830,1724913280071757909,-1.359351634979248,-0.31454792618751526,0.20438528060913086,0.0064050620421767235,-0.07507353276014328,-0.25581303238868713,0.9637856483459473,0.0,0.0,0.0,0.0,0.0,0.0
34832,1724913280079652763,-1.3608617782592773,-0.31460729241371155,0.20361164212226868,0.006086313631385565,-0.0780794620513916,-0.2553173005580902,0.9636802673339844,0.0,0.0,0.0,0.0,0.0,0.0
34834,1724913280089497289,-1.362187385559082,-0.3145826756954193,0.20298393070697784,0.006305007729679346,-0.08047384023666382,-0.2553398013114929,0.9634758830070496,0.0,0.0,0.0,0.0,0.0,0.0
34836,1724913280101720683,-1.363608479499817,-0.31465810537338257,0.20211540162563324,0.005722772795706987,-0.08237427473068237,-0.25387299060821533,0.9637066125869751,0.0,0.0,0.0,0.0,0.0,0.0
34838,1724913280109162765,-1.3648006916046143,-0.3146790862083435,0.20144179463386536,0.005597091745585203,-0.08455534279346466,-0.2534988224506378,0.9636169075965881,0.0,0.0,0.0,0.0,0.0,0.0
34840,1724913280119688601,-1.3659361600875854,-0.314843088388443,0.2009267359972,0.004653377458453178,-0.08647727966308594,-0.25300857424736023,0.9635801911354065,0.0,0.0,0.0,0.0,0.0,0.0
34842,1724913280131818306,-1.3669716119766235,-0.3148469924926758,0.20060528814792633,0.00397447869181633,-0.08785184472799301,-0.25256943702697754,0.9635740518569946,0.0,0.0,0.0,0.0,0.0,0.0
34844,1724913280139253337,-1.3677923679351807,-0.3149319887161255,0.20036692917346954,0.0052168224938213825,-0.09012521058320999,-0.25153878331184387,0.9636278748512268,0.0,0.0,0.0,0.0,0.0,0.0
34846,1724913280150104540,-1.3684624433517456,-0.31503480672836304,0.2001468390226364,0.006197062321007252,-0.0909748449921608,-0.2507827579975128,0.9637391567230225,0.0,0.0,0.0,0.0,0.0,0.0
34848,1724913280159391596,-1.369071125984192,-0.315077006816864,0.20005600154399872,0.0063338251784443855,-0.0910811573266983,-0.25027573108673096,0.963860034942627,0.0,0.0,0.0,0.0,0.0,0.0
34850,1724913280178567685,-1.3697071075439453,-0.31507769227027893,0.20008619129657745,0.006578708998858929,-0.08996026962995529,-0.2502059042453766,0.9639818072319031,0.0,0.0,0.0,0.0,0.0,0.0
34852,1724913280179746810,-1.3702112436294556,-0.3151300847530365,0.20006662607192993,0.006232964340597391,-0.09041411429643631,-0.2501930594444275,0.9639450311660767,0.0,0.0,0.0,0.0,0.0,0.0
34854,1724913280211892631,-1.3706260919570923,-0.31520456075668335,0.2000482678413391,0.006380140781402588,-0.09098558872938156,-0.25015777349472046,0.9638993740081787,0.0,0.0,0.0,0.0,0.0,0.0
34856,1724913280212441206,-1.3709689378738403,-0.31523624062538147,0.20001116394996643,0.006708196364343166,-0.0911974310874939,-0.2500471770763397,0.9639058113098145,0.0,0.0,0.0,0.0,0.0,0.0
34858,1724913280212692899,-1.371228575706482,-0.3153593838214874,0.1998443603515625,0.006730929482728243,-0.09186428040266037,-0.24910998344421387,0.964085042476654,0.0,0.0,0.0,0.0,0.0,0.0
34860,1724913280219318276,-1.37144136428833,-0.3153938055038452,0.1998172104358673,0.006904867477715015,-0.0920792892575264,-0.24902568757534027,0.964085042476654,0.0,0.0,0.0,0.0,0.0,0.0
34862,1724913280229655541,-1.3716230392456055,-0.31549036502838135,0.1997348815202713,0.006928273476660252,-0.0926993191242218,-0.24832193553447723,0.9642069339752197,0.0,0.0,0.0,0.0,0.0,0.0
34864,1724913280239825711,-1.3717483282089233,-0.3155123293399811,0.19971036911010742,0.007217260077595711,-0.0928407832980156,-0.24802128970623016,0.9642685651779175,0.0,0.0,0.0,0.0,0.0,0.0
34866,1724913280254786992,-1.3718822002410889,-0.31555360555648804,0.19967271387577057,0.007295707240700722,-0.09296471625566483,-0.24730908870697021,0.9644389748573303,0.0,0.0,0.0,0.0,0.0,0.0
34868,1724913280266969582,-1.3720346689224243,-0.3156055808067322,0.1995725780725479,0.007379841525107622,-0.09342564642429352,-0.2464028298854828,0.9646258354187012,0.0,0.0,0.0,0.0,0.0,0.0
34870,1724913280270153176,-1.3721859455108643,-0.31568291783332825,0.19944670796394348,0.007308774162083864,-0.09377234429121017,-0.24541662633419037,0.9648440480232239,0.0,0.0,0.0,0.0,0.0,0.0
34872,1724913280279546334,-1.3723623752593994,-0.3156719505786896,0.19938866794109344,0.0074793933890759945,-0.09401197731494904,-0.2452097088098526,0.9648720026016235,0.0,0.0,0.0,0.0,0.0,0.0
34874,1724913280289300763,-1.3725776672363281,-0.31572049856185913,0.1993192732334137,0.0074261813424527645,-0.09431372582912445,-0.24459367990493774,0.9649993181228638,0.0,0.0,0.0,0.0,0.0,0.0
34876,1724913280299364192,-1.3727778196334839,-0.31573450565338135,0.19929435849189758,0.007445754017680883,-0.09459315985441208,-0.24413493275642395,0.9650880694389343,0.0,0.0,0.0,0.0,0.0,0.0
34878,1724913280334432932,-1.372955560684204,-0.3157479465007782,0.19929423928260803,0.007627622690051794,-0.09487546980381012,-0.2434559166431427,0.965230405330658,0.0,0.0,0.0,0.0,0.0,0.0
34880,1724913280334714306,-1.3731329441070557,-0.3157731294631958,0.19933149218559265,0.008182528428733349,-0.09515894949436188,-0.242902010679245,0.9653374552726746,0.0,0.0,0.0,0.0,0.0,0.0
34882,1724913280335169377,-1.3734016418457031,-0.31582722067832947,0.19933383166790009,0.00795755721628666,-0.09516997635364532,-0.24256081879138947,0.965424120426178,0.0,0.0,0.0,0.0,0.0,0.0
34884,1724913280339384909,-1.3736141920089722,-0.3159472942352295,0.19922076165676117,0.007764587178826332,-0.09650098532438278,-0.24133871495723724,0.965599775314331,0.0,0.0,0.0,0.0,0.0,0.0
34886,1724913280353603383,-1.3738216161727905,-0.3160420358181,0.19912105798721313,0.007913555018603802,-0.09738782048225403,-0.23982758820056915,0.9658859968185425,0.0,0.0,0.0,0.0,0.0,0.0
34888,1724913280359718794,-1.374040961265564,-0.31617504358291626,0.199036106467247,0.008040042594075203,-0.0978122279047966,-0.23785172402858734,0.9663305878639221,0.0,0.0,0.0,0.0,0.0,0.0
34890,1724913280370458039,-1.3743133544921875,-0.3161565661430359,0.19901183247566223,0.008629151619970798,-0.09846063703298569,-0.23680700361728668,0.9665161371231079,0.0,0.0,0.0,0.0,0.0,0.0
34892,1724913280379932652,-1.374664068222046,-0.3159758150577545,0.19925302267074585,0.009423337876796722,-0.09797099232673645,-0.23638054728507996,0.9666629433631897,0.0,0.0,0.0,0.0,0.0,0.0
34894,1724913280389899345,-1.3749374151229858,-0.31593313813209534,0.1993221789598465,0.009815258905291557,-0.0983269140124321,-0.2351495325565338,0.9669231176376343,0.0,0.0,0.0,0.0,0.0,0.0
34896,1724913280403093706,-1.3751804828643799,-0.3158426582813263,0.19936062395572662,0.00969691015779972,-0.09850472956895828,-0.2339395433664322,0.9671996831893921,0.0,0.0,0.0,0.0,0.0,0.0
34898,1724913280431293816,-1.375402808189392,-0.31580519676208496,0.1993023157119751,0.009531386196613312,-0.09891073405742645,-0.23208342492580414,0.9676069617271423,0.0,0.0,0.0,0.0,0.0,0.0
34900,1724913280431570081,-1.3755898475646973,-0.31573304533958435,0.19929027557373047,0.009295394644141197,-0.09929355978965759,-0.23052388429641724,0.9679427146911621,0.0,0.0,0.0,0.0,0.0,0.0
34902,1724913280431898466,-1.375705361366272,-0.3156045377254486,0.19941987097263336,0.008953431621193886,-0.09917798638343811,-0.2297430783510208,0.9681434035301208,0.0,0.0,0.0,0.0,0.0,0.0
34904,1724913280438979155,-1.3758190870285034,-0.31541845202445984,0.1996179223060608,0.008870418183505535,-0.0986846312880516,-0.22902408242225647,0.9683650135993958,0.0,0.0,0.0,0.0,0.0,0.0
34906,1724913280454611423,-1.3758838176727295,-0.31524574756622314,0.19977858662605286,0.008714201860129833,-0.09834038466215134,-0.22773081064224243,0.9687063097953796,0.0,0.0,0.0,0.0,0.0,0.0
34908,1724913280459369769,-1.3759448528289795,-0.3148980736732483,0.20001833140850067,0.008486608974635601,-0.09788841754198074,-0.22697710990905762,0.9689309597015381,0.0,0.0,0.0,0.0,0.0,0.0
34910,1724913280469359087,-1.375996470451355,-0.31447115540504456,0.20027278363704681,0.008335290476679802,-0.09732581675052643,-0.2264048308134079,0.9691228270530701,0.0,0.0,0.0,0.0,0.0,0.0
34912,1724913280479102581,-1.3759605884552002,-0.3139239549636841,0.20046119391918182,0.007736043073236942,-0.09750071913003922,-0.22656695544719696,0.9690723419189453,0.0,0.0,0.0,0.0,0.0,0.0
34914,1724913280490322449,-1.3759348392486572,-0.31330668926239014,0.20089462399482727,0.007717689964920282,-0.09633657336235046,-0.22713135182857513,0.9690567851066589,0.0,0.0,0.0,0.0,0.0,0.0
34916,1724913280502544670,-1.3757820129394531,-0.312833696603775,0.2011912316083908,0.007501306477934122,-0.09551334381103516,-0.22658796608448029,0.9692671895027161,0.0,0.0,0.0,0.0,0.0,0.0
34918,1724913280508939599,-1.3756382465362549,-0.31228476762771606,0.20140063762664795,0.007851443253457546,-0.0943603441119194,-0.22601726651191711,0.9695106148719788,0.0,0.0,0.0,0.0,0.0,0.0
34920,1724913280521580951,-1.375512957572937,-0.3116077482700348,0.20160099864006042,0.007559183053672314,-0.09301400184631348,-0.22588594257831573,0.9696736335754395,0.0,0.0,0.0,0.0,0.0,0.0
34922,1724913280529439647,-1.3753067255020142,-0.3109377324581146,0.20196518301963806,0.007248669862747192,-0.09165743738412857,-0.22639700770378113,0.969685971736908,0.0,0.0,0.0,0.0,0.0,0.0
34924,1724913280539612039,-1.374974012374878,-0.3103064000606537,0.202484130859375,0.007881185971200466,-0.08900624513626099,-0.22646218538284302,0.9699127674102783,0.0,0.0,0.0,0.0,0.0,0.0
34926,1724913280550939801,-1.3745396137237549,-0.3096418082714081,0.20282882452011108,0.008493784815073013,-0.08768511563539505,-0.22644749283790588,0.9700313210487366,0.0,0.0,0.0,0.0,0.0,0.0
34928,1724913280559721904,-1.3741527795791626,-0.30895549058914185,0.20311148464679718,0.007862517610192299,-0.08624971657991409,-0.2265385091304779,0.9701440930366516,0.0,0.0,0.0,0.0,0.0,0.0
34930,1724913280570874948,-1.3736391067504883,-0.30830734968185425,0.2034767121076584,0.006509526167064905,-0.08508862555027008,-0.22643546760082245,0.9702807068824768,0.0,0.0,0.0,0.0,0.0,0.0
34932,1724913280580114382,-1.3729677200317383,-0.3076600730419159,0.20381738245487213,0.0064020478166639805,-0.08375813066959381,-0.22647041082382202,0.9703889489173889,0.0,0.0,0.0,0.0,0.0,0.0
34934,1724913280589582511,-1.3722916841506958,-0.307182252407074,0.20411096513271332,0.006503233686089516,-0.08210813254117966,-0.22712662816047668,0.9703760147094727,0.0,0.0,0.0,0.0,0.0,0.0
34936,1724913280605344571,-1.3713995218276978,-0.306662917137146,0.20455221831798553,0.006486355327069759,-0.07958640903234482,-0.2276766151189804,0.9704572558403015,0.0,0.0,0.0,0.0,0.0,0.0
34938,1724913280608925289,-1.3704760074615479,-0.3061593472957611,0.204993337392807,0.006706419866532087,-0.07670833170413971,-0.22788046300411224,0.970639705657959,0.0,0.0,0.0,0.0,0.0,0.0
34940,1724913280627916874,-1.3694125413894653,-0.3057131767272949,0.20542027056217194,0.006443415302783251,-0.07366728037595749,-0.22817538678646088,0.9708077311515808,0.0,0.0,0.0,0.0,0.0,0.0
34942,1724913280631706305,-1.368172287940979,-0.3053421676158905,0.2057846039533615,0.005910973995923996,-0.06939992308616638,-0.22876878082752228,0.9709858894348145,0.0,0.0,0.0,0.0,0.0,0.0
34944,1724913280639362454,-1.366843342781067,-0.30513161420822144,0.20586234331130981,0.005559410434216261,-0.06511016935110092,-0.2280287891626358,0.9714590311050415,0.0,0.0,0.0,0.0,0.0,0.0
34946,1724913280649379060,-1.3654067516326904,-0.3048809766769409,0.20611204206943512,0.004897679202258587,-0.0602191723883152,-0.22873514890670776,0.9716120958328247,0.0,0.0,0.0,0.0,0.0,0.0
34948,1724913280661110436,-1.3639202117919922,-0.30480334162712097,0.20598194003105164,0.00451070349663496,-0.05813427269458771,-0.2277546525001526,0.9719712138175964,0.0,0.0,0.0,0.0,0.0,0.0
34950,1724913280669609630,-1.3621572256088257,-0.3045612871646881,0.2060394138097763,0.004495583940297365,-0.05282498523592949,-0.22768434882164001,0.9722906947135925,0.0,0.0,0.0,0.0,0.0,0.0
34952,1724913280679755520,-1.3602778911590576,-0.3043745160102844,0.2063724547624588,0.004768937826156616,-0.04735198989510536,-0.2278663069009781,0.9725287556648254,0.0,0.0,0.0,0.0,0.0,0.0
34954,1724913280690056928,-1.3582046031951904,-0.30433106422424316,0.20636971294879913,0.004951291251927614,-0.041796427220106125,-0.2277936041355133,0.9727994203567505,0.0,0.0,0.0,0.0,0.0,0.0
34956,1724913280699703340,-1.355983018875122,-0.3041675388813019,0.20675089955329895,0.004820819478482008,-0.03356928378343582,-0.2282005399465561,0.9730232954025269,0.0,0.0,0.0,0.0,0.0,0.0
34958,1724913280709738999,-1.353701114654541,-0.304199755191803,0.20659230649471283,0.0044305888004601,-0.028101373463869095,-0.22716772556304932,0.9734401106834412,0.0,0.0,0.0,0.0,0.0,0.0
34960,1724913280719533308,-1.3511710166931152,-0.3040761649608612,0.20688550174236298,0.004464371595531702,-0.02003881148993969,-0.22729162871837616,0.9736103415489197,0.0,0.0,0.0,0.0,0.0,0.0
34962,1724913280729493797,-1.3489875793457031,-0.30392491817474365,0.20693665742874146,0.0037758436519652605,-0.016026178374886513,-0.22734995186328888,0.973673939704895,0.0,0.0,0.0,0.0,0.0,0.0
34964,1724913280739840919,-1.3469245433807373,-0.3039531409740448,0.20695781707763672,0.0026804322842508554,-0.01400547381490469,-0.22662994265556335,0.9738765358924866,0.0,0.0,0.0,0.0,0.0,0.0
34966,1724913280749843728,-1.3447551727294922,-0.3039928674697876,0.20745623111724854,0.0030358480289578438,-0.01112390123307705,-0.2263766974210739,0.9739715456962585,0.0,0.0,0.0,0.0,0.0,0.0
34968,1724913280759407972,-1.3431026935577393,-0.30400004982948303,0.20779208838939667,0.0025050046388059855,-0.011321011930704117,-0.2262774556875229,0.9739938974380493,0.0,0.0,0.0,0.0,0.0,0.0
34970,1724913280771788838,-1.341722011566162,-0.3038237392902374,0.2083304524421692,0.0032041044905781746,-0.011654363945126534,-0.22613629698753357,0.9740206599235535,0.0,0.0,0.0,0.0,0.0,0.0
34972,1724913280779035152,-1.3406987190246582,-0.30360978841781616,0.20938317477703094,0.002907153684645891,-0.009802276268601418,-0.22602488100528717,0.9740679264068604,0.0,0.0,0.0,0.0,0.0,0.0
34974,1724913280790147904,-1.3399081230163574,-0.30335915088653564,0.21038299798965454,0.001787108602002263,-0.008101943880319595,-0.2259325385093689,0.9741076827049255,0.0,0.0,0.0,0.0,0.0,0.0
34976,1724913280800084067,-1.3394891023635864,-0.30302712321281433,0.2112744003534317,0.0006445982726290822,-0.006778868846595287,-0.2261415272951126,0.97407066822052,0.0,0.0,0.0,0.0,0.0,0.0
34978,1724913280808934695,-1.3394644260406494,-0.3028162717819214,0.2118130475282669,0.00046426072367466986,-0.006814568303525448,-0.22542798519134521,0.9742359519004822,0.0,0.0,0.0,0.0,0.0,0.0
34980,1724913280831963475,-1.3397023677825928,-0.302542120218277,0.2124309092760086,-0.0003615564783103764,-0.005398427601903677,-0.22566716372966766,0.9741894602775574,0.0,0.0,0.0,0.0,0.0,0.0
34982,1724913280832233228,-1.3402099609375,-0.30209216475486755,0.21346993744373322,8.13088845461607e-05,-0.0011996092507615685,-0.22701598703861237,0.9738903641700745,0.0,0.0,0.0,0.0,0.0,0.0
34984,1724913280839399783,-1.3411307334899902,-0.3016563057899475,0.21416322886943817,-0.00011686801735777408,-0.0018606458324939013,-0.22727985680103302,0.9738277792930603,0.0,0.0,0.0,0.0,0.0,0.0
34986,1724913280856608989,-1.342267632484436,-0.3012482821941376,0.21483077108860016,0.00012557109585031867,-0.002593674696981907,-0.22727681696414948,0.9738267660140991,0.0,0.0,0.0,0.0,0.0,0.0
34988,1724913280859043430,-1.3435869216918945,-0.3008281886577606,0.21563325822353363,0.00016927598335314542,-0.002631966257467866,-0.2273673117160797,0.9738054871559143,0.0,0.0,0.0,0.0,0.0,0.0
34990,1724913280870067885,-1.3448572158813477,-0.3003099262714386,0.21637465059757233,0.0006696151685900986,-0.001670090714469552,-0.22857733070850372,0.9735242128372192,0.0,0.0,0.0,0.0,0.0,0.0
34992,1724913280880562032,-1.3461833000183105,-0.29964783787727356,0.21697910130023956,0.001377227483317256,0.0009986567310988903,-0.2290777713060379,0.9734066724777222,0.0,0.0,0.0,0.0,0.0,0.0
34994,1724913280889143162,-1.3474507331848145,-0.29912516474723816,0.21751970052719116,0.001790511072613299,0.001209985581226647,-0.229265958070755,0.9733614325523376,0.0,0.0,0.0,0.0,0.0,0.0
34996,1724913280899983293,-1.3486844301223755,-0.2987250089645386,0.2178790122270584,0.0021865314338356256,-0.0007109830039553344,-0.22923193871974945,0.9733691811561584,0.0,0.0,0.0,0.0,0.0,0.0
34998,1724913280910478615,-1.3499338626861572,-0.2981010973453522,0.21845602989196777,0.002392109017819166,0.0012464368483051658,-0.2299266755580902,0.9732042551040649,0.0,0.0,0.0,0.0,0.0,0.0
35000,1724913280921065402,-1.3511006832122803,-0.29750657081604004,0.21866725385189056,0.0031204370316118,0.0013366169296205044,-0.23015740513801575,0.9731475710868835,0.0,0.0,0.0,0.0,0.0,0.0
35002,1724913280929679812,-1.3521751165390015,-0.29689374566078186,0.21880590915679932,0.0035399131011217833,0.001424452755600214,-0.23103995621204376,0.972936749458313,0.0,0.0,0.0,0.0,0.0,0.0
35004,1724913280940343829,-1.3533467054367065,-0.2964496910572052,0.21884658932685852,0.003271341323852539,0.0012315314961597323,-0.23115432262420654,0.9729108810424805,0.0,0.0,0.0,0.0,0.0,0.0
35006,1724913280950063620,-1.3543649911880493,-0.2958458364009857,0.2190624177455902,0.0029209889471530914,0.0015723485266789794,-0.23208729922771454,0.9726893305778503,0.0,0.0,0.0,0.0,0.0,0.0
35008,1724913280959960110,-1.3551836013793945,-0.29516783356666565,0.21953418850898743,0.0030360138043761253,0.0030174884013831615,-0.23307126760482788,0.972450315952301,0.0,0.0,0.0,0.0,0.0,0.0
35010,1724913280969874606,-1.3558872938156128,-0.29470014572143555,0.2194228172302246,0.0031033847481012344,0.0016141179949045181,-0.2323373407125473,0.9726290106773376,0.0,0.0,0.0,0.0,0.0,0.0
35012,1724913280980181618,-1.35641348361969,-0.29421165585517883,0.21916286647319794,0.003592149820178747,0.0013221455737948418,-0.23184113204479218,0.9727461934089661,0.0,0.0,0.0,0.0,0.0,0.0
35014,1724913280990875177,-1.3567414283752441,-0.2937840223312378,0.21902096271514893,0.0036303105298429728,0.0011383130913600326,-0.23153895139694214,0.9728182554244995,0.0,0.0,0.0,0.0,0.0,0.0
35016,1724913281000228477,-1.3568443059921265,-0.2933969795703888,0.2189822942018509,0.004048142582178116,0.0010254806838929653,-0.23135630786418915,0.9728600978851318,0.0,0.0,0.0,0.0,0.0,0.0
35018,1724913281009250694,-1.3566895723342896,-0.2930760383605957,0.21901164948940277,0.004788229241967201,0.0007566681015305221,-0.23107925057411194,0.9729228615760803,0.0,0.0,0.0,0.0,0.0,0.0
35020,1724913281020427577,-1.3563930988311768,-0.2928590774536133,0.2190035879611969,0.005456892307847738,0.0005552691873162985,-0.2305501252412796,0.9730449914932251,0.0,0.0,0.0,0.0,0.0,0.0
35022,1724913281029457715,-1.3560056686401367,-0.29261717200279236,0.21906889975070953,0.006209930405020714,0.00028149699210189283,-0.23057284951210022,0.9730352759361267,0.0,0.0,0.0,0.0,0.0,0.0
35024,1724913281039445629,-1.3555313348770142,-0.2923732399940491,0.2192404717206955,0.006773129105567932,0.00015364325372502208,-0.23087918758392334,0.9729588627815247,0.0,0.0,0.0,0.0,0.0,0.0
35026,1724913281054762965,-1.3550934791564941,-0.2921181619167328,0.2196083813905716,0.006962858606129885,0.0018979116575792432,-0.23141486942768097,0.9728284478187561,0.0,0.0,0.0,0.0,0.0,0.0
35028,1724913281059157954,-1.354662299156189,-0.2919144332408905,0.21974259614944458,0.006639368832111359,0.0019213752821087837,-0.2315673530101776,0.9727943539619446,0.0,0.0,0.0,0.0,0.0,0.0
35030,1724913281071201275,-1.3542020320892334,-0.29177913069725037,0.2197723239660263,0.006296453531831503,0.0017362990183755755,-0.23124168813228607,0.9728744626045227,0.0,0.0,0.0,0.0,0.0,0.0
35032,1724913281079993599,-1.3536752462387085,-0.2917071580886841,0.21963199973106384,0.006405236199498177,0.0016563675599172711,-0.23052333295345306,0.9730443954467773,0.0,0.0,0.0,0.0,0.0,0.0
35034,1724913281089520191,-1.3530421257019043,-0.2915361225605011,0.2196044921875,0.006274632178246975,0.0013421118492260575,-0.22992032766342163,0.9731883406639099,0.0,0.0,0.0,0.0,0.0,0.0
35036,1724913281103175636,-1.3523790836334229,-0.29141274094581604,0.21969051659107208,0.005911204032599926,0.00017372166621498764,-0.22936362028121948,0.9733228087425232,0.0,0.0,0.0,0.0,0.0,0.0
35038,1724913281109342358,-1.351824164390564,-0.29136353731155396,0.2196524441242218,0.005195162259042263,-0.0019851403776556253,-0.22883616387844086,0.9734491109848022,0.0,0.0,0.0,0.0,0.0,0.0
35040,1724913281123359398,-1.3512516021728516,-0.29125288128852844,0.21991270780563354,0.005945379380136728,-0.0013640141114592552,-0.22893959283828735,0.9734215140342712,0.0,0.0,0.0,0.0,0.0,0.0
35042,1724913281131438369,-1.3507415056228638,-0.2912949323654175,0.21987327933311462,0.005763612221926451,-0.003387520322576165,-0.22777624428272247,0.9736905694007874,0.0,0.0,0.0,0.0,0.0,0.0
35044,1724913281139667903,-1.3501994609832764,-0.29128849506378174,0.21987158060073853,0.006123361177742481,-0.00476897181943059,-0.22713115811347961,0.9738332629203796,0.0,0.0,0.0,0.0,0.0,0.0
35046,1724913281149750799,-1.3496679067611694,-0.2912949323654175,0.2199724167585373,0.006262495182454586,-0.006046954542398453,-0.22657211124897003,0.9739555716514587,0.0,0.0,0.0,0.0,0.0,0.0
35048,1724913281160589070,-1.3491172790527344,-0.2912493348121643,0.22015860676765442,0.006311365403234959,-0.007021826226264238,-0.2260139137506485,0.974078357219696,0.0,0.0,0.0,0.0,0.0,0.0
35050,1724913281206156962,-1.3486226797103882,-0.2912262976169586,0.22034034132957458,0.006776538211852312,-0.0076647293753921986,-0.2256203293800354,0.9741616249084473,0.0,0.0,0.0,0.0,0.0,0.0
35052,1724913281206387733,-1.3481584787368774,-0.2912232279777527,0.2204345166683197,0.007113798521459103,-0.008472627028822899,-0.22507590055465698,0.9742783904075623,0.0,0.0,0.0,0.0,0.0,0.0
35054,1724913281206677660,-1.3477158546447754,-0.29114609956741333,0.22059366106987,0.007035439368337393,-0.009179376065731049,-0.2243228256702423,0.9744462370872498,0.0,0.0,0.0,0.0,0.0,0.0
35056,1724913281206928776,-1.3472169637680054,-0.29111534357070923,0.22068430483341217,0.0070457253605127335,-0.010011515580117702,-0.22372980415821075,0.9745743870735168,0.0,0.0,0.0,0.0,0.0,0.0
35058,1724913281209410858,-1.3466615676879883,-0.2910299599170685,0.220768541097641,0.006725740619003773,-0.011036502197384834,-0.2232894003391266,0.9746665358543396,0.0,0.0,0.0,0.0,0.0,0.0
35060,1724913281221712465,-1.346116065979004,-0.2909151017665863,0.22080685198307037,0.005512573756277561,-0.01187215093523264,-0.2227170616388321,0.9747952222824097,0.0,0.0,0.0,0.0,0.0,0.0
35062,1724913281229515271,-1.3456405401229858,-0.29078778624534607,0.22084462642669678,0.0048816814087331295,-0.012346594594419003,-0.2223045825958252,0.9748868346214294,0.0,0.0,0.0,0.0,0.0,0.0
35064,1724913281240341006,-1.345147967338562,-0.2906194031238556,0.22099411487579346,0.005590041633695364,-0.01142607070505619,-0.22177451848983765,0.9750150442123413,0.0,0.0,0.0,0.0,0.0,0.0
35066,1724913281279969201,-1.344649076461792,-0.2904287278652191,0.22107134759426117,0.006252031307667494,-0.011113093234598637,-0.22139590978622437,0.9751006960868835,0.0,0.0,0.0,0.0,0.0,0.0
35068,1724913281281210400,-1.3441879749298096,-0.29013657569885254,0.22110489010810852,0.006588646676391363,-0.01094023510813713,-0.2210833579301834,0.9751713275909424,0.0,0.0,0.0,0.0,0.0,0.0
35070,1724913281281593342,-1.3436616659164429,-0.28986579179763794,0.22116798162460327,0.007293089292943478,-0.0113671300932765,-0.2205338478088379,0.9752858281135559,0.0,0.0,0.0,0.0,0.0,0.0
35072,1724913281282020909,-1.343189001083374,-0.28965920209884644,0.22114965319633484,0.007556451018899679,-0.012383028864860535,-0.21988774836063385,0.9754173755645752,0.0,0.0,0.0,0.0,0.0,0.0
35074,1724913281289602577,-1.3427432775497437,-0.2894873023033142,0.22108320891857147,0.007630490697920322,-0.013207453303039074,-0.21903488039970398,0.9755978584289551,0.0,0.0,0.0,0.0,0.0,0.0
35076,1724913281306058950,-1.3422917127609253,-0.28935590386390686,0.22089284658432007,0.008119401521980762,-0.01509710680693388,-0.21796810626983643,0.9758053421974182,0.0,0.0,0.0,0.0,0.0,0.0
35078,1724913281308950115,-1.341867446899414,-0.2892235219478607,0.2208513468503952,0.008275759406387806,-0.015477746725082397,-0.21719980239868164,0.9759693741798401,0.0,0.0,0.0,0.0,0.0,0.0
35080,1724913281320404868,-1.3414870500564575,-0.2890623211860657,0.22085469961166382,0.007971927523612976,-0.015970837324857712,-0.21634219586849213,0.9761543869972229,0.0,0.0,0.0,0.0,0.0,0.0
35082,1724913281330530301,-1.3411145210266113,-0.2887817919254303,0.22116421163082123,0.008974854834377766,-0.014642423950135708,-0.21669858694076538,0.9760875701904297,0.0,0.0,0.0,0.0,0.0,0.0
35084,1724913281339083567,-1.340935468673706,-0.2886454463005066,0.22118033468723297,0.009209445677697659,-0.015112237073481083,-0.2160700112581253,0.9762175679206848,0.0,0.0,0.0,0.0,0.0,0.0
35086,1724913281350794380,-1.340833306312561,-0.2885654866695404,0.22116824984550476,0.009107851423323154,-0.01558220386505127,-0.2152848243713379,0.9763845801353455,0.0,0.0,0.0,0.0,0.0,0.0
35088,1724913281359128515,-1.340667486190796,-0.2885001599788666,0.22112567722797394,0.008899049833416939,-0.016291053965687752,-0.21407870948314667,0.9766401052474976,0.0,0.0,0.0,0.0,0.0,0.0
35090,1724913281369885025,-1.3404837846755981,-0.28842729330062866,0.22120428085327148,0.009371082298457623,-0.016686825081706047,-0.21365123987197876,0.9767225384712219,0.0,0.0,0.0,0.0,0.0,0.0
35092,1724913281380755962,-1.3402881622314453,-0.2883756756782532,0.2212444245815277,0.009296778589487076,-0.01713208667933941,-0.21358229219913483,0.9767306447029114,0.0,0.0,0.0,0.0,0.0,0.0
35094,1724913281389310086,-1.3400675058364868,-0.2883380055427551,0.2212495058774948,0.009050277993083,-0.01750829815864563,-0.21364672482013702,0.9767122268676758,0.0,0.0,0.0,0.0,0.0,0.0
35096,1724913281400294205,-1.3398102521896362,-0.2883491814136505,0.22127029299736023,0.009463977999985218,-0.017595624551177025,-0.21370214223861694,0.9766945838928223,0.0,0.0,0.0,0.0,0.0,0.0
35098,1724913281411163358,-1.3396079540252686,-0.2883217930793762,0.22132408618927002,0.009378156624734402,-0.01746847853064537,-0.21357204020023346,0.9767261743545532,0.0,0.0,0.0,0.0,0.0,0.0
35100,1724913281420601641,-1.33942711353302,-0.28825506567955017,0.2213495820760727,0.00943907443434,-0.01764892041683197,-0.21318680047988892,0.9768064022064209,0.0,0.0,0.0,0.0,0.0,0.0
35102,1724913281430835569,-1.3392512798309326,-0.2881942093372345,0.22135870158672333,0.009945908561348915,-0.018031224608421326,-0.21212464570999146,0.9770256280899048,0.0,0.0,0.0,0.0,0.0,0.0
35104,1724913281440093100,-1.339065670967102,-0.2881520688533783,0.22137019038200378,0.010514764115214348,-0.01829955354332924,-0.21115218102931976,0.9772253632545471,0.0,0.0,0.0,0.0,0.0,0.0
35106,1724913281551547366,-1.3388200998306274,-0.2880812883377075,0.2214706689119339,0.011285494081676006,-0.01838986575603485,-0.21069033443927765,0.9773147106170654,0.0,0.0,0.0,0.0,0.0,0.0
35108,1724913281552494139,-1.3385871648788452,-0.2880169153213501,0.2215820550918579,0.011499944142997265,-0.01842506043612957,-0.21074405312538147,0.9773000478744507,0.0,0.0,0.0,0.0,0.0,0.0
35110,1724913281552921623,-1.3383457660675049,-0.28799644112586975,0.22169066965579987,0.011722821742296219,-0.018444223329424858,-0.21091130375862122,0.9772608876228333,0.0,0.0,0.0,0.0,0.0,0.0
35112,1724913281555931162,-1.3381006717681885,-0.2879801392555237,0.22169391810894012,0.01208736002445221,-0.01866300404071808,-0.21095377206802368,0.9772431254386902,0.0,0.0,0.0,0.0,0.0,0.0
35114,1724913281556301162,-1.3378597497940063,-0.2879711091518402,0.22167833149433136,0.012069842778146267,-0.019089488312602043,-0.21087738871574402,0.9772516489028931,0.0,0.0,0.0,0.0,0.0,0.0
35116,1724913281560355927,-1.337589144706726,-0.2879944145679474,0.22145013511180878,0.011778771877288818,-0.021087199449539185,-0.2101796269416809,0.9773644208908081,0.0,0.0,0.0,0.0,0.0,0.0
35118,1724913281562742514,-1.3373377323150635,-0.2879100739955902,0.22140315175056458,0.011730990372598171,-0.02166423387825489,-0.21034905314445496,0.9773158431053162,0.0,0.0,0.0,0.0,0.0,0.0
35120,1724913281563236332,-1.3371531963348389,-0.2878156900405884,0.22147950530052185,0.011351900175213814,-0.022114718332886696,-0.21013543009757996,0.9773563146591187,0.0,0.0,0.0,0.0,0.0,0.0
35122,1724913281563503523,-1.3368899822235107,-0.28775161504745483,0.22159425914287567,0.011739583685994148,-0.023049212992191315,-0.2093943953514099,0.9774890542030334,0.0,0.0,0.0,0.0,0.0,0.0
35124,1724913281563765475,-1.3365978002548218,-0.2877061069011688,0.22168046236038208,0.012109306640923023,-0.023438574746251106,-0.20875319838523865,0.9776124358177185,0.0,0.0,0.0,0.0,0.0,0.0
35126,1724913281564225712,-1.3361976146697998,-0.2876635789871216,0.22154033184051514,0.012396174483001232,-0.023744555190205574,-0.20782233774662018,0.9777997732162476,0.0,0.0,0.0,0.0,0.0,0.0
35128,1724913281564594814,-1.3356420993804932,-0.287624716758728,0.2211744487285614,0.0128651587292552,-0.023490162566304207,-0.20636896789073944,0.9781076312065125,0.0,0.0,0.0,0.0,0.0,0.0
35130,1724913281573700928,-1.3350790739059448,-0.28751009702682495,0.2213222086429596,0.013158854097127914,-0.02081874944269657,-0.20656651258468628,0.9781225323677063,0.0,0.0,0.0,0.0,0.0,0.0
35132,1724913281579093984,-1.3343093395233154,-0.2875870168209076,0.22139126062393188,0.013583527877926826,-0.019352322444319725,-0.20677806437015533,0.9781022071838379,0.0,0.0,0.0,0.0,0.0,0.0
35134,1724913281589296810,-1.3335814476013184,-0.28785309195518494,0.22086575627326965,0.013387320563197136,-0.020172031596302986,-0.20567716658115387,0.9783204793930054,0.0,0.0,0.0,0.0,0.0,0.0
35136,1724913281599497365,-1.3328840732574463,-0.28801020979881287,0.22040176391601562,0.013500233180820942,-0.020568937063217163,-0.2052651196718216,0.9783970713615417,0.0,0.0,0.0,0.0,0.0,0.0
35138,1724913281609415106,-1.3322079181671143,-0.28822049498558044,0.21988241374492645,0.01329080294817686,-0.020731152966618538,-0.20447205007076263,0.9785626530647278,0.0,0.0,0.0,0.0,0.0,0.0
35140,1724913281619653077,-1.3315849304199219,-0.2884659171104431,0.21955153346061707,0.014487016946077347,-0.020888416096568108,-0.20439735054969788,0.9785578846931458,0.0,0.0,0.0,0.0,0.0,0.0
35142,1724913281630671868,-1.330991506576538,-0.2886580526828766,0.21917985379695892,0.016098078340291977,-0.021002693101763725,-0.20390471816062927,0.9786329865455627,0.0,0.0,0.0,0.0,0.0,0.0
35144,1724913281639917476,-1.3302446603775024,-0.28883063793182373,0.21885795891284943,0.01789112389087677,-0.021457580849528313,-0.20354682207107544,0.9786666035652161,0.0,0.0,0.0,0.0,0.0,0.0
35146,1724913281653127724,-1.3295003175735474,-0.2888767719268799,0.21857699751853943,0.019054247066378593,-0.02035362832248211,-0.20330138504505157,0.978719174861908,0.0,0.0,0.0,0.0,0.0,0.0
35148,1724913281660706406,-1.3287163972854614,-0.2890298068523407,0.21786244213581085,0.019300421699881554,-0.020912205800414085,-0.20221596956253052,0.9789273738861084,0.0,0.0,0.0,0.0,0.0,0.0
35150,1724913281671588928,-1.3280565738677979,-0.2892718017101288,0.21692264080047607,0.01928696781396866,-0.022715246304869652,-0.20160090923309326,0.9790143966674805,0.0,0.0,0.0,0.0,0.0,0.0
35152,1724913281680180304,-1.3274842500686646,-0.28953805565834045,0.216363325715065,0.019799966365098953,-0.024103201925754547,-0.2017403095960617,0.9789422154426575,0.0,0.0,0.0,0.0,0.0,0.0
35154,1724913281689831631,-1.3268531560897827,-0.2898932099342346,0.21587374806404114,0.01998833380639553,-0.024980604648590088,-0.2012096643447876,0.979025661945343,0.0,0.0,0.0,0.0,0.0,0.0
35156,1724913281699767016,-1.3262532949447632,-0.29018035531044006,0.21575646102428436,0.02021322026848793,-0.024148445576429367,-0.20116421580314636,0.9790512323379517,0.0,0.0,0.0,0.0,0.0,0.0
35158,1724913281709465279,-1.3257631063461304,-0.2904926836490631,0.21586109697818756,0.01985333487391472,-0.02285003662109375,-0.20116698741912842,0.9790892004966736,0.0,0.0,0.0,0.0,0.0,0.0
35160,1724913281721256302,-1.3252978324890137,-0.2908918261528015,0.2161352038383484,0.01940661482512951,-0.02115514688193798,-0.20107541978359222,0.9791550040245056,0.0,0.0,0.0,0.0,0.0,0.0
35162,1724913281730023453,-1.3246852159500122,-0.29125022888183594,0.21659183502197266,0.01951642520725727,-0.018200170248746872,-0.2014724165201187,0.9791306257247925,0.0,0.0,0.0,0.0,0.0,0.0
35164,1724913281740238440,-1.3239614963531494,-0.2913495600223541,0.21689675748348236,0.02050657942891121,-0.01678110845386982,-0.20250292122364044,0.9789230823516846,0.0,0.0,0.0,0.0,0.0,0.0
35166,1724913281750183721,-1.3232171535491943,-0.29148954153060913,0.2165297120809555,0.018785564228892326,-0.01809188723564148,-0.20309515297412872,0.9788116812705994,0.0,0.0,0.0,0.0,0.0,0.0
35168,1724913281759310532,-1.3223210573196411,-0.29145270586013794,0.21618226170539856,0.01664416305720806,-0.017102770507335663,-0.20427319407463074,0.9786230325698853,0.0,0.0,0.0,0.0,0.0,0.0
35170,1724913281769515067,-1.3213452100753784,-0.29152393341064453,0.21580450236797333,0.014926908537745476,-0.015176420100033283,-0.2049369513988495,0.9785436391830444,0.0,0.0,0.0,0.0,0.0,0.0
35172,1724913281780108159,-1.3201239109039307,-0.2914435863494873,0.21584776043891907,0.01414179801940918,-0.011849015951156616,-0.20667076110839844,0.9782366156578064,0.0,0.0,0.0,0.0,0.0,0.0
35174,1724913281789546795,-1.318894386291504,-0.2913561165332794,0.21575771272182465,0.01128395739942789,-0.009887680411338806,-0.2079090178012848,0.9780331254005432,0.0,0.0,0.0,0.0,0.0,0.0
35176,1724913281803152712,-1.3177050352096558,-0.2913168668746948,0.21583512425422668,0.009543206542730331,-0.008055612444877625,-0.20999383926391602,0.9776229858398438,0.0,0.0,0.0,0.0,0.0,0.0
35178,1724913281809286224,-1.3163739442825317,-0.2912904620170593,0.21598653495311737,0.009763036854565144,-0.006040758453309536,-0.21199026703834534,0.9772043824195862,0.0,0.0,0.0,0.0,0.0,0.0
35180,1724913281821905286,-1.3152093887329102,-0.2913898229598999,0.2161342203617096,0.009109429083764553,-0.006059488281607628,-0.2132546454668045,0.9769354462623596,0.0,0.0,0.0,0.0,0.0,0.0
35182,1724913281830293220,-1.3142085075378418,-0.29135456681251526,0.21656128764152527,0.008223780430853367,-0.00428156740963459,-0.21514299511909485,0.9765385389328003,0.0,0.0,0.0,0.0,0.0,0.0
35184,1724913281893342820,-1.3132084608078003,-0.2913709580898285,0.21681779623031616,0.006968324538320303,-0.0042291972786188126,-0.21690873801708221,0.9761578440666199,0.0,0.0,0.0,0.0,0.0,0.0
35186,1724913281893702330,-1.3122096061706543,-0.2914677560329437,0.21715711057186127,0.006691588554531336,-0.004585622809827328,-0.21805337071418762,0.9759031534194946,0.0,0.0,0.0,0.0,0.0,0.0
35188,1724913281893953000,-1.3111721277236938,-0.2915922999382019,0.21751268208026886,0.0072437552735209465,-0.005682729184627533,-0.2187192142009735,0.9757444858551025,0.0,0.0,0.0,0.0,0.0,0.0
35190,1724913281894209608,-1.3104901313781738,-0.2917279303073883,0.21791444718837738,0.0071803187020123005,-0.006212934851646423,-0.21940740942955017,0.9755871891975403,0.0,0.0,0.0,0.0,0.0,0.0
35192,1724913281894459457,-1.3101478815078735,-0.291913241147995,0.21826913952827454,0.005893895868211985,-0.007737808395177126,-0.2193768173456192,0.975591778755188,0.0,0.0,0.0,0.0,0.0,0.0
35194,1724913281894708501,-1.310031771659851,-0.29212522506713867,0.2185368686914444,0.004994617309421301,-0.00991065613925457,-0.21934852004051208,0.9755834937095642,0.0,0.0,0.0,0.0,0.0,0.0
35196,1724913281899982748,-1.3101886510849,-0.2923559844493866,0.2185773253440857,0.0041812327690422535,-0.012328076176345348,-0.21928028762340546,0.9755750298500061,0.0,0.0,0.0,0.0,0.0,0.0
35198,1724913281910062294,-1.310603380203247,-0.29253917932510376,0.21885260939598083,0.0031943281646817923,-0.01274193450808525,-0.21979494392871857,0.9754576683044434,0.0,0.0,0.0,0.0,0.0,0.0
35200,1724913281919738110,-1.311273455619812,-0.29295670986175537,0.21866998076438904,0.0023413256276398897,-0.016506925225257874,-0.2191472351551056,0.9755493402481079,0.0,0.0,0.0,0.0,0.0,0.0
35202,1724913281930240346,-1.312064528465271,-0.29332235455513,0.2183653563261032,0.002329994225874543,-0.020377142354846,-0.21831168234348297,0.9756636023521423,0.0,0.0,0.0,0.0,0.0,0.0
35204,1724913281939883671,-1.3129585981369019,-0.29355916380882263,0.218172088265419,0.002948030363768339,-0.021901274099946022,-0.21773125231266022,0.9757585525512695,0.0,0.0,0.0,0.0,0.0,0.0
35206,1724913281950465952,-1.3141530752182007,-0.29376518726348877,0.21773912012577057,0.0024960096925497055,-0.02406175248324871,-0.21667085587978363,0.9759449362754822,0.0,0.0,0.0,0.0,0.0,0.0
35208,1724913281959414368,-1.3154051303863525,-0.2940693795681,0.21723921597003937,0.0017518365057185292,-0.027579065412282944,-0.21549944579601288,0.9761129021644592,0.0,0.0,0.0,0.0,0.0,0.0
35210,1724913281969537647,-1.3166227340698242,-0.294360876083374,0.21679669618606567,0.0016570737352594733,-0.030775925144553185,-0.21520768105983734,0.976081907749176,0.0,0.0,0.0,0.0,0.0,0.0
35212,1724913281979231205,-1.3180220127105713,-0.2946487069129944,0.2162020057439804,0.0011411372106522322,-0.033904314041137695,-0.21459698677062988,0.9761133790016174,0.0,0.0,0.0,0.0,0.0,0.0
35214,1724913281989844980,-1.319421648979187,-0.2950780391693115,0.21527042984962463,0.0011145080206915736,-0.038770537823438644,-0.2141278088092804,0.9760352969169617,0.0,0.0,0.0,0.0,0.0,0.0
35216,1724913282003700346,-1.3208229541778564,-0.2953377366065979,0.2143498659133911,0.0009789501782506704,-0.04149801656603813,-0.2136685848236084,0.9760239720344543,0.0,0.0,0.0,0.0,0.0,0.0
35218,1724913282008865792,-1.3222538232803345,-0.29565608501434326,0.21345074474811554,0.0007794089033268392,-0.04453374817967415,-0.21274620294570923,0.9760918617248535,0.0,0.0,0.0,0.0,0.0,0.0
35220,1724913282021983326,-1.3236346244812012,-0.2960066497325897,0.2127223014831543,0.0015701571246609092,-0.0479937382042408,-0.21254004538059235,0.9759718179702759,0.0,0.0,0.0,0.0,0.0,0.0
35222,1724913282028869681,-1.3250950574874878,-0.29632437229156494,0.2119377702474594,0.0025413278490304947,-0.050945185124874115,-0.2127053439617157,0.975784182548523,0.0,0.0,0.0,0.0,0.0,0.0
35224,1724913282039064428,-1.326638102531433,-0.29658398032188416,0.2110382467508316,0.0021075995173305273,-0.05554896965622902,-0.21262837946414948,0.975550651550293,0.0,0.0,0.0,0.0,0.0,0.0
35226,1724913282066109039,-1.3281949758529663,-0.2967762351036072,0.2103036344051361,0.002447115955874324,-0.05837308242917061,-0.21268710494041443,0.9753721952438354,0.0,0.0,0.0,0.0,0.0,0.0
35228,1724913282066365568,-1.3296756744384766,-0.29700472950935364,0.20948292315006256,0.0032177050597965717,-0.061831261962652206,-0.21202613413333893,0.975300669670105,0.0,0.0,0.0,0.0,0.0,0.0
35230,1724913282070644440,-1.331172227859497,-0.2972607910633087,0.20872387290000916,0.0031696255318820477,-0.06515228748321533,-0.2111525535583496,0.9752742648124695,0.0,0.0,0.0,0.0,0.0,0.0
35232,1724913282080231826,-1.3326468467712402,-0.29734575748443604,0.20816001296043396,0.0035193159710615873,-0.06831400096416473,-0.21142441034317017,0.9749976992607117,0.0,0.0,0.0,0.0,0.0,0.0
35234,1724913282089933696,-1.334160566329956,-0.29741549491882324,0.20752722024917603,0.004463250748813152,-0.06952241063117981,-0.2116764932870865,0.9748537540435791,0.0,0.0,0.0,0.0,0.0,0.0
35236,1724913282100566889,-1.3356380462646484,-0.29750290513038635,0.2067936360836029,0.005439047235995531,-0.07263109087944031,-0.21115000545978546,0.9747363328933716,0.0,0.0,0.0,0.0,0.0,0.0
35238,1724913282108921426,-1.337048888206482,-0.2977367043495178,0.20601588487625122,0.006399833131581545,-0.07651364058256149,-0.20945020020008087,0.9748001098632812,0.0,0.0,0.0,0.0,0.0,0.0
35240,1724913282119423489,-1.3385084867477417,-0.29786795377731323,0.20547860860824585,0.007797891739755869,-0.07880597561597824,-0.20968815684318542,0.9745561480522156,0.0,0.0,0.0,0.0,0.0,0.0
35242,1724913282131284547,-1.3399208784103394,-0.29807624220848083,0.20510056614875793,0.009605251252651215,-0.08159004896879196,-0.2095053791999817,0.9743502736091614,0.0,0.0,0.0,0.0,0.0,0.0
35244,1724913282139025856,-1.3414158821105957,-0.2982728183269501,0.2045842558145523,0.009477653540670872,-0.0840543583035469,-0.2090001255273819,0.9742505550384521,0.0,0.0,0.0,0.0,0.0,0.0
35246,1724913282151254173,-1.3429487943649292,-0.2985890209674835,0.20409196615219116,0.009737899526953697,-0.08615268021821976,-0.20829632878303528,0.9742153882980347,0.0,0.0,0.0,0.0,0.0,0.0
35248,1724913282164018412,-1.3443982601165771,-0.2990477979183197,0.2033584862947464,0.010409925132989883,-0.08898671716451645,-0.2058994621038437,0.9744632244110107,0.0,0.0,0.0,0.0,0.0,0.0
35250,1724913282169258927,-1.345947265625,-0.2994202673435211,0.20294718444347382,0.010372234508395195,-0.09049853682518005,-0.20497122406959534,0.9745200276374817,0.0,0.0,0.0,0.0,0.0,0.0
35252,1724913282180619735,-1.3473247289657593,-0.2997362017631531,0.20296771824359894,0.01098006684333086,-0.09210064262151718,-0.2045440524816513,0.9744530320167542,0.0,0.0,0.0,0.0,0.0,0.0
35254,1724913282188930569,-1.3487660884857178,-0.30016952753067017,0.20282778143882751,0.011808632872998714,-0.09288796782493591,-0.20307259261608124,0.9746763110160828,0.0,0.0,0.0,0.0,0.0,0.0
35256,1724913282199731677,-1.3501675128936768,-0.300680935382843,0.2024751901626587,0.01219024695456028,-0.09488875418901443,-0.20161354541778564,0.9747818112373352,0.0,0.0,0.0,0.0,0.0,0.0
35258,1724913282210913519,-1.351538896560669,-0.3012893795967102,0.20204760134220123,0.011687694117426872,-0.09720176458358765,-0.1990250051021576,0.9750919342041016,0.0,0.0,0.0,0.0,0.0,0.0
35260,1724913282219322088,-1.35289466381073,-0.30174434185028076,0.20175956189632416,0.012039163149893284,-0.09781196713447571,-0.19705314934253693,0.9754270911216736,0.0,0.0,0.0,0.0,0.0,0.0
35262,1724913282229219121,-1.3542219400405884,-0.3021278381347656,0.20176920294761658,0.013043194077908993,-0.09775948524475098,-0.19595275819301605,0.975641131401062,0.0,0.0,0.0,0.0,0.0,0.0
35264,1724913282239585311,-1.3553884029388428,-0.3025493621826172,0.20160511136054993,0.0124502656981349,-0.09939408302307129,-0.1944262981414795,0.9757890701293945,0.0,0.0,0.0,0.0,0.0,0.0
35266,1724913282249396568,-1.3565421104431152,-0.30269232392311096,0.20141160488128662,0.01265681628137827,-0.09956623613834381,-0.19390489161014557,0.9758726358413696,0.0,0.0,0.0,0.0,0.0,0.0
35268,1724913282259233193,-1.3574670553207397,-0.30283012986183167,0.2011709362268448,0.012381446547806263,-0.1005202904343605,-0.19273477792739868,0.9760100841522217,0.0,0.0,0.0,0.0,0.0,0.0
35270,1724913282271659908,-1.3582139015197754,-0.30285507440567017,0.2010069191455841,0.01271139271557331,-0.1011001467704773,-0.1925763636827469,0.9759771823883057,0.0,0.0,0.0,0.0,0.0,0.0
35272,1724913282279363969,-1.3588556051254272,-0.3028204143047333,0.20089173316955566,0.013644753955304623,-0.10167891532182693,-0.1927156001329422,0.975877046585083,0.0,0.0,0.0,0.0,0.0,0.0
35274,1724913282289208882,-1.359398365020752,-0.30270615220069885,0.20090752840042114,0.013846964575350285,-0.10178980231285095,-0.1931610405445099,0.9757745862007141,0.0,0.0,0.0,0.0,0.0,0.0
35276,1724913282307683319,-1.3597686290740967,-0.30254849791526794,0.20098276436328888,0.013850957155227661,-0.10175561904907227,-0.1933273822069168,0.9757451415061951,0.0,0.0,0.0,0.0,0.0,0.0
35278,1724913282309433528,-1.3599929809570312,-0.30237922072410583,0.20100992918014526,0.01366735715419054,-0.1018291637301445,-0.19303113222122192,0.9757987260818481,0.0,0.0,0.0,0.0,0.0,0.0
35280,1724913282320847707,-1.3601100444793701,-0.30219361186027527,0.2010914534330368,0.013538287952542305,-0.10172181576490402,-0.19279523193836212,0.9758583307266235,0.0,0.0,0.0,0.0,0.0,0.0
35282,1724913282329299930,-1.3601492643356323,-0.3020331859588623,0.20113560557365417,0.013528689742088318,-0.10170534253120422,-0.19235944747924805,0.9759461879730225,0.0,0.0,0.0,0.0,0.0,0.0
35284,1724913282348897063,-1.3602302074432373,-0.30184006690979004,0.20120149850845337,0.013486039824783802,-0.10138018429279327,-0.19239772856235504,0.9759730100631714,0.0,0.0,0.0,0.0,0.0,0.0
35286,1724913282351402114,-1.3602616786956787,-0.30173978209495544,0.2012382596731186,0.013843047432601452,-0.10126353800296783,-0.19198809564113617,0.9760608077049255,0.0,0.0,0.0,0.0,0.0,0.0
35288,1724913282359334200,-1.360291838645935,-0.3016461431980133,0.20123818516731262,0.01418868638575077,-0.10128907114267349,-0.1917797178030014,0.9760941863059998,0.0,0.0,0.0,0.0,0.0,0.0
35290,1724913282379982111,-1.360310673713684,-0.3015945851802826,0.20112386345863342,0.014397550374269485,-0.10176984965801239,-0.19134601950645447,0.9761261940002441,0.0,0.0,0.0,0.0,0.0,0.0
35292,1724913282380321323,-1.360345482826233,-0.30157169699668884,0.2010713517665863,0.01449283305555582,-0.10228792577981949,-0.19111327826976776,0.9761162996292114,0.0,0.0,0.0,0.0,0.0,0.0
35294,1724913282389530803,-1.3603556156158447,-0.30159273743629456,0.2010955661535263,0.014334791339933872,-0.10233594477176666,-0.1910034567117691,0.9761350750923157,0.0,0.0,0.0,0.0,0.0,0.0
35296,1724913282399539132,-1.360251545906067,-0.3015908896923065,0.2011450231075287,0.014524741098284721,-0.10231564193964005,-0.19075213372707367,0.9761834740638733,0.0,0.0,0.0,0.0,0.0,0.0
35298,1724913282410160108,-1.3600984811782837,-0.30160436034202576,0.20120444893836975,0.01406127866357565,-0.10271912068128586,-0.19004888832569122,0.9762850403785706,0.0,0.0,0.0,0.0,0.0,0.0
35300,1724913282420213161,-1.3599658012390137,-0.30156898498535156,0.2013300061225891,0.013657007366418839,-0.10276677459478378,-0.1897730529308319,0.9763394594192505,0.0,0.0,0.0,0.0,0.0,0.0
35302,1724913282430377729,-1.359732985496521,-0.301505982875824,0.2015974223613739,0.013597119599580765,-0.10239722579717636,-0.18973557651042938,0.9763863682746887,0.0,0.0,0.0,0.0,0.0,0.0
35304,1724913282454251638,-1.3594739437103271,-0.30145519971847534,0.20180873572826385,0.01373556349426508,-0.10171370208263397,-0.1891637146472931,0.9765669107437134,0.0,0.0,0.0,0.0,0.0,0.0
35306,1724913282454557144,-1.359197974205017,-0.3013572096824646,0.20202408730983734,0.013261277228593826,-0.10067440569400787,-0.18845248222351074,0.9768185615539551,0.0,0.0,0.0,0.0,0.0,0.0
35308,1724913282459087086,-1.3588109016418457,-0.3011481761932373,0.2023029625415802,0.013073778711259365,-0.09980674833059311,-0.18789467215538025,0.9770175218582153,0.0,0.0,0.0,0.0,0.0,0.0
35310,1724913282469418897,-1.3584578037261963,-0.30084434151649475,0.20250959694385529,0.012501313351094723,-0.09861528873443604,-0.18768082559108734,0.9771870970726013,0.0,0.0,0.0,0.0,0.0,0.0
35312,1724913282479924737,-1.3581031560897827,-0.3004024028778076,0.20286300778388977,0.012457938864827156,-0.09712323546409607,-0.18847474455833435,0.9771843552589417,0.0,0.0,0.0,0.0,0.0,0.0
35314,1724913282489420069,-1.3577861785888672,-0.30009838938713074,0.20297731459140778,0.011984430253505707,-0.09722796082496643,-0.1877991408109665,0.9773098230361938,0.0,0.0,0.0,0.0,0.0,0.0
35316,1724913282500613089,-1.3574888706207275,-0.29948899149894714,0.20349527895450592,0.012527583166956902,-0.09487754851579666,-0.18865734338760376,0.9773688316345215,0.0,0.0,0.0,0.0,0.0,0.0
35318,1724913282509049976,-1.3571993112564087,-0.2988595962524414,0.20378811657428741,0.011979691684246063,-0.09384509176015854,-0.18883708119392395,0.9774406552314758,0.0,0.0,0.0,0.0,0.0,0.0
35320,1724913282519660546,-1.3568508625030518,-0.2981674075126648,0.20409081876277924,0.012015242129564285,-0.09279492497444153,-0.18906627595424652,0.9774961471557617,0.0,0.0,0.0,0.0,0.0,0.0
35322,1724913282532031719,-1.356577754020691,-0.2974693179130554,0.20443843305110931,0.010255012661218643,-0.09159211069345474,-0.18930275738239288,0.9775838255882263,0.0,0.0,0.0,0.0,0.0,0.0
35324,1724913282539559591,-1.3561887741088867,-0.29674461483955383,0.2048427164554596,0.010950794443488121,-0.0900542214512825,-0.18940702080726624,0.9776990413665771,0.0,0.0,0.0,0.0,0.0,0.0
35326,1724913282549515613,-1.3557051420211792,-0.2960715591907501,0.2051767259836197,0.011757667176425457,-0.08915640413761139,-0.18909655511379242,0.9778319597244263,0.0,0.0,0.0,0.0,0.0,0.0
35328,1724913282559626909,-1.3553433418273926,-0.29536500573158264,0.20561957359313965,0.01208531390875578,-0.08743863552808762,-0.18923638761043549,0.9779559969902039,0.0,0.0,0.0,0.0,0.0,0.0
35330,1724913282570339146,-1.3549047708511353,-0.29467448592185974,0.20579777657985687,0.011582784354686737,-0.0865439623594284,-0.1892155408859253,0.9780458211898804,0.0,0.0,0.0,0.0,0.0,0.0
35332,1724913282584708568,-1.3544197082519531,-0.29392683506011963,0.2060713917016983,0.011033154092729092,-0.0850427895784378,-0.1896170675754547,0.9781060218811035,0.0,0.0,0.0,0.0,0.0,0.0
35334,1724913282589051598,-1.3539209365844727,-0.29309433698654175,0.20651812851428986,0.010281168855726719,-0.08243378251791,-0.19095255434513092,0.97807776927948,0.0,0.0,0.0,0.0,0.0,0.0
35336,1724913282604307752,-1.3532583713531494,-0.292356014251709,0.20676706731319427,0.010321654379367828,-0.07965884357690811,-0.19110022485256195,0.978278398513794,0.0,0.0,0.0,0.0,0.0,0.0
35338,1724913282609294829,-1.3524965047836304,-0.2917921245098114,0.2067936360836029,0.01022456493228674,-0.077674999833107,-0.19022275507450104,0.9786099791526794,0.0,0.0,0.0,0.0,0.0,0.0
35340,1724913282619114380,-1.3515141010284424,-0.29114264249801636,0.20684421062469482,0.01010262593626976,-0.07519660890102386,-0.19003283977508545,0.9788416028022766,0.0,0.0,0.0,0.0,0.0,0.0
35342,1724913282654792993,-1.3504537343978882,-0.29044103622436523,0.20711606740951538,0.009678266011178493,-0.07245442271232605,-0.19104455411434174,0.9788558483123779,0.0,0.0,0.0,0.0,0.0,0.0
35344,1724913282655208833,-1.3493411540985107,-0.2897356450557709,0.20714017748832703,0.008472026325762272,-0.06766940653324127,-0.19140081107616425,0.9791399240493774,0.0,0.0,0.0,0.0,0.0,0.0
35346,1724913282655525220,-1.3481414318084717,-0.2891043722629547,0.20715689659118652,0.007971842773258686,-0.0632275715470314,-0.19145773351192474,0.9794298410415649,0.0,0.0,0.0,0.0,0.0,0.0
35348,1724913282659738886,-1.3467075824737549,-0.28848376870155334,0.20718224346637726,0.00869305431842804,-0.059588294476270676,-0.1912705898284912,0.979688286781311,0.0,0.0,0.0,0.0,0.0,0.0
35350,1724913282669260064,-1.3452732563018799,-0.2878028452396393,0.2073688954114914,0.007963636890053749,-0.05517542362213135,-0.19141916930675507,0.9799240231513977,0.0,0.0,0.0,0.0,0.0,0.0
35352,1724913282680239125,-1.3434929847717285,-0.287287175655365,0.20705658197402954,0.006688426248729229,-0.05127427726984024,-0.19049981236457825,0.9803244471549988,0.0,0.0,0.0,0.0,0.0,0.0
35354,1724913282690395741,-1.3417367935180664,-0.2865625321865082,0.20712213218212128,0.00672016479074955,-0.04532233998179436,-0.19108033180236816,0.9805044531822205,0.0,0.0,0.0,0.0,0.0,0.0
35356,1724913282699397436,-1.3397525548934937,-0.28607749938964844,0.20705044269561768,0.007464326918125153,-0.04002702981233597,-0.19057996571063995,0.9808269739151001,0.0,0.0,0.0,0.0,0.0,0.0
35358,1724913282709266434,-1.3377472162246704,-0.2853938937187195,0.20727644860744476,0.007357850670814514,-0.03135133534669876,-0.1904216706752777,0.9811740517616272,0.0,0.0,0.0,0.0,0.0,0.0
35360,1724913282719052727,-1.335439920425415,-0.2849331498146057,0.2073173224925995,0.007336805574595928,-0.02421742118895054,-0.18997140228748322,0.9814634919166565,0.0,0.0,0.0,0.0,0.0,0.0
35362,1724913282729899871,-1.3331246376037598,-0.2845190167427063,0.20690889656543732,0.005927280988544226,-0.019556455314159393,-0.1886586993932724,0.9818301200866699,0.0,0.0,0.0,0.0,0.0,0.0
35364,1724913282740057694,-1.3311712741851807,-0.2840106785297394,0.20674525201320648,0.003833295311778784,-0.016679832711815834,-0.18844838440418243,0.9819339513778687,0.0,0.0,0.0,0.0,0.0,0.0
35366,1724913282755567194,-1.3292038440704346,-0.28363996744155884,0.20700690150260925,0.004854111932218075,-0.012397689744830132,-0.18803472816944122,0.982072114944458,0.0,0.0,0.0,0.0,0.0,0.0
35368,1724913282759182016,-1.327110767364502,-0.28339529037475586,0.20725426077842712,0.0044485339894890785,-0.010846770368516445,-0.188695028424263,0.9819658398628235,0.0,0.0,0.0,0.0,0.0,0.0
35370,1724913282769882783,-1.3253004550933838,-0.2831309139728546,0.2073029726743698,0.003943333402276039,-0.010519588366150856,-0.18793268501758575,0.9821177124977112,0.0,0.0,0.0,0.0,0.0,0.0
35372,1724913282780151933,-1.3239022493362427,-0.2826058566570282,0.20772387087345123,0.002841262612491846,-0.010838229209184647,-0.1877204179763794,0.9821586012840271,0.0,0.0,0.0,0.0,0.0,0.0
35374,1724913282788971770,-1.3229643106460571,-0.2820781469345093,0.20855967700481415,0.0021577198058366776,-0.00994429737329483,-0.18838870525360107,0.9820418357849121,0.0,0.0,0.0,0.0,0.0,0.0
35376,1724913282799997722,-1.3222770690917969,-0.28170323371887207,0.20943835377693176,0.0021235616877675056,-0.00900750607252121,-0.18821831047534943,0.9820836782455444,0.0,0.0,0.0,0.0,0.0,0.0
35378,1724913282808772962,-1.3218477964401245,-0.28123345971107483,0.21029065549373627,0.0019487751414999366,-0.007708159741014242,-0.1883707046508789,0.9820658564567566,0.0,0.0,0.0,0.0,0.0,0.0
35380,1724913282822207179,-1.3218306303024292,-0.28078803420066833,0.21084758639335632,0.00028167638811282814,-0.006550803314894438,-0.18849597871303558,0.9820521473884583,0.0,0.0,0.0,0.0,0.0,0.0
35382,1724913282829811076,-1.322124719619751,-0.2803657352924347,0.21121083199977875,-0.00037780910497531295,-0.005769416224211454,-0.18887247145175934,0.9819846749305725,0.0,0.0,0.0,0.0,0.0,0.0
35384,1724913282840060412,-1.3227617740631104,-0.27986541390419006,0.21167206764221191,-0.0004930277937091887,-0.0033836348447948694,-0.18952816724777222,0.9818693995475769,0.0,0.0,0.0,0.0,0.0,0.0
35386,1724913282850276720,-1.3236998319625854,-0.2794741094112396,0.21165098249912262,0.00017072500486392528,-0.003964002709835768,-0.18965774774551392,0.9818422794342041,0.0,0.0,0.0,0.0,0.0,0.0
35388,1724913282873587068,-1.3247709274291992,-0.27897167205810547,0.2118583768606186,0.0005894193891435862,-0.002519083907827735,-0.19026753306388855,0.9817288517951965,0.0,0.0,0.0,0.0,0.0,0.0
35390,1724913282874306836,-1.3260719776153564,-0.27844423055648804,0.21196793019771576,-0.0006044585607014596,-0.002349949674680829,-0.19084486365318298,0.9816172122955322,0.0,0.0,0.0,0.0,0.0,0.0
35392,1724913282880067908,-1.3275539875030518,-0.27781930565834045,0.21227025985717773,-0.0018924798350781202,-0.0025480128824710846,-0.1912120282649994,0.9815436601638794,0.0,0.0,0.0,0.0,0.0,0.0
35394,1724913282889479164,-1.3291085958480835,-0.2772517204284668,0.21257023513317108,-0.0015069299843162298,-0.0034530358389019966,-0.19095006585121155,0.98159259557724,0.0,0.0,0.0,0.0,0.0,0.0
35396,1724913282899548647,-1.3305985927581787,-0.2764168679714203,0.21309004724025726,-0.0017929308814927936,-0.002714917529374361,-0.19162476062774658,0.9814629554748535,0.0,0.0,0.0,0.0,0.0,0.0
35398,1724913282910172205,-1.3320143222808838,-0.2757251560688019,0.21329981088638306,-0.0022647492587566376,-0.0036616723518818617,-0.19146762788295746,0.9814894795417786,0.0,0.0,0.0,0.0,0.0,0.0
35400,1724913282919969948,-1.333370327949524,-0.2748906910419464,0.2137347012758255,-0.0018238610355183482,-0.0018022507429122925,-0.19293680787086487,0.9812078475952148,0.0,0.0,0.0,0.0,0.0,0.0
35402,1724913282929755906,-1.3347071409225464,-0.2742019593715668,0.21382585167884827,-0.0033174820709973574,-0.0034569588024169207,-0.19397196173667908,0.9809953570365906,0.0,0.0,0.0,0.0,0.0,0.0
35404,1724913282939013495,-1.3359867334365845,-0.2733743190765381,0.21389056742191315,-0.003554549068212509,-0.0032921303063631058,-0.1956145316362381,0.9806689620018005,0.0,0.0,0.0,0.0,0.0,0.0
35406,1724913282950115847,-1.3371351957321167,-0.2725517153739929,0.2139858603477478,-0.002512776292860508,-0.0022903725039213896,-0.19671492278575897,0.9804548025131226,0.0,0.0,0.0,0.0,0.0,0.0
35408,1724913282959387541,-1.3381778001785278,-0.2717020511627197,0.21417251229286194,-0.0010882450733333826,-0.0013763639144599438,-0.1979093849658966,0.9802187085151672,0.0,0.0,0.0,0.0,0.0,0.0
35410,1724913282969552599,-1.3391458988189697,-0.270847350358963,0.21430504322052002,-0.0007140071829780936,0.0003176700265612453,-0.1984734684228897,0.980105996131897,0.0,0.0,0.0,0.0,0.0,0.0
35412,1724913282979748449,-1.3399869203567505,-0.27013182640075684,0.21410579979419708,-0.0012287171557545662,-0.0010655239457264543,-0.19819171726703644,0.9801619648933411,0.0,0.0,0.0,0.0,0.0,0.0
35414,1724913282989650005,-1.3405756950378418,-0.26936808228492737,0.21399784088134766,-0.0006193364970386028,-0.0018159238388761878,-0.19855810701847076,0.9800872802734375,0.0,0.0,0.0,0.0,0.0,0.0
35416,1724913283000106049,-1.3409223556518555,-0.2686711549758911,0.2138158082962036,-1.4164013919071294e-05,-0.002058648504316807,-0.19822528958320618,0.9801543354988098,0.0,0.0,0.0,0.0,0.0,0.0
35418,1724913283009019323,-1.3409851789474487,-0.2681472599506378,0.2136208713054657,-0.00038779430906288326,-0.0033955059479922056,-0.19791828095912933,0.9802126288414001,0.0,0.0,0.0,0.0,0.0,0.0
35420,1724913283020600565,-1.3407626152038574,-0.26753026247024536,0.21389056742191315,-0.0004918210324831307,-0.002025179797783494,-0.198057621717453,0.980188250541687,0.0,0.0,0.0,0.0,0.0,0.0
35422,1724913283029253194,-1.3402732610702515,-0.26704370975494385,0.21399135887622833,0.00025003671180456877,-0.0018880933057516813,-0.1977914273738861,0.9802423119544983,0.0,0.0,0.0,0.0,0.0,0.0
35424,1724913283039480420,-1.3397775888442993,-0.26663443446159363,0.21408802270889282,0.0007207209710031748,-0.001505938358604908,-0.19706325232982635,0.980389416217804,0.0,0.0,0.0,0.0,0.0,0.0
35426,1724913283050881478,-1.3392281532287598,-0.2661518454551697,0.2143913358449936,0.0014013184700161219,-0.0007027091342024505,-0.19720111787319183,0.980361819267273,0.0,0.0,0.0,0.0,0.0,0.0
35428,1724913283080393016,-1.3386414051055908,-0.2657957673072815,0.2144491821527481,0.0012398769613355398,-0.0007527658017352223,-0.1974075585603714,0.9803204536437988,0.0,0.0,0.0,0.0,0.0,0.0
35430,1724913283080647612,-1.338005781173706,-0.26550590991973877,0.21432623267173767,0.0010699201375246048,-0.0011505006114020944,-0.19753621518611908,0.9802943468093872,0.0,0.0,0.0,0.0,0.0,0.0
35432,1724913283081116881,-1.3374327421188354,-0.26533952355384827,0.21417589485645294,0.0010802092729136348,-0.0020601253490895033,-0.197413370013237,0.9803175926208496,0.0,0.0,0.0,0.0,0.0,0.0
35434,1724913283089278459,-1.3369171619415283,-0.26534348726272583,0.21380798518657684,0.0006486126221716404,-0.004295504651963711,-0.19590884447097778,0.9806125164031982,0.0,0.0,0.0,0.0,0.0,0.0
35436,1724913283100718072,-1.3363287448883057,-0.26528891921043396,0.21369144320487976,0.00048615658306516707,-0.005236372351646423,-0.19428890943527222,0.9809302687644958,0.0,0.0,0.0,0.0,0.0,0.0
35438,1724913283109271617,-1.335642695426941,-0.26522746682167053,0.21378841996192932,0.0006959916790947318,-0.005655381828546524,-0.19343413412570953,0.9810966849327087,0.0,0.0,0.0,0.0,0.0,0.0
35440,1724913283120011929,-1.3349077701568604,-0.26515311002731323,0.21415242552757263,0.0005485076108016074,-0.005580746568739414,-0.19362831115722656,0.9810590147972107,0.0,0.0,0.0,0.0,0.0,0.0
35442,1724913283130255426,-1.3341264724731445,-0.26507747173309326,0.21434155106544495,-0.00023675915144849569,-0.006168831139802933,-0.19357697665691376,0.9810656905174255,0.0,0.0,0.0,0.0,0.0,0.0
35444,1724913283139189774,-1.3334399461746216,-0.26509779691696167,0.21424992382526398,0.00018531781097408384,-0.007116454653441906,-0.1929977983236313,0.9811734557151794,0.0,0.0,0.0,0.0,0.0,0.0
35446,1724913283148985655,-1.3328614234924316,-0.2650214731693268,0.21434634923934937,0.0007257855613715947,-0.0076767271384596825,-0.19249947369098663,0.9812667369842529,0.0,0.0,0.0,0.0,0.0,0.0
35448,1724913283159784797,-1.3322598934173584,-0.2649472951889038,0.21434304118156433,0.0008663715561851859,-0.007821803912520409,-0.19169709086418152,0.9814226627349854,0.0,0.0,0.0,0.0,0.0,0.0
35450,1724913283169423724,-1.3316702842712402,-0.2648076117038727,0.21453915536403656,0.0006958668818697333,-0.008307980373501778,-0.1912587285041809,0.9815042614936829,0.0,0.0,0.0,0.0,0.0,0.0
35452,1724913283179617983,-1.3312236070632935,-0.26483047008514404,0.2145143747329712,0.0005783946253359318,-0.010997045785188675,-0.1896265298128128,0.981794536113739,0.0,0.0,0.0,0.0,0.0,0.0
35454,1724913283189843063,-1.3307870626449585,-0.2646237909793854,0.21481333673000336,0.0013978580245748162,-0.010876654647290707,-0.188754141330719,0.9819631576538086,0.0,0.0,0.0,0.0,0.0,0.0
35456,1724913283199206757,-1.330363392829895,-0.26446062326431274,0.21504004299640656,0.0019294937374070287,-0.011633649468421936,-0.18829002976417542,0.9820427298545837,0.0,0.0,0.0,0.0,0.0,0.0
35458,1724913283210242808,-1.3299262523651123,-0.2642855644226074,0.21521006524562836,0.002292855177074671,-0.012423092499375343,-0.1874719262123108,0.9821887612342834,0.0,0.0,0.0,0.0,0.0,0.0
35460,1724913283220142653,-1.3294265270233154,-0.26407334208488464,0.21548329293727875,0.002703652484342456,-0.012443048879504204,-0.18719059228897095,0.9822410941123962,0.0,0.0,0.0,0.0,0.0,0.0
35462,1724913283230008649,-1.3290059566497803,-0.2639818787574768,0.21553929150104523,0.002699163742363453,-0.013408013619482517,-0.18646900355815887,0.9823656678199768,0.0,0.0,0.0,0.0,0.0,0.0
35464,1724913283239797245,-1.3285417556762695,-0.2638823688030243,0.21561767160892487,0.003237096592783928,-0.014070609584450722,-0.18583649396896362,0.9824746251106262,0.0,0.0,0.0,0.0,0.0,0.0
35466,1724913283251743908,-1.3281257152557373,-0.26378634572029114,0.2156144231557846,0.0038827043026685715,-0.01372506469488144,-0.18493187427520752,0.9826478362083435,0.0,0.0,0.0,0.0,0.0,0.0
35468,1724913283259051883,-1.327743649482727,-0.263663113117218,0.21557556092739105,0.004014912061393261,-0.013746214099228382,-0.18411849439144135,0.982799768447876,0.0,0.0,0.0,0.0,0.0,0.0
35470,1724913283270258696,-1.3274314403533936,-0.26355987787246704,0.21549738943576813,0.003854691516608,-0.01461503654718399,-0.18339258432388306,0.9829235672950745,0.0,0.0,0.0,0.0,0.0,0.0
35472,1724913283279151992,-1.3271450996398926,-0.2634676396846771,0.21549595892429352,0.003695680294185877,-0.01510679256170988,-0.1828208565711975,0.9830232262611389,0.0,0.0,0.0,0.0,0.0,0.0
35474,1724913283289370385,-1.3268758058547974,-0.26344093680381775,0.21534506976604462,0.0033487246837466955,-0.01720784232020378,-0.1817699670791626,0.9831848740577698,0.0,0.0,0.0,0.0,0.0,0.0
35476,1724913283302638634,-1.3265750408172607,-0.2633284330368042,0.2153949737548828,0.003429013304412365,-0.017888560891151428,-0.1812455952167511,0.983269214630127,0.0,0.0,0.0,0.0,0.0,0.0
35478,1724913283315493954,-1.3262889385223389,-0.2631792724132538,0.21550852060317993,0.0032604674343019724,-0.017976006492972374,-0.18069250881671906,0.9833699464797974,0.0,0.0,0.0,0.0,0.0,0.0
35480,1724913283320688906,-1.326013445854187,-0.2630424499511719,0.2155267745256424,0.00370497046969831,-0.01809552311897278,-0.17977453768253326,0.9835343956947327,0.0,0.0,0.0,0.0,0.0,0.0
35482,1724913283334371164,-1.3257405757904053,-0.26287347078323364,0.21566808223724365,0.004419571254402399,-0.018509846180677414,-0.17917579412460327,0.9836329817771912,0.0,0.0,0.0,0.0,0.0,0.0
35484,1724913283339758371,-1.325488567352295,-0.262728750705719,0.21566827595233917,0.005009043030440807,-0.018773572519421577,-0.17866429686546326,0.98371821641922,0.0,0.0,0.0,0.0,0.0,0.0
35486,1724913283353817496,-1.325209140777588,-0.2626144289970398,0.21563637256622314,0.005559123121201992,-0.019424013793468475,-0.17765337228775024,0.9838857650756836,0.0,0.0,0.0,0.0,0.0,0.0
35488,1724913283359687295,-1.3249411582946777,-0.26251110434532166,0.2155444175004959,0.005510080140084028,-0.020075932145118713,-0.17686478793621063,0.9840150475502014,0.0,0.0,0.0,0.0,0.0,0.0
35490,1724913283369958019,-1.3246862888336182,-0.2624008059501648,0.21558777987957,0.0052931965328752995,-0.020386338233947754,-0.17624039947986603,0.9841217994689941,0.0,0.0,0.0,0.0,0.0,0.0
35492,1724913283381977182,-1.3244097232818604,-0.2622517943382263,0.21565233170986176,0.005266346503049135,-0.020609933882951736,-0.17552100121974945,0.9842458367347717,0.0,0.0,0.0,0.0,0.0,0.0
35494,1724913283389574497,-1.3241499662399292,-0.2621424198150635,0.2156899869441986,0.005191019736230373,-0.021145092323422432,-0.17476898431777954,0.9843686819076538,0.0,0.0,0.0,0.0,0.0,0.0
35496,1724913283400029917,-1.3238410949707031,-0.26197826862335205,0.21594175696372986,0.005827167071402073,-0.020160308107733727,-0.17500171065330505,0.9843445420265198,0.0,0.0,0.0,0.0,0.0,0.0
35498,1724913283410019217,-1.3235719203948975,-0.2618873715400696,0.21592579782009125,0.006019304506480694,-0.020220128819346428,-0.17423923313617706,0.9844774007797241,0.0,0.0,0.0,0.0,0.0,0.0
35500,1724913283419468075,-1.3232526779174805,-0.26183682680130005,0.21592536568641663,0.0061081647872924805,-0.0210957620292902,-0.17343474924564362,0.9846004843711853,0.0,0.0,0.0,0.0,0.0,0.0
35502,1724913283430285295,-1.322953701019287,-0.26179054379463196,0.21588078141212463,0.006397654302418232,-0.02185741811990738,-0.17271730303764343,0.9847081899642944,0.0,0.0,0.0,0.0,0.0,0.0
35504,1724913283439353532,-1.3225921392440796,-0.2617742717266083,0.21591585874557495,0.006708705332130194,-0.022391365841031075,-0.17186950147151947,0.9848424196243286,0.0,0.0,0.0,0.0,0.0,0.0
35506,1724913283449250366,-1.3222131729125977,-0.2616863250732422,0.21592016518115997,0.006646924186497927,-0.022507717832922935,-0.17152827978134155,0.984899640083313,0.0,0.0,0.0,0.0,0.0,0.0
35508,1724913283459764868,-1.321855068206787,-0.26159822940826416,0.21590253710746765,0.006498615723103285,-0.022752314805984497,-0.1708877682685852,0.9850063920021057,0.0,0.0,0.0,0.0,0.0,0.0
35510,1724913283469428689,-1.3215217590332031,-0.26148274540901184,0.21595285832881927,0.006672267336398363,-0.022837132215499878,-0.17063145339488983,0.9850476980209351,0.0,0.0,0.0,0.0,0.0,0.0
35512,1724913283480835475,-1.3211958408355713,-0.26140058040618896,0.2159072607755661,0.006545584183186293,-0.024451889097690582,-0.1701885610818863,0.9850864410400391,0.0,0.0,0.0,0.0,0.0,0.0
35514,1724913283489765632,-1.3209084272384644,-0.2612784802913666,0.2159785032272339,0.006890077609568834,-0.02483370341360569,-0.17026960849761963,0.9850605130195618,0.0,0.0,0.0,0.0,0.0,0.0
35516,1724913283499070656,-1.320666790008545,-0.2613031268119812,0.2159239500761032,0.0053894417360424995,-0.026363689452409744,-0.16907209157943726,0.9852362871170044,0.0,0.0,0.0,0.0,0.0,0.0
35518,1724913283509063903,-1.3204107284545898,-0.26123058795928955,0.21598541736602783,0.004956094082444906,-0.026549488306045532,-0.16875074803829193,0.985288679599762,0.0,0.0,0.0,0.0,0.0,0.0
35520,1724913283520378572,-1.3201494216918945,-0.26114270091056824,0.21596775949001312,0.005639857146888971,-0.026386596262454987,-0.16829176247119904,0.9853678345680237,0.0,0.0,0.0,0.0,0.0,0.0
35522,1724913283529271535,-1.319859266281128,-0.261068731546402,0.2159523069858551,0.006122925318777561,-0.026508402079343796,-0.16797596216201782,0.9854156374931335,0.0,0.0,0.0,0.0,0.0,0.0
35524,1724913283539949463,-1.3194308280944824,-0.26095080375671387,0.21597780287265778,0.0072745829820632935,-0.026143284514546394,-0.1679101437330246,0.9854287505149841,0.0,0.0,0.0,0.0,0.0,0.0
35526,1724913283552923950,-1.3189606666564941,-0.2607783377170563,0.21604818105697632,0.008245406672358513,-0.02434912882745266,-0.16792963445186615,0.9854637980461121,0.0,0.0,0.0,0.0,0.0,0.0
35528,1724913283559306483,-1.3184890747070312,-0.26073387265205383,0.21584148705005646,0.008651793003082275,-0.024671655148267746,-0.1673944890499115,0.9855432510375977,0.0,0.0,0.0,0.0,0.0,0.0
35530,1724913283569755854,-1.3180108070373535,-0.2607228755950928,0.21573501825332642,0.00962882861495018,-0.02459290437400341,-0.16721248626708984,0.9855670928955078,0.0,0.0,0.0,0.0,0.0,0.0
35532,1724913283580262179,-1.317456841468811,-0.2606687843799591,0.21562765538692474,0.010213078930974007,-0.024210995063185692,-0.16750644147396088,0.9855207800865173,0.0,0.0,0.0,0.0,0.0,0.0
35534,1724913283589227360,-1.3167835474014282,-0.2606399953365326,0.2153480052947998,0.011093277484178543,-0.024652618914842606,-0.16720932722091675,0.9855507612228394,0.0,0.0,0.0,0.0,0.0,0.0
35536,1724913283600165301,-1.3161312341690063,-0.2606893479824066,0.21469861268997192,0.010982331819832325,-0.025965198874473572,-0.16591797769069672,0.9857364892959595,0.0,0.0,0.0,0.0,0.0,0.0
35538,1724913283608991920,-1.3153631687164307,-0.26071324944496155,0.2145896703004837,0.012310020625591278,-0.02467329613864422,-0.16540759801864624,0.9858397841453552,0.0,0.0,0.0,0.0,0.0,0.0
35540,1724913283619245976,-1.3146183490753174,-0.26093846559524536,0.2141330987215042,0.01364336721599102,-0.025174658745527267,-0.16445285081863403,0.9859693050384521,0.0,0.0,0.0,0.0,0.0,0.0
35542,1724913283629747438,-1.3138493299484253,-0.26109805703163147,0.21361973881721497,0.01393828820437193,-0.02528100274503231,-0.16392987966537476,0.986049473285675,0.0,0.0,0.0,0.0,0.0,0.0
35544,1724913283639471108,-1.3131431341171265,-0.2612069547176361,0.21303676068782806,0.013472936116158962,-0.025246458128094673,-0.16429390013217926,0.9859963059425354,0.0,0.0,0.0,0.0,0.0,0.0
35546,1724913283649236045,-1.3125194311141968,-0.2612941861152649,0.21248529851436615,0.012929089367389679,-0.02587931789457798,-0.16440020501613617,0.9859694242477417,0.0,0.0,0.0,0.0,0.0,0.0
35548,1724913283659815547,-1.3118113279342651,-0.2615155279636383,0.21205250918865204,0.013568856753408909,-0.02613930031657219,-0.16377364099025726,0.9860582947731018,0.0,0.0,0.0,0.0,0.0,0.0
35550,1724913283669137552,-1.31112539768219,-0.2618105709552765,0.2118130326271057,0.014714961871504784,-0.025439858436584473,-0.16356061398983002,0.9860954880714417,0.0,0.0,0.0,0.0,0.0,0.0
35552,1724913283679830665,-1.3104467391967773,-0.26177722215652466,0.21189571917057037,0.016094744205474854,-0.022053662687540054,-0.1637660562992096,0.9861213564872742,0.0,0.0,0.0,0.0,0.0,0.0
35554,1724913283690912463,-1.3097858428955078,-0.2617437541484833,0.2119521200656891,0.016031518578529358,-0.02103245072066784,-0.16429965198040009,0.9860559701919556,0.0,0.0,0.0,0.0,0.0,0.0
35556,1724913283699477039,-1.3090698719024658,-0.2615995705127716,0.2121628373861313,0.015098567120730877,-0.020664190873503685,-0.16512392461299896,0.9859408140182495,0.0,0.0,0.0,0.0,0.0,0.0
35558,1724913283709854505,-1.3083387613296509,-0.2614988386631012,0.21230971813201904,0.01355594489723444,-0.020425625145435333,-0.1655038595199585,0.9859045147895813,0.0,0.0,0.0,0.0,0.0,0.0
35560,1724913283719327746,-1.3075003623962402,-0.26157501339912415,0.21234683692455292,0.011826747097074986,-0.02005048468708992,-0.1649264395236969,0.986031174659729,0.0,0.0,0.0,0.0,0.0,0.0
35562,1724913283729360290,-1.3065522909164429,-0.2613638639450073,0.21239455044269562,0.01043633557856083,-0.018415676429867744,-0.16575419902801514,0.9859399795532227,0.0,0.0,0.0,0.0,0.0,0.0
35564,1724913283754615598,-1.3055485486984253,-0.26095452904701233,0.21232004463672638,0.008387941867113113,-0.01614471711218357,-0.16644185781478882,0.9858834147453308,0.0,0.0,0.0,0.0,0.0,0.0
35566,1724913283755096303,-1.3044198751449585,-0.2606665790081024,0.21210366487503052,0.00769871287047863,-0.01362268440425396,-0.16627292335033417,0.9859555959701538,0.0,0.0,0.0,0.0,0.0,0.0
35568,1724913283759105307,-1.3032677173614502,-0.2602732181549072,0.21216626465320587,0.006668444722890854,-0.011072817258536816,-0.1681370735168457,0.9856788516044617,0.0,0.0,0.0,0.0,0.0,0.0
35570,1724913283795551669,-1.302070140838623,-0.2598726153373718,0.21224334836006165,0.006068756803870201,-0.008941044099628925,-0.16938859224319458,0.9854901432991028,0.0,0.0,0.0,0.0,0.0,0.0
35572,1724913283795784850,-1.3010238409042358,-0.25965040922164917,0.2123103141784668,0.006781917996704578,-0.00839597824960947,-0.16995328664779663,0.9853929877281189,0.0,0.0,0.0,0.0,0.0,0.0
35574,1724913283796411224,-1.2999091148376465,-0.25924748182296753,0.21268925070762634,0.0066960533149540424,-0.00789410900324583,-0.1718154400587082,0.9850748181343079,0.0,0.0,0.0,0.0,0.0,0.0
35576,1724913283804218625,-1.2989740371704102,-0.2590765357017517,0.2127905637025833,0.008091278374195099,-0.008539482019841671,-0.17204435169696808,0.9850189685821533,0.0,0.0,0.0,0.0,0.0,0.0
35578,1724913283809139595,-1.2981877326965332,-0.2590146064758301,0.21325384080410004,0.008383282460272312,-0.007612275425344706,-0.17256386578083038,0.9849333167076111,0.0,0.0,0.0,0.0,0.0,0.0
35580,1724913283820182255,-1.2976940870285034,-0.2590296268463135,0.21369820833206177,0.008344938978552818,-0.0086062615737319,-0.17357024550437927,0.9847486019134521,0.0,0.0,0.0,0.0,0.0,0.0
35582,1724913283829834106,-1.297452688217163,-0.2590843737125397,0.21415972709655762,0.008437605574727058,-0.00992271862924099,-0.17433558404445648,0.9846001863479614,0.0,0.0,0.0,0.0,0.0,0.0
35584,1724913283840245196,-1.2974934577941895,-0.25922688841819763,0.21447131037712097,0.007930784486234188,-0.011468383483588696,-0.17462989687919617,0.9845355153083801,0.0,0.0,0.0,0.0,0.0,0.0
35586,1724913283850866249,-1.2978185415267944,-0.2594786584377289,0.21474610269069672,0.0067034317180514336,-0.012761123478412628,-0.1751926690340042,0.9844287037849426,0.0,0.0,0.0,0.0,0.0,0.0
35588,1724913283859375769,-1.2983543872833252,-0.25990214943885803,0.21491800248622894,0.007001753430813551,-0.014879272319376469,-0.1746027171611786,0.9845016598701477,0.0,0.0,0.0,0.0,0.0,0.0
35590,1724913283871476824,-1.2991013526916504,-0.26014626026153564,0.21562951803207397,0.00846509262919426,-0.014578431844711304,-0.1751640886068344,0.984394907951355,0.0,0.0,0.0,0.0,0.0,0.0
35592,1724913283880312431,-1.3000425100326538,-0.2606904208660126,0.2158425748348236,0.007463672664016485,-0.01764344982802868,-0.17559684813022614,0.984275758266449,0.0,0.0,0.0,0.0,0.0,0.0
35594,1724913283890399157,-1.300998568534851,-0.2613314092159271,0.2159457802772522,0.0073059056885540485,-0.02144252136349678,-0.17537276446819305,0.9842415452003479,0.0,0.0,0.0,0.0,0.0,0.0
35596,1724913283899821199,-1.3022077083587646,-0.2619795501232147,0.21601666510105133,0.007290244102478027,-0.024062728509306908,-0.17523352801799774,0.9842058420181274,0.0,0.0,0.0,0.0,0.0,0.0
35598,1724913283910388623,-1.3034660816192627,-0.26279228925704956,0.2161129266023636,0.00657303910702467,-0.02667156793177128,-0.17483343183994293,0.9842148423194885,0.0,0.0,0.0,0.0,0.0,0.0
35600,1724913283919477637,-1.304693579673767,-0.26376837491989136,0.2159382849931717,0.00589147349819541,-0.031046701595187187,-0.17316681146621704,0.9843853712081909,0.0,0.0,0.0,0.0,0.0,0.0
35602,1724913283930245979,-1.3058016300201416,-0.26459965109825134,0.21607300639152527,0.00729389488697052,-0.03478948026895523,-0.173649400472641,0.9841658473014832,0.0,0.0,0.0,0.0,0.0,0.0
35604,1724913283939487788,-1.306949496269226,-0.2654115557670593,0.21603330969810486,0.007674223277717829,-0.03770541772246361,-0.1735145002603531,0.9840793609619141,0.0,0.0,0.0,0.0,0.0,0.0
35606,1724913283953499175,-1.3080062866210938,-0.2662595510482788,0.2159816026687622,0.007762190420180559,-0.040481243282556534,-0.17390069365501404,0.983900249004364,0.0,0.0,0.0,0.0,0.0,0.0
35608,1724913283959600724,-1.3089852333068848,-0.26723653078079224,0.2158764898777008,0.008510647341609001,-0.04409090429544449,-0.17346687614917755,0.9838154911994934,0.0,0.0,0.0,0.0,0.0,0.0
35610,1724913283969431347,-1.30990731716156,-0.2680691182613373,0.21588578820228577,0.00920246820896864,-0.04589555412530899,-0.1736842542886734,0.9836882948875427,0.0,0.0,0.0,0.0,0.0,0.0
35612,1724913283979711535,-1.3109707832336426,-0.2689756453037262,0.2155943065881729,0.008650314062833786,-0.04853186383843422,-0.17321909964084625,0.9836487770080566,0.0,0.0,0.0,0.0,0.0,0.0
35614,1724913283993186449,-1.3119637966156006,-0.26968857645988464,0.2152421772480011,0.00807519257068634,-0.0514945350587368,-0.17353016138076782,0.9834482073783875,0.0,0.0,0.0,0.0,0.0,0.0
35616,1724913283999530055,-1.3128336668014526,-0.2704831063747406,0.21487441658973694,0.009145693853497505,-0.05419701337814331,-0.17383520305156708,0.9832397699356079,0.0,0.0,0.0,0.0,0.0,0.0
35618,1724913284009290158,-1.3137028217315674,-0.27132320404052734,0.21447134017944336,0.009143030270934105,-0.05596856400370598,-0.1738056242465973,0.9831457734107971,0.0,0.0,0.0,0.0,0.0,0.0
35620,1724913284021270590,-1.3146624565124512,-0.27216848731040955,0.2140067219734192,0.008280189707875252,-0.05814853310585022,-0.17323945462703705,0.9831268191337585,0.0,0.0,0.0,0.0,0.0,0.0
35622,1724913284032163220,-1.3155934810638428,-0.2728208899497986,0.2135782539844513,0.007703593000769615,-0.060749221593141556,-0.1734286993741989,0.9829409122467041,0.0,0.0,0.0,0.0,0.0,0.0
35624,1724913284039600532,-1.3164684772491455,-0.27353012561798096,0.21297098696231842,0.008355347439646721,-0.06332951784133911,-0.17258049547672272,0.9829219579696655,0.0,0.0,0.0,0.0,0.0,0.0
35626,1724913284052427563,-1.3173283338546753,-0.27425047755241394,0.21236111223697662,0.0071837580762803555,-0.06681101024150848,-0.17148394882678986,0.9828926920890808,0.0,0.0,0.0,0.0,0.0,0.0
35628,1724913284058761476,-1.3183300495147705,-0.274742066860199,0.2121913582086563,0.006487407721579075,-0.06660966575145721,-0.17201535403728485,0.9828183054924011,0.0,0.0,0.0,0.0,0.0,0.0
35630,1724913284069638635,-1.3192118406295776,-0.2754000127315521,0.2118113934993744,0.00712827080860734,-0.06898555159568787,-0.17193849384784698,0.9826633930206299,0.0,0.0,0.0,0.0,0.0,0.0
35632,1724913284079951017,-1.3200124502182007,-0.27600982785224915,0.21148458123207092,0.007682335563004017,-0.0705588087439537,-0.1717456877231598,0.9825813174247742,0.0,0.0,0.0,0.0,0.0,0.0
35634,1724913284089565054,-1.3208023309707642,-0.2766627371311188,0.21097303926944733,0.008587509393692017,-0.07281802594661713,-0.1707100123167038,0.9825893640518188,0.0,0.0,0.0,0.0,0.0,0.0
35636,1724913284103188611,-1.3217370510101318,-0.27722403407096863,0.21060465276241302,0.008227396756410599,-0.07443618029356003,-0.17026588320732117,0.9825482964515686,0.0,0.0,0.0,0.0,0.0,0.0
35638,1724913284108770037,-1.3226386308670044,-0.2778176963329315,0.21041443943977356,0.008160421624779701,-0.0766357034444809,-0.16987605392932892,0.9824472069740295,0.0,0.0,0.0,0.0,0.0,0.0
35640,1724913284119442510,-1.323455572128296,-0.27844715118408203,0.21017998456954956,0.0081444988027215,-0.07894273102283478,-0.16927579045295715,0.9823682904243469,0.0,0.0,0.0,0.0,0.0,0.0
35642,1724913284129830442,-1.3242965936660767,-0.279163122177124,0.2098027616739273,0.008242947980761528,-0.08173312246799469,-0.16849245131015778,0.9822739362716675,0.0,0.0,0.0,0.0,0.0,0.0
35644,1724913284139527280,-1.3251497745513916,-0.2797242999076843,0.20951007306575775,0.009260100312530994,-0.08308858424425125,-0.16752837598323822,0.9823160171508789,0.0,0.0,0.0,0.0,0.0,0.0
35646,1724913284149169800,-1.3260422945022583,-0.2801847457885742,0.20933647453784943,0.010071062482893467,-0.08395346254110336,-0.16676995158195496,0.9823635816574097,0.0,0.0,0.0,0.0,0.0,0.0
35648,1724913284158930973,-1.326978325843811,-0.2807709872722626,0.2089492231607437,0.009763851761817932,-0.08642949908971786,-0.16459304094314575,0.9825190901756287,0.0,0.0,0.0,0.0,0.0,0.0
35650,1724913284169503580,-1.3279178142547607,-0.28110355138778687,0.20891645550727844,0.010090083815157413,-0.08644010126590729,-0.16425277292728424,0.9825718402862549,0.0,0.0,0.0,0.0,0.0,0.0
35652,1724913284180729405,-1.3289661407470703,-0.2816595435142517,0.20868901908397675,0.010186084546148777,-0.08794397860765457,-0.16328740119934082,0.9825983047485352,0.0,0.0,0.0,0.0,0.0,0.0
