seq,stamp,px,py,pz,ox,oy,oz,ow,lx,ly,lz,ax,ay,az,timestamp,wx,wy,wz,aa_x,aa_y,aa_z,roll,pitch,yaw,vx,vy,vz,jx,jy,jz,fw
12,1724914411045806250,-0.2617554366588592,0.1235714703798294,0.1793073862791061,-0.0003151007113046,-0.0947878509759903,-0.2862581312656402,0.9534524083137512,0.0,0.0,0.0,-1.895115916280128,0.981204364112612,-1.7645773579638355,0.0,0.0,0.0,0.0,-91.5654333321362,107.5321887823734,40.66711508064377,0.0545944337588106,-0.1819338156992253,-0.5883228588134068,0.1223189261164318,-0.0583457012060226,0.1110026411138775,1861.103799488652,-437.0874986833141,800.4491158114745,0.0
14,1724914411052862923,-0.2608922719955444,0.1231597438454628,0.1800906956195831,-0.0018183609936386,-0.0915815308690071,-0.2855077385902405,0.9539889097213744,0.0,0.0,0.0,11.238085015768858,-2.103179186483466,3.88393030545687,0.007056673,-0.6461473211281855,0.7588194932114773,0.2869745329774717,-76.37453349258182,90.3298010166124,33.971307677779855,0.0496176367794563,-0.1766917937494129,-0.585984103356356,0.1089457127981475,-0.051421662862307,0.0985505957155228,196.08659579127584,-53.08880793239865,73.92004106268485,0.0005972758902301
16,1724914411095565989,-0.2596957981586456,0.122753158211708,0.1810813099145889,-0.0004250499769113,-0.0882108211517334,-0.2853274643421173,0.9543620347976683,0.0,0.0,0.0,-410.6542361813881,94.86087971495226,-180.70564240765,0.049759739,0.0179859599135741,0.1708197874007234,0.007354850883264,-2163.2756337546934,58051.63399375698,21166.24183879748,0.0502672066080084,-0.1694220218655219,-0.5852959829990022,3.9826656677237224,-0.9382855774727544,1.7240667904961242,55393.92667544715,-15637.19531385356,39910.00654099486,0.0007532409274682
18,1724914411095953029,-0.2581404745578766,0.1223867461085319,0.1817545592784881,0.0005422935937531,-0.0839447155594825,-0.2838122546672821,0.9551982879638672,0.0,0.0,0.0,-388.9855946730637,88.74583989512698,-165.10370786519067,0.050146779,-0.8269314478178138,22.84281438864904,8.273810051982856,-2067.9998951558696,55409.19802499068,20205.572287781648,0.0493409715189679,-0.1607513127627835,-0.5816074720632327,3.821967284262845,-0.9011650024145258,1.6533590415388435,63360.68667664002,-25000.32155055403,26213.028979774277,0.0003967785537481
20,1724914411103088902,-0.2567252516746521,0.1219473853707313,0.182221919298172,0.0001226511376444,-0.0789008662104606,-0.281141459941864,0.9564173817634584,0.0,0.0,0.0,1033.4555733605448,-1300.1533457556693,-1832.8300287342315,0.057282652,-0.4509076926662538,1.34603332442377,0.8210975247345479,-58127.8150174937,107819.8036553184,-2526.645383144686,0.0451308485963094,-0.1514334730247112,-0.5752235513881968,4.49488556491508,-1.2102877264505878,2.7887297427090516,-1455491.2947463058,355778.3994647693,-1018333.0626483494,0.000228462909255
22,1724914411103395008,-0.2552929222583771,0.1215618252754211,0.1831113249063491,-0.0011194517137482,-0.0728401094675064,-0.281360775232315,0.9568328857421876,0.0,0.0,0.0,566.1914705572417,-1184.019969388207,-2154.8507428393805,0.057588758,-19.0081467498318,35.80565693667475,0.0282129164775469,2609.868640476756,55311.40412651308,6610.795439953335,0.0392430197857914,-0.1404831931107346,-0.5747475626796203,4.82356452355333,-1.6247759045350565,2.201533416642633,-1609091.4924553656,517577.2571055368,-812866.6261874295,0.0006645835550048
24,1724914411103767665,-0.2534298896789551,0.1207906529307365,0.1836123466491699,0.0022849729284644,-0.06796894967556,-0.2800287902355194,0.9575796723365784,0.0,0.0,0.0,-70.92753419516598,-928.4485414598068,-2349.286025721036,0.057961415,10.65199410646309,30.43904910729795,6.666064869005164,76300.03407786181,-13949.845715756508,17056.435222416785,0.0428126955544626,-0.1292512281437235,-0.5717732031110395,4.8042956235673575,-1.9888625994122375,1.291185482796307,-1641075.1108435653,662743.4411692137,-490002.7191506223,0.0002255085033854
26,1724914411112552292,-0.2516120672225952,0.1199946403503418,0.1839232444763183,0.0014904491836205,-0.0617740228772163,-0.2802189588546753,0.9579452872276306,0.0,0.0,0.0,-283.3834922028395,117.15180096500356,-78.73244388572698,0.066746042,-0.571302259190427,1.305476574158236,-0.009077495034278,-680.7567462623891,-1808.543482573304,-397.08834438858577,0.037746493204623,-0.1177891483921379,-0.5713882158403587,0.2010007314717832,-0.0904711209384121,0.0303222444066335,-483.0925732008758,59282.72476970229,143425.24583097012,6.657649584672652e-05
28,1724914411122932300,-0.249598428606987,0.1190573051571846,0.184175819158554,0.0013054356677457,-0.0562074594199657,-0.278723657131195,0.958724319934845,0.0,0.0,0.0,2.3085650547114582,-0.2537573719776622,-1.0032605742031344,0.07712605,-0.3171249478387288,1.0271613645470925,0.3186605101503644,30.45386500299701,-2.2160912750025545,26.72711517473084,0.0340379215278173,-0.1072527106696448,-0.5676766250690932,0.2108797603197612,-0.0880936102005627,0.0078370974671706,13767.964822629452,-5669.6221806093645,3862.289703723001,5.469841095851683e-06
30,1724914411133342165,-0.2472268939018249,0.1181633174419403,0.1840851902961731,0.0032850985880941,-0.0500080585479736,-0.2759637236595154,0.9598606824874878,0.0,0.0,0.0,2.028180625550247,-0.3815860331727574,1.3472302810337595,0.087535915,0.0621865325536534,1.2608751874705806,0.5462859940879773,-31.11202604703868,35.83643949658793,-1.878950335774814,0.034065293822722,-0.0943282259550656,-0.5615149773275803,0.2490766439778724,-0.0957755761244216,0.0095341279697187,-25.54901032405168,69.43436434640702,177.8038829261557,-0.0003411813948018
32,1724914411142440047,-0.2447917759418487,0.1172132715582847,0.1843169629573822,0.0020236975979059,-0.0416660718619823,-0.2746144235134125,0.9606491327285768,0.0,0.0,0.0,1.8067550606987464,0.8998476769903863,2.5832830983894164,0.096633797,-0.7579718400360405,1.693340399284239,0.3403868701431297,-22.147872313424905,13.612777705619337,-20.146397267513073,0.0268593759535565,-0.0790236999662061,-0.5579368978339789,0.2544798647102535,-0.0964136566074316,0.0312070131854547,-52.601465061973755,105.15395507811247,-19.757178249846376,1.527392189551891e-05
34,1724914411154159391,-0.2420083731412887,0.1162043064832687,0.1847692131996154,0.0041972761973738,-0.0341335758566856,-0.2737895548343658,0.9611746072769164,0.0,0.0,0.0,0.7636329660999372,1.593315001064087,0.0024969356329926,0.108353141,0.0090141537719548,1.3407824762001774,0.141800478782622,-44.14572300431806,43.35628125113339,-43.417745417419425,0.0268164815942846,-0.0633606978768524,-0.555848778410233,0.2939633139341886,-0.0712250238080489,0.0645171259479404,-250.77720277678017,-70.1863648835365,-223.79730148496515,0.0002514282586456
36,1724914411162546775,-0.2392038851976394,0.1156961694359779,0.1854659765958786,0.002606933703646,-0.0243077091872692,-0.275420606136322,0.9610130190849304,0.0,0.0,0.0,-2.3107872404100824,0.228124709479021,-1.896075061273668,0.116740525,-1.019104852286584,2.145267897147584,-0.3812688327847974,-37.26030257673199,-29.500535696403375,-2.843912182282846,0.0184202193951587,-0.0452995346771031,-0.5586430595866037,0.2847283464864336,-0.0611988405135779,0.0474913473333176,-140.7234585597711,-155.6740787080934,-16.84896306793594,0.0005566197320164
38,1724914411173081770,-0.2368611544370651,0.1150432974100112,0.1854954659938812,0.0013816230930387,-0.0230173338204622,-0.2735481858253479,0.9615818858146667,0.0,0.0,0.0,-0.80501801151477,-1.3180422842182131,0.6987834373624087,0.12727552,-0.2826587320337638,0.1749029512739407,0.3763681874576297,60.7229502666172,-69.94574519591625,33.797974561969845,0.0152648356268053,-0.0435239617361178,-0.5546435245479967,0.2443764180655527,-0.0715948744124705,0.0292874049609501,79.49753141372926,4.053765570759072,140.25243606198583,-8.250303042018158e-05
40,1724914411182688946,-0.2343206405639648,0.1142711639404296,0.1860089004039764,0.0030532157979905,-0.0208669602870941,-0.2718231379985809,0.9621161222457886,0.0,0.0,0.0,-0.5970095360704519,0.0422354600070016,1.11704891820212,0.136882696,0.2202750058782067,0.52870925930549,0.3671146517736836,5.8751718902035055,12.157022994025716,-12.928922555347691,0.0172329657310647,-0.038502520697902,-0.5510314654308017,0.2631469575505907,-0.0871594916616143,0.0572615205568816,-179.33930658002373,173.53513533190915,-80.76822387480276,0.0004025289306015
42,1724914411192505699,-0.2317503541707992,0.113347440958023,0.1866093277931213,0.0026864535175263,-0.0187258254736661,-0.2712682485580444,0.9623178839683532,0.0,0.0,0.0,-4.37365691162865,2.0662279446237033,-0.9227240502393224,0.146699449,-0.1882323112519182,0.400586670762462,0.1201675235513965,-23.988704872464247,-12.694837540446205,-14.789047998373109,0.0153396651880472,-0.0345897915109501,-0.5497871159617773,0.2316993015778425,-0.0700701199532458,0.0502244040424653,-234.17720572448803,42.002152232093025,-25.746286989806883,0.0004990088586421
44,1724914411202880468,-0.2296768575906753,0.1128839179873466,0.1870104521512985,0.0018451499054208,-0.0170220043510198,-0.2708862721920013,0.9624590873718262,0.0,0.0,0.0,-5.152624323915148,0.7018904793297911,0.8061272688750507,0.157074218,-0.2438648218937929,0.2727904384350248,0.0803995841468061,28.279655562935687,-30.062755619915976,6.940098993670305,0.0127806150356066,-0.0317716589720117,-0.5489127858687523,0.1734930820157636,-0.0450657373061167,0.038394022685674,-46.59029201583809,-132.25380475552672,195.78492234636104,0.0003282479741922
46,1724914411214106449,-0.2280495017766952,0.112373299896717,0.1874381899833679,0.0039966665208339,-0.019272081553936,-0.2692792415618896,0.9628610610961914,0.0,0.0,0.0,-5.329545827997625,-0.7918799148845159,3.3580296060380643,0.168300199,0.4822518271457025,-0.2802397981657314,0.2891718776109804,-14.1537047717221,-24.954636810238352,4.679764388618809,0.0180876546996068,-0.0349673605547764,-0.5457137570255979,0.1212099848634977,-0.057936181389163,0.0710869438837296,-37.85336701437029,19.70003991580788,-0.9786545258471762,0.0003621383014971
48,1724914411223156783,-0.2271258234977722,0.1117581129074096,0.1883222162723541,0.0026128848548978,-0.0204391162842512,-0.2683018445968628,0.9631145596504213,0.0,0.0,0.0,-5.833332075217153,0.5010277087950126,1.6834204164124549,0.177350533,-0.2210543680039285,-0.328722498356262,0.2299786900753067,-30.90942619477071,21.229204448974,-21.52423279031385,0.0160129501709796,-0.0379774657218398,-0.5436820471724981,0.0680711009258505,-0.0625156243312048,0.1047307541142164,13.922798080649784,31.60322889326728,-290.66386340060876,0.0008419639797791
50,1724914411232508465,-0.2268176823854446,0.1112262308597564,0.1893697679042816,0.0025223437696695,-0.0197944696992635,-0.2688285708427429,0.9629814028739928,0.0,0.0,0.0,-5.030699787049286,-0.2784855838052267,-2.0554947381444895,0.186702215,-0.057867493988835,0.1267105296745601,-0.1160984157978623,20.16267278762028,34.7805341527128,-26.8025304694945,0.0155116880413254,-0.036775545155677,-0.5447497206983916,0.0138882910122788,-0.0480992272002418,0.1008189864318787,90.74363998987442,-152.52638205597987,-297.9985061061637,0.001031475341736
52,1724914411244631081,-0.2269488722085952,0.1107810586690902,0.1904159784317016,0.0044307992793619,-0.0182397291064262,-0.2704330086708069,0.9625558257102966,0.0,0.0,0.0,-3.8533957228572913,-3.214497580092085,-4.068058416115288,0.198824831,0.2291853389364039,0.3295926599262488,-0.2806571694095818,47.28904838590396,-55.417651339172075,51.99095391434726,0.0184059251721544,-0.0327228858238694,-0.5480857293168214,-0.0351034073874778,-0.0800768320428968,0.0501731054552365,92.53097933905592,31.40312729871222,21.955249611779863,0.0010497997418956
54,1724914411252926979,-0.2273779362440109,0.1098706200718879,0.1906270980834961,0.0068022543564438,-0.0212517827749252,-0.2682954668998718,0.9630782604217528,0.0,0.0,0.0,-3.111799926636089,-1.4007342113525607,-2.8187714646863404,0.207120729,0.7555276150256579,-0.5397727861147386,0.5228796164551459,39.306900729804774,-49.37636699079505,37.38690283860092,0.024525229724319,-0.0372928755843714,-0.5438425103509962,-0.0660037571656015,-0.1100177092629426,0.017047934762207,54.30920457598694,211.0844774564671,157.6180252742051,0.0002315854848962
56,1724914411262811019,-0.2281985282897949,0.1087799966335296,0.1906966716051101,0.0103766517713665,-0.0241837427020072,-0.2673006951808929,0.9632537961006165,0.0,0.0,0.0,-2.988160592195063,0.5967312668429576,-1.1781159784125577,0.217004769,0.8597704250759951,-0.3751937682369748,0.1920510364836615,-5.992204421113263,8.777173690503878,-24.412158084330205,0.0329530861434854,-0.0410543230395132,-0.5420502224614465,-0.0895423934493484,-0.0978562249519323,0.003014551189632,-95.61578638213985,10.757503482497016,-14.790522763462375,0.0001199628279081
58,1724914411277553108,-0.2296619415283203,0.1076119244098663,0.1906526237726211,0.0124408714473247,-0.0279638282954692,-0.2670349776744842,0.9632007479667664,0.0,0.0,0.0,-6.775172704530879,-3.451678252016558,-5.37114970098873,0.231746858,0.4077798542182833,-0.4189284283230297,0.0313493790504092,-7.603978555756235,-7.017980568619592,-14.524594897386551,0.0389540561643379,-0.0472428364754464,-0.5418101524523735,-0.1469337654352127,-0.1029925574117305,-0.0090391651849035,-10.656143336252851,-74.3366893426629,-127.43290444293348,5.514088221122298e-05
60,1724914411287162680,-0.2313724905252456,0.1064733862876892,0.190527856349945,0.0140191977843642,-0.0309389289468526,-0.2676055431365967,0.9629297256469728,0.0,0.0,0.0,-5.335209670782406,-2.9114818793569093,-5.612326572073916,0.24135643,0.479130101448778,-0.5117455777834596,-0.1309246074481893,88.94509702257454,10.085489111039012,41.20681412299232,0.0436308978494721,-0.052104371510642,-0.5432720313423424,-0.2300939151957557,-0.1556004426093373,-0.0891766254523851,335.3352068621675,244.50182576662112,390.2540894590446,2.1630278165879404e-06
62,1724914411294413682,-0.2333258986473083,0.1051420271396637,0.1894643604755401,0.0191250760108232,-0.0336404703557491,-0.2657455801963806,0.9632661938667296,0.0,0.0,0.0,-1.8888269148177643,-0.1084181848921028,-0.5100721495663385,0.248607432,1.5700940704622588,-0.3305882571918632,0.485714223801417,70.47388812301818,2.2628654590081183,28.37101536148315,0.0548340542150851,-0.0546718786051395,-0.5398673878031277,-0.2506219904501954,-0.1626883535378818,-0.1149512732478221,327.76711793296647,262.6090346276108,481.2939204876724,-0.0008886056277337
64,1724914411304184156,-0.2355273962020874,0.1038279309868812,0.1887588053941726,0.0240066107362508,-0.0380657985806465,-0.2655193209648132,0.9630547165870668,0.0,0.0,0.0,-0.6286789833966964,0.8253243168322495,1.2648386456546596,0.258377906,1.2056497520787766,-0.6076081402204069,0.0168193131447823,-9.212363242338029,-11.054335771220543,-32.262923458279765,0.0666252877883952,-0.0606075536581881,-0.5400641443309665,-0.2566717753867795,-0.1523057598487787,-0.0798521396954257,211.30362230339583,106.30445979097397,-1.9679960975046988,-0.0004790208217823
66,1724914411312598244,-0.2379142194986343,0.1024173721671104,0.1880315691232681,0.028781458735466,-0.0418692044913768,-0.2659291326999664,0.9626528024673462,0.0,0.0,0.0,1.7458008975475234,1.7975774084766476,-0.0822939368484116,0.266791994,1.3316633784330276,-0.5752758886503453,-0.1406780165900081,4.627259677720659,6.9596882161777,-8.158114044265727,0.0779266005648239,-0.0653498613321972,-0.5415972633971053,-0.2620302890598207,-0.147081070483531,-0.0860749556272377,-94.27194300435818,-145.49552845768065,-203.64786778516867,-0.000447788335332
68,1724914411323485734,-0.2404622137546539,0.101105697453022,0.1870994418859481,0.0346180312335491,-0.0460326075553894,-0.2661349177360534,0.9622135162353516,0.0,0.0,0.0,-4.584350834286749,-3.464114616656337,-2.9129471079092992,0.277679484,1.23624274847165,-0.4555893642371745,-0.0807279515005538,-19.51209449459922,7.178189531210936,9.241710110550674,0.0914742620809554,-0.0702179486472264,-0.5428956137625652,-0.2094561765527407,-0.1109336055178116,-0.0777112282334311,-312.40100380163386,-213.2396185449746,-69.50421584372901,-0.0005980301798957
70,1724914411338307157,-0.2430708408355713,0.0996540263295173,0.1861071139574051,0.0389386713504791,-0.0505444444715976,-0.2650513052940368,0.9621210694313048,0.0,0.0,0.0,-3.7867366209806193,-1.1761078299668668,-0.0996800274193958,0.292500907,0.7301886598159586,-0.4261696464403647,0.1316154050625961,259.00785445925396,-254.8990826244983,95.1370566498315,0.1021988766388758,-0.0766934200850156,-0.5415611611174689,-0.4673310435119688,-0.2991602071165253,-0.1951588963998709,1760.0472170769604,1207.2246835392125,824.3002601499857,-0.0006068138123264
72,1724914411342960976,-0.2456714212894439,0.0979677587747573,0.1850115358829498,0.0429225005209445,-0.0565139912068843,-0.2633959352970123,0.9620739817619324,0.0,0.0,0.0,6.897462575128852,5.980595027386653,4.663621532007484,0.297154726,2.3639361239868593,-1.987799559495626,0.6924512920494058,186.3495313671748,-170.92363488896314,51.78918130369866,0.1130199090227655,-0.0862369048361404,-0.5393433742771724,-0.4650630049260442,-0.2877946755541822,-0.1841891144388681,1701.866034534437,1064.7106838844468,715.2177280445085,-0.0006538847765647
74,1724914411352817882,-0.2482984215021133,0.09668730199337,0.184265449643135,0.0462949275970459,-0.0585703402757644,-0.2643302679061889,0.9615382552146912,0.0,0.0,0.0,11.273105035515249,6.598310329590977,5.276863846945346,0.307011632,0.7621763238373518,-0.2354605572871317,-0.23178286547909,-79.10259964825701,61.86317112379236,-12.83206181453014,0.1207548183520863,-0.088275548636373,-0.5418928530082461,-0.2632503191723927,-0.1549727056122858,-0.0900677702951302,-274.92463408535025,-288.4858483448234,-196.76379551409352,-0.0003032329576011
76,1724914411362864830,-0.2509098649024963,0.0948735848069191,0.183213323354721,0.0490607656538486,-0.0636377707123756,-0.2620086669921875,0.961714506149292,0.0,0.0,0.0,1.1495489602144957,0.1038601188949979,0.6478812702402394,0.31705858,0.8214936069164891,-0.8009660411230828,0.4681017156547209,-15.360842183470638,-17.632077422399163,18.8368253875277,0.1286681861232819,-0.0968453576794193,-0.538211635088783,-0.2442156865914597,-0.1591017924861502,-0.0807985230223131,-539.3985701603253,-339.9792119477343,-243.6930910278058,-0.0005410864234831
78,1724914411373882903,-0.2534108459949493,0.0933794379234314,0.1826121360063552,0.0503708496689796,-0.067022904753685,-0.2616851031780243,0.9615049362182616,0.0,0.0,0.0,0.8640269624413417,0.0605707552021677,0.5853870397489258,0.328076653,0.395302118704434,-0.5281761014095961,0.061530417744282,2.2510888085643472,16.335850847995076,3.19106943639882,0.1330324103158916,-0.1027035635759125,-0.5382992657859061,-0.2405519939261946,-0.1517366165386997,-0.0769794838279924,53.6370840278328,9.170361177515437,-4.577787348255825,-0.0001121452835264
80,1724914411382891302,-0.255677729845047,0.0918937474489212,0.1817535758018493,0.0528372377157211,-0.0698737427592277,-0.2598970532417297,0.9616544842720032,0.0,0.0,0.0,1.9331274255034805,0.2396611304496865,0.5522075063993812,0.337085052,0.7170582824401414,-0.4430507717732296,0.3855619581883259,10.03091798760748,19.250513344926993,4.266002971270895,0.1391866267019577,-0.1071291075949311,-0.5353835242475681,-0.2288537691023098,-0.1556682721159719,-0.0699474661442014,90.85014162039816,57.819495111688234,-55.61299194610434,-0.0003814611249805
82,1724914411393097245,-0.2577499151229858,0.0904120132327079,0.181332916021347,0.055201731622219,-0.0712371319532394,-0.2594389319419861,0.9615454077720642,0.0,0.0,0.0,2.538571890087301,1.268441633347912,-0.6158235618569141,0.347290995,0.5224291283951068,-0.1332557026436721,0.0625179704200834,-24.55588891552791,0.7511249044890107,2.728231161397943,0.1444709644995677,-0.1085656601879194,-0.5349416271839588,-0.2017874351657251,-0.1454047220398235,-0.0669525769211052,-25.861317241233095,19.665595979838347,-111.59361392842747,3.1934866344884676e-05
84,1724914411402989045,-0.2597339749336242,0.0889715775847435,0.1804239004850387,0.0556073896586895,-0.0735905468463897,-0.2574763298034668,0.9618722796440125,0.0,0.0,0.0,1.4660695834816035,0.6850876098084049,-1.6923369040079643,0.357182795,0.2269338891915704,-0.4096417930346263,0.4191247346635525,-5.825314796277212,-6.456778011044281,11.203630560505264,0.1463244359174429,-0.1131756925129583,-0.5314048507818631,-0.1777640246697291,-0.1303380288376008,-0.0817616408595975,-111.50511332816498,-33.2231211100636,7.314645088127363,-0.0004563485834565
86,1724914411414257998,-0.2614443302154541,0.0876989811658859,0.1796326339244842,0.0577607899904251,-0.075462631881237,-0.2561179101467132,0.9619629979133606,0.0,0.0,0.0,0.1699608078439407,0.6412768923106205,-0.1188772613194064,0.368451748,0.4700056711852018,-0.2065929120335769,0.2263947454582571,15.27539891080044,-6.31310116363003,-4.2806584714509945,0.151370438575646,-0.115856383936437,-0.529212730937421,-0.1736000027586683,-0.1333767133557994,-0.1033388600614255,27.501176263340817,93.41548941120168,183.18264988374892,-0.0003858245393238
88,1724914411423171849,-0.2631456553936004,0.0863659083843231,0.178477942943573,0.0595794320106506,-0.0780377611517906,-0.2548446357250213,0.9619846940040588,0.0,0.0,0.0,1.4199819082138465,2.1600480955822805,1.8210879979633785,0.377365599,0.5617851392554466,-0.4344272075029974,0.2786453632585379,-6.258774875578894,8.097083137727703,-17.254693804579297,0.1561575040997554,-0.1200635159890239,-0.527338215140897,-0.1734920267734008,-0.1212375664511533,-0.0917359241892317,110.97829443251112,58.94291557514816,6.310589558634099,-0.0007255386893351
90,1724914411432980016,-0.2646598219871521,0.0854823514819145,0.1779861599206924,0.0611610449850559,-0.0783600360155105,-0.2553795278072357,0.9617173671722412,0.0,0.0,0.0,2.1927465731200533,1.53548235039361,-0.3976729656156381,0.387173766,0.3217324692190164,0.0082200766490475,-0.1400688604318796,-15.511832584687918,-4.389114097384951,-7.799439319738606,0.1594750688231529,-0.1197679849058549,-0.5286920252665078,-0.1443705951027976,-0.0914369143697015,-0.0682687741660768,-3.818251567950469,-76.36023595995547,-175.2572904426429,-0.0001379699280725
92,1724914411443027376,-0.2660073637962341,0.0845497250556945,0.177113652229309,0.0616525746881961,-0.0813698172569274,-0.2547646462917328,0.9615991711616516,0.0,0.0,0.0,1.304169034688628,0.6377344497613882,-1.6340628422934138,0.397221126,0.2581295571071141,-0.5455537206560162,0.1406782421452,36.14785718892287,-9.250100864678464,5.72007242918912,0.1620048061867923,-0.1254049412307539,-0.5281702281355363,-0.1303298133946455,-0.0914774729894336,-0.1009830407224345,-23.98448801393718,23.183079315255455,117.29092713052827,-0.0005291977106153
94,1724914411452586962,-0.2672187983989715,0.0836874768137931,0.1760196536779403,0.0659409761428833,-0.0835689604282379,-0.2544715702533722,0.9612035751342772,0.0,0.0,0.0,1.6611319254993138,1.8829135770163787,1.673265223478956,0.406780712,0.9900479526890124,-0.2168047560110503,-0.0067630147344327,10.483168581460262,1.6103032408547475,-4.548673652889175,0.1715211236761255,-0.1274380213766674,-0.528581289604545,-0.1187110227879308,-0.0795437707863815,-0.1018516317439859,-128.2007989937691,-32.615895769860494,35.50900464058465,-0.000761296681611
96,1724914411464260513,-0.2684903442859649,0.0829107835888862,0.1750101298093795,0.0658621415495872,-0.0875904560089111,-0.2541085183620453,0.9609468579292296,0.0,0.0,0.0,-2.1952207570543383,-0.8195454888914679,-2.3378338259388807,0.418454263,0.1704448379920816,-0.6652732636575417,0.0951568232793221,-45.63427406856585,-9.1387268717133,-6.845227476266247,0.1735423757299988,-0.1352795220952389,-0.5288222180056216,-0.0929659149155446,-0.0485177759194361,-0.057171088731569,-91.70449343151874,-79.380054998662,-131.10886984189705,-0.0006649229258951
98,1724914411479813733,-0.2696055471897125,0.0825295224785804,0.1747282743453979,0.0654683038592338,-0.0888592898845672,-0.2567271590232849,0.9601609706878662,0.0,0.0,0.0,1.3237506340861105,1.0981687486988747,0.02642166866395,0.434007483,-0.0300443648064401,-0.2006870528105941,-0.334080096437072,326.7249289856076,-193.34251456175613,237.20882089880837,0.1738513931339066,-0.1374559035284399,-0.5345325587154666,-0.2183000432709434,-0.1333229470079864,-0.2212917851956533,1047.3942781115677,754.4725279459764,1338.728130672002,-1.6667159750033888e-05
100,1724914411483098378,-0.2704242765903473,0.0820161253213882,0.1738604754209518,0.0669750198721885,-0.0910277292132377,-0.2556545436382293,0.9601401686668396,0.0,0.0,0.0,5.333674481165959,4.014172193137255,5.2468655431341045,0.437292128,1.278714072529752,-0.990586216834358,0.6287567243525426,288.9599251577299,-166.12103148929117,211.98978885000895,0.1778463451053973,-0.1410207677051672,-0.5330541242357575,-0.2074438185614848,-0.1251717566828234,-0.2138668648650883,955.557048510896,691.9994702588849,1265.5563005718525,-0.0006323489420022
102,1724914411494354243,-0.2711463272571563,0.0818079635500907,0.1733946055173874,0.0687097981572151,-0.0913852378726005,-0.2561143934726715,0.9598609805107116,0.0,0.0,0.0,5.858068260022457,4.252082073288049,7.002585826797004,0.448547993,0.3080826883473682,0.0078240473914644,-0.1149382649233909,-40.24325964774859,29.017731828257148,-31.68531522807846,0.1814923327539243,-0.140702908642537,-0.5343238118307501,-0.0691647334931353,-0.0208749686313742,-0.03961928633076,-321.81901608398925,-228.96247653677108,-383.5796831350605,-0.0002838916096533
104,1724914411502649341,-0.2717507183551788,0.0816202461719513,0.1730767786502838,0.0696664676070213,-0.092071808874607,-0.2567175924777984,0.959565281867981,0.0,0.0,0.0,0.936422215919848,0.8239262936841818,0.5223356690375087,0.456843091,0.2554048912646469,-0.1163251047740952,-0.167561896750431,-5.921319472466273,-8.724201330198607,-3.726701599980181,0.1838299301326858,-0.1413993201699561,-0.5358814297433313,-0.0598606263931298,-0.0162542700306738,-0.0333594362239191,-383.5691580485427,-254.72769673677297,-502.40077842829817,-0.0001647163239165
106,1724914411515202318,-0.2722551822662353,0.0815373212099075,0.1727521568536758,0.0707283318042755,-0.0929505601525306,-0.257646232843399,0.9591538310050964,0.0,0.0,0.0,0.1060007173148873,0.6381658614789598,-0.4878265262007191,0.469396068,0.1892270909371179,-0.1072571257945611,-0.1646248517935498,-2.7087929680847083,-7.43005238121078,-5.195911781173255,0.1865307968806286,-0.1423421813807568,-0.5381835969318673,-0.051624200984282,-0.0008416495778478,-0.0312156066109992,-10.102988547933098,-53.79960761225591,-66.12621348172485,-0.0002001498866689
108,1724914411524088517,-0.272785872220993,0.0815661028027534,0.172441080212593,0.0713448673486709,-0.0940379798412323,-0.2586854696273803,0.9587223529815674,0.0,0.0,0.0,0.3688084958525688,-0.0852471254870501,-0.9851954990033204,0.478282267,0.1812793288297137,-0.2245649254450089,-0.2449534550478987,11.127242067285795,7.521060832303832,-7.529992293534088,0.1885034659770214,-0.1438969480153032,-0.5407200842888278,-0.0541428674710147,0.0011200865346925,-0.0396935123082755,26.73854281825432,-49.263382186187485,0.5642197227008587,-0.0001896662552955
110,1724914411532688405,-0.2732050716876983,0.0815581008791923,0.1720607131719589,0.0730331391096115,-0.0943141356110572,-0.2597535848617553,0.9582792520523072,0.0,0.0,0.0,0.5751511564282492,-0.24136844686509,-0.5098122819553104,0.486882155,0.377026058541839,0.0125819796580203,-0.2971455190554956,-0.962444553581788,5.744460097150103,8.99884652474375,0.192105746234123,-0.1433073327421342,-0.5432348333268178,-0.0455426560792489,-0.0021598834996181,-0.0484252752798397,11.80714814691392,-3.736699005288924,79.00976089463343,-0.0002771357413687
112,1724914411545114578,-0.2737134993076324,0.0815091878175735,0.1713836342096328,0.0721234083175659,-0.0960881933569908,-0.2594211399555206,0.9582619667053224,0.0,0.0,0.0,0.5030619888930019,-0.0289428928929547,0.8980799992884325,0.499308328,-0.0608943118032644,-0.3080110540614742,0.0852153924926231,-14.595015862621429,2.482607760713739,-6.853195221955409,0.1913036662258708,-0.1472663755374381,-0.5429212743718401,-0.046024504517895,-0.0026449796920573,-0.0456837108300263,69.00826838819772,0.6086071969754396,65.58746688580779,-0.0005405541788938
114,1724914411552760929,-0.2740894556045532,0.0814950391650199,0.1710757464170456,0.0717456340789794,-0.0965450182557106,-0.2600200474262237,0.9580820202827454,0.0,0.0,0.0,1.3827121775522726,-0.1018598374217085,1.1750888070147898,0.506954679,-0.0753473745554229,-0.1559558341508453,-0.144211204545476,4.487174957768151,12.893795502457928,-9.806136038711918,0.190922355658979,-0.1482276860592726,-0.5442447753284372,-0.0396284968789562,-0.0028187872493834,-0.0356291813763274,71.30212717989035,-3.163240095131342,22.744808207326848,-0.0002141661760913
116,1724914411562518449,-0.2743573486804962,0.0814554765820503,0.1707858294248581,0.0718151032924652,-0.0971576198935508,-0.2599842250347137,0.9580246210098268,0.0,0.0,0.0,1.533815478988682,-0.0533720639579206,1.2291398117059298,0.516712199,0.0478446433114221,-0.1172082128007719,0.0116095921962141,13.630943272876396,5.4811675750706925,12.289146865820268,0.191405107805275,-0.1493720416573107,-0.5443520537506426,-0.0193351786387019,-0.0047979688516051,-0.0259046577017132,-28.910886008403732,9.2682385966077,-3.543163649499199,-0.0002181337426899
118,1724914411573992253,-0.274469643831253,0.0813903957605362,0.1705399751663208,0.0729041323065757,-0.0977113768458366,-0.2593106925487518,0.9580686688423156,0.0,0.0,0.0,0.6030984208023271,0.1109714188648781,1.06594428548536,0.528186003,0.2178109708387208,-0.0339439374169304,0.1029602897028483,-3.482048404741364,6.467879715630377,-8.613446579883384,0.1937406405105522,-0.1499804231427446,-0.5432548938879136,-0.0091023736861686,-0.0033937790465286,-0.0086645758286678,-54.776536088384475,4.173563205485286,-44.4314947338529,-0.0002074821069351
120,1724914411582435390,-0.2745422422885895,0.0813758969306945,0.1705461144447326,0.073253683745861,-0.0977070406079292,-0.2595691978931427,0.9579724073410034,0.0,0.0,0.0,0.3042636113260423,0.0831488270002634,0.503120145167244,0.53662914,0.0747420768793413,0.015763071906168,-0.0727451869686348,-10.244904135773313,1.5869339261166933,-6.6514783261904835,0.1944588043167977,-0.1497313542590567,-0.5438383927482359,-0.0058042820617174,-0.0025277273887103,-0.0023773502953705,-30.643409567453123,1.006515117125975,-53.22739108571455,2.360700867220572e-05
122,1724914411593749847,-0.2745655477046966,0.0813350081443786,0.1704721450805664,0.0734980031847953,-0.0979940071702003,-0.2591874599456787,0.9580277800559998,0.0,0.0,0.0,0.0295768617174144,0.159762047566574,0.1045579761444704,0.547943597,0.0604149525247062,-0.0314843624756013,0.0666787809930673,0.3796890764831109,-1.4741089917857133,2.081703120485087,0.1950409493709255,-0.1502268595449344,-0.5431595786367736,-0.0036711215661977,-0.0018814824111466,-0.000347032845239,-6.333649994181886,4.142318048713137,-29.73828769830339,-6.280461857906868e-05
124,1724914411603415136,-0.2746143341064453,0.0813311263918876,0.1705199033021927,0.0738272070884704,-0.098200537264347,-0.2591485679149627,0.9579917788505554,0.0,0.0,0.0,0.1165137117258051,0.1780928240476748,-0.1375625253859921,0.557608886,0.0776745937296039,-0.0234251577576975,0.0022447595048173,-6.492132764939289,-0.9425990868296116,-0.5236181668967541,0.1957951093035388,-0.1504531561156633,-0.5431824560888672,-0.0046976827045863,0.0005101548490955,4.5249374826639155e-05,11.3900120164732,-6.778328708986783,-15.881131300968145,5.7714001390814e-05
126,1724914411612442705,-0.2746537923812866,0.0813434198498725,0.1704790294170379,0.0735310912132263,-0.0983604788780212,-0.2589734196662903,0.958045482635498,0.0,0.0,0.0,0.2395345104710721,0.0437549948404448,-0.2036149387170731,0.566636455,-0.0507319483837025,-0.0469132519379155,0.0493144105448579,-0.2398445994386291,0.7789540680580336,-0.3277673786205726,0.1952832935333515,-0.1509550890805278,-0.5428239498821086,-0.0017678478504947,0.001533119117846,-0.0026987469388473,3.279986722526763,-9.14900791826839,6.829955016528676,-3.180737080847133e-05
128,1724914411623577185,-0.2746377289295196,0.0813628435134887,0.1704740971326828,0.0742990151047706,-0.0985042080283165,-0.2590564489364624,0.9579491019248962,0.0,0.0,0.0,0.1339555130064328,0.0206014887287074,0.0667113088894488,0.577770935,0.1386410905416381,0.0081885328071767,-0.0304406959073353,-4.975264663388975,-1.5219472544976689,-5.626880647139643,0.1968748646859959,-0.1507996518253362,-0.5431423350479097,-0.0002681878157098,0.0010650246264454,-0.0035878789571697,4.211326017559745,12.248096920864814,34.992592318162075,-1.020567223526462e-05
130,1724914411632600641,-0.2746526598930359,0.0813674852252006,0.1704187244176864,0.0739787071943283,-0.0986308827996254,-0.2594063580036163,0.957866072654724,0.0,0.0,0.0,0.2720921985231826,0.2358941915912419,0.4608154898725402,0.586794391,-0.0670078695492703,-0.0528627711654158,-0.0699822455462368,-9.1306395005111,-3.058043518170639,-4.566680194141426,0.1963785798107639,-0.1511440709496551,-0.5438629429910962,0.0009352110929725,0.0017089983035667,-0.0019141294093589,15.218140006315725,10.3168639120284,18.39870629749816,-5.071532555908273e-05
132,1724914411645011966,-0.2745968401432037,0.0814090892672538,0.1704670488834381,0.0743280351161956,-0.0988199338316917,-0.2601581811904907,0.9576156735420228,0.0,0.0,0.0,0.4594248301296551,0.1327560710006076,0.2576628354101135,0.599205716,0.0528584373227509,-0.0275206198528763,-0.129812057228322,-5.854012247662689,0.7024171369954724,-12.40318641841074,0.1972854854313967,-0.1511639814128168,-0.5455288290377935,0.0066804990107272,0.0074454363677975,0.0085053521578313,-4.653128946143763,-34.80024428963243,-36.94223631946351,3.0339928401817252e-05
134,1724914411653068402,-0.274531602859497,0.0814904794096946,0.1705596894025802,0.074114017188549,-0.0987715125083923,-0.2612358331680298,0.9573437571525574,0.0,0.0,0.0,0.3186694214605201,-0.286143024897913,-0.1475530586962952,0.607262152,-0.0754245702449345,-0.0288663648089183,-0.2693914584572994,-6.844582498785189,-3.296295911258269,-3.442080164391058,0.1970087135909507,-0.1509669025127014,-0.5477276318940182,0.0103636159746152,0.0067921521230278,0.0075383521369012,-10.830493952249473,-35.512672176087236,-15.66110673891429,6.760210433192997e-05
136,1724914411662470780,-0.2744092941284179,0.0815180167555809,0.1705871075391769,0.073886938393116,-0.0990940481424331,-0.2619596719741821,0.9571301937103271,0.0,0.0,0.0,0.2897064107434661,-0.4391766537320289,0.0852629577161844,0.61666453,-0.0401603107580047,-0.0941972722122878,-0.1494131927925402,4.861688964061618,-2.869164682885292,6.086456791712254,0.1968675359936679,-0.1515605885524235,-0.5492965601090789,0.0118401345007281,0.0018516272026731,0.0058489680042015,14.662403178862563,3.7163677181738457,13.482360140601353,-3.82052086495053e-06
138,1724914411675304220,-0.2742778062820434,0.081522911787033,0.1707135438919067,0.0741625055670738,-0.0994406566023826,-0.263117104768753,0.9567554593086244,0.0,0.0,0.0,0.7886679629861573,-0.0412846752640172,0.0607182513237622,0.62949797,0.0416948811305196,-0.0595654867823231,-0.1882077454988931,-0.5643502523051837,-5.0587859985628185,-9.799889241330195,0.1977876433973512,-0.1518366792002747,-0.5518442458665097,0.0178819791577673,-0.0022732244550631,0.0115840049580082,11.563166040884845,29.82333490200735,-39.75593487800493,9.195534372116717e-05
140,1724914411683139438,-0.2741011679172516,0.0814924016594886,0.1708125919103622,0.0741530209779739,-0.0998692661523819,-0.2642696499824524,0.9563937783241272,0.0,0.0,0.0,0.748594778157799,0.1867382778965973,-0.4318075018545082,0.637333188,0.0040620150411906,-0.1363105710406003,-0.2974106060334589,12.781164776153949,-1.4095977611780175,-1.092810843290441,0.1982019491170088,-0.1524254483957633,-0.5543681824056629,0.0255819843379168,-0.0012566575749746,0.0102124734565522,-47.08308433622395,23.749647037452423,-11.165527171279068,5.80340776810158e-05
142,1724914411692945142,-0.2738130390644073,0.0815124437212944,0.1708829253911972,0.0757839530706405,-0.1004830822348594,-0.2648230493068695,0.9560484886169434,0.0,0.0,0.0,-0.2281160142600866,0.3539337332619071,0.0930944401135137,0.647138892,0.3451792870857508,-0.0472304875655505,-0.1505003486256027,15.579498419115891,1.782525882507323,8.245724018495348,0.2018231157387686,-0.1525861323047002,-0.5559245870947218,0.0300490755980078,0.0012738710328736,0.002827396552508,-93.58843186232072,3.0601312863290477,52.867568024187165,-6.565501865117757e-07
144,1724914411702988363,-0.2735044062137604,0.0815173164010047,0.1708666235208511,0.0771738514304161,-0.1013365685939788,-0.2653666138648987,0.9556965231895448,0.0,0.0,0.0,-1.1061416286474215,0.2407520421057514,0.6172382741477057,0.657182113,0.3040632832049612,-0.1044400524036177,-0.1369806226311805,-18.932612748564097,12.73789486357392,-12.132390193827211,0.2051173172486735,-0.1533354436291311,-0.5575023997156923,0.0207254237598792,0.005814638051536,0.0124671571571131,-20.11072529843979,-28.613731609053858,-24.65031222244592,-8.865112232421448e-05
146,1724914411712616726,-0.2733972072601318,0.0816224962472915,0.1711167246103286,0.0775289162993431,-0.1003097742795944,-0.2670435905456543,0.9553088545799256,0.0,0.0,0.0,-0.6784237846410225,-0.1948500958021847,-0.3293783567914599,0.666810476,-0.0151975683427274,0.1883648056048974,-0.3782112944469707,-18.44142499364119,9.874667272737398,-7.81049899324809,0.2054606892040416,-0.1508175282976978,-0.5607350268694271,0.0084339852053574,0.0061816003889991,0.0152478321138174,49.06678452147462,-23.58306990615526,-50.63352556565394,0.0002071323997766
148,1724914411725897279,-0.27333465218544,0.0816177204251289,0.1711227148771286,0.0775990933179855,-0.1006005257368087,-0.2681197226047516,0.9549710750579834,0.0,0.0,0.0,0.0582810127565699,-0.1113044782516369,-0.1283788470302368,0.680091029,0.0094762856229282,-0.0566740042324852,-0.1660681052384796,-4.641149533560341,-16.517581286679548,-17.082493266496254,0.2059383357864918,-0.1511038434419479,-0.5630743216239087,0.0103813330619146,-0.0006735458114608,-0.0004503399931223,22.797703784309867,28.654291886897383,79.87382923315337,-8.375365613828016e-06
150,1724914411732641499,-0.2732452154159546,0.0816121026873588,0.1711165904998779,0.0774449110031127,-0.1009772568941116,-0.2694470286369324,0.9545702338218688,0.0,0.0,0.0,0.1001261620151577,0.1585389070253509,0.6320319688997879,0.686835249,-0.0440831899791111,-0.1614506233588195,-0.3944911320660905,-12.38157595409684,-7.233531771811902,-19.288548731552027,0.20607226296911,-0.1516254832234812,-0.5659340968452887,0.0104718017503255,-3.7553920470667634e-05,0.0022925309630013,17.095539004935127,22.204294861527263,63.00670446528564,-2.637532142156977e-05
152,1724914411742497397,-0.2731821835041046,0.081623189151287,0.1711852848529815,0.0763986036181449,-0.1010608896613121,-0.2713660895824432,0.9541019201278688,0.0,0.0,0.0,0.4254831118564904,0.1209067926363248,0.5365541914443965,0.696691147,-0.2300657499167143,-0.1131643818519433,-0.3745846409891992,0.6096643715230557,-0.697852929172945,-0.4006627194452541,0.204392410096575,-0.1519650194645068,-0.5698204361218077,0.0127075687588806,0.0024502132719104,0.0117672946401317,8.435586457012107,-10.792080669149035,-29.942489639558577,5.071217952205136e-05
154,1724914411752745850,-0.2729846835136413,0.0816624239087104,0.1713570058345794,0.0762782916426658,-0.101759560406208,-0.2734217941761017,0.9534502029418944,0.0,0.0,0.0,0.2500391904445013,-0.0640131462106788,0.0138384603412133,0.7069396,-0.0162278913753201,-0.1799623355031429,-0.4044843333367601,13.312187835318053,0.775129842394747,2.4053770970635657,0.2049072961467386,-0.1529284480821398,-0.5743061515759418,0.0191849216267794,0.0022878948602933,0.0127394680955346,-21.64264866863494,-11.975686974284146,-22.685883652848375,0.0001160806132515
156,1724914411763684756,-0.2727758288383484,0.0816694647073745,0.1714494675397873,0.0765398144721984,-0.1021393686532974,-0.2750824391841888,0.9529107809066772,0.0,0.0,0.0,-0.0395245233320245,-0.1241647764574453,0.0963226616716279,0.717878506,0.0412027551129785,-0.086331251482826,-0.3160230802955831,-1.517712836168985,6.702548303687952,-0.0992772098622722,0.205909714736939,-0.1531478534267232,-0.5779253170585139,0.0174599732360114,0.0010251779351984,0.0119448423487469,-6.2084465999665,3.1124901116057213,1.739415852509798,3.936745530274353e-05
158,1724914411773230364,-0.2726227641105652,0.0816824287176132,0.171592578291893,0.0765428990125656,-0.1021315529942512,-0.2768619656562805,0.9523958563804626,0.0,0.0,0.0,0.0699945506901111,-0.0227234625128463,0.0646051861025445,0.727424114,-0.0296593242550595,-0.0378189767233124,-0.385159314510083,-2.2099421363053033,0.8873570465829039,-0.1912790418099774,0.2061927463462053,-0.15274900476336,-0.5816413594242844,0.018066973671404,-0.0002327793739373,0.0142717397543457,2.486439883488897,18.19819626422769,-18.787336782654613,0.000101026767297
160,1724914411783263047,-0.2724200785160064,0.0816633179783821,0.1717281639575958,0.0766164436936378,-0.1023651808500289,-0.2783821225166321,0.9519215822219848,0.0,0.0,0.0,0.0001778728664041,0.239688443059561,-0.2869504820031863,0.737456797,0.0031442546263533,-0.0731489365722123,-0.3127235754871164,6.708985609897434,3.0223202701849887,4.027545864991625,0.2067203100016054,-0.1528241325491001,-0.5849005571030466,0.0188367455865599,0.0006892431208829,0.0130307189115566,-14.789422621351497,24.934130174880593,-21.393524712941307,8.470392433622423e-05
162,1724914411793976103,-0.2722339034080505,0.0817003771662712,0.1718622297048568,0.0774181336164474,-0.1022361293435096,-0.2798658013343811,0.9514355063438416,0.0,0.0,0.0,-0.2478395695048262,0.4928348766225696,-0.3600187934151456,0.748169853,0.1143622626671373,0.0340876808285943,-0.3060962854631523,5.020933049700085,-2.9593845108898345,8.771511872145688,0.2084265090987701,-0.1517910102375306,-0.5880709283227754,0.0179629686913713,0.0049476533359769,0.0080890620492279,-22.0259781439012,25.723189613708698,27.010795927684786,8.203087291439765e-05
164,1724914411803177409,-0.2720640003681183,0.0817576646804809,0.1719016879796981,0.0778880268335342,-0.1027495488524437,-0.280548632144928,0.9511405825614928,0.0,0.0,0.0,-0.4416167992853518,0.7460663208105651,0.1558805269903959,0.757371159,0.1181971609110279,-0.0956372631439412,-0.1609555517956363,-5.982021368266882,-8.194586685984397,4.981189331656054,0.2097640449383596,-0.1523443778797786,-0.5897212551010699,0.0143684477178425,0.0102358200492034,0.0055766290223981,14.96235801369143,3.7693493179759407,26.097688905509337,-7.673097734597914e-06
166,1724914411812622568,-0.2719680070877075,0.0818932205438613,0.1719668507575988,0.0778390690684318,-0.1031887754797935,-0.2815729081630707,0.9507943987846376,0.0,0.0,0.0,0.0489565112920659,0.5513824733609346,0.1118004362932571,0.766816318,-0.000343374882157,-0.1157948466773924,-0.2185481451510424,-4.339304979762277,9.243177377696396,-9.115300445339775,0.2101065388413338,-0.1529839167480329,-0.5919946195626383,0.0097031919619787,0.0189438272674595,0.011207647716529,44.575591109779126,-47.364766159858696,-47.609485844279234,2.77540561360884e-05
168,1724914411824275156,-0.2718615531921386,0.0821799784898758,0.1721593886613845,0.0786871388554573,-0.1022704094648361,-0.2835006415843963,0.950250804424286,0.0,0.0,0.0,0.462519943494333,-0.3851347862213196,-1.0603115422188327,0.778468906,0.0671345183499507,0.1554718879588265,-0.3681475089936309,27.843428421149667,-4.2482032726849575,-0.484164759877153,0.2114719781137138,-0.1503147785849164,-0.5958547731867141,0.0180781653386183,0.0200415473699537,0.0055470067042939,-21.160388323946744,-12.014816113832405,-0.2589446187237563,0.0001344307441532
170,1724914411833284291,-0.2716363966464996,0.0823287218809127,0.1721329092979431,0.0807422623038292,-0.1030898541212081,-0.2845350801944732,0.9496804475784302,0.0,0.0,0.0,-0.1227152309463832,-0.0172599101535373,-0.3638151782068611,0.787478041,0.4715842495287689,-0.0745414005818345,-0.286458403429583,17.168648822518442,-22.116565991075092,11.446769570150956,0.2161242287791333,-0.150423461398385,-0.5985495894925504,0.0204605282359846,0.0132330472846895,-0.0080072762864569,-56.94760872629965,65.51034140052782,126.22772954014437,-9.408853354459338e-05
172,1724914411846229046,-0.2714558243751526,0.0824390649795532,0.1719349920749664,0.0813523232936859,-0.1051961183547973,-0.2851487994194031,0.9492133259773254,0.0,0.0,0.0,-0.7108568242285841,1.2897350673409729,2.1800238084239996,0.800422796,0.1781597698816379,-0.2973254856899139,-0.0940266833431035,-23.210090785628136,9.565117848196437,-29.49536826036715,0.2187401059386232,-0.1539191126310032,-0.6005920774018392,0.0116710874500505,0.0267449556633607,0.008499635523556,-10.357681424371812,-19.41732021273457,37.92281511034,-0.0002457780620802
174,1724914411853627201,-0.2713791131973266,0.0827139690518379,0.1720984578132629,0.0814416855573654,-0.1054478958249092,-0.2869356870651245,0.9486390352249146,0.0,0.0,0.0,-0.639172588149553,0.6370760554329813,1.790026914589231,0.807820951,0.0041535051742002,-0.1133497762656711,-0.4998040092511047,-22.93721830991199,12.936420205701689,-24.57180007409719,0.2193590819514116,-0.1539341384753446,-0.6044288907056858,0.006277346601978,0.0373264157113188,0.0284536218379063,27.440245409450775,-85.4252324951739,-104.6614006881634,0.0001128875690587
176,1724914411862507816,-0.2713669836521148,0.0830472409725189,0.1724189221858978,0.0806521400809288,-0.105587713420391,-0.2887359857559204,0.9481444954872132,0.0,0.0,0.0,-0.2062607414423567,-0.0917689155399976,0.3068182669322206,0.816701566,-0.193328178329299,-0.1256563283654025,-0.3952635764024584,-7.029714667399248,9.236213841647544,9.417860328857536,0.2182120363773317,-0.1542615581486585,-0.6081415210586446,0.0015593732390319,0.034528343859022,0.0346800324392457,50.30961121512381,-37.48446891075971,-147.49008958030572,0.0002755065288121
178,1724914411876289552,-0.2713413536548614,0.0834589451551437,0.1728668063879013,0.0815658792853355,-0.1039865761995315,-0.2906456589698791,0.9476597309112548,0.0,0.0,0.0,0.5204932657178537,0.3452446511957783,-1.308226918403881,0.830483302,0.0350478540030266,0.2288150662154848,-0.315813610183027,4.933765085609002,-6.0846975897090765,-2.7935500038353567,0.2192420055615604,-0.1502387973973773,-0.611747782017239,0.0056678797186151,0.0380396495201189,0.0304752180772513,11.032306350518688,-4.60452913362079,-42.71185966072929,0.000387211287898
180,1724914411883480398,-0.2712863087654114,0.0837631225585937,0.1730783581733703,0.0818636119365692,-0.103682667016983,-0.291869968175888,0.9472909569740297,0.0,0.0,0.0,0.4433658528076279,0.1758856430612858,-1.3359336285847934,0.837674148,0.0268638787223807,0.0657301799374172,-0.3680123021509023,-8.29948968614337,-33.81749681880452,5.99011219999875,0.219809248957914,-0.1492011914603279,-0.6142556724630389,0.0102450265954718,0.0408616700827071,0.0173042881613643,-22.318102511005932,0.479321180042163,117.34210936463064,0.0001619575426029
182,1724914411892629750,-0.2711624205112457,0.0841202288866043,0.1730956435203552,0.0808664485812187,-0.1050639897584915,-0.292760968208313,0.9469494819641112,0.0,0.0,0.0,0.1042201891592821,0.4600267563265516,1.1485372896861226,0.8468235,-0.1324386877935666,-0.3733383739359458,-0.1589694983105263,-3.2778998638113084,-14.770455097536592,12.181066347236126,0.2189260180291226,-0.1522186519799026,-0.6164434915275677,0.0120529277089413,0.0399498673475027,0.0108518370379329,-26.276602554251248,15.919153437998116,188.4004148508028,-4.65633391095905e-05
184,1724914411904193057,-0.2710447907447815,0.084595613181591,0.1733521074056625,0.0810710117220878,-0.1053650826215744,-0.2937188744544983,0.9466018080711364,0.0,0.0,0.0,-0.0419210732141414,0.4228944156916476,2.111964904844459,0.858386807,0.0362064069287778,-0.0586721618776449,-0.174001793488662,1.098056022963025,42.49816465812164,-13.889933970078582,0.2196688196397403,-0.1524431324703065,-0.6185796336030382,0.0118934078304526,0.0534486135840843,0.0512240586128012,232.09961857550573,757.7515607173599,469.65688667247025,0.000174791984935
186,1724914411913433511,-0.2709221839904785,0.0851806029677391,0.1740399152040481,0.081636793911457,-0.1031898260116577,-0.2953051924705505,0.9462991952896118,0.0,0.0,0.0,3.909983599657414,13.043978616936649,9.30462122445103,0.867627261,-0.053233939403908,0.4469030462381563,-0.3953179203111764,-6.140718914857549,33.99476563306533,-13.100277027112458,0.2195798355926846,-0.1476168902439477,-0.6212753811999563,0.0112983515919737,0.0518589227535977,0.0605534640203955,-192.50142982133963,-756.739197945687,-549.4868690824326,0.0005794038561354
188,1724914411936790692,-0.2707746028900146,0.0857159569859504,0.1746347397565841,0.0819063335657119,-0.1029785424470901,-0.2959441542625427,0.9460992813110352,0.0,0.0,0.0,-37.20158275956828,-129.94939119597575,-81.92777689000741,0.890984442,0.0122495950470097,0.0177026539127,-0.0606877112736755,-12946.844869976536,-11224.864344377407,-5034.02089280199,0.2200577790392641,-0.1469042657207595,-0.6225827488639187,0.3372726138818507,1.136805141308059,0.7676210328943398,-4871.546712158452,-16530.412766144495,-10572.07682524342,0.0004879761939754
190,1724914411937244955,-0.2706184685230255,0.0862422063946724,0.1749899983406067,0.0803281515836715,-0.1036448627710342,-0.2966939806938171,0.9459269642829896,0.0,0.0,0.0,-39.44203481600312,-137.55050155551953,-86.78917363634926,0.891438705,-5.983429912855768,-5.180344433674713,-2.3920580365353628,-12050.90048054252,-10447.1637902161,-4689.569405022914,0.2175739194285958,-0.1489655138397524,-0.6241716369975376,0.3199213462520296,1.0762154944032472,0.7294130184977083,-4487.563174009685,-15188.992892226754,-9719.442909685058,0.0002573756209585
192,1724914411942440141,-0.2703697681427002,0.0869462937116622,0.175651729106903,0.0792523995041847,-0.1039803400635719,-0.2979829311370849,0.9455757737159728,0.0,0.0,0.0,-36.346099401931,-124.7327015527226,-78.92149208357914,0.896633891,-0.3939922105671474,-0.29890913947422,-0.4561933527538802,721.4656775240616,642.4739337491443,246.5545750945234,0.215925946709041,-0.1499724142307188,-0.6268501424276728,0.0410108357376,0.1138316993529864,0.1193383941830692,1543.16460697242,5604.409968674324,3521.691005213405,0.0005165613853693
194,1724914411952764115,-0.2700871229171753,0.087676391005516,0.176718920469284,0.0788261666893959,-0.1022811308503151,-0.3004277646541595,0.9450228810310364,0.0,0.0,0.0,-0.9809168497820004,-2.5108534469100245,-1.3824250349963592,0.906957865,-0.21692563622558,0.2379843403360536,-0.4972648132896042,-10.944911548800132,27.984473364607435,1.9105577696837557,0.2143569488980808,-0.1464760983427021,-0.631390724280394,0.0215269920275602,0.0675710617145304,0.0946110627801584,1785.0851152820735,6061.10896970527,3813.1370144683447,0.0008996691279723
196,1724914411963251752,-0.2699236869812011,0.0883515179157257,0.1776178479194641,0.076354756951332,-0.0997491776943206,-0.3027036786079407,0.9447702169418336,0.0,0.0,0.0,0.2631780259787972,-0.4973865560442845,-0.7838311963790021,0.917445502,-0.6310428724862671,0.2755681230199117,-0.4144887256927543,-3.538636227278241,4.599403380686098,2.750915568142254,0.208269472030995,-0.1427385791711981,-0.6350733911886237,0.0208953912892617,0.0622267510506873,0.0909020165358267,67.99124784720341,76.63128771692291,-37.47147464754599,0.0007755639775653
198,1724914411972967272,-0.2696728706359863,0.088936761021614,0.1785477101802826,0.0754799842834472,-0.0975732058286666,-0.3047376573085785,0.9444136619567872,0.0,0.0,0.0,0.4680329647187955,-0.7910839092265531,-1.998837992537582,0.927161022,-0.341885330915183,0.329395954342385,-0.4340397534048972,20.63977211752806,-4.573843797062258,12.35017441622794,0.2054393927326915,-0.1387404220885909,-0.6385776330604702,0.0263629951851704,0.0575041437110268,0.0794150317963993,13.27777526194814,7.842526196922328,-34.523840887394066,0.0007951640688347
200,1724914411982882854,-0.2694059312343597,0.0894792824983596,0.1791702657938003,0.0747600048780441,-0.0963133499026298,-0.3055586516857147,0.9443350434303284,0.0,0.0,0.0,0.5206792321176916,-0.3280386635396364,-1.4249742397615148,0.937076604,-0.2295491799553404,0.1816899112903794,-0.1662352322863474,8.790416363786692,-36.18531226966476,20.782984612531056,0.2033362830453632,-0.1366418198427771,-0.6398379846209489,0.0300450972821781,0.04657360987198,0.0513325572434304,-5.224102899763796,62.54738554570305,105.9692544138482,0.0004986232986689
202,1724914411992994596,-0.2690699100494385,0.0898662805557251,0.1795712262392044,0.0733494013547897,-0.0979752987623214,-0.3058885633945465,0.9441678524017334,0.0,0.0,0.0,0.3592347637749196,0.467852087470689,0.1424975959374483,0.947188346,-0.1668427035408539,-0.4037337163515093,-0.0202787210339382,-9.277400553765222,-12.417083854174582,5.05521842969123,0.2017918096867247,-0.1405995452532037,-0.6408700336077251,0.0368499731723641,0.0512411934312169,0.0514341372906859,-38.43922791656399,5.731944321317414,54.670212616996565,0.0002812962835474
204,1724914412002785817,-0.2686747908592224,0.0904909521341323,0.1801865249872207,0.0713675171136856,-0.0977831482887268,-0.3063916862010956,0.9441765546798706,0.0,0.0,0.0,-0.230197365032153,-0.1679157129930402,-0.273569275606264,0.956979567,-0.404431670806556,-0.0941383248732238,-0.059704274670098,-4.542834128135138,25.56740678051509,-3.813173364742007,0.1979392323590182,-0.1413868734682243,-0.6416335835095652,0.0373928620137498,0.0558813085433289,0.0540851201176417,230.6980239536227,459.88739748358626,553.4623728618332,0.0004602715079047
206,1724914412019213742,-0.2681421339511871,0.0911907255649566,0.1808336675167083,0.0723619312047958,-0.0966436117887497,-0.3071493506431579,0.9439719319343568,0.0,0.0,0.0,11.57775494861273,21.852758379698106,25.24508984117844,0.973407492,0.0645577044641836,0.1590611803176102,-0.116463465926234,17.60440883531787,9.814068706712344,-2.6461623647734034,0.1991913248188848,-0.1384477390237505,-0.6430071305458068,0.0257379575871494,0.0354321942126577,0.0345877729461394,-4059.4455126761736,-11409.887207105823,-17553.424024771306,0.0004533562315454
208,1724914412053499279,-0.2677381038665771,0.0918928906321525,0.1816757023334503,0.0712484344840049,-0.0943163186311721,-0.3096362054347992,0.9434794783592224,0.0,0.0,0.0,-469.507336395744,-1281.689479443593,-1943.767710555,1.007693029,-0.1149545926707646,0.0949288626229538,-0.1493091970809825,-75244.9774296658,47096.43865934245,-68669.37264890729,0.1958511014800935,-0.1342517509423045,-0.6474291141489883,1.3018973555679167,2.437406953642949,2.7914626787525094,1982507.526519787,2226114.6133507737,1225364.9284223374,0.0006753834263163
210,1724914412053814012,-0.2673246264457702,0.0926670059561729,0.1825622618198394,0.0687412843108177,-0.0906633883714675,-0.3130793869495392,0.9428870677947998,0.0,0.0,0.0,160.2215530223266,-574.516270839008,-1554.3987140318804,1.008007762,-24.014412733713492,15.053807473016452,-21.96022181557718,-42558.34091476189,16425.138685834423,-30124.68769061796,0.1890688898091114,-0.1282792430674945,-0.6533578347334175,1.1526638755662475,2.030111545973668,2.17384663763778,2118750.141853702,2722003.5736076506,2066305.9439541204,0.0007187135702953
212,1724914412054336297,-0.2668622136116028,0.0933550670742988,0.1831403225660324,0.064294122159481,-0.0899985134601593,-0.3144665956497192,0.9428029656410216,0.0,0.0,0.0,1369.0107316411395,1258.9224685968293,243.44608887033792,1.008530047,-17.31360487697505,-3.325373458247671,-3.740568312358617,2670.724654454927,19327.33782419026,-3281.453009864981,0.1803166381198204,-0.1296277486122632,-0.6556160755568481,1.7861679019313217,2.353717755089008,1.7155814443924555,933005.133412976,1941483.761656272,2549992.053569998,0.0004222770461119
214,1724914412054653084,-0.2661232948303222,0.09429981559515,0.1838007718324661,0.0623766928911209,-0.0869749039411544,-0.3164003193378448,0.9425684809684752,0.0,0.0,0.0,1399.1429973288402,1572.4977340888536,879.8048764221624,1.008846834,-18.41955928636437,13.272452645166933,-12.113455164275225,-3279.5086897782826,50377.258109478746,-25387.753413238308,0.1748696164796293,-0.1248113923317976,-0.6586749570414496,2.249839435529718,2.875370674661986,2.0080705486230226,84460.06377291489,944767.599720548,1929050.2794054823,0.0004359034810936
216,1724914412062812217,-0.2651460170745849,0.0952931493520736,0.1840527355670929,0.0602862164378166,-0.0843590348958969,-0.3168997466564178,0.9427744746208192,0.0,0.0,0.0,-151.53591991059469,-195.31758750010624,-137.93559339002525,1.017005967,-0.6996738163736601,0.4390103577574097,-0.0948429846652347,1246.393460447733,-890.8809687804259,833.3830209766097,0.1691793253188313,-0.121149857320358,-0.6588253881559946,0.1056187236637473,0.1124505388403993,0.046419679168955,-103458.2984360764,-117111.64493947358,-66426.76729168327,-6.0484677072511635e-06
218,1724914412073853655,-0.2641913890838623,0.0963958874344825,0.1847974509000778,0.0579011999070644,-0.0787417590618133,-0.319330483675003,0.9425896406173706,0.0,0.0,0.0,0.0498834445073033,-0.8466406089757399,-0.1237863853174423,1.028047405,-0.764856476429759,0.7929910547446772,-0.4506038576648984,-16.95759649824712,-7.69257275419297,-16.904969212967536,0.1611396743621927,-0.1116951997339378,-0.6623170864897586,0.0949475476811336,0.0972173829441498,0.0547880132140754,6129.972621914007,7862.69814122034,5521.942087848964,0.0004885659428727
220,1724914412082730877,-0.2632879316806793,0.0972399562597274,0.1851934641599655,0.0545372776687145,-0.0753601044416427,-0.3216159641742706,0.9422897100448608,0.0,0.0,0.0,0.2325078263346816,-0.6364547743735609,-0.7748833643862332,1.036924627,-0.9942885452157167,0.4409849327984882,-0.4913627085174561,-11.2832391653225,-29.471011252834664,-1.4592286647702544,0.1527192173068356,-0.1071468818062188,-0.6660359618419605,0.1026442753258027,0.0935056606450412,0.0473963341890293,112.80065048139532,102.40523349394974,-24.750600376571217,0.0001833173398008
222,1724914412093261028,-0.2621961832046509,0.0982048884034156,0.1857273578643798,0.0505385659635067,-0.0723686218261718,-0.3242261409759521,0.9418524503707886,0.0,0.0,0.0,2.57232722211334,1.425270845694671,-0.4285294300288245,1.047454778,-0.9312135605778424,0.2578291411219129,-0.4676051501252298,9.035977685173826,-12.52452261081135,13.484186354070273,0.1433863258942252,-0.1037352281798655,-0.6705303991607714,0.0971670211311135,0.0840764774481908,0.0399583345435683,167.89572167586977,142.6210337280533,30.25969482289034,0.0002943878393916
224,1724914412106695214,-0.2610024213790893,0.0992048382759094,0.1860800385475158,0.0461673215031623,-0.0695911049842834,-0.3251260221004486,0.941976010799408,0.0,0.0,0.0,3.8971106021807778,2.4299553711322996,-0.0671242412678561,1.060888964,-0.7576162183470954,0.1730216504670253,-0.0940175314036877,-64.90135943658196,123.29533989281757,-9.251904618199552,0.1333040301383316,-0.1012588595804965,-0.6714657975663165,0.1847264260553593,0.142998841152945,0.0389630308634139,698.5273425986916,302.4781109954047,135.9928760509867,0.0001136911804795
226,1724914412113156935,-0.2595108151435852,0.1003419607877731,0.186371311545372,0.0433504469692707,-0.0638819113373756,-0.3260522186756134,0.9421942234039308,0.0,0.0,0.0,10.275350976447156,5.092159236461146,1.1506816736418513,1.067350685,-1.4188681283965616,1.3725476187055463,-0.2689862735373763,-78.93391461192255,150.04702544123683,-21.735450043948273,0.1241923626831285,-0.0922400611471842,-0.6720536098432054,0.201763736205218,0.1526210860439812,0.0385509343889463,2955.8653395367674,1417.3320377942823,725.8486798927843,2.0556999482214085e-05
228,1724914412146237206,-0.25776007771492,0.1014351248741149,0.1865414381027221,0.0440573506057262,-0.0586410835385322,-0.3271945714950561,0.9421061277389526,0.0,0.0,0.0,441.47346771274306,222.2333758726852,116.16892788398928,1.100430956,-0.067224340684083,0.3091399071188007,-0.083275774710969,-18112.344252206258,2503.2413195398112,-2974.141168497199,0.122097407956305,-0.0817526314655348,-0.6735369330212172,1.835302829957868,0.9312532785389463,0.2822862718164458,-228657.00934895792,-115920.73400304624,-40997.76058305599,-0.0001244198536391
230,1724914412147052320,-0.2562282979488373,0.1022122427821159,0.1867770999670028,0.038603451102972,-0.0556457825005054,-0.3284938037395477,0.9420749545097352,0.0,0.0,0.0,250.23760297218928,125.2846791409761,81.85781344267261,1.10124607,-15.195453293526732,2.400489720737798,-2.56738768299356,-6784.276645297727,7025.454867981287,-917.3654622863494,0.1098610157475707,-0.0795669354987308,-0.6753952098116481,2.2030291340015253,1.1163895794188503,0.3791624369139015,-273146.1763963761,-138539.39723002035,-52676.59909057629,5.9385336563019385e-06
232,1724914412147828597,-0.2542787492275238,0.1031993776559829,0.1871380060911178,0.0357624590396881,-0.0500426515936851,-0.3291974067687988,0.9422557950019836,0.0,0.0,0.0,9.712868145332065,3.2492117421672644,33.14229998241394,1.102022347,-11.756511815873564,11.151232125791507,-1.7046821537975592,4102.255178164238,9691.183670225078,1008.2078001715812,0.1007651809211175,-0.0708193221212473,-0.6758024177964114,2.2487614427618015,1.1383524146185242,0.415358926555978,-277076.3252073059,-140588.93543016366,-56707.192497868295,9.441379095168356e-05
234,1724914412153431322,-0.2523002922534942,0.1041879877448082,0.1874610632658004,0.0318206585943698,-0.0442005209624767,-0.3299207091331482,0.9424362778663636,0.0,0.0,0.0,-217.63594455127588,-112.47969905770522,-40.002603211472625,1.107625072,-2.0276022990247,1.4958134578221,-0.2262442523925144,1109.3661254729698,-1097.709585092318,176.2179290359102,0.0894359914906428,-0.0623561623760064,-0.676269454851986,0.3136866018239193,0.1438735443684109,0.0557083452967175,-14283.860642365806,-7626.903692110211,-5852.35694921712,8.430830009904458e-05
236,1724914412162477003,-0.250038743019104,0.1050136387348175,0.187936469912529,0.027946051210165,-0.0394971519708633,-0.3296702802181244,0.9428555369377136,0.0,0.0,0.0,37.17025204219199,8.809136566871175,12.25246679534473,1.116670753,-1.1509540090249477,0.7032776487381982,0.0875403213217171,78.00909794497584,-68.53545417079356,23.66400338850085,0.0789462288011466,-0.0560836478568284,-0.674943120056941,0.21065926061098,0.0759869234660901,0.0471299797140729,13289.925499641984,7436.648389285407,2240.7611115141276,0.000241060243083
238,1724914412188085926,-0.2474972456693649,0.1058511361479759,0.1887500137090683,0.0230739172548055,-0.0332457236945629,-0.3310827016830444,0.9427335262298584,0.0,0.0,0.0,-701.2175455666757,-233.7074657278008,-186.7286934482613,1.142279676,-0.5238022306429156,0.331423958726885,-0.1057600136035896,-49232.8534459664,31122.476702404267,-4767.8412133211405,0.0656401479471145,-0.0474227398982047,-0.6770341209080362,4.6831710779165405,1.4843537207951556,1.3179682177660652,-81334.18296130397,-25482.29924667452,-23470.71487669379,0.0005947391310272
240,1724914412188633141,-0.2448809444904327,0.1066803708672523,0.1894862651824951,0.0174711253494024,-0.0261144638061523,-0.3319267630577087,0.9427818059921264,0.0,0.0,0.0,-746.3387224111748,-247.8389933283305,-199.7558086870748,1.142826891,-28.04072254765082,17.72619388494326,-2.770456186128401,-43258.47831019783,27400.330713797794,-4203.926933905175,0.0503360096083503,-0.0376511096406248,-0.677986407280168,4.289212869154983,1.3530897000690263,1.2130238022536988,-70405.68426655007,-21860.45943786425,-20593.32455823665,0.0005626836646433
242,1724914412192513489,-0.2417725920677185,0.1074654683470726,0.1905493438243866,0.014990865252912,-0.0183680821210145,-0.3333360552787781,0.9425100088119508,0.0,0.0,0.0,-687.9614287139773,-223.59244685048373,-191.259712311103,1.146707239,-2.547003412761761,3.3234974033136626,-0.7676832936015122,4795.213713729068,-2766.2759621156065,398.82035343963577,0.0405269533296547,-0.0246327016946934,-0.6803776992037615,0.6665859206700278,0.1722932608444689,0.218416384519906,28680.23470996045,10330.0188442302,6362.250063097371,0.0009106229835413
244,1724914412202821868,-0.2385834455490112,0.1084190756082534,0.1912796795368194,0.0078352456912398,-0.0120362527668476,-0.3327932953834533,0.942890465259552,0.0,0.0,0.0,-18.898149939031235,-5.3363451744890735,-11.405693697251817,1.157015618,-1.7171669743136615,0.6980168731391503,0.1309404499498578,72.87802361150224,-139.7363951260239,47.906651881073536,0.0227921817849501,-0.0174835921806363,-0.6788004223337941,0.3011243637960668,0.0776265262095741,0.028479957676625,33130.06275835032,10767.44911950549,9153.10836718813,0.0006345659462003
246,1724914412212999997,-0.235601469874382,0.1090596169233322,0.1911437660455703,0.0035033724270761,-0.0081950100138783,-0.3317602872848511,0.9433216452598572,0.0,0.0,0.0,-1.0171073075581312,-0.3115738317526602,-1.597481792801199,1.167193747,-1.0520139185258373,0.4310294065801001,0.2239212611168911,54.11821118363735,-50.911239808984575,3.7135277120922874,0.0120485029515577,-0.0131368788245572,-0.6764449572593386,0.2751435627903937,0.061974337004468,-0.0170635419891933,890.4889337345257,274.6885633858319,671.8844062959238,-0.0001896789372671
248,1724914412223450742,-0.2329173982143402,0.1096970066428184,0.1909256279468536,-0.0001315684203291,-0.0089498627930879,-0.3307822346687317,0.9436646699905396,0.0,0.0,0.0,-1.0070378748176356,0.2091686298168458,2.2933115442202148,1.177644492,-0.6069758276770262,-0.3658610772229302,0.2045506025155051,82.38723962567583,27.765441323297484,-10.762110707406192,0.0056734465091783,-0.0169791954493698,-0.6743409551816617,0.2809910029529625,0.0718766546422964,-0.0028845635724348,-122.42942008018936,-41.76331905456106,276.4937873103754,-0.0002592748844373
250,1724914412232570661,-0.230162501335144,0.110439158976078,0.1910424828529358,0.0029301568865776,-0.0065678684040904,-0.3306085765361786,0.9437405467033386,0.0,0.0,0.0,-3.1056148230410017,-0.9006469148583671,4.052447105788541,1.186764411,0.4611630374834083,0.7151871691438539,0.0355014308346227,44.95610572315821,44.55262100446523,-16.278119595692363,0.009874103522079,-0.0104594481517639,-0.6739664307638539,0.2593393181092409,0.0679080178737843,0.0254839901117041,-184.0917149346589,-60.62026094959967,124.1151148362852,7.647203253202629e-05
252,1724914412244167180,-0.2277852296829223,0.1110280454158783,0.1915248483419418,0.0027581276372075,-0.0056383712217211,-0.3312655687332153,0.943516731262207,0.0,0.0,0.0,-4.561880074762161,-0.7030967511380157,4.477628185608714,1.19836093,-0.0816296583730863,0.1408930995959815,-0.1199703439815027,32.16629968258255,-35.03864059566433,-0.8837650404804052,0.0089407419274409,-0.0088125637941544,-0.6753423791150839,0.2125384633556137,0.050599756319821,0.0863662139859897,-159.31995949880258,26.65271182034892,-166.87883419692065,0.0004518245772444
254,1724914412252621005,-0.225942000746727,0.1114546880125999,0.1925308853387832,0.0053667831234633,-0.0068491394631564,-0.3314493000507355,0.9434329867362976,0.0,0.0,0.0,-6.116689738585999,-0.4185090876723074,1.8124643157232303,1.206814755,0.6769931859726562,-0.0660532450910954,-0.0502646706817156,12.932802294238884,-5.04313264628789,-5.612534013195954,0.0146678546802552,-0.009365912110524,-0.6757739214352392,0.1707307952046903,0.049521085446007,0.1194590521640357,-53.583326876562865,76.59029285712235,-286.3253219526614,0.0009731230496164
256,1724914412263000215,-0.2247727513313293,0.1119566187262535,0.1937765777111053,0.0047791930846869,-0.0059200879186391,-0.332846999168396,0.9429501891136168,0.0,0.0,0.0,-5.0119749890228675,0.9234548736098512,-0.7906320364082324,1.217193965,-0.1675016259332936,0.1292841497802108,-0.285112242504779,-48.54522150266342,0.25290658384269,-4.402573710479357,0.0129548242142589,-0.0079833006913311,-0.6787144081882103,0.0923187008189625,0.0414701499109924,0.11148402052107,150.58859438357166,82.8103447562858,-177.92530081314732,0.0012262280422548
258,1724914412275205210,-0.223937839269638,0.1123638898134231,0.1950147598981857,0.0028466843068599,-0.0061025251634418,-0.3333054482936859,0.9427948594093324,0.0,0.0,0.0,-2.5403566542249827,1.2670313876858277,-1.9163285624345452,1.22939896,-0.288981279636078,-0.1341040392805394,-0.0772934672495696,-27.621336012639713,-7.5053284454081215,52.90896171797589,0.0094362641337423,-0.0096093758166978,-0.6796760394729106,0.0676410158262683,0.0771267968387263,0.101514798836984,-47.621026603127234,-70.34674420772885,-53.36503140626709,0.0012263490102463
260,1724914412282502438,-0.2234475910663604,0.1131176128983497,0.1957558244466781,0.0007287336047738,-0.0058555076830089,-0.3317174613475799,0.9433603882789612,0.0,0.0,0.0,-3.9791568201456458,0.3239586641109924,-2.136169567973684,1.236696188,-0.5676249826157596,-0.1274637563222097,0.4653442237742459,-14.317411143918958,1.9324190021872416,36.33675983387609,0.0052599828969195,-0.0105644371904258,-0.6762871323768456,0.046841609119494,0.0791543712590767,0.0827338114317051,-142.26433243202882,-92.36459715789942,-70.9272546860759,0.000737251523603
262,1724914412297715766,-0.2233801335096359,0.1135563403367996,0.1964175552129745,0.000367410830222,-0.0062536955811083,-0.3330670297145843,0.9428823590278624,0.0,0.0,0.0,-4.402009104674617,0.0882673257223736,-4.509277409956068,1.251909516,-0.0284389801049127,-0.0656364397630694,-0.1879002526134813,7.031747274636538,-31.631719357446173,-96.59584945245626,0.0048589931369367,-0.0115485103152507,-0.6791508610100166,-0.0494979201198546,0.0855451117114753,0.0641131514826724,165.32391211271607,-176.90196050441696,-357.70296280629066,0.0006623904701387
264,1724914412302663844,-0.2237118482589721,0.1140708848834037,0.196767970919609,5.6820790632627904e-05,-0.0068727894686162,-0.3348219394683838,0.9422563314437866,0.0,0.0,0.0,-3.2731789875110264,-1.0468208174103164,-6.603847117736898,1.256857594,-0.0393667072548354,-0.2795993781197251,-0.7522164360116035,-0.972125677198407,-43.26643935100341,-51.75659751365416,0.0047098110449541,-0.0129141680469783,-0.6828797006316748,-0.0681724613683663,0.0854478725040905,0.0365137061548539,138.3446570208264,-160.13570008289236,-281.2866718511761,0.000357004546876
266,1724914412312962620,-0.2244382351636886,0.1145534589886665,0.196408674120903,-0.0013071855064481,-0.0103545524179935,-0.3345780670642853,0.9423103332519532,0.0,0.0,0.0,-3.773105473891686,-1.2113080817330708,-6.456412154188648,1.26715637,-0.0228764914993208,-0.725722632940373,0.0499950036021139,12.869406569813926,-19.8886120185244,43.16983535816997,0.0044662067241791,-0.0203905276239617,-0.6823991747487,-0.0911446794722401,0.0526489661743285,-0.0534914812012718,-25.30941046711564,54.504440374313745,197.9683192089077,-0.0003411463869061
268,1724914412324164347,-0.2257103621959686,0.1152137815952301,0.1955828070640564,-0.0011914008064195,-0.0143376104533672,-0.333972305059433,0.9424731731414796,0.0,0.0,0.0,-3.773548410587024,0.2579041249233693,-2.001231007463078,1.278358097,0.2585733850012882,-0.6630483732883217,0.110499560944772,30.597027348321618,-15.96216710075025,-22.134097231254938,0.0073339076311006,-0.0278250065437075,-0.6812048823135615,-0.1522038981764488,0.0631241910638786,-0.0979988019322597,130.60252693228836,33.8552946436172,290.5527699795756,-0.0007843508506976
270,1724914412332858683,-0.2272944152355194,0.1157907843589782,0.1945669800043106,-0.0002494377549737,-0.0190352275967597,-0.3350253403186798,0.9420167803764344,0.0,0.0,0.0,-1.7564475332641578,-0.1043742454249474,-0.1982715953351945,1.287052433,0.5615166415686232,-0.947301221941884,-0.2677564497421701,-3.9907015856248105,-23.459906849647336,-11.748379284293602,0.0122929092526281,-0.0360379436732554,-0.6836146775400499,-0.1736934599865787,0.060796348753092,-0.102090565416459,98.952332699388,-18.15087654671639,90.6119330496672,-0.0009509160475
272,1724914412343181103,-0.2289831787347793,0.1163500994443893,0.1936938911676406,-0.0018946820637211,-0.0243445914238691,-0.335013598203659,0.941896915435791,0.0,0.0,0.0,-2.3655901902701526,-0.0035201161366571,-0.6938722302053479,1.297374853,0.0443921660587981,-1.0762966316152545,0.0001737423842919,-26.82266288265013,11.488922841679432,22.17186648596778,0.012756869268483,-0.0471471445732574,-0.6837522545062913,-0.1830588834530857,0.0617210919685362,-0.1007994266186909,-38.376879253510154,-22.484225856244063,-5.365794945820246,-0.0007856249374253
274,1724914412353759789,-0.2311306446790695,0.1170847341418266,0.1924517452716827,-0.0030860435217618,-0.0278265811502933,-0.3340375125408172,0.9421439170837402,0.0,0.0,0.0,-2.547859512768037,-0.5910561662459397,-0.2882937496506068,1.307953539,0.0129703482849537,-0.6947240686631777,0.1936964440247004,5.2021929356769805,-21.083042990733247,6.739299866586368,0.012794610430302,-0.0545220053813035,-0.6817946675922089,-0.2238936149200565,0.06067446227373,-0.1170182124584648,72.94178739529201,-30.028930818065103,41.025362892220315,-0.0011140984161251
276,1724914412362746424,-0.2333022058010101,0.1175630390644073,0.1914032101631164,-0.0045718075707554,-0.0335972234606742,-0.3332949578762054,0.9422127604484558,0.0,0.0,0.0,-1.2039715421007957,-0.6661620849033527,0.1008927791453935,1.316940174,0.1221108130895398,-1.3205059197524505,0.166052122342094,31.866756412535565,1.047202033855374,-21.846073687189836,0.0138112201078338,-0.0664077850372508,-0.6804579839329327,-0.2367724556130657,0.0516059337255994,-0.1101054916730799,116.84064600862152,4.060222119784914,8.434995365585298,-0.0009004247016947
278,1724914412372974826,-0.2356673032045364,0.1180720478296279,0.190353512763977,-0.0020889532752335,-0.0371047891676425,-0.3344932794570923,0.9416650533676147,0.0,0.0,0.0,-0.3895907528390907,-0.4800682649099612,-0.2188050635992624,1.327168576,0.6776555467447289,-0.4869330108238818,-0.2759130544753395,-18.366146195846863,-0.7240205665220003,10.199455082961157,0.0209432130896223,-0.0713385420151755,-0.6833730789469451,-0.2464195811873395,0.0487847086813975,-0.1168540496074523,98.74545652630609,-1.7968493860132924,12.963630466680195,-0.0008701912376376
280,1724914412382503573,-0.2381502240896225,0.1185282096266746,0.1891137361526489,-0.0047307205386459,-0.0423640720546245,-0.3331750035285949,0.9419009685516356,0.0,0.0,0.0,0.7211094259109672,-0.6746462728472196,0.297256620910507,1.336697323,-0.1425282808828629,-1.2236942652796643,0.2953845321458013,-31.68192423025073,-18.798414967961353,15.25808336554189,0.0193855901754863,-0.0830532852311312,-0.6807865077033667,-0.2452177940916495,0.0423971814923183,-0.1150244204124906,27.366182429614454,14.128819900490608,-41.90673987643652,-0.0010280048607473
282,1724914412393621101,-0.2406772822141647,0.1189285442233085,0.1880306154489517,-0.0048475381918251,-0.0462839379906654,-0.333705872297287,0.9415279030799866,0.0,0.0,0.0,-0.1316385454778359,-0.0694271874983818,-1.4147243352088266,1.347814851,0.2107871561270129,-0.6735920835089123,-0.1147587514155559,44.4758307793798,39.71421555848194,-16.979629000291478,0.0218534504980399,-0.0905140854291164,-0.6822218684567347,-0.2294831332162275,0.0348409617240026,-0.1103545047433769,-16.4688088756649,40.198707317647035,-76.95471496266927,-0.0008503378777249
284,1724914412403085349,-0.2428667247295379,0.1192488744854927,0.1868820190429687,-0.0021464079618453,-0.0491223931312561,-0.3340463936328888,0.9412733316421508,0.0,0.0,0.0,0.1977931289526004,0.1962975986134494,-1.5223881479248051,1.357279099,0.7340052620974062,-0.3764131234486887,-0.1150309642260045,-7.637814429404947,-27.15213109044746,2.031922414964867,0.0289093695162014,-0.0940477775133079,-0.683405641596294,-0.2431924249957688,0.0391004837531223,-0.1385262631031381,-18.246061448914695,15.838616908165909,24.409696006408133,-0.0009319061428116
286,1724914412413241655,-0.2454658597707748,0.1197032555937767,0.1852880269289016,-0.0044575384818017,-0.0552400611340999,-0.3343762755393982,0.9408087730407716,0.0,0.0,0.0,-0.5657542088981007,0.2237770182178007,-0.8844502875512905,1.367435405,-0.0293457703155291,-1.290338185443146,-0.071934799117062,-33.68180041492906,-29.426006638870437,3.425029533648125,0.0287231327463927,-0.1071264394600438,-0.6845190693620936,-0.223240300273515,0.0383283444963771,-0.1381381419774188,-127.9025983917506,32.16467994371414,-10.23253018017651,-0.0013011961288184
288,1724914412426049128,-0.2477973103523254,0.1200906112790107,0.1838225871324539,-0.0046582259237766,-0.0598403364419937,-0.3345277905464172,0.9404726028442384,0.0,0.0,0.0,-3.055375663262904,1.1115089753347918,-2.1952227607703136,1.380242878,0.209181971810105,-0.6891256636961869,-0.0412843195161384,30.277405313910094,-15.155290157907942,-43.74569287809926,0.0314912025620358,-0.1159325271655609,-0.6853183221642731,-0.2713516350221141,0.046036382201823,-0.1643673941889165,247.42095526336857,-31.631326979365788,156.2373483723018,-0.0011808253387674
290,1724914412433495648,-0.2502046227455139,0.1205017939209938,0.1823823750019073,-0.0041670217178761,-0.0642033219337463,-0.3363818824291229,0.939525306224823,0.0,0.0,0.0,0.6998864551558128,0.4389190773799933,0.0877454820746166,1.387689398,0.4850968750685688,-1.0708348687538067,-0.5667982523356827,-1.0908917925675743,-25.24943054384115,-11.85093807873207,0.0356437359337986,-0.1237604029588808,-0.6898365713939302,-0.2910679734522823,0.0565198999350471,-0.1813517264016226,426.6938663434224,-123.53683226209417,328.99741355826154,-0.0011236361836357
292,1724914412442829556,-0.2525445520877838,0.1210445761680603,0.1808307021856308,-0.0056175761856138,-0.0686417520046234,-0.3363080620765686,0.9392304420471193,0.0,0.0,0.0,3.774669621330343,-1.1027566229994084,3.420831231034045,1.397023306,0.0286451587486424,-1.002194683012103,0.0096003738537604,-9.89958720481534,6.177774737849177,22.198319260286645,0.0359427840246822,-0.1331120685549446,-0.6900839249095945,-0.2453693410197139,0.0492806594568415,-0.1528210277262705,65.31091238291626,-92.71988829518529,129.98061500771922,-0.0012132941018713
294,1724914412452477260,-0.2548587322235107,0.1214315593242645,0.1794901490211486,-0.0056499545462429,-0.0734917894005775,-0.3369447290897369,0.938634753227234,0.0,0.0,0.0,1.7710533960381447,-1.2748208472716085,2.4100563915741535,1.40667101,0.3220761476740433,-0.9543212498763556,-0.1706799752573995,15.14976344078426,23.972950203057604,-11.637469141062322,0.039326104170435,-0.14225060055279,-0.6920947056592632,-0.2201342143220017,0.0353790198998282,-0.1161864503791703,-209.04103192540975,22.0374708221072,-117.63954980508518,-0.0009922546104979
296,1724914412464181010,-0.2571549415588379,0.1217784360051155,0.1784535348415374,-0.0048046866431832,-0.0762737616896629,-0.3379440903663635,0.938058078289032,0.0,0.0,0.0,-0.6948623400457361,-0.4507956433208371,0.8504888579130174,1.41837476,0.2826556775759263,-0.403833273227585,-0.2068022768424818,7.271760303457405,-14.956400952000088,14.203523844005634,0.0430146220708482,-0.1468733515889628,-0.6947351049978036,-0.2113979626734927,0.0228172082528974,-0.1076748339618589,-29.24514695302748,34.49288717073832,-9.344139925641556,-0.0006823685712161
298,1724914412473512378,-0.2592406868934631,0.1219406053423881,0.1773066520690918,-0.004527443088591,-0.0813458785414695,-0.3375263214111328,0.9377837777137756,0.0,0.0,0.0,0.3822007970279788,-0.3961258453730276,1.6851665092607604,1.427706128,0.4296710521280303,-1.0046065167774083,0.0543707940822968,-23.60634605026358,-5.29604106165587,-8.480187031887965,0.0470111087750284,-0.1562610953847092,-0.6946491956090143,-0.2286051535332181,0.023242134743433,-0.0988217686677384,166.3752087615538,-2.978271678988815,27.925478786295713,-0.0008095283948347
300,1724914412482537047,-0.261348158121109,0.122201532125473,0.1766250282526016,-0.0057569141499698,-0.0834302678704261,-0.3390012085437774,0.9370616674423218,0.0,0.0,0.0,2.3283873446566927,-0.5001334009903434,1.4002079494047983,1.436730797,-0.1269159138469049,-0.5366952673042982,-0.3404625700869558,-14.89455751027673,30.590527140457315,-10.913726090198145,0.046392829584424,-0.1609558891777823,-0.6979864543439923,-0.2057253863254153,0.015812370787378,-0.0771861527117234,49.94071459571607,-0.9201698037321844,-119.95334617491692,-0.0003332194630037
302,1724914412494031134,-0.2633058428764343,0.1221915036439895,0.1757135838270187,-0.0046483492478728,-0.0868552401661872,-0.3387174606323242,0.9368591904640198,0.0,0.0,0.0,0.4765299741644782,-0.3554664094490681,-1.2723280066601197,1.448224884,0.3866981248354578,-0.4962780653658462,0.0147979065212412,5.999901107737744,26.24590626940823,-2.347343471393456,0.0508553382147911,-0.1666616789476959,-0.6980952537708498,-0.1819909653781408,0.0147942989810463,-0.0756899422248,-13.27270068204787,-30.08170503500385,-115.16138424067262,-0.0005858974952745
304,1724914412502960434,-0.2650118470191955,0.1224322840571403,0.175062745809555,-0.0039950492791831,-0.0875561088323593,-0.3396389782428741,0.9364632368087769,0.0,0.0,0.0,1.3835617677896783,-0.9200545715508646,-1.4865848406536646,1.457154184,0.1719210622069291,-0.104249663224385,-0.2368492641681679,-25.78318850700849,-23.20306815863574,0.9086336313380752,0.052754787287064,-0.1674817871804328,-0.7002859966119823,-0.1887542907012793,0.0097688452021618,-0.0967798303952918,55.235814824792904,34.76138225091807,-3.878948571365278,-0.0003495850851225
306,1724914412512971932,-0.2668757140636444,0.122337058186531,0.1738256514072418,-0.0063862735405564,-0.0924819260835647,-0.3391952514648437,0.9361372590065002,0.0,0.0,0.0,1.416356459042177,0.527883506076656,-1.2996213401155776,1.467165682,-0.1056276255253179,-1.089809694843357,0.0987877051227653,-9.19417795351704,-45.92309490573798,16.75961033029686,0.0516241671403591,-0.1784292095345643,-0.6998611634505698,-0.1508704369406759,-0.0034523548592795,-0.1018377698263401,-39.8966414731603,99.96810349792634,17.859103658659944,-0.0009082884709552
308,1724914412527862535,-0.2683404088020324,0.122419849038124,0.1727904826402664,-0.006742256693542,-0.0971605628728866,-0.3392069637775421,0.935656487941742,0.0,0.0,0.0,-0.1338898329360986,1.0273727206990246,-1.0517559057860346,1.482056285,0.1678332000941947,-0.6104496709741536,-0.0229670539474997,75.7918534196148,1.0401890347764606,-12.05752835305158,0.0542755360899112,-0.1874883621699761,-0.7006977163694965,-0.1822182804219778,0.0453475471853792,-0.138784105072677,246.77512905834115,-175.74259023725716,273.47371392443733,-0.0007494205431891
310,1724914412533519758,-0.2695514857769012,0.1227619051933288,0.171856477856636,-0.0054535488598048,-0.0996301919221878,-0.3392583429813385,0.9353865385055542,0.0,0.0,0.0,2.0163226990109,-0.4166589776161387,1.0473427294625544,1.487713508,0.7200321134288088,-0.6715195065481167,-0.0995203708579189,55.29317619523124,3.802047488059693,-4.804273533719765,0.0584977047500006,-0.1912495438836573,-0.7014880912292334,-0.1787387936460716,0.0463240400436038,-0.1416618709142101,247.3959598604623,-168.6232074668326,280.81984892635126,-0.000667548218802
312,1724914412545436465,-0.2707944214344024,0.1229590028524398,0.1707566678524017,-0.0042504975572228,-0.101716011762619,-0.3387135565280914,0.9353656768798828,0.0,0.0,0.0,1.633758687579462,-0.2514688165562884,2.1288905858354656,1.499630215,0.3167172248823051,-0.2597952733690631,0.0623113552408979,-4.447255702402117,1.9746010810833567,6.324847824577879,0.0621636651228713,-0.19438457258329,-0.700923038155496,-0.1195360989411291,0.0265669783826751,-0.090121410777666,-227.81582419013188,83.13226703123075,-113.31626951390518,-0.000828933364296
314,1724914412552824602,-0.271747350692749,0.1232012137770652,0.1701007783412933,-0.0033263864461332,-0.1036010906100273,-0.3382874131202698,0.935316801071167,0.0,0.0,0.0,-0.9458391771821693,0.6800164583886193,0.3569263292704708,1.507018352,0.4185145557141354,-0.3944192872606313,0.075806823404869,12.913644882380396,-17.158729228166713,1.711570973957352,0.0651816135538777,-0.1973283506427034,-0.7005423097650756,-0.1227383739905947,0.0311513969320931,-0.08445244155396,-626.135557334459,497.3435230381896,-16.87454846125766,-0.0004407780033298
316,1724914412689233830,-0.272767573595047,0.1233393400907516,0.1694699227809906,-0.0046809422783553,-0.1073401793837547,-0.3370156586170196,0.935348391532898,0.0,0.0,0.0,-783.9515016426153,1003.5760446945444,559.6050635129445,1.64342758,0.0019032154691717,-0.0580080884238628,0.0194719350892977,8164.027385712166,-13923.561699242717,8755.994516002245,0.0650052357645096,-0.2053972031637452,-0.6983623503174443,-1.542281724174245,0.2737806634821709,-1.0693333539845185,222442.8386305119,-30886.215635869652,65713.07295006013,-0.0004034447410675
318,1724914412689771907,-0.273600697517395,0.1234872341156005,0.1688922792673111,-0.0043950341641902,-0.1096412017941474,-0.3356823027133941,0.9355623126029968,0.0,0.0,0.0,-663.7758109174688,986.875722076316,595.0945300953958,1.643965657,4.412113106117395,-7.5795142146024945,4.749456560240369,12489.748045592498,22980.976358959168,-9160.238663389717,0.0668989884030393,-0.2096351209556621,-0.6960310760153194,-1.9657498357765348,0.8159081530816934,-0.7670196611119877,1267750.8689180424,-1408342.3275809195,-100570.54600629106,-0.000383171617258
320,1724914412690104535,-0.2743403911590576,0.1238698810338974,0.1687001734972,-0.0024605735670775,-0.1089774221181869,-0.3358243107795715,0.9355959892272948,0.0,0.0,0.0,-27.331343671645755,235.21501601819136,527.400122209051,1.644298285,9.449399416931405,7.664345228365859,-1.9885998674000125,-1403.9034297570315,14396.557803232974,-6583.26189302222,0.0701447364414951,-0.2070464370758732,-0.6965271622715348,-2.1612018638557515,1.1399241117305223,-0.5622368334148291,2158990.39957332,-2711017.577036006,-743094.1502146416,-8.156907087250549e-06
322,1724914412690432657,-0.2750292718410492,0.1242405325174331,0.1685206443071365,-0.0017859414219856,-0.1088375374674797,-0.3357176482677459,0.9356521368026732,0.0,0.0,0.0,760.5786660114695,-800.389987821799,108.92483125870012,1.644626407,3.6326026511764713,2.214357832617623,0.2771729021039826,-21286.570417644587,-16315.734158769405,3176.2648221946347,0.0713068926696929,-0.2063281226960676,-0.6963820766751031,-1.9888239577565512,0.9779402852838076,-0.4177500985980487,1115447.8391273655,-1608022.5651347986,-1792371.6316726687,-7.4728277725799315e-06
324,1724914412690758391,-0.2756413221359253,0.1245100349187851,0.1684264093637466,-0.0026305636856704,-0.1090519875288009,-0.3357793986797333,0.9356029629707336,0.0,0.0,0.0,708.1296657028233,-823.5671774588848,-642.0925846094804,1.644952141,-4.4520163072431345,-3.0051940191014337,0.1059648908784816,-8291.351340429108,-17533.743406362206,8433.193700496704,0.0698639737954313,-0.2073069934696979,-0.6964173759420411,-1.6650123179101683,0.6180438822631515,-0.4894385782212964,-490644.2706483853,720603.2651832378,-951387.2549500233,5.288421540545751e-05
326,1724914412691149707,-0.2761922776699066,0.1246534809470176,0.1681407988071441,-0.0034744767472147,-0.1109885945916175,-0.3343768417835235,0.9358747601509094,0.0,0.0,0.0,361.1746828747414,-169.37702541256658,-377.76012248795314,1.645343457,0.0734536339269261,-10.576175873003312,7.617558750479542,39845.40898274712,4271.0914357790625,14925.412853923151,0.0693217176991178,-0.2116428928658674,-0.6936714891176469,-1.52234431761849,0.4280137597135081,-0.939087291244448,-391623.91917224426,713520.6563828951,2893814.106553638,-0.0001538101806998
328,1724914412691409169,-0.276606947183609,0.1247751042246818,0.1678611487150192,-0.0020089573226869,-0.1123023033142089,-0.332847535610199,0.9362674355506896,0.0,0.0,0.0,344.72322691871796,-149.09904677359168,754.7057270851449,1.645602919,15.277121875519462,-5.404738473483885,10.755488021347222,32838.16940646787,27155.750457082788,5210.260318056013,0.0727066103543359,-0.2132397050664635,-0.6909256910146361,-1.4292199349616794,0.4384717759027126,-0.9044087800118064,-564310.0275239687,-326629.60528629844,4471091.202218959,-0.0001763977915066
330,1724914412691662648,-0.2769273817539215,0.1248787492513656,0.1676748394966125,2.489485450496431e-05,-0.1126380562782287,-0.3313714265823364,0.9367527365684508,0.0,0.0,0.0,77.64164377852921,-332.13094718638297,1914.387108805321,1.645856398,17.222172264227737,3.2676718815143184,10.371535822899792,-25159.037606929796,12437.881543721318,-6880.016078350562,0.076491923657953,-0.2126096607850107,-0.6881803095394945,-1.3453537992651263,0.3537750417859229,-0.5593135861860219,-764880.5213205161,-1063387.171319435,1686049.7132329885,-0.0001062234521506
332,1724914412691915368,-0.2772878408432007,0.124954268336296,0.1675777584314346,0.0002667079970706,-0.1126371175050735,-0.3304725289344787,0.9370702505111694,0.0,0.0,0.0,-42.89624441519573,-686.8672396189818,1612.5613561365055,1.646109118,2.591407247715147,0.9243106648916736,7.28096307338127,-36213.81653135122,1240.2652761624176,-15040.10775452676,0.0767469961753954,-0.2125175767444083,-0.6862850593835793,-1.3895340021055065,0.2703443818103892,0.0638139355382918,335835.4837868477,-1731383.2677179405,-5833764.057806306,-1.2877619529531902e-05
334,1724914412692166975,-0.2776282429695129,0.1250151544809341,0.1677060276269912,0.000259574415395,-0.1121357008814811,-0.3301585912704468,0.9372411370277404,0.0,0.0,0.0,245.2072422844126,-1204.5864001969803,-1017.4329314871388,1.646360725,-1.0895851869293638,3.869821130859118,2.792646619730501,-14510.25705985418,-24575.97887745895,-2576.124765121149,0.0763060023153015,-0.21160051174504,-0.6854923908329668,-1.3672805464425437,0.0081616940771596,0.2558395128662596,2668216.0100622526,-68551.5705907133,-6303129.5423501255,0.000201131695935
336,1724914412692401906,-0.2779526114463806,0.1249657794833183,0.1677104234695434,-0.0006882064626552,-0.1130481362342834,-0.3296080231666565,0.9373250007629396,0.0,0.0,0.0,1206.17519944445,-784.3621429507753,-1587.963634493795,1.646595656,-4.472243218385564,-9.86283559800058,5.535415302328724,-24829.415587815376,-40504.87465618928,24426.497008084545,0.0750129730422329,-0.2140092306795118,-0.6843448210536367,-1.2752864239297423,-0.3104908435218476,-0.3737863389318363,3685915.678153607,2828980.6507010777,3469935.687877232,6.913505511163159e-05
338,1724914412692650888,-0.2782423198223114,0.1248620003461837,0.1675137877464294,-0.0030876449309289,-0.114271193742752,-0.3280455768108368,0.937720000743866,0.0,0.0,0.0,2017.1622549613503,194.50191671014463,832.4289010301616,1.646844638,-13.406757167093648,-15.21152391995754,14.982010950914722,12751.79858744666,3885.717796660872,14516.45025563702,0.0709190654523404,-0.2180585370923433,-0.6808187502220584,-0.7600203462942545,-0.3548461779517424,-0.480989278206664,-70772.27530120267,2484966.4235822046,6140454.993755238,-0.0001383780269521
340,1724914412692902804,-0.27833092212677,0.1247884035110473,0.1674713194370269,-0.0033307948615401,-0.1152744069695472,-0.3265139460563659,0.938130795955658,0.0,0.0,0.0,1151.081836568803,451.8145025237747,1466.642645322384,1.647096554,2.2021846407091457,-7.766751137006334,12.668411780274324,25668.577790073075,21809.942116184036,-15456.551786918702,0.0707956617677431,-0.2202361183335311,-0.6776992252928035,-0.2652027606918636,-0.2108656360283021,0.0506305480698188,-3349167.5744815404,244655.97223484487,-103438.4300555382,-2.8368205780925245e-05
342,1724914412693147031,-0.2783752083778381,0.1247561499476432,0.167535588145256,-0.0036194289568811,-0.1157560274004936,-0.3256650567054748,0.9383654594421388,0.0,0.0,0.0,354.15139772842736,327.6490804346728,820.7992607687848,1.647340781,-0.1218858991906366,-4.273424295551552,7.408338051983055,-9276.550809032522,13955.908761842024,-21016.186045605147,0.0703772711521765,-0.2214048109779017,-0.675924935415808,-0.1766055943991812,-0.128868505886022,0.2564223999759995,-3182115.3670761837,-496494.06683509506,-2580301.245014254,6.941030613336455e-05
344,1724914412702637352,-0.2783081233501434,0.1247115358710289,0.167487546801567,-0.0031540098134428,-0.1162194982171058,-0.3244172036647796,0.9387421011924744,0.0,0.0,0.0,10.326884795941904,7.065908576725036,-14.353468113549788,1.656831102,0.1545741681376295,-0.0514739631433106,0.2609076506503914,10.061138453617964,235.1304178364119,-400.84958134150264,0.0712952171985344,-0.22206737574589,-0.6734285990458724,0.007635435710096,-0.0036874745355275,-0.0029543237932028,-19564.59165187445,-18132.06319583343,-45793.42206967562,-6.487169778104785e-05
346,1724914412713244517,-0.2782204151153564,0.1246844381093978,0.1674811989068985,-0.0031686092261224,-0.116495743393898,-0.3234712779521942,0.9390341639518738,0.0,0.0,0.0,0.3655501840726879,0.2494887815615929,0.2913785969606226,1.667438267,0.0352157781881207,-0.0439513008382236,0.1854512362390313,-9.791951779906444,-5.957053167594241,-1.4447231790063937,0.0712326059900348,-0.2226724462437683,-0.6714509509753633,0.0094477142699567,-0.0013466453113109,-0.0013535997671176,-443.1485191504226,-313.9460801011163,671.669891796356,-2.7388600506008383e-05
348,1724914412723055028,-0.2781170308589935,0.1246821880340576,0.1674610674381256,-0.0037735500372946,-0.1171669065952301,-0.3224697411060333,0.9392927885055542,0.0,0.0,0.0,0.5182715710581434,0.1518396866743357,0.4476827517376099,1.677248778,-0.0475946280134208,-0.1628806026849373,0.2227164936638666,-5.907929307157396,-7.742664757768207,1.4210338096435997,0.0702958544107913,-0.2244208494874909,-0.6693316258947236,0.0148005594705313,0.0013623348135709,0.002779544430135,2.027113935099294,-13.517475310824134,-1.5225379758915167,-4.226824205115249e-05
350,1724914412732833223,-0.2779307663440704,0.1247110217809677,0.1675353348255157,-0.0045751607976853,-0.117935299873352,-0.3215318322181701,0.9395146369934082,0.0,0.0,0.0,0.4061323992224048,-0.015071101837571,0.2626803321955926,1.687026973,-0.0806763590890009,-0.1959027048061796,0.2134408572734267,4.166879080669967,5.128741469906707,-2.8164931124551327,0.0690600781917274,-0.2264771143382377,-0.6673324846389946,0.0196017486008717,0.0016357175954588,0.0074142235179364,3.7253300363030775,-3.103833814197557,-28.441885061459857,3.390404878689e-05
352,1724914412743708075,-0.2777109146118164,0.1247129291296005,0.1676137745380401,-0.0044571990147233,-0.1182193979620933,-0.3206763863563537,0.939771831035614,0.0,0.0,0.0,0.6304040857982824,0.120085288893523,-0.1617846970378086,1.697901825,0.0559524615211955,-0.0372542799451719,0.1602207234217917,4.780841368838688,8.924617236233086,-3.0304691903248964,0.0692739955792907,-0.2270016978434651,-0.6655773454662366,0.0229918289256989,0.000951401049237,0.0077152562038591,7.422378074170162,10.997735210247145,-28.860189953981067,2.818241755294057e-05
354,1724914412753532669,-0.2774603962898254,0.1247291639447212,0.1676940321922302,-0.004386079031974,-0.1182687431573867,-0.3199780881404876,0.9400039315223694,0.0,0.0,0.0,0.586160614014124,0.2154358315329812,-0.3550435257790207,1.707726419,0.0338430897115626,0.0001546323895468,0.1469867223822441,3.252733147977314,7.742912642308666,7.166225869576223,0.0692736302251709,-0.2271001325553949,-0.6640986486843263,0.0320137187223945,0.0037555603064198,0.0044441291283412,29.829280013558723,18.15762501313181,24.639942987515553,2.4373381267570824e-05
356,1724914412762786633,-0.2771073579788208,0.1247822493314743,0.1677026897668838,-0.0038995621725916,-0.1179669573903083,-0.3186681568622589,0.940488874912262,0.0,0.0,0.0,1.1614591837376138,0.4571404175042494,0.2592082702293193,1.716980383,0.11191179341661,0.1061086308865677,0.2875083000224355,7.387056376261126,10.092779307397455,13.21352234888049,0.0696813038168944,-0.2263052837790902,-0.6613048388694168,0.0345429734938287,0.0051391593545229,0.0009660166967119,1652.7184415925883,-263.2489621389128,-35.640481468946476,-6.466245457846132e-05
358,1724914412840265561,-0.2767708301544189,0.1247929334640502,0.1677972972393036,-0.003816501237452,-0.117717795073986,-0.3174725174903869,0.9409247040748596,0.0,0.0,0.0,1160.9918300690406,-207.6501812468412,-68.68033303383754,1.794459311,0.0036516579343642,0.0079390420023281,0.0323841233774349,6466.838453974703,6262.801930062349,7099.423385799572,0.0693786605686925,-0.2258659809536416,-0.6586926112831436,0.700664219111502,0.2401129680191047,0.4330079348987397,-1444340.0530568874,-93966.17232975709,-410626.6208759365,1.9123429822930354e-05
360,1724914412840831289,-0.276371568441391,0.1249297633767128,0.1680440455675125,-0.0026492804754525,-0.1170924603939056,-0.3162676095962524,0.941412389278412,0.0,0.0,0.0,337.8601377573045,-261.1865340760914,-302.67584148890404,1.795025039,3.688842081929345,3.5768569240513317,4.078066452973297,34190.03971663352,-4767.926048524997,18457.942165613043,0.0709065117454112,-0.2240091202469687,-0.6561862527363512,1.3622300892947123,0.1217691621081655,0.3938468100680552,-2251279.1153036444,29003.30981985468,-269217.3669447416,0.0001634415540014
362,1724914412841153495,-0.2758121788501739,0.1249469593167305,0.1681631803512573,0.0001233971852343,-0.1180932894349098,-0.3140570223331451,0.942030906677246,0.0,0.0,0.0,-533.6414530588086,-229.15306291462525,-362.9202693260608,1.795347245,19.783893765349205,0.0079609661262079,12.10020999165679,23192.341265316787,-8551.052104362452,11892.23257110123,0.076394535256601,-0.2242934333927118,-0.6521980571441343,1.318493679251219,0.028071142647235,0.2534818371705256,-1804266.6369349745,138379.59595220396,60523.82083227013,-7.421379987860942e-06
364,1724914412841777781,-0.2754942178726196,0.1249338835477829,0.1681807935237884,0.0003173631848767,-0.1189481168985366,-0.3128714859485626,0.9423177242279052,0.0,0.0,0.0,-570.7597883639905,-95.63904598740164,-25.767327585309715,1.795971531,1.89385965171326,-2.2756877022828816,3.793416419868009,-14145.291291241809,-2980.37013243414,-5711.66503552559,0.0770611232432557,-0.2258914461805628,-0.6498874159509053,0.5040569213721255,-0.0404172488918561,0.1148727303014709,733474.821116722,202481.20999754124,377082.0875700534,-5.519233318219324e-05
366,1724914412842276641,-0.2752448618412018,0.1249059587717056,0.1682726442813873,7.32134940335527e-05,-0.1198177263140678,-0.3119195699691772,0.942523181438446,0.0,0.0,0.0,111.2307345908166,0.8320736341596451,97.37472350091156,1.796470391,0.6221096805704265,-3.492342503285483,3.9714794936148454,-2269.9682297146437,1256.6933887557952,1129.2528012963194,0.0769464801540108,-0.2277808947325179,-0.6479977143980972,0.5118566542943199,-0.0825198834151166,0.1802546018643624,684369.3413571641,182968.537884476,65897.1508023542,3.079861259111763e-05
368,1724914412842865076,-0.2749353349208832,0.1248389780521392,0.1683760285377502,-0.0002704715298023,-0.1198220700025558,-0.3105032742023468,0.9429900646209716,0.0,0.0,0.0,40.05969953810984,101.26844313505592,10.554763153903709,1.797058826,-0.5197279706764111,-0.1877914759878506,5.172029093003134,-1798.6794859948152,5051.39393056901,3057.9078590851086,0.0759386418584549,-0.2281234686133045,-0.6448912079932145,0.6436610614880465,-0.022872787786099,0.2141707669852337,-349385.4772401012,-4750.725481103596,-145194.1783736978,2.5501839643990145e-05
370,1724914412843267914,-0.27464359998703,0.1248548477888107,0.1684729158878326,-0.0005549251218326,-0.1194249466061592,-0.3092625141143799,0.9434479475021362,0.0,0.0,0.0,-163.6840085177348,50.973359352857905,-47.28697978823294,1.797461664,-1.2052027841151636,1.6914418694721904,6.684522304861714,279.0398776296315,2448.157657552099,1121.238836041881,0.0748185209702704,-0.2276468142866121,-0.6420821435098218,0.6090739802830285,0.0178951819197905,0.2054380477075739,-392985.34234548453,-122901.2503811788,-114226.40569156448,2.9672357341559575e-05
372,1724914412844091429,-0.2743358314037323,0.1248333901166915,0.1685830503702163,0.0002022593253059,-0.1197339817881584,-0.3079128563404083,0.9438503384590148,0.0,0.0,0.0,-297.43919972972026,-46.95377387989206,-91.92796496061858,1.798285179,2.3590176604242563,-0.0244884012006333,3.174630922589986,3918.460006361205,-1899.066522385908,-3913.932690640008,0.0761573469048065,-0.2278641112297481,-0.6394077466059779,0.3432587201828445,-0.0246871328908802,0.1233838329986012,-145134.94410971712,-107847.18814276432,-48521.8849251032,3.5801872866167195e-05
374,1724914412852540168,-0.2740765511989593,0.1247434839606285,0.1687280833721161,-0.0001832432753872,-0.1199568435549736,-0.3067986369132995,0.9441847801208496,0.0,0.0,0.0,-25.412799375581397,1.095413047201391,-9.023978526440136,1.806733918,-0.0383234639638632,-0.0683604897316073,0.2842644584026985,-240.5765620023628,-4.303423475390223,-290.61664430718014,0.0752874164310909,-0.2286216861022917,-0.6369940001999429,0.0268941539012758,-0.0092971578911235,0.0150911472033093,26341.67988943009,5205.46365988577,8139.3130563163795,7.550663677275156e-05
376,1724914412899497916,-0.2738039791584015,0.1246577352285385,0.1688951551914215,-0.0021603889763355,-0.1203226745128631,-0.3053061664104461,0.9446194171905518,0.0,0.0,0.0,-316.71508409323087,119.81912969993624,-63.52668574702329,1.853691666,-0.0671004386647377,-0.0383380149651186,0.0757966125454382,7623.422577338589,30172.590934035263,66910.82177484514,0.0713375207789185,-0.2306778074982631,-0.6334839928229293,1.9738888015656355,-0.1473783600682736,0.5814438581136301,-514338.54955892544,1733435.3459926748,3030551.753449635,9.398165609920172e-05
378,1724914412899752008,-0.2732997238636017,0.1246200874447822,0.1690436899662017,-0.0018996765138581,-0.1194701045751571,-0.3032181560993194,0.9454004168510436,0.0,0.0,0.0,-448.1030355186013,562.6510275032581,710.6806064624027,1.853945758,1.8804326242787024,7.669759721751672,17.169303696515467,-4175.186732311671,3579.0498393319685,23504.144305574377,0.0707646954638913,-0.2290436013156288,-0.6288727807112827,1.892921569699638,-0.1167644940895797,0.5651983092429305,-742200.309139521,1469626.3091246365,2663530.0536453673,2.8103335946339173e-05
380,1724914412899989065,-0.2728712558746338,0.124599352478981,0.169173389673233,-0.002184783341363,-0.1191135123372078,-0.3017792701721191,0.9459051489830016,0.0,0.0,0.0,-673.8335452426459,850.6197122473928,1257.2888779400178,1.854182815,-1.7278770461908026,2.600554859475605,13.061048221736463,-5686.023593011654,-14846.704957202312,-26615.773892867837,0.0696256198789162,-0.2286458390605482,-0.6256572190380473,1.7580659583203442,0.1144074651324729,0.9049874170539168,-668622.3932408976,218637.02142553835,556899.6285586909,2.8455670909467618e-05
382,1724914412900241681,-0.2724404335021972,0.1246825978159904,0.1694983392953872,-0.0022906535305082,-0.1190168038010597,-0.3013298511505127,0.946060299873352,0.0,0.0,0.0,-766.3947559996326,637.6968991733897,927.1707565901507,1.854435431,-0.5974042755732022,0.6098296084178948,3.837848325715537,4079.6682751785975,-7163.649439097743,-33205.3372670125,0.0692471842733927,-0.2285594073051065,-0.6246532072748407,1.5595901667881744,0.2957579186880679,1.175199793783969,-323283.13875701325,-793051.404332305,-1235709.6261224048,0.0002256481657073
384,1724914412902669615,-0.2720573842525482,0.1246125251054763,0.1697582006454467,-0.0022687988821417,-0.1191104054450988,-0.3009157180786133,0.9461803436279296,0.0,0.0,0.0,-544.9109376795789,-125.21527153566456,-414.18050533216945,1.856863365,0.0810932734324726,-0.0565326346483858,0.3502172180577335,262.5652394273043,-258.0457939841654,-1351.5517361337463,0.0692488638766607,-0.2287551547265539,-0.6237919816384717,0.1489025424661135,-0.0272797446394389,0.1013625711994102,89142.58173812205,-296345.5267253188,-517532.70090981934,0.0001613450363707
386,1724914412941066245,-0.2717230916023254,0.1245252788066864,0.1702088862657547,-0.0039872974157333,-0.1185660064220428,-0.3008766770362854,0.9462555050849916,0.0,0.0,0.0,1614.483893438996,-648.3773683499511,926.7348140599156,1.895259995,-0.0929772761500966,0.0003563005297273,0.013828469824405,-25737.24062199305,10412.67832597706,10520.091649015118,0.0655552896429707,-0.2287772904113586,-0.6232471657760242,1.154822812288785,-0.0774232603832274,1.2635750253159015,-1207282.954926691,235708.33270458737,-1140571.9899041671,0.0003569077476274
388,1724914412941442210,-0.2712846994400024,0.1244958937168121,0.1706885546445846,-0.0056076124310493,-0.1173015907406807,-0.3003859221935272,0.946560800075531,0.0,0.0,0.0,1155.936347767352,-558.8414123929726,493.5923120274001,1.89563596,-9.864008873437117,3.9534856911530984,4.007774637356713,15851.61524240656,17049.796490572888,24294.684257726363,0.0614758175207888,-0.2273895793712581,-0.6216066522138026,1.7676592125478692,-0.3235725245590402,1.6152950446405043,-1658734.277267495,416621.4643046458,-1399029.5283784366,0.0003681801265379
390,1724914412941693995,-0.2707381844520569,0.1243730410933494,0.1711525022983551,-0.0052967360243201,-0.1162232980132103,-0.2988932132720947,0.9471678137779236,0.0,0.0,0.0,664.253822743602,-423.84824777287025,99.69705945584428,1.895887745,1.1824413171757733,9.348338167415092,12.430116745615551,39214.12136012614,18716.76402606773,29351.269749971223,0.0610210673567111,-0.2252317360538123,-0.6182530818314422,1.9787634103377751,-0.4481143822822204,1.6650570248909702,-1810463.6992126463,507329.6204852327,-1431771.631234353,0.0003230261291729
392,1724914412943793783,-0.2699418663978576,0.1241292655467987,0.1715391427278518,-0.0032609277404844,-0.1156283989548683,-0.2963954508304596,0.948034405708313,0.0,0.0,0.0,-645.0513693757135,136.84580635196238,-584.0158297550398,1.897987533,1.948129132719792,1.1995941532636825,2.277716901185339,255.0784720032518,-3169.4825541760174,-3962.867235719381,0.0639877703266399,-0.2230165295930218,-0.6131959441212713,0.3234786919272077,-0.0985173946344084,0.1593371427990142,-493031.4016635092,213998.82653348328,-252256.7722891352,0.0001850320555948
394,1724914412952845554,-0.2691895365715027,0.1239234060049057,0.1720138788223266,-0.0032144973520189,-0.1144643351435661,-0.2945361137390136,0.9487550258636476,0.0,0.0,0.0,-15.29873026319922,4.846046733897899,-5.097339801737614,1.907039304,-0.0184855651240963,0.2639473071935727,0.4363193295126886,-116.70059957003876,-43.51537566185992,-130.09679413525996,0.0628967846425009,-0.2208825308758971,-0.6090000131606598,0.074645451712259,-0.0166096716485935,0.0652486724508465,38088.21111592653,-8083.329590779841,34661.39162951561,0.0002851705605481
396,1724914412963399173,-0.2685059607028961,0.1238235756754875,0.1728600114583969,-0.0024163422640413,-0.111735500395298,-0.2947236895561218,0.9490244388580322,0.0,0.0,0.0,-0.731107572579806,-0.4891780846644321,0.2412244080979113,1.917592923,-0.0127143957898678,0.5411456148252742,-0.0343389508886883,-12.657275445682409,6.698749800569619,-10.69834647809168,0.0627632910351007,-0.2151600060889722,-0.6090032200111904,0.0631978637891155,-0.0171798269673066,0.0766327704815736,714.9565019081246,-239.87179497011627,227.52564594665532,0.0006739634561023
398,1724914412973225382,-0.2678993642330169,0.1235841289162635,0.1735806167125702,-0.0030928067862987,-0.1093642711639404,-0.2940735518932342,0.9495002031326294,0.0,0.0,0.0,0.2066186111683379,-0.4156719530020322,-0.0694466091532572,1.927419132,-0.2578910595283918,0.427952056590575,0.1706721964440615,-12.503381255355908,-7.455038143501971,10.535908990989016,0.0598112167991244,-0.211065446275597,-0.6070269818199793,0.0592489095109201,-0.0259677841482108,0.0713411601588029,129.25128830928196,16.438859742042993,30.166585227596023,0.0005616694808256
400,1724914412984723639,-0.2672515213489532,0.1232640221714973,0.1743740886449813,-0.0037961525376886,-0.1067985221743583,-0.2933923006057739,0.9500004053115844,0.0,0.0,0.0,2.147827485358482,-0.106122173235986,1.1086980187065,1.938917389,-0.2341736270504113,0.3969194759877616,0.1528580772932533,17.959676425790214,1.615012560728431,3.944608013335833,0.0566904635040861,-0.2066116541629556,-0.6049618760644561,0.0698119016516898,-0.0243069126575194,0.0768539455258121,47.952389325151834,10.595488339791029,12.522586525611413,0.0006229638758543
402,1724914412994733676,-0.2664353251457214,0.12305149435997,0.1752117723226547,-0.0028627014253288,-0.1047742664813995,-0.2922126948833465,0.9505923986434937,0.0,0.0,0.0,1.5744840281067969,-0.1423325355382494,0.4502704403914412,1.948927426,0.0841366211137331,0.4506790829747621,0.2402199680320436,16.959540507709217,17.035373664153845,16.35507965858827,0.0569818080562222,-0.20224418357222,-0.6022482973264489,0.1020232347945224,-0.027552755845928,0.0934356370673441,-174.09064427826726,9.74146878550298,-132.0655289376392,0.0006438911326079
404,1724914413002715657,-0.2654905915260315,0.1227913349866867,0.1760196387767791,-0.0017928329762071,-0.1024074777960777,-0.2905757129192352,0.9513545036315918,0.0,0.0,0.0,-0.5586021813497992,0.0204504289749714,-1.0257899091692808,1.956909407,0.1250562683361498,0.6608994124788732,0.4193144763214904,3.6710974209814378,17.307195823632203,2.3409660332472644,0.0572427311504122,-0.197168559421822,-0.5985318832145159,0.1041306775851662,-0.0275309242756378,0.0893522192457103,-47.74562862590855,-35.52596313055941,-35.54212892172293,0.0005914473795132
406,1724914413014349897,-0.2645203769207001,0.1225568801164627,0.1768580824136734,0.0001346978824585,-0.0987228602170944,-0.2899099290370941,0.951948583126068,0.0,0.0,0.0,2.6079806249235657,-1.3411343107249398,1.093869104425055,1.968543647,0.143086461490926,0.7091336820793152,0.1057626278379359,-14.311919304612736,-15.712596796228992,-14.79508747361432,0.0585739025169053,-0.1890033362397215,-0.5967936581650337,0.0836819516526787,-0.0269925890646272,0.0686981394742467,152.7503106022244,-55.53328906200982,93.61344173253326,0.0006263043652817
408,1724914413026875367,-0.263468325138092,0.1221265420317649,0.1776731312274933,-0.0009643545490689,-0.0968107730150222,-0.2895606160163879,0.9522507190704346,0.0,0.0,0.0,2.9107726161558283,-1.207399095604079,1.071949562040789,1.981069117,-0.2500712526709123,0.2445348983663521,0.0843663815875082,35.45531056781228,12.6341345398491,54.555400311860794,0.0552084178960378,-0.1860054510104189,-0.5955425201236616,0.1752183135665497,-0.0625000566303022,0.1210898125201431,-488.59623205334526,111.57696195866636,-309.71134775631833,0.0005814663252896
410,1724914413032760509,-0.2621848881244659,0.1216809004545211,0.1785406619310379,-0.0003334215725772,-0.0956523269414901,-0.2879483997821808,0.9528569579124452,0.0,0.0,0.0,-1.382576286590406,-0.271748722066393,-1.6023073122324476,1.986954259,0.1434223850373813,0.4563900584660498,0.561010424024588,48.23196065412925,27.731074367600815,42.161157097569536,0.0554086488128485,-0.1835061677380231,-0.5920378755112293,0.1801895476495669,-0.0651056935174927,0.1187963664527966,-474.2897534167736,80.75625581373214,-289.1509990331627,0.0005931179568221
412,1724914413043637786,-0.2609866857528686,0.1211861819028854,0.1792575865983963,0.0019901350606232,-0.0930438712239265,-0.2865562736988067,0.9535326361656188,0.0,0.0,0.0,-1.4103284521757793,-0.9660583538120492,-1.4251444377997275,1.997831536,0.293511297036913,0.5918237857750877,0.2389703991660245,-12.021768561175714,13.047078317343551,-20.46272927502924,0.0580614819747379,-0.1772264658372004,-0.5890288465863031,0.1203734348400455,-0.0646237956403537,0.0769893362491203,110.30835818585632,7.747081622892814,65.76409650301572,0.0004660263161345
414,1724914413052905948,-0.2597903609275818,0.1204360723495483,0.1800586283206939,0.0027940634172409,-0.0898452550172805,-0.286020427942276,0.9539981484413148,0.0,0.0,0.0,0.5032907739799457,-0.3289970792865349,-0.4249104786612481,2.007099698,-0.021812498471564,0.7174529593804102,0.1215290788276535,-22.695191408550265,11.001979112501472,0.4199602407173142,0.0575942029513635,-0.1706531985168835,-0.5874969637638395,0.1395923140213764,-0.0815562960735762,0.0828789932075011,1630.7905031496082,-653.9809309921745,845.3123545915598,0.0005465524174503
416,1724914413063207660,-0.2582319378852844,0.1195887774229049,0.180871769785881,0.0032286029309034,-0.0857240557670593,-0.2847093045711517,0.9547678232192992,0.0,0.0,0.0,33.61240767452717,-15.341610671015443,16.72676232436537,2.01740141,-0.125911030754422,0.801559705858497,0.2757591694129856,-7.43069556279593,2.444186846746029,9.68695286562424,0.0557414592741257,-0.1625698600088239,-0.5841465962195016,0.1267956971505901,-0.0677931506654436,0.066359758131109,22127.794226430575,-15667.110476662529,-4562.943231123922,0.0005070701658629
418,1724914413095594940,-0.2566182017326355,0.1188649535179138,0.181740790605545,0.0030748452991247,-0.0806791484355926,-0.284025639295578,0.955411434173584,0.0,0.0,0.0,2676.108412867359,-1969.6218162135085,-765.1864643747767,2.04978869,-0.0942719673506748,0.2982849555653449,0.0514323128946682,-59944.12935667966,82533.54250017238,18610.99686709077,0.0523405251239567,-0.1530132783661504,-0.5819340428257574,4.764357378103341,-2.2628063234904516,2.474513490539948,-1395056.9714005615,729082.2847770695,-524889.1988829998,0.0005771733221431
420,1724914413095943720,-0.2549387812614441,0.1180673167109489,0.1826130449771881,0.0009010104113258,-0.0747321173548698,-0.2832009196281433,0.956144154071808,0.0,0.0,0.0,2183.9941148644502,-1712.3674020704675,-950.1381367468356,2.05013747,-21.226740823958124,29.39439046391468,6.612505217029079,-27251.82779692985,39716.46429084899,21819.922141940835,0.0445196400952708,-0.142884714288356,-0.5791031654013237,5.707244176391157,-2.9569144119967063,2.2044784156266246,-1636067.198904595,906666.8204031568,-455708.0071756772,0.0005892597308381
422,1724914413096233542,-0.2530698478221893,0.1170489862561225,0.183180570602417,-0.0009232037118636,-0.0696576833724975,-0.2815279960632324,0.957020938396454,0.0,0.0,0.0,1655.6129847117948,-1408.8750525587698,-1064.252723530175,2.050427292,-21.09615496193337,30.379353815622245,13.66091932246926,542.020131957958,3125.187365768852,23331.502876974027,0.0378032033869735,-0.134250445177891,-0.5747431977006247,6.215128533686658,-3.386309034851162,1.8867428744673165,-1764954.7570711623,1016044.4883863569,-374098.9930318381,0.000272068470904
424,1724914413103607860,-0.2510365545749664,0.1159691140055656,0.1836886703968048,0.001438146457076,-0.0621631741523742,-0.2805382907390594,0.9578267335891724,0.0,0.0,0.0,-445.3790264421857,243.90341829251147,-137.6029172409051,2.05780161,0.0595666977091896,2.1405110423763447,0.2756744149765341,1551.9899405475192,-2135.5904821982367,-988.0951517188294,0.0379083954559284,-0.1185537063893717,-0.5720931849114261,0.2633911514102145,-0.1337620035136755,0.0541592567449829,-134132.68288946702,110903.3826049767,75879.16212658382,0.0002257102120855
426,1724914413112593658,-0.2488048374652862,0.1149059385061264,0.1840139180421829,0.0014190953224897,-0.0552046597003936,-0.2786903977394104,0.9587920904159546,0.0,0.0,0.0,0.2201760081604327,0.7328079051968723,-0.8294214358433529,2.066787408,-0.4132954839629588,1.4962218782912442,0.4522598407189315,-21.148331665778517,-55.92445046353602,7.958029460999544,0.0336840278625616,-0.1052628883065809,-0.5675221434667613,0.2218321475109146,-0.1008920374635349,0.0320442823615225,30077.357614136443,-16398.556050592677,9246.676091993351,5.542926082680624e-05
428,1724914413126276746,-0.2463222295045852,0.113888494670391,0.1843658834695816,0.0030122741591185,-0.0481654666364192,-0.2766070961952209,0.9597706198692322,0.0,0.0,0.0,5.223593332456616,-1.4750555500840097,1.2118987295207386,2.080470496,-0.0468620710990862,1.0597172312640963,0.3175042977995654,-49.679290096971826,41.51550896716702,-7.777085579801149,0.0325682399814472,-0.0909143558661789,-0.5626765085607899,0.3257975578014331,-0.1518136850035993,0.0546927367933598,-421.6926486864565,228.43336289349543,-112.26658963732037,9.543029837861476e-05
430,1724914413132618156,-0.2438319474458694,0.1126981452107429,0.18479785323143,0.0025347578339278,-0.0429702885448932,-0.2758434414863586,0.96023827791214,0.0,0.0,0.0,0.2354893180829105,1.1190964857084262,-0.2684165293530014,2.086811906,-0.5866065100274119,1.53874933125188,0.2742738231605066,-47.07671514649172,59.79261808847954,-10.727428371776758,0.0286725096446024,-0.0812142879938167,-0.5606316828543906,0.3519440361903463,-0.1545654921773822,0.0610750127023607,-608.8370628667373,257.8000478002191,-193.70918698086507,0.0001989559369367
432,1724914413142660206,-0.2409458458423614,0.1116730719804763,0.1852991580963134,0.0029369182884693,-0.0332336612045764,-0.2754011154174804,0.9607503414154052,0.0,0.0,0.0,-3.05177307697725,1.302223758589613,-1.5819029508267697,2.096853956,-0.4544701549734573,1.8887657997531069,0.1043665065311438,22.711676115850036,-15.37762716234819,1.964625954122564,0.023997290834912,-0.0622810978006336,-0.5590806002537434,0.2924864963898734,-0.1186306355968858,0.038106388679088,-60.09638488800019,-13.922559432360435,-29.6552278977849,0.0002982386381694
434,1724914413152912095,-0.2378940880298614,0.1102836430072784,0.185566172003746,0.0039845183491706,-0.0271299257874488,-0.2738114893436432,0.9613924622535706,0.0,0.0,0.0,-0.8707708468063426,0.8229156460629339,-0.8273467591417396,2.107105845,-0.1216459109453276,1.2053748805550335,0.3221519137703753,-37.08459312813095,-30.692345880923114,-7.608318544401166,0.0225484348610478,-0.0500038340213144,-0.5554856042565085,0.2912282111988862,-0.1291035005842866,0.0292710798449782,88.36789558289749,-12.737682294828012,27.77208668005799,9.076063175726036e-05
436,1724914413162651272,-0.2351174354553222,0.1090857312083244,0.1858810931444168,0.0003663581446744,-0.0198253337293863,-0.2740155458450317,0.9615208506584167,0.0,0.0,0.0,-1.1608580896282756,1.0135758402742328,-0.9808897127306974,2.116845022,-1.1262965611957323,1.239233255788016,-0.0188864059492608,-7.040502851870091,-26.82908803411528,-0.3916826595795157,0.0115780087490311,-0.0379332644304863,-0.5554635326384011,0.2758267301744261,-0.1040237437773452,0.0215323767470057,-19.874841709213477,-93.64004486117128,72.01904846490837,0.0001960850578705
438,1724914413173008320,-0.2323628365993499,0.1082173511385917,0.185985118150711,0.0005200360319577,-0.0165015179663896,-0.2722420990467071,0.9620871543884276,0.0,0.0,0.0,-1.2575445053803556,-1.2032403193386898,0.7318843448205523,2.12720207,-0.1405923759421781,0.6275736420561304,0.3584260066067301,66.05652409773148,-21.66514594674446,17.30198942252468,0.0099905697961812,-0.0314738416129811,-0.5516791272854487,0.2684355048973739,-0.1107253560287295,0.0093213849667463,-101.05226180698308,-72.06126863270205,160.56790312095518,8.791566832034331e-06
440,1724914413182816268,-0.2297070771455764,0.1068816930055618,0.186069831252098,0.0026270195376127,-0.0132215386256575,-0.2705650329589844,0.9626073837280272,0.0,0.0,0.0,-3.1005230372780392,-0.5913265003357955,2.262098273785741,2.137010018,0.2368603306061916,0.7623801250173476,0.3504582067201272,-1.2614920191702286,-28.44773905028175,-11.525095127128928,0.0122159809359309,-0.0240350561991497,-0.5481577352599807,0.2510498299973402,-0.1276924721220966,0.0342479141288389,-171.45902575082903,137.0827505729693,44.61914717528454,1.0505625081625616e-05
442,1724914413193385489,-0.2272783517837524,0.1056287661194801,0.1867235004901886,0.0014268780359998,-0.0129912020638585,-0.2700386047363281,0.9627608060836792,0.0,0.0,0.0,-4.725379939696412,1.7082553387634205,1.464904386079334,2.147579239,-0.2291614382653372,-0.0188436277341029,0.1066335990925196,-15.76735377002644,-74.21807821454749,-9.56777259447058,0.0097667626684203,-0.0242465917148209,-0.5470325796398414,0.2031553512753028,-0.1209740530406859,0.0549746921628777,-72.04769713027508,148.68163933935443,-62.80177065811973,0.0005854716693786
444,1724914413203356507,-0.2255032509565353,0.1043996810913086,0.1872070133686065,-0.0001832463603932,-0.0164867881685495,-0.2693862318992615,0.962891161441803,0.0,0.0,0.0,-4.675365159897819,2.5427199773278826,0.9574586345751754,2.157550257,-0.1199340651415837,-0.7617245725704552,0.1382376812330002,15.851125933282932,6.493354456712363,-6.0524570385370735,0.0085341677886876,-0.0318540799983511,-0.5457233298955703,0.1542147856003897,-0.0938514446642484,0.0649141944881712,-15.321873881317488,-63.17905448574641,-22.33214641116039,0.0004157146179271
446,1724914413214128864,-0.2241191118955612,0.1037310063838958,0.1880974173545837,0.0007429376710206,-0.0153420893475413,-0.2695544064044952,0.9628626108169556,0.0,0.0,0.0,-5.07711218478901,0.1528678413348814,1.0492719501881718,2.168322614,0.1078074977323402,0.2508794895660312,-0.0342886757194845,22.131928945672204,35.54058089344393,14.78848719904838,0.0097060246431937,-0.0291482514802817,-0.5460680616683015,0.1065607888726294,-0.068525239505262,0.0747699650304039,-77.15410815902308,-162.84654098949068,-3.1965048008768235,0.000843961576966
