seq,stamp,px,py,pz,ox,oy,oz,ow,lx,ly,lz,ax,ay,az,timestamp,wx,wy,wz,aa_x,aa_y,aa_z,roll,pitch,yaw,vx,vy,vz,jx,jy,jz,fw
3224,1724820312185838587,-2.1229360103607178,0.1869977116584777,0.1731908172369003,-0.032950971275568,-0.0400673039257526,0.2310875356197357,-0.9715490341186525,0.0,0.0,0.0,0.5587481268310039,-0.2435267826631589,0.5421701306558183,0.0,0.0,0.0,0.0,-23.2751763949402,27.142472337222603,26.338296837457893,0.0457232380110707,0.0932187674945469,-0.4648981430187757,-0.0042616802814998,0.0148897357074548,-0.039340472690612,-26.66146314350256,57.193973193387656,47.87903963055076,0.0
3226,1724820312194957579,-2.1229748725891113,0.1871334910392761,0.1728320717811584,-0.0323153808712959,-0.041351206600666,0.2299472540616989,-0.97178715467453,0.0,0.0,0.0,0.3156224577171093,0.2780246013355575,0.9787787100144936,0.009118992,-0.2122461473440485,0.2475119881033542,0.2401787181544038,-10.417689273315286,11.564529533488386,10.893272219774529,0.044004276547402,0.0953753395022761,-0.4625987570079703,0.000833539417087,0.0126690169245637,-0.0343964276065227,-12.968555709294453,39.425473384161705,17.410844794065092,-0.0003704251888974
3228,1724820312206314912,-2.1228933334350586,0.1872459650039672,0.1725113540887832,-0.0317359082400798,-0.042393323034048,0.2290804535150528,-0.9719659686088562,0.0,0.0,0.0,0.3620217355811316,0.4744557042192887,0.7455439459121399,0.020476325,-0.1486929300477133,0.1585027120621946,0.1454258897105521,6.760613305944227,10.31619111882601,-11.1700723622004,0.0424823222030266,0.0971024096133191,-0.4608627252158336,0.0009791329590314,0.0232040290486175,-0.017104241804331,29.594757340729483,-53.300841649480944,-76.08855308178116,-0.0003225082187653
3230,1724820312216123122,-2.122936248779297,0.1875862181186676,0.1724379062652588,-0.031857144087553,-0.0444436147809028,0.228943720459938,-0.97190260887146,0.0,0.0,0.0,0.8683673868821925,-0.6463086002322658,-0.4712996474094134,0.030284535,-0.0725168884130873,0.4134519844271719,0.0119200381475983,-0.3518298322996065,-5.679498579482689,-2.8572026350122064,0.0417996656371224,0.1011491067522772,-0.4605736376445332,0.0074877968881139,0.0240193208382564,-0.0163733891694199,70.78806257485246,-32.36338509866796,-4.289031098264893,-0.0001040841003211
3232,1724820312225464008,-2.122760772705078,0.1877156496047973,0.1722059249877929,-0.0312861092388629,-0.0449468195438385,0.228533998131752,-0.9719945192337036,0.0,0.0,0.0,1.700064815522959,-0.2200021206564608,0.5541325798969231,0.039625421,-0.1480230831962303,0.0786432750883255,0.08090088680618,-6.834317551755737,-23.671307389403793,3.781360830216673,0.0404969845102781,0.1018520117306293,-0.4597843769481941,0.0174207514053961,0.0114933240893986,-0.0256312132260498,63.17364694019379,42.946824081611176,65.70080912909569,-0.0002282977160897
3234,1724820312236286751,-2.122589349746704,0.187810406088829,0.1719185411930084,-0.0301886815577745,-0.0450579412281513,0.2280847579240799,-0.9721295833587646,0.0,0.0,0.0,2.0594412652355367,0.2110442572934682,0.7124701366474496,0.050448164,-0.206325942246879,-0.0249115389959417,0.0766392244706447,33.36038831057117,16.670072567086216,-27.966806253363877,0.03834746806288,0.1015499185362787,-0.4589619454445608,0.0438038849369206,0.023169081361253,-0.0002571526772232,-116.66213861888744,-20.676609313668084,-80.06361042573394,-0.0002805457005473
3236,1724820312245354235,-2.1219797134399414,0.1881299912929535,0.1721159815788269,-0.0321674980223178,-0.0461417324841022,0.2298221141099929,-0.9716059565544128,0.0,0.0,0.0,-0.1369211591555468,-0.4360865797328408,-0.7328835748866832,0.059515648,0.3905292923009456,0.3255739893258096,-0.3864188723599261,13.09843735716916,-7.641304429625944,-12.174540968961168,0.0415385682474195,0.1046396222682033,-0.4623631670944538,0.0596038688547508,0.0184903427682883,-0.0061953022068559,-208.459776826166,-9.146346748424532,-38.04344931266328,0.0002150844083549
3238,1724820312255769752,-2.121450185775757,0.1881221234798431,0.1717168241739273,-0.0312620028853416,-0.044716153293848,0.230090782046318,-0.971638560295105,0.0,0.0,0.0,-1.904183535612664,0.2130701952032988,0.3227745900607779,0.069931165,-0.103846371159677,-0.3078773349183871,-0.0479035472262641,-21.284992939260313,-5.458455703311687,12.071292570486351,0.0403918162390018,0.1014560388214167,-0.4629963564382128,0.0356925901952536,0.0149042466452673,-0.014761848022891,-42.45409460599765,17.442321547471433,57.0924460202592,-0.0003577451861277
3240,1724820312266858671,-2.1212332248687744,0.1884722709655761,0.1718312948942184,-0.0314213633537292,-0.0463184937834739,0.2308696210384369,-0.9713734984397888,0.0,0.0,0.0,-0.8729906858528087,-0.123402854864936,0.43331806680434,0.081020084,-0.0307928937062165,0.2851617296468766,-0.1552368941392792,-10.326500697319378,8.542824187259441,4.044921197408293,0.0398855608473801,0.104684691029304,-0.4645979235357282,0.0191998678743345,0.0238472367962021,0.0023380776581891,63.41763307011701,-49.12842865219324,-30.614708508518973,0.0001012660479152
3242,1724820312276711227,-2.121047258377075,0.1886395663022995,0.1717844307422638,-0.0300522949546575,-0.0465217493474483,0.2307863384485244,-0.9714269638061525,0.0,0.0,0.0,-0.5070696946437203,-0.7718903120384607,-0.2235849965333386,0.09087264,-0.2806053118124573,-0.0240544315475259,0.004758618277859,-8.128757493699439,-9.827271958016906,6.7870422941969375,0.0371248448746885,0.1044460782005581,-0.4645600499761411,0.0159765042753576,0.0144911709192161,-0.0030987212239459,25.49311204592773,-71.89982936022136,-71.48498512780711,-4.570794473349315e-05
3244,1724820312285730258,-2.120927095413208,0.1887497156858444,0.1717701703310012,-0.0291903186589479,-0.0470296889543533,0.2307858020067215,-0.9714288711547852,0.0,0.0,0.0,-0.373301028832534,-1.4705588258159348,-0.9080351347870196,0.099891671,-0.2116978673783074,0.0652888908195685,-0.0120642876201162,8.149741162420106,5.002113275342398,-0.7009388280145468,0.0352063387105063,0.1050384605763041,-0.4646479375338395,0.0099178897180891,0.0089967093260985,-0.0024053581126564,-6.448771031423327,-15.848052465776348,-10.87899929719428,-1.3450441150832314e-05
3246,1724820312303155622,-2.1208689212799072,0.1887982040643692,0.17170050740242,-0.0287263765931129,-0.0470244549214839,0.230641171336174,-0.9714772701263428,0.0,0.0,0.0,-1.2021259914070008,0.327772720455763,1.0911013799431517,0.117317035,-0.0525318717788001,-0.0126493892015363,0.0149210009650058,21.845263734600355,-75.20620991147734,43.365846242530445,0.0343175072925395,0.1048091303604927,-0.4643943279910245,0.0134611519150666,-0.0456273888051725,-0.0513872197236509,-93.04981534536392,295.94735554115726,331.12653728008456,-6.84536895277926e-05
3248,1724820312307573633,-2.120798110961914,0.1885423958301544,0.1714203953742981,-0.0286615192890167,-0.0460684783756732,0.2301302999258041,-0.9716461300849916,0.0,0.0,0.0,-1.6641711942425483,1.851172943114534,2.7964210110972045,0.121735046,0.0582189447664582,-0.424142589325392,0.2533528706391287,20.844611198343987,-49.022799911167795,28.252582905532517,0.0346845776379644,0.1028977688419546,-0.4633346079428232,0.0065758302134995,-0.0403007842580134,-0.0421958815931899,-29.39147924625977,206.47630383996497,215.86454929239977,-0.0002533857376495
3250,1724820312318717575,-2.120990514755249,0.1885880231857299,0.1715462654829025,-0.0298976209014654,-0.0473327040672302,0.2309681624174118,-0.97134929895401,0.0,0.0,0.0,0.1218539093416536,0.2634973399755431,0.4198126137008632,0.132878988,0.1717926011851643,0.2696540563727032,-0.1546499422475607,-10.841947010066734,6.569942612974456,-3.691959513879975,0.0364297075968116,0.1059621537795337,-0.4649589782823108,-0.0149408907078623,-0.0015263744707869,0.0090934739139356,128.35716143533077,-111.92856914197452,-201.83543122477755,0.0001063984413828
3252,1724820312326161339,-2.1210901737213135,0.1885487139225006,0.1716030091047287,-0.0298814047127962,-0.0474970005452632,0.2310278266668319,-0.971327543258667,0.0,0.0,0.0,0.9186445906507652,-0.4178160038644429,-1.025774854724883,0.140322752,-0.0134943357488117,0.0416697203830068,-0.018447476222339,-13.05982679030886,-36.97825070597897,15.498845033075142,0.0363158397162378,0.1062771122838696,-0.465085598964622,-0.0038276868847475,-0.0155550705680038,-0.0085783065112661,18.819944638508172,21.833966477192536,-26.70633377928573,5.171124791161692e-05
3254,1724820312335525029,-2.1210134029388428,0.1882820427417755,0.1713318526744842,-0.0295081231743097,-0.045754637569189,0.2306551486253738,-0.97151118516922,0.0,0.0,0.0,0.0557252332331638,1.1219004955371146,0.6970450278785351,0.149686442,0.0035813070521253,-0.3793867306858057,0.0937137683378149,-0.355493373717843,13.903723595640706,-3.885520552471388,0.0364277916627066,0.1026950988571819,-0.464333789405636,-0.0019904762120148,-0.0021901160192214,-0.002302404399618,-53.04190021177568,61.49512474743534,86.22121868826204,-0.0002428506059729
3256,1724820312345425240,-2.1211397647857666,0.1885355412960052,0.1715880781412124,-0.0298011563718318,-0.0475976653397083,0.2311277538537979,-0.9713013768196106,0.0,0.0,0.0,-0.0599759232936655,0.6531968654152794,0.5272672304057059,0.159586653,-0.0227477745167402,0.3744901439102308,-0.1108080028523147,-1.0637977910427712,20.667743932512188,-3.921865785213017,0.0361016357816039,0.1064399753247397,-0.4653009744811887,-0.0029092616992443,0.0057199957078744,0.004879088908229,-31.542697369025568,-19.676914720285183,-36.94356100543342,0.0002244132294598
3258,1724820312357873136,-2.1210217475891113,0.1882955133914947,0.1713201105594635,-0.0294245295226573,-0.0461643598973751,0.2305495291948318,-0.9715194702148438,0.0,0.0,0.0,-0.7633856200696736,0.8412646670046566,-0.2424123289057945,0.172034549,-0.0110160124829399,-0.236565189842721,0.1023185677043002,1.2685540237952286,25.345277185375497,-12.960011359215638,0.03608738831139,0.1034511981282876,-0.4641279958027144,-0.00314202721637,0.0115691773134791,0.0083416316200786,16.24736080986042,-57.68101639402679,-57.134440355081715,-0.0002385441475769
3260,1724820312365653466,-2.121107578277588,0.1885355561971664,0.1715302616357803,-0.0296894907951354,-0.0473997220396995,0.2310597151517868,-0.97133070230484,0.0,0.0,0.0,-0.2831683226182646,0.0385158001161152,-0.6640926269888482,0.179814879,0.0004394903145908,0.3226000538900496,-0.1447995459516254,-20.915293871667775,14.566753828531152,6.350936497480854,0.0359819734365482,0.1060000928669386,-0.4651691349792915,-0.0127027944909485,0.019920456111679,0.0039240508164644,83.22702039232234,-99.61807277486146,3.1024746561955037,0.00018300762695
3262,1724820312375528746,-2.121253967285156,0.188595250248909,0.171279639005661,-0.0271603073924779,-0.0466891229152679,0.2290839254856109,-0.9719069600105286,0.0,0.0,0.0,0.8082730116629377,-0.9006354358641286,0.0847709099772433,0.189690159,-0.4867190273728139,-0.2517950699406687,0.3956363447465097,11.109021959965482,-8.84868828274524,3.4800661898258003,0.0315769454328213,0.1033830087158876,-0.4613272923384531,-0.0036458300886295,0.0073294447636946,-0.0038411584459145,35.782561272723385,-50.44663121554239,-3.033219917252054,-0.0002650525514915
3264,1724820312386525954,-2.121157169342041,0.1886915862560272,0.1715011596679687,-0.0294389463961124,-0.0476066619157791,0.2301765084266662,-0.9715378284454346,0.0,0.0,0.0,0.2864704317294813,-0.9085406622334092,-0.9144182979929748,0.200687367,0.3756351861248509,0.2548504400169364,-0.1936826251774183,13.688699769843431,4.455328128433163,-11.862429920248182,0.0354938179483065,0.1062554822500427,-0.4633732701325659,0.0039097279837676,0.0020096982419239,0.0077590831201668,-36.51036375076572,-1.788723975430308,-76.24637205779393,0.0002201529822245
3266,1724820312394931907,-2.1211557388305664,0.1886651068925857,0.171486809849739,-0.0297634731978178,-0.0476391464471817,0.2302916944026947,-0.9714990854263306,0.0,0.0,0.0,0.0498474330357804,-0.9304508906629916,-1.4614551898216346,0.20909332,0.0748129478396878,0.0249137413075149,-0.0252991989197729,-24.72201363857274,-27.42452287104286,13.730116239000628,0.0361008038369926,0.1064723901599638,-0.4635794980384777,0.0037439955836759,-0.0083569364522517,-0.0125804619465483,-37.14689817378709,65.30549178596068,69.89340459834204,-1.2034142519006173e-05
3268,1724820312406599913,-2.121054172515869,0.1884832680225372,0.1711639165878296,-0.0291793905198574,-0.0460007563233375,0.2301470190286636,-0.9716299772262572,0.0,0.0,0.0,-0.5293048991319803,0.9314331721592624,1.540040089330175,0.220761326,-0.0344388159637332,-0.2962174391190785,0.0328478179132658,-1.7194723989323988,-1.8003481371526957,-0.1324580063584768,0.0357261852432308,0.1030045759658346,-0.4633190956026755,0.0054522625777764,-0.0143093380748027,-0.0141137022548107,-23.070507631948267,89.61314762610093,121.83475644399476,-0.0002991008073137
3270,1724820312418796161,-2.1210291385650635,0.1883250027894973,0.1711646467447281,-0.0294326040893793,-0.0460055172443389,0.2303584665060043,-0.9715721011161804,0.0,0.0,0.0,-0.4720117666670224,1.1325168333097435,1.2997470903831974,0.232957574,0.0420374719355782,0.0097398213103017,-0.033987440541394,-5.157726145146227,62.08635367758601,-22.702282459017965,0.0361964839319475,0.1031382112516716,-0.4637313475066234,-0.0096175083928073,0.0154285033472234,0.0259772739643224,84.08995211328946,-149.0789535389884,-213.2172696300894,1.5030243768731583e-05
3272,1724820312425277051,-2.121131658554077,0.1885228157043457,0.1714222580194473,-0.0297026522457599,-0.0477499514818191,0.2310589402914047,-0.9713132977485656,0.0,0.0,0.0,0.3463805654955102,-0.4038313979070453,-0.7485256290896715,0.239438464,-0.0307460936074536,0.5395373572905148,-0.2404292840968303,-4.111982434399396,31.248680296046818,-11.152206307111904,0.0358465063777216,0.1066887343996351,-0.4651704744546792,-0.0100468639492419,0.0182713874195545,0.0275564703886272,86.33233271770067,-160.47044650391666,-211.91639881333776,0.0002321004024501
3274,1724820312435739109,-2.1211392879486084,0.1885070651769638,0.1715046316385269,-0.0299532618373632,-0.047764029353857,0.2311064004898071,-0.971293568611145,0.0,0.0,0.0,0.5749627001008975,-0.7892045759219071,-1.206945209905424,0.249900522,0.0464573682447424,0.0135942627278651,-0.0074763243914047,-0.9047779270365456,-21.665648843581664,9.686397552868192,0.0363247154239785,0.1068336773533684,-0.4652438848149358,0.000545828732541,-0.0001821548523448,0.0029683326118021,-0.96715033316395,-4.1676390976056865,2.2854561087056453,8.251188117626855e-05
3276,1724820312445165268,-2.1211233139038086,0.1885165870189666,0.1714909523725509,-0.0298566203564405,-0.0480420850217342,0.2311970591545105,-0.9712613224983216,0.0,0.0,0.0,0.3720752517320469,-0.5510484266842978,-0.7938589332312044,0.259326681,-0.0324271198984568,0.0523148185148813,-0.0230110953542289,-4.409997649439216,0.2904967857514139,0.7806845829658027,0.0359976723056705,0.1073343387709513,-0.4654440263810783,0.0022497034252779,0.0006562081189693,0.0013011127358186,-20.392613407867955,10.530610055214698,8.795446341398069,-1.308528193435673e-05
3278,1724820312456454423,-2.1210904121398926,0.1885192096233368,0.1715428531169891,-0.0297095868736505,-0.0480982214212417,0.2310864180326461,-0.9712893962860109,0.0,0.0,0.0,0.1571549087728258,-0.6313870121879837,-1.168156076293971,0.270615836,-0.0286895031609221,0.0039833010502414,0.0186395139845785,3.2198886457537865,-26.27339672076823,7.212801122720334,0.0356966289759782,0.1073717392825097,-0.4652309103443691,0.0090367656844705,-0.0142175345817712,-0.0160027718152608,-68.21750972628726,107.44959266556984,122.26901408827524,5.3981715723234975e-05
3280,1724820312465449695,-2.1209652423858643,0.1882877498865127,0.1712512522935867,-0.0294193942099809,-0.0463581643998622,0.2306675016880035,-0.9714823961257936,0.0,0.0,0.0,-0.8089754905817805,1.1563023177980707,1.0456905125516711,0.279611108,0.020979779273522,-0.3899816780370553,0.1087743137479935,5.839039629880579,-10.2313552304314,0.1742097595270839,0.0359756714135605,0.1038309415998772,-0.4643739964426928,0.0072677134400294,-0.0149791453381524,-0.0238971553251161,-54.568843586885954,115.23822923386822,172.8356899747758,-0.0002620866366636
3282,1724820312475663507,-2.1209681034088135,0.1882594525814056,0.1711059808731079,-0.0297128185629844,-0.0457374230027198,0.2307212352752685,-0.9714900851249696,0.0,0.0,0.0,-0.7535770088778817,1.3649587470753406,1.9611827022098305,0.28982492,0.0842988387851756,-0.1052091295399938,-0.0036349174270581,-0.4813765160068448,38.23439867135387,-11.797320354939067,0.0368287806879815,0.1027584095363833,-0.4644505769539643,-0.008096236388539,0.0112231630582808,0.0090887118036064,62.462793063375386,-88.35208782918207,-78.37797914348793,-0.0001423912841773
3284,1724820312485565897,-2.1211233139038086,0.188504934310913,0.1714197844266891,-0.0301836747676134,-0.0475317686796188,0.2312854081392288,-0.9712553024291992,0.0,0.0,0.0,0.4125539309821717,-0.5542854863579644,-0.4279275854622612,0.29972731,0.0153939305154475,0.3727990412594144,-0.1280573710701762,-5.061425114291912,5.431736723980963,1.9620905883210895,0.0368624310818391,0.1064942299075855,-0.4655880616773421,-0.0083518075417003,0.013214917263415,0.0163323344758516,62.46502633704796,-105.23688502058822,-136.79870705910048,0.0002798596923914
3286,1724820312495102550,-2.121135711669922,0.1885246485471725,0.1714344918727874,-0.0301519036293029,-0.0476895421743392,0.2311659008264541,-0.9712769389152528,0.0,0.0,0.0,0.5003850719767645,-0.7443425498508753,-0.7730572082633936,0.309263963,-0.0154523932605555,0.0311364777663154,0.0240763698690999,-3.547093288923495,-20.048120212746163,7.688365344781028,0.0367407932550539,0.106782504656383,-0.4653462517715597,-0.000391312399671,0.0009907524038741,0.0016026401806676,2.697983821507719,-7.700042890874901,-15.64277851653265,1.20487465923333e-05
3288,1724820312505918297,-2.121128797531128,0.1885221600532531,0.1714525669813156,-0.0298604033887386,-0.047801848500967,0.2311189770698547,-0.9712916612625122,0.0,0.0,0.0,0.4496886422393987,-0.6776175858157584,-0.6902075211082415,0.32007971,-0.0576512253433565,0.00784196746338,0.0058602526085535,3.631488601869634,-1.5070205097692704,-1.897648617520905,0.0361243806765552,0.1068649711798247,-0.4652795027204356,0.0009195632159872,-0.0004670943845166,0.0027047027340358,-6.038197258436231,2.9938166310440266,-1.5227354867491698,1.8706212613152422e-05
3290,1724820312515342066,-2.1211178302764893,0.1885158121585846,0.1714865416288375,-0.0300320107489824,-0.0477571338415145,0.231190800666809,-0.9712713956832886,0.0,0.0,0.0,0.381693765291012,-0.67547777112661,-0.7799571039607383,0.329503479,0.0384248899648728,-0.0010495180294125,-0.0137751835680188,-0.4166309707410502,-18.04593900432864,4.796801835977059,0.0364725275995337,0.1068597814211156,-0.4654102656068224,0.0078545194247396,-0.0113099352238617,-0.0103035517035277,-51.42483415724041,77.32235231723979,85.94887694232041,3.513402963390853e-05
3292,1724820312525564984,-2.120963335037231,0.188282236456871,0.1712269634008407,-0.0292011816054582,-0.0459759086370468,0.2306736707687378,-0.9715057015419006,0.0,0.0,0.0,-0.6342951015305877,0.9699563788886169,1.157466945953155,0.339726397,-0.0835164712142528,-0.3751947283291044,0.1115647396922951,3.032031296288179,2.718145188086562,0.2232219681224687,0.0357242019739224,0.1029855502671097,-0.4644034671388077,0.0078284490305406,-0.0129464354020107,-0.0116185482023105,-60.36666513816395,61.170387210675365,32.32525725061131,-0.0002281111576501
3294,1724820312535432743,-2.120955467224121,0.188248798251152,0.1712435036897659,-0.0296568162739276,-0.0460000410676002,0.23069429397583,-0.9714857935905457,0.0,0.0,0.0,-0.8583463127101969,0.6231246098744692,-0.0208037267634632,0.349594156,0.0888984962615797,0.0261175368221061,-0.0008886072488042,6.512252380806999,30.80564140327352,-10.53258289061793,0.0366014837075695,0.1032434070319083,-0.4644028511214115,-0.0044479537369426,0.0073884020757795,0.0120530723096017,32.23539593810188,-48.680072870644906,-69.8183555870791,1.9673213980567e-05
3296,1724820312547406078,-2.1210849285125732,0.1884938329458236,0.1715385764837265,-0.0300172567367553,-0.0474734343588352,0.2313170731067657,-0.9712557792663574,0.0,0.0,0.0,0.3258093121268534,-0.1563351671005988,-0.1363416653606635,0.361567491,0.0076384269134775,0.2516664289426748,-0.1144543184361763,-41.794920799478895,-54.59758992736299,36.37659703995262,0.0365605202412353,0.1063048098235076,-0.4656691207928595,-0.0091210281486269,-0.0060366074809969,-0.023349735395266,62.8866991034263,56.842516948479386,193.0336170060396,0.0002634008813039
3298,1724820312555751535,-2.1211512088775635,0.1882892996072769,0.1710645407438278,-0.0272902064025402,-0.0453839562833309,0.2294387519359588,-0.9718814492225648,0.0,0.0,0.0,0.6411484140487654,1.02735634630577,2.653582509873357,0.369912948,-0.5447952574017985,-0.6311341873279025,0.4558926827539553,13.743555481673926,4.691318801735598,-3.363853297769712,0.0323904207758427,0.1009096816064078,-0.4620287806933215,-0.0022365839188438,-0.0017286114484722,-0.0080814650882885,-3.93341404523367,43.66435924586567,103.81392927270376,-0.000461284700338
3300,1724820312565147222,-2.1211118698120117,0.1885140240192413,0.1715039759874344,-0.0298085734248161,-0.0476182401180267,0.2309802323579788,-0.971335232257843,0.0,0.0,0.0,0.1628828367343046,0.3991385800960182,1.190836941937723,0.379308635,0.4299393435675155,0.5815417575558053,-0.3342257300268454,41.446287702905785,50.015059689252446,-35.2174044472882,0.0361228811529968,0.1064780173529248,-0.4649959708311225,0.0018433556417534,0.0133310711577854,0.0255676531268438,-34.33675523719889,-67.63385458447353,-157.62266041642962,0.0004218020691169
3302,1724820312577096891,-2.1211254596710205,0.1885124295949936,0.171487271785736,-0.0296492595225572,-0.0475212149322032,0.2310491055250167,-0.9713284373283386,0.0,0.0,0.0,0.0043369139928403,-0.4207887482896128,-0.7221855464205398,0.391258304,-0.0215661438196686,-0.0222218359086384,-0.0122451079394932,-9.02360433963442,-10.932820036410831,10.036108397642897,0.035848539845168,0.1062179013797597,-0.4651526028320901,-0.0003342334107685,-0.0001929107614486,0.0034672159893762,20.76534513187777,-24.93837251583404,-60.49621319057875,-1.754092690099979e-05
3304,1724820312584825054,-2.121124029159546,0.1885106414556503,0.1715383827686309,-0.0299239624291658,-0.0478187873959541,0.2311203181743621,-0.9712885022163392,0.0,0.0,0.0,0.3349127532619531,-0.3952202306111232,-0.6919399246709906,0.398986467,0.0524422302020107,0.0911722021864888,-0.0191938059925041,3.136032951493623,3.517048819620272,0.3626422706590014,0.036240682753701,0.1069273902196371,-0.4652761801915479,0.0006317456685138,0.0001085295613991,0.0035201724974607,0.5972900916911339,0.2058056989150394,-28.6844942328615,5.104226856523056e-05
3306,1724820312595254169,-2.1211111545562744,0.1885165572166443,0.1715315580368042,-0.0298615805804729,-0.0476773753762245,0.2311116009950637,-0.971299409866333,0.0,0.0,0.0,-0.2524753002691557,-0.4367410891468318,-1.4498817900303265,0.409415582,-0.0054943926576691,-0.0291549799972449,0.002346595884083,-2.6558425071587544,-17.70689807061435,5.712449119511878,0.0361848198369819,0.1066226349412463,-0.4652626213072095,0.0070789840138871,-0.0101245749989882,-0.0135309765487203,-74.65474924560151,77.93383705269733,50.65239588245178,-6.240354596712605e-06
3308,1724820312606303047,-2.120964527130127,0.1882795393466949,0.1712313294410705,-0.0295059867203235,-0.0460668876767158,0.2305796891450882,-0.9715144634246826,0.0,0.0,0.0,-1.291920614954825,1.3831949968141597,0.5533822894176879,0.42046446,-0.0008992254234336,-0.2970106248092535,0.1081530567018466,-30.197121767187173,-7.1640819922097805,15.09613229674305,0.0362881706335098,0.1032998763180399,-0.4641814396241855,-0.005902203900689,-0.0085768620324397,-0.0273841572281448,7.706491461505927,67.03566445887147,142.9077766795548,-0.0002686784889952
3310,1724820312614921678,-2.1211442947387695,0.1882921755313873,0.1709938943386078,-0.0273631885647773,-0.0454744659364223,0.2293643951416015,-0.9718927145004272,0.0,0.0,0.0,-0.5412182134201688,1.3042473512108448,1.5268812014537971,0.429083091,-0.4669661488382238,-0.2439362870601199,0.2753710335716002,-18.71717091271049,19.34517482156727,4.233356425386153,0.0324994183773802,0.1011171134591668,-0.4618697696508714,-0.0178235964998663,0.0117017650679249,-0.0104651455605351,99.47209293060357,-95.7188456611434,-15.17764977409821,-0.0002506668743228
3312,1724820312625882691,-2.1212973594665527,0.188563123345375,0.1711173355579376,-0.026627067476511,-0.0464924238622188,0.2287090718746185,-0.972019374370575,0.0,0.0,0.0,0.7215320261609609,-0.9515577770809448,-0.4256216811835045,0.440044104,-0.1792134212591968,0.1519344731665233,0.1103229939241015,14.72685508435614,6.809648770801925,-5.783770276093872,0.0306640585140487,0.102743445565202,-0.4606019115604581,-0.0120184961896683,0.0113796506413432,0.0001904849801626,46.30104115904764,-81.77233047993006,-82.56195266579745,9.09748921274446e-05
3314,1724820312636290832,-2.121403217315674,0.1885497272014618,0.1710098981857299,-0.0258744210004806,-0.0463011264801025,0.227967157959938,-0.9722230434417723,0.0,0.0,0.0,0.5224631901910478,-0.5768451074019395,-0.3404083229745618,0.450452245,-0.1398428396251902,-0.0668315149811686,0.1417807450432074,12.154455445904532,-19.973755208379345,-4.023716849602833,0.0293579385787351,0.1020038768077068,-0.4591400768407619,-0.0026119282989753,-0.0076382514963935,-0.0180537341524296,-39.4487024776671,81.82564062919408,75.73543599268459,-0.0001141576721298
3316,1724820312645467967,-2.121366024017334,0.1884282380342483,0.1707816570997238,-0.0258077215403318,-0.0451760105788707,0.2277906835079193,-0.9723191857337952,0.0,0.0,0.0,-0.0040064589010794,0.5448730571954583,0.9012078309779836,0.45962938,0.0394424033588668,-0.241677650866761,0.0478391733947076,8.975535411141632,3.992908101553117,-7.560780132747472,0.029757700562016,0.0997739774303167,-0.4587649495664562,-0.0009026444127613,-0.0028143957216739,-0.0097483783638843,-26.45503068790268,44.58915461225069,45.614872372986355,-0.0002155777122406
3318,1724820312657458187,-2.1214544773101807,0.1885577887296676,0.170901671051979,-0.0259287022054195,-0.0461759530007839,0.2277649641036987,-0.9722750186920166,0.0,0.0,0.0,0.1630550587213756,-0.1367788160870954,0.0432540784005382,0.4716196,-0.0183762758898899,0.1672163679758707,-0.0008997636809309,-1.3480762761720757,4.55679714067443,-1.9711628154915228,0.0295422848340935,0.1017783776225045,-0.4587160477074706,-0.0039312378828242,0.0040200725788768,0.0009978121871689,50.82949109597384,-17.50103988702245,5.132244132004885,0.000103186249213
3320,1724820312664864928,-2.1214678287506104,0.1885565221309662,0.1708678305149078,-0.0259382929652929,-0.0464239083230495,0.227777823805809,-0.9722599387168884,0.0,0.0,0.0,0.708350720055876,-0.0863650407039499,0.4321381037473588,0.479026341,-0.0124659052221078,0.0657855057994225,-0.005920054268813,-0.6213801614830602,-9.20461301709626,0.2420610837489536,0.0294469368386926,0.1022667142580211,-0.4587456583266919,-0.00082180340587,-0.0002268106842713,-0.0025845796607226,31.84274063023835,-6.276975944644787,-10.077632037731476,-3.460596468894885e-05
3322,1724820312677102918,-2.121458053588867,0.1885526180267334,0.1708763241767883,-0.0257138088345527,-0.046750720590353,0.2276639193296432,-0.9722769260406494,0.0,0.0,0.0,0.2532514805640624,-0.4277371630727845,-0.9566284200396252,0.491264331,-0.0487704316436485,0.0439254874229184,0.0156423908853789,47.19441174232305,24.50199736310134,-29.539025703399705,0.028871386339559,0.1027984653878921,-0.4585375476903696,0.0136814097883473,0.0085639833032189,0.0212219959264068,-103.47558878164668,-34.53215291409671,-164.02605016726267,9.497824098530913e-06
3324,1724820312686327142,-2.1212422847747803,0.1886933743953704,0.1712148040533065,-0.0293839164078235,-0.0480644851922988,0.2298940122127533,-0.971583902835846,0.0,0.0,0.0,-1.1621081577234025,-0.7924189496277302,-2.821070143640121,0.500488555,0.7353123312481891,0.4527100025636674,-0.4744563771003172,-12.65666615175546,-26.463905094051192,10.422506434300397,0.0352074127281437,0.1071124337713167,-0.462801505645724,0.009538669533498,-0.003349680704467,-0.0077782230577749,-73.74509304708478,34.12065724852845,28.580653655641537,0.0003424210588623
3326,1724820312696223806,-2.1212949752807617,0.1884626299142837,0.1706656068563461,-0.0267655532807111,-0.0458097271621227,0.2284131199121475,-0.9721176028251648,0.0,0.0,0.0,-1.0457342177050013,0.3273490719193757,-0.0885609174472041,0.510385219,-0.4269043827055431,-0.5607485939291291,0.3035182155708182,-50.89516723381827,-29.268009326417157,32.3021742116159,0.0312773867912936,0.1014661069701905,-0.4599683847328129,-0.009532971181116,-0.0058920139332396,-0.0322693502760351,68.36577308178217,48.24977373668965,212.3934898137918,-0.0005333175005443
3328,1724820312707328790,-2.121453285217285,0.1886143088340759,0.170596644282341,-0.0259400848299264,-0.0461417064070701,0.2279078662395477,-0.9722428917884828,0.0,0.0,0.0,0.4188352738175938,0.0545009536496974,1.4761785176973878,0.521490203,-0.1629502191055409,0.0255667157055634,0.0852020208850808,12.382325124856802,20.987529779543635,-8.371850314302637,0.0295651211860102,0.1017211214087858,-0.4590091036085553,-0.0101635594043045,0.0050232711525417,-0.0035197244030698,62.44821111733438,-35.18093353462484,-11.604856992291914,-9.174897405271944e-05
3330,1724820312716100085,-2.121514081954956,0.1885985434055328,0.1705844104290008,-0.0253794882446527,-0.0462188869714736,0.2274984270334243,-0.9723498225212096,0.0,0.0,0.0,0.4855341531598431,-0.3275950494641484,0.317801865402733,0.530261498,-0.1332282448281513,-0.0107257127211483,0.0899697842714978,9.247375670725148,2.0835463442709092,-6.160739347769628,0.0284767243419634,0.1016041670412056,-0.4582188607362035,-0.003194727293561,-0.0009307799500444,0.001719351605713,-17.978098097142396,-8.05312325637755,-90.82530214305606,-1.581864490115696e-05
3332,1724820312726290493,-2.12150239944458,0.1885993182659149,0.1706387996673584,-0.0256152097135782,-0.0466073788702487,0.2277531921863556,-0.9722654223442078,0.0,0.0,0.0,-0.0005421690258799,0.0107353440825389,-0.1195092515433757,0.540451906,0.0303696236098203,0.084159803073776,-0.0521837202976912,1.6996927148054164,-0.5699525341624272,-0.2003835642678262,0.0287342839786055,0.1024766423096883,-0.4587285112853813,-0.0019048715575422,-0.0001110199099016,0.0016488952489162,-22.55928553561371,14.096120783550644,-18.82041141361491,5.494899470250198e-05
3334,1724820312735496822,-2.1215453147888184,0.1885967403650283,0.1706233024597168,-0.0252963453531265,-0.0466625429689884,0.2274678349494934,-0.9723380208015442,0.0,0.0,0.0,0.000867018972094,-0.0183906963525467,-0.0923830306606375,0.549658235,-0.0733721267681169,-0.0032721769011081,0.0603287222973027,-6.786945180566215,-6.407836349246899,7.600047250363541,0.0281157935640831,0.1024307635374054,-0.458171346361172,-0.0029671361968368,-0.0005919756598422,-0.0003878327622954,0.5531217025093116,-0.9747972877293528,1.5088816593876175,-1.8628758096983672e-05
3336,1724820312757175965,-2.121523141860962,0.1885679811239242,0.1706810295581817,-0.0254163686186075,-0.0468085780739784,0.2275817990303039,-0.972301185131073,0.0,0.0,0.0,0.0332810935318839,0.0722204020475345,-0.1330612591547061,0.571337378,0.0082784228978543,0.0155110272215261,-0.0108199943748203,10.759629100871395,3.238877897931789,-6.73923215628406,0.028272095287938,0.1027735044980093,-0.4583975154318455,0.002986310372961,0.0007374395937329,0.0041871158115505,-17.380683346464217,-2.5282253553130474,-19.445169672192662,6.119546068008601e-05
3338,1724820312765680514,-2.1214911937713623,0.1885811388492584,0.1707217246294021,-0.0259588528424501,-0.0469087734818458,0.2279301285743713,-0.9722003936767578,0.0,0.0,0.0,-0.1775086285949174,0.0283397599306933,-0.3570477981265364,0.579841927,0.12311575040498,0.0509713759042483,-0.0796687084259139,3.1300855668843397,-0.0045209422382943,-1.586826792195042,0.0292504200620566,0.1032262919480923,-0.4590658308125548,0.0024641929164346,0.0013880004392241,0.0019075105338117,-19.09924692924401,-7.8250008334487635,-12.118533339311597,4.205154734807101e-05
3340,1724820312777729182,-2.121483564376831,0.1885951459407806,0.1706955879926681,-0.0258393269032239,-0.046810045838356,0.2278565913438797,-0.972225546836853,0.0,0.0,0.0,-0.3105658315655225,-0.1114376177353337,-0.2603500403787233,0.591890595,-0.0162345994038288,-0.0203337959528561,0.0123137476456073,-13.190140882369652,-1.6393193937224295,5.029174874164105,0.0290694186483248,0.1029770698131258,-0.4589238955910865,-0.0016566173220269,0.0009074488170899,-0.0039136871474454,34.90515823918017,7.735316017735622,64.68977857641947,-2.6385168746131244e-05
3342,1724820312785284553,-2.121506929397583,0.1886007934808731,0.1706577539443969,-0.0253814160823822,-0.0468669980764389,0.2276964783668518,-0.9722723960876464,0.0,0.0,0.0,0.1708481612561087,0.0386165894535355,0.4968662159407797,0.599445966,-0.123587574967456,-0.012447669872199,0.0379688577114812,-4.224483620170192,-0.9695990618958454,1.932663933809033,0.0281650106123439,0.1028748573071912,-0.4586383412448612,-0.0038540648380376,-0.0002735062003775,-0.0048252024994051,28.338718189290653,-2.9704989030669893,26.618982181480185,-3.987767203718122e-05
3344,1724820312795287453,-2.1215555667877197,0.1885845363140106,0.1706119030714035,-0.0251712370663881,-0.046663112938404,0.2275103479623794,-0.9723312258720398,0.0,0.0,0.0,-0.0142222606084683,-0.2934560066228719,-0.2116165261194114,0.609448866,-0.0336190273041103,-0.0488102121590382,0.0379268458254685,20.974389921145335,8.757933888563871,-9.710129872796326,0.027866369528733,0.1023761758199361,-0.4582708452137646,0.0039692609367349,0.0026941981843826,0.0083227797109755,-38.899335833801565,-30.800644451468333,-86.99370194012508,-4.8308617927572547e-05
3346,1724820312810011763,-2.1213057041168213,0.1887178272008896,0.1710141897201538,-0.0294755659997463,-0.0483215823769569,0.2298842519521713,-0.9715706706047058,0.0,0.0,0.0,-1.029092001025418,-0.6950213420391835,-1.8429239072540715,0.624173176,0.5348749566119263,0.348756141628087,-0.3154168188901877,-148.36455927867513,-105.2022526224426,90.62703141559818,0.035269905170689,0.1076554296712164,-0.4627756159623898,-0.013499960777267,-0.0144175867663101,-0.0278687529620995,34.66234300336005,49.642574598126856,119.16326175830916,0.0004091883172855
3348,1724820312815847375,-2.121454954147339,0.1885794103145599,0.1707239151000976,-0.0269959438592195,-0.0471737384796142,0.2284680008888244,-0.972033143043518,0.0,0.0,0.0,-0.5872398496901171,-0.2274379764603582,-0.6156975357785136,0.630008788,-0.7633557678394767,-0.5709221738350784,0.4785503933543579,-152.969484183983,-107.70495761097274,93.50864095733552,0.0311003026734264,0.1042329305616926,-0.4600799816140877,-0.0191414734726294,-0.0173930983176089,-0.0372009235484456,69.58252014998973,68.51897773045275,172.54677689840128,-0.0002901580749035
3350,1724820312832245288,-2.1214723587036133,0.1885856986045837,0.1706917583942413,-0.0263908952474594,-0.0469886176288127,0.2280395627021789,-0.972159206867218,0.0,0.0,0.0,0.2711283294374578,0.3613123860064595,0.4741503574988366,0.646406701,-0.0694536379058251,-0.0381217607184521,0.0514349324901078,-113.49038665979684,-68.9413479717307,19.234236480679904,0.0300473220321654,0.1035822990391654,-0.4592514906927558,-0.0112845432856829,-0.0081079365439222,-0.0019806578601873,34.597637673391915,11.558226735552694,-76.8020075662804,-3.380794908514384e-05
3352,1724820312835189198,-2.1215109825134277,0.1885573416948318,0.1706859171390533,-0.0256057810038328,-0.0467248857021331,0.2278284579515457,-0.9722424745559692,0.0,0.0,0.0,0.3636002194443219,0.3824715750954605,0.1723341153225009,0.649350611,-0.4859059933299752,-0.2946883020755492,0.1319907489924837,-103.06153274116583,-62.59147484844208,19.539680186976895,0.0286544303918511,0.1027037472066781,-0.4588866677879904,-0.010596305074614,-0.0071525737463673,-0.0014693839541122,38.95708097471031,9.80285142971995,-62.2072778158424,-6.851021800693012e-06
3354,1724820312846354692,-2.1215224266052246,0.188582494854927,0.1706913113594055,-0.0256131496280431,-0.0469879619777202,0.2277168333530426,-0.9722557663917542,0.0,0.0,0.0,1.1181250271910306,0.6026821210876169,1.1850109832755051,0.660516105,-0.0104479331048314,0.0465165064762768,0.018837045444511,21.151409915677995,10.344404414137056,-5.8743755836972475,0.0285610329339062,0.103216901159213,-0.4586603862857474,-0.0010390791959906,-0.0004280388290904,0.0003981669984138,2.6466540832102723,-6.2663598306467705,13.348011640385163,2.660158771357104e-06
3356,1724820312856105346,-2.121532678604126,0.1885554939508438,0.1706944704055786,-0.0256482288241386,-0.0468561612069606,0.227733239531517,-0.9722573161125184,0.0,0.0,0.0,0.5910479140621671,0.320284071397218,0.656528719364697,0.670266759,0.0133017548352432,-0.0247468463261836,-0.0021688742778187,39.487990743467385,22.163943768577123,-27.582427577373274,0.0286878296338978,0.1029762985541249,-0.4586885435662402,0.0120957241028918,0.0054520969747553,0.0206190384698903,-91.76642555004132,-46.196613535458305,-128.20852644977816,4.249559407828419e-06
3358,1724820312865334957,-2.1213061809539795,0.1886776387691497,0.1710620820522308,-0.0291513241827487,-0.0481372661888599,0.2299796491861343,-0.9715670347213744,0.0,0.0,0.0,-0.5853780653396867,-0.256661716144265,-1.1733578504962732,0.67949637,0.7014645648071889,0.4373017352629739,-0.4788944435379029,15.049247741648998,10.903975284392372,-12.552175436692169,0.0347097418115999,0.1071505034906528,-0.4630022429109525,0.0109459560177498,0.005937831539545,0.0142967101684234,-71.3831073186221,-33.44125481154328,-96.51876135990923,0.0003738088525655
3360,1724820312879357721,-2.1214423179626465,0.1886054575443267,0.1707185804843902,-0.0263968016952276,-0.0470111817121505,0.2286950349807739,-0.972003936767578,0.0,0.0,0.0,-0.3915963518596189,-0.1062811513564556,-0.359153869375905,0.693519134,-0.3553936758124221,-0.2440508499157616,0.1781102591486665,-13.264465961770696,-5.5491204942864885,14.405827461882083,0.0299784965047776,0.1036492294599506,-0.4606032085379645,-0.0070801487769074,-0.0042507244117118,-0.0125614261687037,36.58095034777891,25.1282935111258,57.86047999288066,-0.000347046370326
3362,1724820312889622603,-2.121495246887207,0.1885685622692108,0.1706793159246444,-0.0263186544179916,-0.0471409931778907,0.2282760292291641,-0.9720983505249025,0.0,0.0,0.0,0.1549366956971883,0.2598922143964093,0.2332552580768707,0.703784016,-0.0249076171701107,0.0223923218734732,0.0821766473803835,11.162975877667796,-2.786073340199745,-6.8117639230643245,0.0298113375232397,0.1038537863408887,-0.4597486656636696,-0.0043830838966698,-0.0006807846800214,-0.0045549522987364,14.1187101375205,1.8613396546982168,8.564252485766787,-4.0568721590844994e-05
3364,1724820312895354851,-2.1215178966522217,0.1885739862918853,0.1706508696079254,-0.0261908825486898,-0.0469171516597271,0.2281358987092971,-0.9721455574035645,0.0,0.0,0.0,0.1106288396132532,0.1623299806856335,0.1250212995907994,0.709516264,-0.0282463298362062,-0.0855861637446201,0.0512415934467666,-1.5609198937946298,-11.630969893682323,-3.302107398482884,0.0296784347435098,0.1033546729195178,-0.4594681798924523,-0.0038400566616374,0.0005276405205281,-0.0049680049531257,-4.621875605404325,-15.958986920108448,-9.828418908433818,-3.0469831963947735e-05
3366,1724820312908739689,-2.121565818786621,0.188567966222763,0.1705842018127441,-0.0256704799830913,-0.0469217300415039,0.2276418954133987,-0.9722750186920166,0.0,0.0,0.0,0.1458929325817575,-0.0181213224605068,0.2764144966175516,0.722901102,-0.0797199739591633,-0.0160490886915256,0.0725062430917374,3.477279905014925,2.752026870527469,-7.362295511294572,0.0287112470656708,0.1031116221474293,-0.4584992266227091,-0.0018624722562208,0.0011851671148797,0.0028648306358078,0.589144652059165,-12.651102385764986,-32.320273986618744,-6.96696721883999e-05
3368,1724820312915200330,-2.121572494506836,0.188580721616745,0.1706271767616272,-0.0255575980991125,-0.0469287894666194,0.2276464849710464,-0.972276508808136,0.0,0.0,0.0,0.1433204516137212,-0.0972651628910567,-0.0684562917210821,0.729361743,-0.0344183057936067,-0.0058881706365212,-0.0029721297028103,5.093240172337159,0.5272788454561104,-7.274992599931188,0.0284867805748772,0.103074131664893,-0.4585195575017458,-0.0009256956372212,0.0008583886252875,0.0036877082189139,-4.39201373144401,-8.61454483295212,-37.8091242689251,4.1291547338886096e-05
3370,1724820312925672754,-2.1215803623199463,0.1885707676410675,0.17061547935009,-0.0254654455929994,-0.0468534231185913,0.2276676148176193,-0.972277581691742,0.0,0.0,0.0,0.0295286375858119,-0.1257645961188424,-0.2000836978990693,0.739834167,-0.0136504509203594,-0.0181133806453544,-0.0043348584818452,2.2276613498071725,0.6049113243660074,0.9340177180668534,0.0283385789176688,0.1028858003828929,-0.4585705669408139,0.000546748869084,-0.0009527124653274,-0.0003533781376372,-11.677898856903449,7.127440869605531,3.300885776132601,-1.1551213444526576e-05
3372,1724820312935520519,-2.121562957763672,0.1885613650083542,0.1706190705299377,-0.0255241282284259,-0.0468601249158382,0.2275990694761276,-0.9722918272018432,0.0,0.0,0.0,-0.0929924126601989,0.0356284384941313,-0.0206168395944448,0.749681932,0.0105517701763673,0.0042556315287929,0.0147174832588988,-0.0723425877489859,-0.3190238979372787,0.1362658556492932,0.0284575777018281,0.1029235885412237,-0.4584237755718263,-0.0001910406578673,-0.0017543510892128,-0.0006032248371194,32.6039496884497,27.95688449085441,70.43343458877193,5.62172919903148e-06
3374,1724820312944906304,-2.121582269668579,0.1885377466678619,0.1706047505140304,-0.0254424847662448,-0.0467737801373004,0.2275992929935455,-0.9722980260849,0.0,0.0,0.0,0.6159743796554425,0.4015077998451578,1.1074934757765968,0.759067717,-0.0127590876641023,-0.0219119624062767,-9.128949368551552e-05,-1.1845198916336177,-0.3494276763713296,-0.7588931279808954,0.028337130166047,0.1027180255467267,-0.4584304670658168,-0.0012255183765148,-0.0003730472106706,-0.0007542026856999,20.356955287654483,3.2113333296672018,20.111545491164943,-1.4100303162379482e-05
3376,1724820312956943033,-2.121584177017212,0.1885663419961929,0.1706075817346573,-0.0254184883087873,-0.0468502379953861,0.2275756001472473,-0.9723005890846252,0.0,0.0,0.0,0.0092355470698411,-0.1120134274076644,-0.1953355376781802,0.771104446,-0.0069631667753112,0.0115249203399204,0.0034149081031427,63.845742401676695,42.52075597250021,-42.91485217807933,0.0282579634117259,0.1028555435318031,-0.4583852765233489,0.0173985953457815,0.0083858599087793,0.0299204288453651,-90.25685193717732,-47.00018671098677,-160.58172371662516,6.402324051737577e-07
3378,1724820312965167458,-2.121342420578003,0.1886690855026245,0.1710204780101776,-0.0293464828282594,-0.048430748283863,0.2300484478473663,-0.971530258655548,0.0,0.0,0.0,-0.957012344707358,-0.5229368487596521,-1.8101779243236653,0.779328871,0.8742106459836895,0.5845711787187158,-0.5923347564015614,-2.5190962110556363,-2.5937128724855647,-0.4121178715344786,0.0349491566961919,0.107814853172312,-0.4631288140991404,0.008831449110346,0.0027458936743922,0.0128952014478818,-17.612514436020305,-9.307593316006807,-18.35093133503034,0.0004215860736744
3380,1724820312975090188,-2.1215009689331055,0.188579648733139,0.1707017868757248,-0.026825912296772,-0.0474442616105079,0.2286992222070694,-0.9719702005386353,0.0,0.0,0.0,0.0638714821138604,-0.1285687298526653,0.1386528390621155,0.789251601,-0.4636074077736396,-0.3063605840123287,0.2658337533979808,-25.242215773528564,-17.7636217020746,19.495763045328168,0.0306194429169149,0.1046900768156611,-0.4605776499351972,0.0003487860923598,-0.0004938156652727,-0.0019552145459371,81.20675635652913,-9.447500609328458,86.23053847282557,-0.0003228702452527
3382,1724820312985485566,-2.121319532394409,0.1886672973632812,0.1710099428892135,-0.0294713694602251,-0.0484068505465984,0.2300912588834762,-0.9715175032615662,0.0,0.0,0.0,0.6719764743563355,-0.7625001077017467,-0.1647602334263505,0.799646979,0.4673904803437369,0.2933528710856775,-0.2610506798926162,37.81972451604098,23.85394278044791,-23.531594881686672,0.035199571770662,0.1078272388011745,-0.4632043944207829,0.0110183654218189,0.000325174066714,0.017294983846515,-15.363012742891296,-10.16106768656562,-61.87215474967665,0.0003138095415721
3384,1724820312999451247,-2.121286392211914,0.1885197460651397,0.1710197925567627,-0.0295992530882358,-0.0483267679810524,0.2306456565856933,-0.9713861346244812,0.0,0.0,0.0,-0.9283672431574828,0.0491073607115382,-1.6420869560691802,0.81361266,0.0248288274188281,-0.0083571186686168,-0.0802371556405437,-10.229491340071805,-49.738547047500205,19.400248504450143,0.0354246987305702,0.1077501603242417,-0.4643349452525346,0.0137536336619632,-0.0261080072289132,-0.0228411953773068,-84.92737287127008,202.82108678676383,244.11136366639423,2.421957067920207e-05
3386,1724820313006401062,-2.1211514472961426,0.188284546136856,0.1707796156406402,-0.0293447561562061,-0.0467729233205318,0.2304368764162063,-0.9715194702148438,0.0,0.0,0.0,-1.4160053381393245,1.9591404656433775,1.264540800955262,0.820562475,0.0279536724891736,-0.4513345208871424,0.0769094037150934,-20.460737148445688,-27.257469169719535,20.466976088179372,0.0356640215752329,0.1045964564685215,-0.463909861260606,0.0034135560672439,-0.0190509487028833,-0.0299931523130059,16.617659020336472,144.4343320171513,317.55061749725394,-0.000209792720417
3388,1724820313015441916,-2.1213088035583496,0.1882862746715545,0.1705621480941772,-0.0273451674729585,-0.0459810905158519,0.2293470203876495,-0.9718734622001648,0.0,0.0,0.0,-0.2451060044320357,1.7313355732129114,2.951364269112159,0.829603329,-0.4029564952573258,-0.2686993148585885,0.2367251348740729,8.817417050063344,48.15575494482688,-13.412107420200202,0.0322342379623164,0.1020959437864698,-0.4618423414761754,-0.0085437199619065,0.0097603558960113,0.0084148086652398,100.51799998874552,-115.49730530867018,-55.02695775261766,-0.0002284411670536
3390,1724820313025882791,-2.121291160583496,0.1885035634040832,0.1710415035486221,-0.0298398938030004,-0.0484751425683498,0.2307639718055725,-0.9713432788848876,0.0,0.0,0.0,0.4547886914037738,-0.5633676745040626,-0.5363631756414895,0.840044204,0.3701233530023758,0.5711576255499431,-0.2781727542552217,15.848304297531213,9.358433892040091,-9.094245892680195,0.0358137991503348,0.1081546848034066,-0.4645571266973142,0.0018890441036631,0.0102875849386041,0.0235919759333551,2.752307993229127,-109.20740740225337,-198.2515143428261,0.0004602100258775
3392,1724820313035436311,-2.1212713718414307,0.188509851694107,0.171071782708168,-0.0299394372850656,-0.0486448407173156,0.2308237850666046,-0.9713175296783448,0.0,0.0,0.0,-0.0808415393796413,-0.6400971775431563,-1.243308876821462,0.849597724,0.0128117140786183,0.0392043102075124,-0.013456733962597,-20.365712105559695,-31.038558495782137,14.88645289299899,0.0359236833330099,0.1085335953730738,-0.4646728588426281,0.0014746595224721,-0.0004607033863877,0.0010721365603076,-37.403789101467765,0.1919201694176067,-36.36462316018212,3.117113631931345e-05
3394,1724820313045848322,-2.121262788772583,0.1884923577308654,0.1710591465234756,-0.0299032647162675,-0.0486306734383106,0.2308429777622223,-0.9713147282600404,0.0,0.0,0.0,-0.2585149577671041,-0.5447819493627483,-1.1948823143745595,0.860009735,-0.0059253503850821,-0.0043312977004206,-0.0039616331865348,1.80985791009108,1.3858354552004484,-0.2238148427056362,0.0358573170310417,0.1084899934702218,-0.4647158965035167,0.0002077802335378,-0.00162220922331,0.000767169172013,-4.291967763378804,17.993467461031194,9.89092083086512,-1.0452443742831763e-05
3396,1724820313055569618,-2.1212663650512695,0.1884771138429641,0.1710845828056335,-0.0301760900765657,-0.0488649271428585,0.230922445654869,-0.9712756872177124,0.0,0.0,0.0,-0.1843118543053685,-0.2896347747742542,-1.0511703790282427,0.869731031,0.0444293640992909,0.0596702609831075,-0.0164459460041117,-20.708574811214895,-27.6241011190576,17.00375772541376,0.0362740661467701,0.1090754625603677,-0.4648556160979802,-0.0035473365111613,-0.010850342967986,-0.0214280200924275,16.874256697956234,59.23752222288208,102.54969125709395,2.6216456644565088e-05
3398,1724820313065475620,-2.121333599090576,0.188275933265686,0.1706296056509018,-0.0275873709470033,-0.0466064438223838,0.2292829155921936,-0.9718519449234008,0.0,0.0,0.0,0.0761273524241829,0.6301937198189749,0.850621039278134,0.879637033,-0.4220330626301016,-0.559274564173391,0.3365961669541086,-13.89136282782237,-20.01389746402866,10.11733925148925,0.0324284921963992,0.1034240329741311,-0.4616957454259655,-0.0033344461813129,-0.0070609651756861,-0.0194050330195443,-72.10095606260433,39.311252891600965,36.27155209119473,-0.0004424608786757
3400,1724820313081672576,-2.1212961673736572,0.1885124146938324,0.1710177510976791,-0.0297960452735424,-0.0481130667030811,0.23069629073143,-0.9713786840438844,0.0,0.0,0.0,-3.697411468972142,-0.1511045174141065,-2.6856279002433583,0.895833989,0.2321411462289476,0.2412417948650844,-0.1754313984219938,19.073663885685463,25.75804646673207,-15.29267642666938,0.0359021051711115,0.1074261931989388,-0.4644171436705515,-0.0006544774198893,0.009705058224267,0.0114911695883215,3553.616237746351,735.6175191550707,3501.515512273232,0.0003697047279399
3402,1724820313108010324,-2.1214404106140137,0.1885583698749542,0.1707862168550491,-0.0273053776472806,-0.0474062003195285,0.2290745824575424,-0.9718704223632812,0.0,0.0,0.0,252.067643231253,52.79403762343979,248.8484249209979,0.922171737,-0.1783741878039492,-0.0939003035252678,0.1207364593522989,-7202.69122929162,-4480.83672491223,9835.470834303223,0.0315338301134327,0.1048472952015679,-0.4613049798499524,-0.2634735888004798,-0.0450784684738891,-0.255956273232357,41712.89598975517,8177.449442201614,45056.12742051284,-0.0002450723403338
3404,1724820313108408031,-2.121546745300293,0.1885401606559753,0.1706829369068145,-0.0266608316451311,-0.0471567958593368,0.2282649576663971,-0.972090780735016,0.0,0.0,0.0,268.8493409364447,56.08330358278784,266.980791627988,0.922569444,-3.086096932419242,-1.9027935984059816,4.091371264784248,-668.3301843983753,1765.248048218236,-302.72853506431966,0.030474485951488,0.1040404347520706,-0.4596931485917858,-0.1616508075539968,-0.0237523649055901,-0.1554320752553053,15766.16879245505,2673.726751850976,19392.10405376414,-0.0001097925816068
3406,1724820313108779581,-2.121570110321045,0.188538983464241,0.170661374926567,-0.0265187136828899,-0.0473689772188663,0.2281775325536728,-0.9721049070358276,0.0,0.0,0.0,265.5330677647963,55.133985766812216,265.0914993956496,0.922940994,-1.0285799329487144,0.9446032455179943,0.4082945837856184,5239.149157162738,7222.125450508627,-9355.311695953658,0.0301092902448259,0.1043866525751612,-0.4595300275046392,-0.0573082012871744,-0.00206048805784,-0.0512989408091446,-10820.210048978322,-2920.9901042420333,-7197.257963851549,-2.3217794903124875e-05
3408,1724820313114903374,-2.1213581562042236,0.1886381804943084,0.1710268557071685,-0.0296159386634826,-0.0486077368259429,0.2301070094108581,-0.9714993834495544,0.0,0.0,0.0,8.038720771701083,0.3088263447019497,7.814349285241388,0.929064787,0.92610104331194,0.6167541048962237,-0.6205169673420932,187.32112762933653,-50.71942264182707,-96.01459810599404,0.0353883897516548,0.1082859428670753,-0.4632251616209192,0.0247699521256379,0.0077317802464929,0.0404098842306526,-27884.41092650787,-5896.3446494365735,-27875.1273437316,0.0003723144920227
3410,1724820313126636814,-2.121288776397705,0.1885385513305664,0.1710677295923233,-0.0306017454713583,-0.0488993972539901,0.2308709174394607,-0.971272885799408,0.0,0.0,0.0,-0.7149671157554679,-0.1608590035928584,-1.419075259518776,0.940798227,0.1592776505641783,0.08498354571072,-0.1286877224722754,-67.32327879566844,-63.573406268495575,44.18523099977007,0.037096366256632,0.1093371404476329,-0.4647067120322664,-0.0015101207507086,-0.0176511793580882,-0.0289033600500001,-242.63541109035577,74.44975042588503,-86.73652187983924,5.438385756443809e-05
3412,1724820313135637931,-2.1213536262512207,0.1883164197206497,0.1705839335918426,-0.0280148349702358,-0.0466573163866996,0.2296080589294433,-0.9717605113983154,0.0,0.0,0.0,0.5771246070675746,1.2997589525033917,2.63509397356279,0.949799344,-0.4603073097139485,-0.6132824799586817,0.284691782706482,-0.6247812985475107,-0.3558336442625389,0.7619887579147395,0.0332061869412002,0.103730261335049,-0.4623262899254858,0.002583153121165,-0.0052721096265422,-0.0106849882339226,63.6463207614799,46.96548653185141,178.4022608126886,-0.0004691226753607
3414,1724820313146869190,-2.121187448501587,0.1885291635990142,0.1710674166679382,-0.0311910808086395,-0.0486172214150428,0.2315144389867782,-0.9711151123046876,0.0,0.0,0.0,0.172215968566504,0.2113586956075519,0.8269110366163241,0.961030603,0.4885592287732487,0.464873193875025,-0.3396671738190788,25.628300410667016,35.68232909054525,-17.14145643576606,0.0383060781053178,0.1090844193874777,-0.4659726872398588,0.0107799155651804,0.008267450745099,0.0274741005459313,-38.81463275829354,-65.17489243684257,-164.1077949314706,0.0004758710540253
3416,1724820313158700374,-2.121109962463379,0.188493937253952,0.1711983680725097,-0.0316927917301654,-0.0493265949189662,0.2318695485591888,-0.970978319644928,0.0,0.0,0.0,-0.3214390010107577,-0.1642412660056724,-1.1534666292574758,0.972861787,0.0582393107439254,0.1353390971043399,-0.0632660405754732,-19.19466880267215,-22.048705419520356,8.377567429913443,0.0389194038115368,0.1107133335899107,-0.4666629558917344,0.005867968086477,-0.001622370293898,0.0052188065199771,17.98483731421775,-24.001023037055536,-45.49982940583102,0.0001393085035578
3418,1724820313164932316,-2.1210756301879883,0.1884882748126983,0.171211689710617,-0.031680691987276,-0.0493875481188297,0.2320493906736374,-0.9709327220916748,0.0,0.0,0.0,-0.0133550690901818,-0.2883885550548528,-1.0369139411933226,0.979093729,-0.0049954463847819,0.0169860846009411,-0.0602457771146144,-6.53889185717078,-12.891517635185432,0.831801467191168,0.038847006393312,0.110833719941756,-0.4670363550797717,0.0041724592625556,-0.0004410848990383,0.0004189061112445,38.63770815732981,-15.53591271850323,21.06490828037016,1.649586438692879e-05
3420,1724820313178328829,-2.121058225631714,0.1884958297014236,0.1711678057909011,-0.0317723043262958,-0.0495079942047596,0.2323032170534134,-0.9708629250526428,0.0,0.0,0.0,0.1932802386753772,-0.3702309355563543,-0.6866843756102357,0.992490242,0.0113084737637065,0.0199468836095999,-0.0391051021680915,7.442446297883988,-35.33168555436894,4.717062323106992,0.0389413270017863,0.1111211134366013,-0.4675526424344715,0.0114439106550605,-0.0180681870813153,-0.0211526431592243,-52.1287217684254,97.85825562757351,131.46804446120495,-4.280386014310172e-05
3422,1724820313186234726,-2.120920419692993,0.1882660537958145,0.1709171682596206,-0.031764943152666,-0.0477831810712814,0.2323264479637146,-0.970944046974182,0.0,0.0,0.0,-0.5340228542242428,0.8885004416624797,0.8440948241879154,1.000396139,0.0991932059207981,-0.425257609965487,0.0128328777017673,7.780553597194881,-11.328099303448544,2.6521867958865957,0.0397221540935189,0.1077576841775532,-0.4675836700388073,0.0113412947804363,-0.0165835272168788,-0.022272545951516,-65.56751944003301,95.9946564609216,121.55870236153334,-0.0002189591152619
3424,1724820313194723934,-2.120879650115967,0.18823903799057,0.1708140522241592,-0.0322107374668121,-0.0471912920475006,0.2323702126741409,-0.9709477424621582,0.0,0.0,0.0,-0.8497378535417339,1.1271373540951544,1.2191076327285542,1.008885347,0.1348362862816269,-0.1113621153566349,-0.0003608661336822,-1.7111351696014934,25.741290526428003,-0.4823900014979927,0.0408623692866467,0.1068131791986718,-0.4676249680007657,0.0020582649300848,-0.0026535096107584,-0.0061211991159897,-1.8989769661673108,-14.142112576445497,-13.42535556549458,-9.703460135289788e-05
3426,1724820313206484401,-2.1209001541137695,0.1882164478302002,0.1708402335643768,-0.0323305130004882,-0.0472115166485309,0.2323085218667984,-0.9709576368331908,0.0,0.0,0.0,-0.2970967564125868,0.2724259814028932,0.1227739297931687,1.020645814,0.0184288966226711,0.0083312125602553,0.0114278829397993,-11.025390735957163,1.4126656952709102,2.9218936744953408,0.0410939444118872,0.1069055901734853,-0.4674859612081622,-0.0039634517744957,0.0022316390903949,-0.002919152695787,33.184162339806534,-50.238327575643446,-45.3217010458105,2.6351871568018344e-05
3428,1724820313215395239,-2.12095046043396,0.1882643699645996,0.1707794815301895,-0.0319233052432537,-0.0471292287111282,0.2320774793624878,-0.9710303544998168,0.0,0.0,0.0,-0.0946204230400893,-0.023742991155737,0.0423272727429774,1.029556652,-0.0874270543497852,-0.0382588757770087,0.0504241987253758,-4.7416918169887285,-1.386931999189872,3.6802151305093713,0.0403615061342065,0.1065466590221893,-0.4670484015847257,-0.0051596673444578,0.0036939522558014,-0.002834499119344,17.051313935974495,-21.296627428612787,-10.271077338086284,-6.823668806574774e-05
3430,1724820313226072657,-2.120999336242676,0.1882822662591934,0.1708001792430877,-0.0316965095698833,-0.047153040766716,0.2316474169492721,-0.9711393117904664,0.0,0.0,0.0,0.0148854227593231,-0.0983689756591102,-0.083246080591,1.04023407,-0.0467338661147354,-0.0039181755003621,0.0808137934197305,0.2520607401657697,4.142238593576305,0.7625044070174045,0.0399545084625981,0.1064702143373469,-0.4661829898630902,-0.0056630319890729,0.00103706904836,-0.0019625545466404,7.19802351446768,3.5511050194840483,-6.5656612759449855,1.5312843433150045e-05
3432,1724820313235348055,-2.121060609817505,0.1882867366075515,0.170750543475151,-0.0314280241727829,-0.0474100857973098,0.2313050180673599,-0.9712170958518982,0.0,0.0,0.0,0.0570117154889044,0.0194966887152841,-0.1022867373889936,1.049509468,-0.0730731280377212,0.0419642757756953,0.0710973606311403,1.3682805197263326,-0.610093026009582,-1.7800077370243192,0.0393489195632529,0.106832994445421,-0.4655047364102405,-0.0050251720803942,0.0013370093642937,-0.0040634414678226,-53.6147130746693,11.04534846819566,-47.71932691719829,-5.4437418742849566e-05
3434,1724820313245022218,-2.121093273162842,0.188308298587799,0.1707242280244827,-0.0313346646726131,-0.0473284758627414,0.2310856878757476,-0.9712763428688048,0.0,0.0,0.0,-1.0484683654860354,0.109581545824212,-1.024709679324504,1.059183631,-0.0173774279215803,-0.0200061289247843,0.0464867133476398,0.7646258859897954,-4.027626540384539,-2.37559493491706,0.0392281395634483,0.1066219454792396,-0.4650604733307251,-0.0045922633633495,0.0013960619225761,-0.0037996492384149,-86.89513000053566,4.416092487456868,-47.69865426092901,-3.045996160857716e-05
3436,1724820313256323263,-2.1211612224578857,0.1883130818605423,0.1706670373678207,-0.030886273831129,-0.0472347661852836,0.2309517413377761,-0.9713270664215088,0.0,0.0,0.0,-1.6690659661522904,0.0948558988297879,-0.934695911491404,1.070484676,-0.0746453699495677,-0.034127498376051,0.0218626324929147,-59.833113167054634,-28.94335147093903,43.18598512315406,0.0384093396242622,0.1062269589597654,-0.4648271858726931,-0.0308731775868125,0.0040005063825319,-0.0292676357663239,117.77402127460644,-14.64803170536328,136.82774428097042,-6.248339173850113e-05
3438,1724820313265418405,-2.121623992919922,0.1883756518363952,0.1702236533164978,-0.0260166116058826,-0.0459909886121749,0.2275001853704452,-0.972343385219574,0.0,0.0,0.0,0.6661583855408553,-0.1360530014106287,1.2530232511888,1.079579818,-1.019710493174253,-0.5000849178741436,0.7467082155730737,-19.603794472714323,-0.7931671641785396,16.91412195807028,0.0298259959418517,0.1014495655749101,-0.4581589248344965,-0.0412483746206788,0.0038706330804991,-0.0281147195283804,195.98939626019992,-20.471917644682584,127.36113856646774,-0.0004812943919383
3440,1724820313275243431,-2.12192702293396,0.1883817464113235,0.1701664328575134,-0.0245861243456602,-0.0464453920722007,0.2262467890977859,-0.972651481628418,0.0,0.0,0.0,1.9468232288417175,-0.285011692820554,1.3031584995113867,1.089404844,-0.3175487280777591,0.0274481812648159,0.2465564983291686,49.61718688264595,27.336185496257777,-35.895751056120666,0.0269535987459294,0.1016503873297951,-0.4557173035130694,-0.0155258601443932,0.0012414668970635,-0.0038501762406539,8.245190166970303,2.0113004705319537,-46.37943761302766,-8.133162841817933e-05
3442,1724820313285769206,-2.121917724609375,0.1884018182754516,0.1701481640338897,-0.0244034733623266,-0.0465820915997028,0.226039782166481,-0.9726975560188292,0.0,0.0,0.0,0.6567262672253882,-0.0701960018006693,0.2344392244852473,1.099930619,-0.0416750096799079,0.0179723306805196,0.0379878105349521,12.23896009235638,0.7003301895366141,-10.156695778470423,0.0265562545345288,0.1018287724666598,-0.4553103305060951,-0.0026032485496045,-0.0019548574335406,-0.0032875611075819,-85.86316751504287,27.540711689487377,-53.76773280373084,-1.880333343977235e-05
3444,1724820313295478797,-2.121974229812622,0.1883482486009597,0.1701023429632187,-0.0242257248610258,-0.0468163453042507,0.225902110338211,-0.972722828388214,0.0,0.0,0.0,0.1517617033454881,0.2610937395333289,0.1402003677220462,1.10964021,-0.0479682335656057,0.0391081775444421,0.0258773228971585,5.623387916798491,2.9265674170897555,-4.978855847447023,0.0261172435836472,0.1022017671525305,-0.4550478748688937,-0.0013408428241632,-0.0005453086189532,0.0006098025749814,-34.92892103176883,7.337378678016679,-24.62313316902815,-4.6436555111557585e-05
3446,1724820313305257329,-2.121943235397339,0.1883918792009353,0.1701607853174209,-0.0246221646666526,-0.0471046306192874,0.2261921465396881,-0.9726314544677734,0.0,0.0,0.0,-0.0216097530952838,0.0690898062694435,-0.247483564155675,1.119418742,0.0687820671617834,0.0751093827852442,-0.0595570896703452,0.7889147082530317,-2.2539801750154824,0.3808491958637137,0.0267318957297296,0.1029513381475542,-0.455613536871353,0.0003573111270327,0.0031494099122113,-0.0005914607395052,-14.8459854177296,-24.90990813471722,-17.374212445616845,5.75874541789667e-05
3448,1724820313314913264,-2.121966600418091,0.1884097754955291,0.1700924485921859,-0.024485183879733,-0.0471183508634567,0.2260399013757705,-0.9726697206497192,0.0,0.0,0.0,-0.1374647728148509,-0.2217318412528942,-0.2028849726396659,1.129074677,-0.0299191910339903,-0.0032504663828178,0.0310573121235955,-5.010948736345662,-4.90609246010383,3.463019881636356,0.0264738822973896,0.102912002052644,-0.4553130683730977,-0.0017132376728028,0.0008726440238682,-0.004169540019542,0.1064016802979554,-10.422887307178314,14.61861540027984,-7.106803392470394e-05
3450,1724820313327075373,-2.121976613998413,0.1884053647518158,0.1700862795114517,-0.0243959538638591,-0.047054748982191,0.226142480969429,-0.972651183605194,0.0,0.0,0.0,0.0492585871259077,-0.046784882814375,0.1280933183942855,1.141236786,-0.011038793915727,-0.0137593592224043,-0.0175320322917756,-1.1969259336146592,-0.0606760601970721,1.905220655221792,0.0263171745158756,0.1027503422960012,-0.4555317806079474,-0.0022060455308121,-0.0016087404645208,-0.0040685146979253,6.028123766018457,13.642087390746047,14.648640334945911,-6.637337110109383e-06
3452,1724820313335741598,-2.122004270553589,0.1883837282657623,0.1700290292501449,-0.0242322422564029,-0.0470493249595165,0.2259863764047622,-0.9726918339729308,0.0,0.0,0.0,0.0439174494712379,0.0668554103325192,0.1774488042594148,1.149903011,-0.0383892300093662,-0.0093240838404822,0.0354149540807534,0.6842779335493072,2.397316363154555,1.1996998218421835,0.0260158900057111,0.102661538287727,-0.4552254841432127,-0.001224759204021,-0.001043194431876,-0.0022187220037874,1.2312253759549745,8.732415540071312,1.931628080158374,-5.7677970909595855e-05
3454,1724820313345462324,-2.121994733810425,0.1883894354104995,0.1700552999973297,-0.0243166163563728,-0.0472022406756877,0.2260151654481887,-0.9726756811141968,0.0,0.0,0.0,0.0760305973682622,0.103976853217058,0.1551898836584458,1.159623737,0.0101348509344024,0.0345384950764845,-0.0064581471989069,0.4718068351678637,1.0195068569836168,-2.21253269986621,0.0261088374437519,0.1029988096126692,-0.4552798217715021,-0.001553613909067,-0.0003759008291623,-0.0008863148093221,10.40971652710522,5.112126130284022,-6.243953378747429,2.6501753491039293e-05
3456,1724820313356785198,-2.1220457553863525,0.1883724778890609,0.1699979305267334,-0.0240725427865982,-0.047259334474802,0.2260247021913528,-0.972676694393158,0.0,0.0,0.0,0.2876220056420859,0.1789186897059121,0.0323392693691568,1.170946611,-0.044137729351229,1.5842501569540633e-05,-0.0038782183981119,11.516815296098104,5.158874605135377,-5.1803555246579895,0.0256045309392969,0.1030001102703059,-0.4553238891397884,0.0007562351080707,0.0012673912803382,0.0011098826205309,-2.5981363530030457,-2.919993830458389,-16.69059118692359,-6.002584016041264e-05
3458,1724820313365454470,-2.122004270553589,0.1884018182754516,0.1700485497713089,-0.0248436965048313,-0.0475258417427539,0.2264049053192138,-0.972555935382843,0.0,0.0,0.0,0.1238161396922764,0.0902913080483063,-0.1511247967213569,1.179615883,0.1639632824716819,0.0992193421378102,-0.084685435422585,6.541101286315506,0.9834366376322996,-2.2289532453293193,0.0269521351620232,0.103879272875789,-0.4560390596875708,0.0038047648754542,0.0030427585900181,0.0004347070883676,-22.73828541330006,-10.154840668141704,-4.616531261657204,5.164714648272345e-05
3460,1724820313375910938,-2.121976852416992,0.1884293258190155,0.1699849367141723,-0.0248741321265697,-0.0473999306559562,0.2265051007270813,-0.972537875175476,0.0,0.0,0.0,-0.1624179544709664,-0.0150307690558905,0.0092828687846958,1.190072351,0.0121107405793472,-0.0224159244755825,-0.0185454558440867,-6.008222563184144,-4.098188411316584,1.7052237584536996,0.0270579193112604,0.1036501835062669,-0.4562402370539611,0.0022260097157271,0.0025428366132977,-0.0020692768209329,-13.178725089580414,-5.612248018105996,4.046948223056192,-6.295112464446587e-05
3462,1724820313386325065,-2.121957778930664,0.1884548962116241,0.1700050234794616,-0.0250691697001457,-0.0474276877939701,0.2267593890428543,-0.9724722504615784,0.0,0.0,0.0,-0.1524313345698355,-0.0272165800939193,-0.0657081533354775,1.200486478,0.0378485686571267,0.0130509795005718,-0.0487059583565636,1.3464061189435474,5.146776050054939,-0.5846587731489685,0.0273996817346832,0.1037998564247942,-0.4567462951281449,0.0004159718507281,0.0027262873198861,0.0006074240554649,8.738382505305516,0.0394119353186563,-15.74136551371918,1.971695056424352e-05
3464,1724820313395501880,-2.1219654083251953,0.1884821057319641,0.1699999123811721,-0.025322264060378,-0.0477207973599433,0.2269176542758941,-0.9724145531654358,0.0,0.0,0.0,-0.0093323570026449,-0.0170739875288897,-0.2792263557127527,1.209663293,0.0411067398309826,0.0743615978122121,-0.0353796571288303,0.0102584270498466,1.0254436318480875,0.7285780260504722,0.0277449604308241,0.1044909745074362,-0.4570537985433185,-0.0008100157951105,0.0021139902657782,-0.0026053597925344,15.127728159844663,4.522073476065764,-0.4513515724332415,-7.630948956811764e-06
3466,1724820313407386999,-2.1219747066497803,0.1884941309690475,0.1699374169111251,-0.0255184210836887,-0.0476751290261745,0.2271466702222824,-0.9723581671714784,0.0,0.0,0.0,0.1632924766496882,0.0892657052553984,0.066606033834965,1.221548412,0.03592148129851,-0.0005057548776907,-0.0378584718404132,-3.1256079440910067,4.4147664181402515,0.5386462910601126,0.0281247015004597,0.1044975279637288,-0.4575061871587207,0.000991825408704,0.0026752840489567,-0.0048330928020732,-2.3169205997732245,-3.493326466719292,19.10433135464136,-6.374149344175489e-05
3468,1724820313415846614,-2.121955633163452,0.1885267794132232,0.1698990911245346,-0.0255823768675327,-0.0481015406548976,0.227252796292305,-0.9723106026649476,0.0,0.0,0.0,0.0422835397719405,-0.0151964953142161,0.1680458268679316,1.230008027,-0.0067134751787852,0.1013548837271069,-0.0288024742179177,-0.8423346322937426,6.255126131582623,0.5027153300276717,0.028044788133869,0.105361437946072,-0.4577268120714516,0.0024435930414483,0.0036835719127861,-0.0027399248999451,-14.65317229794761,-15.611155664481595,-7.17951828113299,-3.887389167733043e-05
3470,1724820313427326105,-2.121924638748169,0.1885663270950317,0.1698955297470092,-0.0259553585201501,-0.0485057011246681,0.2274320125579834,-0.972238838672638,0.0,0.0,0.0,-0.1313618176466924,-0.245230768261299,-0.2129990211271852,1.241487518,0.0490028504782252,0.0830346596383402,-0.0318761235215552,-3.556179336084661,-7.572990583564135,1.1268022250332144,0.0285713281901507,0.1063246307374881,-0.4580676057109123,0.0009143938502518,0.0014157582993838,-0.0020474523626461,-2.434356299697049,-1.5088387434315882,-9.01591205986036,-3.850923007205362e-06
3472,1724820313436155816,-2.1219286918640137,0.188565045595169,0.1698656529188156,-0.0257585644721984,-0.0484419539570808,0.227479800581932,-0.9722360372543336,0.0,0.0,0.0,-0.0666563699909445,-0.1327063642920379,-0.1284028605891109,1.250317229,-0.0395124974295421,-0.0244264413873549,-0.0124555736406159,-1.6590217644402956,-6.1776815314691325,3.684980596622823,0.0282100684123126,0.1061121542592337,-0.4581842917850368,-0.0002329313899593,-0.0010733621476521,-0.0057844556687278,6.860340863916892,19.468369320138756,24.839025101294165,-2.993881313156936e-05
3474,1724820313445252302,-2.1219286918640137,0.1885465830564499,0.1697905361652374,-0.0258461777120828,-0.0483050644397735,0.2273331880569458,-0.9722747802734376,0.0,0.0,0.0,-0.008635366075717,0.1074051300971758,0.240534217347979,1.259413715,0.023793844681274,-0.0244619601198911,0.0349861404840921,2.7787675692741254,2.489235025742259,1.3262550422757704,0.0284596829106578,0.1058807021274602,-0.4578706828536395,-0.0002462267667624,-0.0008823558125277,-0.0041895456727116,6.988753605523685,13.733675541467688,16.598626726109536,-7.333244316678637e-05
3476,1724820313457053713,-2.1219353675842285,0.1885537356138229,0.1698033809661865,-0.0258588586002588,-0.0485635697841644,0.2273756116628646,-0.9722517132759094,0.0,0.0,0.0,0.0831867483407858,0.075612105806625,0.0695843316713108,1.271215126,-0.0074214968989855,0.0430861662894184,-0.0089074298251709,0.7741694969641641,-2.257440779923588,-2.0696646183922516,0.0283624467861039,0.1063919748020506,-0.4579618881312755,-0.0004579715202908,0.0017081302096748,-0.0003526211047972,-1.3084602773019465,-9.757248561113856,-17.12272051980498,1.1697527248036495e-05
3478,1724820313465902311,-2.121938705444336,0.1885761618614196,0.1697907000780105,-0.0259204655885696,-0.0484148226678371,0.2274537831544876,-0.9722391963005066,0.0,0.0,0.0,0.0113063637861677,-0.0575877072578966,-0.0994243449119571,1.280063724,0.0221139954326238,-0.0298409462344615,-0.0162760554098791,2.1217441800464583,-0.7147678550139847,-0.0277976084600906,0.0285419673088842,0.1061321261693509,-0.4581142123697921,0.0009490659126214,0.0014225092654243,-0.0014323032595502,-13.767298315619254,-6.548121374529268,-6.294356442136848,-1.4503518399628429e-05
3480,1724820313475739798,-2.121914863586426,0.1885779947042465,0.1697766184806823,-0.0261114295572042,-0.048599936068058,0.2274920791387558,-0.9722158312797546,0.0,0.0,0.0,-0.185856345367413,-0.0289855288853395,-0.0212905066532912,1.289901211,0.0296859630306878,0.0454483028361372,-0.0077458924566769,-3.2109798878845313,-0.2717059130188402,2.031416976722957,0.0288272365262543,0.1065812125641266,-0.4581778670588841,-0.0005551534527086,0.0005791887282171,-0.0021632921305378,-12.279949931728666,0.0672554473568332,-7.512336946196257,-1.215967070123153e-05
3482,1724820313485979319,-2.1219522953033447,0.1885881125926971,0.1697466671466827,-0.0258420128375291,-0.0484416112303733,0.2273595631122589,-0.9722619652748108,0.0,0.0,0.0,-0.2288695586740194,-0.058567808210535,-0.2629302253751409,1.300140732,-0.0456190184195604,-0.0417984414924712,0.0254640328990677,-5.443770319240755,-6.385710958312052,2.329862924959876,0.0283866414490139,0.106145941204421,-0.4579280957351532,-0.0028094084019603,0.0008871213647219,-0.001816253437517,-56.55075788022849,-106.92451953055276,418.7480375794891,-3.358811997762252e-05
3484,1724820313523720327,-2.1219406127929688,0.1886075437068939,0.1698323637247085,-0.0261600445955991,-0.0486452430486679,0.2276168763637542,-0.9721830487251282,0.0,0.0,0.0,-9.645383467374677,-18.56601736408046,77.07434330303249,1.33788174,0.0147010684961609,0.014173674740705,-0.0136707851113773,13.105106625379282,564.8639883923529,91.1362101081153,0.0288880155637451,0.1066954166694272,-0.4584313329616866,-0.0126597918333573,-0.0136537907351907,-0.0530294105337816,5063.71822130882,6050.474479089415,562.5048268841929,8.47209027445173e-05
3486,1724820313524221980,-2.1219470500946045,0.1886005997657776,0.1698053926229477,-0.0261828526854515,-0.0487172827124595,0.2276072055101394,-0.9721811413764954,0.0,0.0,0.0,-7.069725652280049,-15.487164496922992,77.34661258779528,1.338383393,0.0213520117789708,0.3012959936121259,0.032662575405582,762.0133130496148,949.0596363770763,-549.0824960650175,0.028900953104382,0.1068460366166015,-0.458410512123876,-0.0175610021328793,-0.0230887175601424,-0.0138418577615198,6217.933149928729,8327.92465875564,-8944.252019258172,-2.683163616164542e-05
3488,1724820313524565817,-2.1219542026519775,0.1885904818773269,0.1698100417852401,-0.0262851621955633,-0.0488204061985015,0.2276591807603836,-0.9721609950065612,0.0,0.0,0.0,-4.676401595711013,-12.107481527200006,72.03546025250633,1.33872723,0.459818519996489,0.7163958860505563,-0.3073005103162799,1192.457614641552,1126.1847644459715,-925.3960324742202,0.0290484784032559,0.1070953088626269,-0.4585095223524524,-0.0193554369793886,-0.0276312374177414,0.0125712483729747,6614.831730036567,9403.013808320386,-15338.01821482783,4.769241328176086e-06
3490,1724820313529954540,-2.121936321258545,0.1885931938886642,0.1697975397109985,-0.0259830299764871,-0.0487181209027767,0.2275056838989257,-0.9722102284431458,0.0,0.0,0.0,1.7646506378923537,2.559813119847132,-1.4369698823550623,1.344115953,-0.1036322928770887,-0.0618290659272109,0.0550670254646884,-30.455524889502804,-73.8574473639605,24.432887552879997,0.0285208432758891,0.1067537367457991,-0.4582208862422954,0.0012568251666777,0.0003431305101386,-0.0032110228926747,408.31441750884153,1099.5352192328294,-6609.162308120719,-1.1140507607268266e-05
3492,1724820313535243218,-2.1219403743743896,0.188594177365303,0.1697759330272674,-0.0262346379458904,-0.0484269633889198,0.2276245504617691,-0.9721901416778564,0.0,0.0,0.0,-0.1606618767104745,-0.045707435827377,0.0741372216054224,1.349404631,0.1199425267821409,-0.0861969641229359,-0.0379339107454782,27.61191624546355,-1.1384327752241985,-11.567503237717869,0.0291323285588178,0.1063038295164519,-0.4584357347537909,-0.0001051114859649,0.0002225562014395,-0.0030675765349714,-260.59480165019045,-351.0338998201894,206.4817415153036,-2.188068401924413e-05
3494,1724820313548624172,-2.1219193935394287,0.1885983943939209,0.1697693467140197,-0.0262171868234872,-0.0485398508608341,0.2275478988885879,-0.9722028970718384,0.0,0.0,0.0,-0.1453558235416188,0.0519251100399187,0.1542560484814818,1.362785585,-0.0069813266348547,0.0160181411123531,0.011003203178482,-2.638961294946501,-0.1281232449187765,-0.2157495798145546,0.0290552957230207,0.1065137877362252,-0.4582814306153284,0.0010242191711427,-0.0011646399844202,-0.000483877761729,-6.283378951252741,8.338837532306869,-6.282007687655347,-5.124482704463989e-06
3496,1724820313555772900,-2.1219141483306885,0.188584417104721,0.1697659194469452,-0.0262054670602083,-0.0484895072877407,0.2275678515434265,-0.9722011089324952,0.0,0.0,0.0,-0.2186400081713743,0.1155185215643091,0.0624880849489064,1.369934313,0.0003013026486872,-0.0145612706435129,-0.0053307175456608,1.9866923048345255,1.2785986272116292,-1.1983488835196334,0.0290530588248508,0.1064108553324257,-0.4583228270440488,-0.0008923633701982,-0.0001991973854238,0.0004705512621159,3.3978221182739574,-0.1732580458051539,-13.50925636294249,-1.953801122973332e-06
3498,1724820313565057762,-2.1219420433044434,0.1886037439107895,0.169781744480133,-0.0264099556952714,-0.0487480498850345,0.2275820076465606,-0.972179353237152,0.0,0.0,0.0,-0.0224921032153369,0.0045437541654684,-0.0710508727922898,1.379219175,0.03042040581704,0.0643142342439096,-0.0033545253273785,-1.3062369783186685,1.3500185833207672,0.3774656777704841,0.0293340415370731,0.1070086632308369,-0.458336626343799,-0.0023259382996627,0.0006378285589381,0.0001942658980595,-27.87592335044593,-24.232285773049203,11.115743650217032,1.1997808445647895e-05
3500,1724820313576684908,-2.1219592094421387,0.1885901391506195,0.1697620153427124,-0.0260907933115959,-0.0486792474985122,0.2275518327951431,-0.972198486328125,0.0,0.0,0.0,-1.0600866058471152,-0.4560101229066357,0.4294550909660697,1.390846321,-0.051018739032045,-0.0240230336931723,0.0034313216622839,-4.042489371033104,-5.005430419924746,0.3467368425000783,0.02874424760705,0.106728304226762,-0.4583046783984746,-0.0006668487907717,-0.0005557876880981,-0.0012331115103783,188.78798686304387,56.37158157815324,-134.5748640853019,-2.003816601407563e-05
3502,1724820313602548129,-2.121929883956909,0.1886111050844192,0.1697567999362945,-0.0262634754180908,-0.0485812611877918,0.2275780588388443,-0.9721925258636476,0.0,0.0,0.0,19.817385594163795,6.523744955357799,-13.269578052849129,1.416709542,0.0148172127874183,-0.0043584765021723,-0.0012288228928505,1372.7635464527937,2150.3268597295887,-417.40440005121343,0.0291237134263877,0.1066165313112987,-0.4583398442380306,-0.0972795377156217,-0.0326779356327051,0.0416428912681681,1737.247632638937,622.4654095080277,-642.0508544780605,-4.2982972798972145e-06
3504,1724820313602946319,-2.121969223022461,0.1885978877544403,0.1697736382484436,-0.0264113247394561,-0.0487237721681594,0.2276119589805603,-0.972173511981964,0.0,0.0,0.0,20.514841753541457,6.773766042541682,-13.525925222467272,1.417107732,0.5698380931879885,0.8650581598606116,-0.1699928869060504,1245.4893539242364,1951.8968859185543,-377.32658416307663,0.029344446945597,0.1069628326358718,-0.4583978179140993,-0.0892440611038338,-0.0300326374828348,0.0362675652412214,1484.615298677551,538.9792703826342,-474.65568786205495,1.445293583829603e-05
3506,1724820313606717208,-2.121964693069458,0.1885975152254104,0.1696954369544983,-0.0263407826423645,-0.0486563146114349,0.2274869680404663,-0.9722080826759338,0.0,0.0,0.0,16.580183097995945,5.631000905887359,-9.276231561228371,1.420878621,-0.0319437138304216,-0.042440874312965,0.0677432567995119,-112.2711232650544,-168.55996948040053,42.65561104914709,0.029250884281826,0.1067953832437926,-0.4581457449566786,7.231366132032235e-05,0.0001692767894443,-0.015684434302992,-1284.951871873236,-399.2899695717176,1131.8065847526884,-7.732089421283033e-05
3508,1724820313615627699,-2.121987819671631,0.1886046677827835,0.1696620881557464,-0.0261617191135883,-0.0485766865313053,0.2274019867181778,-0.972236692905426,0.0,0.0,0.0,0.0453376117813777,0.0467632156925851,0.9104730092170624,1.429789112,-0.0361060132957654,-0.0263292508002323,0.0185203884560025,-0.4591163922374999,2.061103200556327,-2.90103807927123,0.0289460899288939,0.1065560565003228,-0.4579866352475673,-0.0017995255442286,0.0002701698706122,-0.0035730208781377,-969.5903150998344,-328.72172562357395,565.4859044653542,-3.5576916435684846e-05
3510,1724820313625501469,-2.1219968795776367,0.1886015087366104,0.1696286648511886,-0.0259679276496171,-0.0486043989658355,0.2273035049438476,-0.972263514995575,0.0,0.0,0.0,0.1664831571776357,0.0613165439588222,0.1727897791529937,1.439662882,-0.0405516160459117,-0.0032109303667232,0.0185761343535728,7.528901860103127,7.623773540310039,-2.177492985994878,0.0285652010405779,0.1065190884719499,-0.4578031508845965,0.0014426048175408,0.0011196575787426,0.0005068384919102,-9.228505802357455,-1.8161734329109644,-56.620147099727824,-3.374031196288574e-05
3512,1724820313635998971,-2.121955394744873,0.1886293292045593,0.1696774214506149,-0.0267734285444021,-0.049149002879858,0.2274636179208755,-0.9721768498420716,0.0,0.0,0.0,-0.1703237445676024,0.005531521260109,-0.2196703918197021,1.450160384,0.1275353817095301,0.1357744343067492,-0.0286473195563891,-1.9811361953945947,-2.620842171862807,-1.167686384457156,0.0298761287960259,0.1079525607412725,-0.4580636102736702,0.0013836371106208,0.001487456809647,-0.0003624512081845,-11.061477309274034,-6.561370035435803,-10.863590964455216,4.983998390613315e-05
3514,1724820313645007859,-2.121962785720825,0.1886337399482727,0.1696354448795318,-0.0266308858990669,-0.0491349585354328,0.2275171130895614,-0.9721689820289612,0.0,0.0,0.0,-0.1074387540912045,-0.0632220494247285,-0.1124843180720178,1.459169272,-0.0294247636298575,-0.0104613147026363,-0.0134148009042275,-9.15639340229829,-12.40394844269274,1.918985737777715,0.0295976563837956,0.107861956127348,-0.4581879562368807,-0.0014241966849084,0.0013091732038112,-0.0033995615910473,14.21648365500036,-7.3529207982847264,16.738433688902248,-4.265788247735197e-05
3516,1724820313655615860,-2.12198543548584,0.1886578649282455,0.1696151196956634,-0.0263995882123708,-0.0486758463084697,0.2274738401174545,-0.972208559513092,0.0,0.0,0.0,0.1337562738254318,-0.1377390097030084,0.1255410039153668,1.469777273,-0.0233002895290969,-0.0942215387657239,0.0097916580628739,0.7286741880466394,-0.9564947065639232,1.6804978614298718,0.0293585043894418,0.106859836696516,-0.4581132012093258,-1.2815505286312144e-05,9.600235305740056e-05,-0.0017868321695431,2.166121819465664,4.759612099542368,-10.061910929961671,-2.384484389235736e-05
3518,1724820313665227034,-2.121967077255249,0.1886398196220398,0.1695990711450576,-0.0262876506894826,-0.0484886579215526,0.2273752093315124,-0.9722440242767334,0.0,0.0,0.0,-0.0245570801627562,0.0106235807543978,-0.2541780473492271,1.479388447,-0.0149790959604228,-0.0429856904967703,0.0215270357130711,0.9881571619426708,4.779407218408588,0.4944118062689798,0.0292353829220615,0.1064408116085474,-0.4579173845869185,0.0012789005230757,-0.0014313833597472,-0.000810898316232,-5.791888815554385,3.872944241154256,-9.753657549482492,-1.3119140621399812e-05
3520,1724820313683924208,-2.1219661235809326,0.1886292845010757,0.1696151494979858,-0.0264177974313497,-0.048709899187088,0.2273328602313995,-0.972239315509796,0.0,0.0,0.0,0.2556082042526633,-0.3375598878187849,0.6457047753362701,1.498085621,0.0079477191994107,0.0263177976688991,0.0043426595259442,-320.1246880597735,-157.5655413219984,39.20097049191752,0.0293942176080198,0.1069302835245911,-0.457821232941764,-0.0049618476459727,0.00493392131483,-0.0185017917900864,44.8472326941407,-52.113338027915205,158.21893098643994,1.6832982136534583e-05
3522,1724820313685393259,-2.121973991394043,0.1886371672153473,0.1695857346057891,-0.0260261557996273,-0.0486321970820426,0.2272717803716659,-0.972268044948578,0.0,0.0,0.0,0.3249379810437089,-0.41798272912256,0.8908434824223432,1.499554672,-0.4994235223542386,-0.2237687683454901,0.0665617198891197,-293.8499489328915,-145.64541838343223,35.81158933425058,0.0286699912692721,0.106598855291666,-0.4577325263816421,-0.0045183163208939,0.0043597706273561,-0.0173694761267499,39.14307407681918,-45.24373240593121,143.352478047088,-3.046005066677546e-05
3524,1724820313695338494,-2.121962547302246,0.1886127889156341,0.1695916503667831,-0.0262309871613979,-0.0485011376440525,0.2273709774017334,-0.9722459316253662,0.0,0.0,0.0,0.1722036519725819,-0.2282609012312488,0.733222936310213,1.509499907,0.047125441233058,-0.0165664890066359,-0.0177169195737138,23.94389955324162,11.777605798842716,-2.448409008989568,0.0291193260532358,0.1064392647642416,-0.4579144753170571,0.0002632226719327,-0.001625226249768,-0.0004262649556849,-16.139531626465136,27.62076013036318,-44.998627299416654,8.603686053993697e-06
3526,1724820313705433769,-2.121968984603882,0.1886048465967178,0.16957688331604,-0.026104561984539,-0.0485785380005836,0.2272678315639495,-0.972269594669342,0.0,0.0,0.0,0.0012571054636085,0.1381346456222492,-0.0197652062161618,1.519595182,-0.0289518322285023,0.0095222167413624,0.0193162361448512,-1.054703037008569,-0.1218064722312435,0.7229336237286865,0.0288481824421854,0.1065297044349594,-0.457715649838818,-0.0011605654893429,-0.0001017584763634,-0.0029687172997476,3.1032934267977836,14.82205800364179,-20.566245286655253,-1.46303979185452e-05
3528,1724820313715713796,-2.121986389160156,0.1886109709739685,0.1695306003093719,-0.0262203011661767,-0.0484460778534412,0.2272979319095611,-0.9722660183906556,0.0,0.0,0.0,0.2429055485743199,0.0657365265783284,0.3343234513000241,1.529875209,0.0280523009520712,-0.0200573805267063,-0.0040852362692105,3.121676281044822,1.982642625752978,-3.143940019924474,0.0291314357839256,0.1063248107439631,-0.4577638480024785,0.0003418952225757,0.00118454550784,-0.0007424476119375,6.05742082098133,-7.372155083364201,9.139487327245115,-4.7881390263429745e-05
3530,1724820313725525530,-2.1219639778137207,0.1886281073093414,0.1695585250854492,-0.0264317914843559,-0.0486256927251815,0.2275060713291168,-0.9722026586532592,0.0,0.0,0.0,0.138931776248862,-0.0096833059927492,0.1870235368368425,1.539686943,0.0359862202986757,0.0449088409117297,-0.0430570379525804,-1.4654349219364369,0.2741764800087548,0.6002542911632525,0.0294407381695819,0.106777629448487,-0.4581755778650116,0.0036312819757711,0.0012733610041752,0.0036406485730662,-149.483910477772,-52.64409349159727,-68.8700074855902,2.8343263149245324e-05
3532,1724820313735341818,-2.121915102005005,0.1886359602212906,0.1696020662784576,-0.026413694024086,-0.048555202782154,0.2274708896875381,-0.972214937210083,0.0,0.0,0.0,-2.6924332115623093,-0.9679724656320244,-1.0179492176154734,1.549503231,-0.0007320047923488,-0.0147336613643832,0.0077382215429787,-2.6908275873835223,-4.007713777817484,3.318972891769046,0.0294412310866861,0.1066308327799306,-0.4581035248504232,0.0030670626992304,0.0009943106843111,0.0029260886208217,-0.2872415327992996,0.3969675642306782,-10.82095506229752,4.672548592459478e-05
3534,1724820313755417383,-2.121932029724121,0.188663899898529,0.1695988327264785,-0.026275610551238,-0.0484819859266281,0.2274856567382812,-0.9722188115119934,0.0,0.0,0.0,9.132327909171297,3.064385963612835,3.3603937775287136,1.569578796,-0.0116537122716057,-0.0102782323578516,-0.0018177520597052,2403.3050571607996,4851.843803614921,2183.6106427775653,0.0292027249815599,0.1064256362803459,-0.4581462362798607,-0.1591686782658143,-0.0570132835447338,-0.0563151775096457,1629.941270066447,587.5438067602336,597.1164134069877,-6.651065571777862e-06
3536,1724820313755683496,-2.1219749450683594,0.188648521900177,0.169583648443222,-0.0264010075479745,-0.0486285798251628,0.2274093031883239,-0.9722260236740112,0.0,0.0,0.0,9.569748324060408,3.222103031005645,3.520631214191534,1.569844909,0.6363765329576848,1.2979744707655725,0.5869737461252101,2365.967280683954,4776.416584934345,2149.735269431462,0.0293898661725733,0.1067663346180734,-0.4579790939694377,-0.1566777265444887,-0.0561768085285608,-0.0553986700362526,1595.945589604932,576.1039482489274,584.4858175553976,-1.7504334601655543e-05
3538,1724820313765051185,-2.121929168701172,0.1886534094810485,0.1696123778820037,-0.0262703094631433,-0.0484751351177692,0.2273763865232467,-0.972244918346405,0.0,0.0,0.0,8.759562035950692,3.1561876233529023,3.1740659329577148,1.579212598,-0.0201272382963826,-0.0382067948848908,0.0072578616370676,-33.67681956010282,-72.19479384730937,-33.61336598430063,0.0292074694562657,0.1064065856400915,-0.4579212842743327,0.0019693436038181,-9.517473094078356e-06,0.0028337457186129,-457.3765677252884,-148.33864020524567,-173.56084619958276,3.1965339730738777e-05
3540,1724820313775270549,-2.121941566467285,0.1886473894119262,0.1696387380361557,-0.0264824777841568,-0.0484760254621505,0.2274900823831558,-0.9722124934196472,0.0,0.0,0.0,-0.0493833105560673,0.0649579812031981,-0.1221067047391913,1.589431962,0.041576044004883,0.0093337855953323,-0.0210681185848153,-0.5403010455807786,2.5955909188232344,-1.2886242015957052,0.0296096507136242,0.1065082548450069,-0.4581348746639,0.000336614704139,0.0005867824186562,0.0013543651175016,-420.4314699064209,-152.4181052594225,-152.43987283153484,2.5622852589663725e-05
3542,1724820313785219078,-2.1219232082366943,0.1886646151542663,0.1696403473615646,-0.026361983269453,-0.0485834218561649,0.2275758385658264,-0.972190260887146,0.0,0.0,0.0,0.0443378188610797,0.0020246620756016,0.0087566893617281,1.599380491,-0.0275079854846552,0.0152399450293649,-0.0195237166443458,-2.015911549921169,1.3974921374283191,0.9741510180951876,0.0293156878525254,0.1066655100282358,-0.4583255730752449,0.0009143864335499,0.0012970162264034,0.0003590014190653,6.881148587362905,-5.500955007935779,8.75018032848564,1.8495582963445965e-06
3544,1724820313798606759,-2.1219277381896973,0.1886741518974304,0.1696487069129943,-0.0266615934669971,-0.0488448962569236,0.2275246083736419,-0.9721810221672058,0.0,0.0,0.0,0.0907103415644737,-0.0567585290659913,0.0465624870851573,1.612768172,0.0342893549735036,0.0484305363916883,0.0082711993673811,-8.10517320314184,-13.229188694954924,0.6530287811672466,0.0297886900539827,0.1073103365264721,-0.4581950214768823,0.001260461923124,7.443955430375127e-05,0.0024364892286179,-2.2716638963630684,0.3963144100683831,-12.53624492195792,7.226163108660979e-06
3546,1724820313805061987,-2.1219146251678467,0.1886726468801498,0.1696700751781463,-0.0264189876616001,-0.0486171059310436,0.2274976223707199,-0.972205400466919,0.0,0.0,0.0,0.0581941906431619,-0.0392999149198578,-0.0821712898303563,1.6192234,-0.0576267633046837,-0.0858601705151668,0.008057078903599,-7.226770202287973,-10.857366558537526,-0.3169541782385045,0.02942052042516,0.1067547975103724,-0.4581592542097368,0.0020478986891134,-0.0001843718467666,0.0023989850195045,-10.55526441914662,5.179127122167235,-14.251921405709808,2.2429997191680055e-05
3548,1724820313818233625,-2.12188720703125,0.1886715292930603,0.1696771830320358,-0.0267036240547895,-0.0488104782998561,0.2275262922048568,-0.9721811413764954,0.0,0.0,0.0,-0.2291410904031101,0.0954243912195167,-0.1169496336577627,1.632395038,0.0356475070852939,0.0384422564188231,-0.0037447669783864,-1.56658712156052,0.1199625504851349,1.006069946095118,0.0298863682134196,0.1072623673024278,-0.4581936691794249,0.0010999740455019,-0.0006806928828808,-0.0007356501105668,-0.9546101718551006,0.6404780613785446,11.453980818895705,9.415650678590127e-06
3550,1724820313829622388,-2.121884346008301,0.1886579096317291,0.1696562469005584,-0.0262708123773336,-0.0486061796545982,0.2273690551519394,-0.9722399711608888,0.0,0.0,0.0,-0.0345992129769673,0.0083046920120952,0.1522873701446366,1.643783801,-0.067353025352652,-0.0519396245384923,0.026443256306879,6.435430904038555,-3.018960980037532,-4.307970357331056,0.0291497486369785,0.1066622122382341,-0.4579084875802198,-0.0030573852203303,0.0017167904161112,-0.0008757135727393,26.873167443029928,-21.945321952541587,10.081760354432925,-1.9575309533703243e-05
3552,1724820313835556325,-2.121912717819214,0.1886771023273468,0.1696540266275406,-0.0262848939746618,-0.0484375320374965,0.2274355441331863,-0.9722325205802916,0.0,0.0,0.0,0.1551369196351244,-0.1661167076225196,0.1701909325750933,1.649717738,0.0186936427895407,-0.0546513420011817,-0.0206346356978244,6.743743688659326,-0.2644341282509999,-3.7120340662080182,0.0292465825535786,0.1063416409554593,-0.4580411549314993,-0.002241041434928,0.0011408851194767,0.0005368139002852,14.73672441855916,-16.9132898335447,-5.592812793671609,-5.943577273798302e-06
3554,1724820313845904339,-2.121890068054199,0.1886511296033859,0.1696760207414627,-0.0259666703641414,-0.048224601894617,0.2273437529802322,-0.9722731113433838,0.0,0.0,0.0,-0.0034375312947174,-0.1159161541841055,-0.0430553829516335,1.660065752,-0.0515021570076068,-0.0539130243152905,0.0171350765845686,-0.6711875903533603,3.163782086841094,1.7372958642581828,0.0287307841149572,0.1057788404929072,-0.4578791641116461,-0.0003187137035354,-0.0018243915610085,0.0010735357384836,-7.236666173023952,11.063024657726984,-8.389201086147256,2.5599674066981126e-05
3556,1724820313857167898,-2.12192440032959,0.1886389851570129,0.1696752160787582,-0.0260823406279087,-0.0483098588883876,0.227272629737854,-0.9722824692726136,0.0,0.0,0.0,0.0142051909734718,0.0848501957899013,0.0122495568642068,1.671329311,0.0158755430674405,0.0196359864317465,0.0132538916118553,2.125525880221914,3.2814870886302208,2.056300148852068,0.0289261403475199,0.1059956287126748,-0.4577227392871107,-0.0026771101163376,-0.0010379676427518,-0.0005751813560124,11.146218589032088,5.130223347110821,10.515082032598862,-2.735381061043562e-06
3558,1724820313865169253,-2.121943712234497,0.1886309087276458,0.1696677505970001,-0.0261583011597394,-0.0484020560979843,0.2271032333374023,-0.9723153710365297,0.0,0.0,0.0,0.1578416627486455,0.0537455854145189,0.128243117921772,1.679330666,0.0109630231280433,0.0274289180964816,0.0433535931035377,-1.1022444045346926,-0.9774933560002124,0.200664129433701,0.0290514618946083,0.1062049394850171,-0.4573675931913948,-0.001292582442474,-0.0002736211134228,0.0004244551069874,13.470612211921791,-3.099347190567155,5.805790073548429,-8.420161522438004e-06
3560,1724820313876498309,-2.1219403743743896,0.188639611005783,0.1696943342685699,-0.0260843839496374,-0.048333466053009,0.2271661907434463,-0.9723060131072998,0.0,0.0,0.0,0.2385740125872351,0.0312741300117252,0.0546081326045642,1.690659722,-0.0093567836803901,-0.0149477429037352,-0.0114966711259196,0.1266558237303791,0.561070462516271,-2.8289644050983527,0.0289310643808871,0.106039432217587,-0.4575034159499992,0.0002518760117169,-0.0003349406013786,0.001930418879688,-2.0453380471081104,-1.0421683389101546,-5.781004013533483,2.606494755925227e-05
3562,1724820313886523125,-2.1219382286071777,0.1886264681816101,0.1697099953889846,-0.0261554922908544,-0.0484666898846626,0.2272718399763107,-0.9722728729248048,0.0,0.0,0.0,0.1367122889225994,0.0291770917277069,0.0030296094292703,1.700684538,0.0089469876053419,0.0288351882651871,-0.0220033689180825,2.1702372056328576,-1.81836266649794,-0.6845408486981814,0.0289981524866485,0.1063347855252614,-0.4577168122550059,0.0035505399293498,0.0003040145505046,0.0017830896280273,-25.94046122007679,-4.035785522425998,-12.159503573274948,1.6700825363426716e-05
3564,1724820313895395080,-2.121880531311035,0.1886418461799621,0.169727548956871,-0.0262472014874219,-0.0482837632298469,0.2273914068937301,-0.9722514748573304,0.0,0.0,0.0,-0.2173258366735616,-0.0366734372617931,-0.1599238915801277,1.709556493,0.0309052809976795,-0.03586626497811,-0.0252222809005523,2.3566319995842537,-0.640775605006866,0.8597326464371268,0.0292475118009632,0.1060232176913777,-0.4579510115785072,0.0032532736301646,0.0002915165620649,0.0019491474585286,-21.331597886921717,-1.9605743358583505,-5.2582622270281245,2.1053357107729977e-05
3566,1724820313906928103,-2.121891736984253,0.1886235922574997,0.1697495877742767,-0.0266377888619899,-0.0485260784626007,0.2273815721273422,-0.9722310900688172,0.0,0.0,0.0,-0.1848817824699803,0.0225991698955053,-0.0240341072180796,1.721089516,0.0563094226754613,0.0564726081687787,0.0030218394540492,-11.82473572277377,-5.728442081730959,6.748113512814663,0.0299027045510091,0.106673202655373,-0.457896610957669,-0.0020090199186881,-0.0006601368873759,-0.002573490866764,18.008439510688792,2.9223882582386507,28.03289302066545,2.233046569239502e-05
3568,1724820313915769921,-2.1219165325164795,0.1886240094900131,0.1696964353322982,-0.0259536914527416,-0.0482841804623603,0.2269663214683532,-0.9723586440086364,0.0,0.0,0.0,0.0773483869591456,0.0334102841704218,0.3339813983945197,1.729931334,-0.1433293160512386,-0.0872807456510037,0.0918295489699223,-2.7771745043907785,-3.38104913387464,-1.7722669665190007,0.0287195777118605,0.1058780155352911,-0.4571031490062202,-0.0018040077139573,0.000252211293704,-0.0002907073484443,11.699296890619438,-4.318031730985214,4.419290425630044,-5.489935993498447e-05
3570,1724820313925307895,-2.1219234466552734,0.1886285245418548,0.1697525233030319,-0.0261142794042825,-0.0483133569359779,0.2271888554096222,-0.972300946712494,0.0,0.0,0.0,0.0041604766227966,-0.0647835147469212,0.0049910757110805,1.739469308,0.0339211100208489,0.0129646699323798,-0.0466517363129739,8.287307373661985,3.927419907263635,-4.903444969908295,0.0289961974355479,0.1060144642436606,-0.4575468658389219,-0.0005089939439955,-0.0001470362931721,0.0036747112690802,-9.458507892815955,0.8984475262382388,-26.730340279463327,5.485368966049704e-05
3572,1724820313936469876,-2.1219263076782227,0.188618779182434,0.1697647273540496,-0.0260400027036666,-0.0481616966426372,0.2270595133304596,-0.9723407030105592,0.0,0.0,0.0,-0.124734254413587,0.0914598765896637,-0.1919768323930106,1.750631289,-0.0080722113727904,-0.0291843124290013,0.0242185605580686,-2.7873301794042367,-2.5046985561643456,1.8308330507048984,0.0289338035839346,0.1056810228438202,-0.4572846421350131,-0.0021817636020955,-0.0011696035889521,-0.0016351264888463,4.982131751423136,7.650834921722437,13.900832357467175,1.2603398244850806e-05
3574,1724820313945471507,-2.121959924697876,0.1886060982942581,0.1697302013635635,-0.0258841197937726,-0.0480014309287071,0.2270242720842361,-0.9723610281944276,0.0,0.0,0.0,0.0401095198600679,0.1142545290319292,0.1621669558185819,1.75963292,-0.0260859369236414,-0.0425009174006529,0.0078979595345328,-0.5381488349614207,1.4771852167775832,-1.6526685990977792,0.0287053453568705,0.1052965574303088,-0.4572242737975175,-0.0031221544417547,0.0009826750239181,-0.0013035149668949,18.30613960574341,-8.282190840111138,13.783554683504624,-3.6148959403560435e-05
3576,1724820313956541934,-2.121986150741577,0.1886495351791381,0.1697502434253692,-0.0258344002068042,-0.0480937547981739,0.2270632237195968,-0.9723486304283142,0.0,0.0,0.0,0.2426775798474779,-0.1246684575326123,-0.0332157955607829,1.770703347,-0.012125008090495,0.0141045076797331,-0.0082139522627892,1.631716535226054,4.111669854936383,-0.0617000037324974,0.0285619719210349,0.1054552267873472,-0.4573111259821098,-0.0007097350216866,0.0005478070966304,0.0021980422267375,1.341638998047812,-2.8211709287177347,-19.135063246513457,1.4646453712769185e-05
3578,1724820313966102277,-2.121979236602783,0.1886269003152847,0.1697744578123092,-0.0259143952280282,-0.0482961609959602,0.2270465940237045,-0.9723404049873352,0.0,0.0,0.0,0.1155072027995522,0.003254952097922,-0.2284222802297359,1.78026369,0.0065346526532723,0.0451445156662071,0.002702912457844,1.3252358107147522,0.2835688404522025,1.0627327135550315,0.0286284969149973,0.1058859193906425,-0.457272786991692,0.001814786348234,-0.0013490380743466,-0.0010051861633337,-23.650021938659528,6.863413341618652,1.4452558629020331,2.6274014308946737e-05
3580,1724820313976674483,-2.1219472885131836,0.1886245459318161,0.1697224676609039,-0.0260018706321716,-0.0483478978276252,0.2269812375307083,-0.972350776195526,0.0,0.0,0.0,-0.255507721064226,-0.0003774748601024,0.0424683358324666,1.790835896,0.0132203188587477,0.0134994700018568,0.0130128951066956,0.0923407176748604,-0.721638947302873,-0.8368716980091995,0.028783327128026,0.1060246349882636,-0.4571303899296161,0.0012991761177545,0.0010430445208537,-0.0021734680130318,-13.219710875340253,-12.30464975475354,18.004533995968323,-4.887934934392425e-05
3582,1724820313985478409,-2.121948480606079,0.1886430084705352,0.1697234511375427,-0.0260671433061361,-0.0484405755996704,0.227013349533081,-0.9723368883132936,0.0,0.0,0.0,-0.2115280390082629,-0.1963981153037321,0.14512557504307,1.799639822,0.0100740234595896,0.0238001668068098,-0.0076398683940563,-3.7574347211451418,-3.0406228205140144,2.2044906380441796,0.0288654973097722,0.1062360149402441,-0.4571919035254557,-0.0024659701031453,-0.0006218602083656,-0.0006780704492861,22.083973616394427,-5.1308168956508595,7.728718718295351,-4.626202801955872e-07
3584,1724820313994867783,-2.121994972229004,0.1886099427938461,0.169709175825119,-0.025759994983673,-0.0482823960483074,0.2267379909753799,-0.9724172353744508,0.0,0.0,0.0,0.1669467855030668,-0.0729943925519859,0.1783225864389716,1.809029196,-0.0592533047934,-0.0469136343187411,0.058624991643294,-2.054955713971184,-1.723846885001788,1.4813533685598397,0.0283663553125187,0.1057799659280912,-0.4566512863260267,-0.002287726442077,-0.0025389034576281,0.000436925852453,16.07024468163904,12.457502201874224,-6.233256892626719,-1.56318137693499e-05
3586,1724820314005339244,-2.121987819671631,0.1885948330163955,0.1697366088628769,-0.0256712567061185,-0.048317726701498,0.2266869843006134,-0.972429633140564,0.0,0.0,0.0,0.0521611881372334,0.0494494579950083,-0.0010318393601279,1.819500657,-0.0185424980756341,0.0028555967800064,0.0090180730525852,3.902923152978529,0.9111166580123216,-2.7128257229817883,0.0281822970600472,0.105807168865104,-0.4565554368348145,0.0011884025612687,-0.0017713409583794,0.0029999175406238,-13.990778973234214,3.630363859506166,-26.545061489258643,2.8943058068547943e-05
3588,1724820314014994853,-2.121971845626831,0.188574805855751,0.1697689592838287,-0.025737278163433,-0.0481906570494174,0.2266903072595596,-0.9724335074424744,0.0,0.0,0.0,-0.1098966715907769,0.0127176904770861,-0.3411843458418135,1.829156266,0.0192773666301788,-0.0225511600752016,0.0008490307460483,1.027969017234999,-1.8065665191738445,-0.1989342043410668,0.0283686529582301,0.1055892972316511,-0.4565534631839373,-0.0007991076071931,-0.0015062291209479,0.0008015933457494,-2.1072530475713043,-2.4831992380902235,-13.622279500668938,3.4908104517421714e-05
3590,1724820314027613600,-2.1220223903656006,0.1885651648044586,0.1697370409965515,-0.025600166991353,-0.0480164214968681,0.2266354709863662,-0.9724584221839904,0.0,0.0,0.0,0.1055466897990274,0.003167571014071,-0.1567676974639481,1.841775013,-0.0153926250681567,-0.0317469847935739,0.0090103131945926,-4.896388943795498,-2.915470093988679,6.171969786970713,0.0281852355977836,0.1051856140175312,-0.4564504749608798,-0.0006036439929175,-0.0015888132141537,-0.0053756615562612,0.4739292885949013,2.844701404969634,31.70016240547467,-3.517316642895314e-05
3592,1724820314035410573,-2.1220107078552246,0.1885488033294677,0.1696814149618148,-0.0253160633146762,-0.0478180609643459,0.2263124585151672,-0.9725508689880372,0.0,0.0,0.0,0.0292719495693806,0.042698523668127,0.1727104760368951,1.849571986,-0.0639222521436878,-0.0650137258546086,0.0837515645964635,-1.8888912806516005,-0.765612938517704,3.1285373634181357,0.0277540846931105,0.1046606427566228,-0.4558083785977025,0.0006531631873372,-0.0015173260582779,-0.0049948407262165,-12.236408251693492,5.154124887461371,24.847842629791295,-5.3187812968057176e-05
3594,1724820314048049226,-2.1220197677612305,0.1885415315628051,0.1696621179580688,-0.0253153778612613,-0.0477998182177543,0.226368561387062,-0.9725387692451476,0.0,0.0,0.0,-0.1756504222351217,0.1095623879645454,0.1300907403655744,1.862210639,0.001020832033686,-0.0029653228570768,-0.008999718862477,-4.4722522232620445,1.5416176151487515,-0.1461095845187083,0.0277549380679096,0.1046263446899156,-0.4559237868106265,-0.001679500794097,-0.0002907506951608,-0.0002743387673636,2.314835884993358,-1.6831367624914917,-12.524292250717975,-1.940715999563357e-05
3596,1724820314055310899,-2.12203598022461,0.1885406076908111,0.1696653515100479,-0.0250613875687122,-0.0478362329304218,0.2262862175703048,-0.9725626707077026,0.0,0.0,0.0,-0.0815337495381568,0.0682443983969336,0.0009583006823259,1.869472312,-0.0715536617151849,-0.0058219691302739,0.0199487230763035,-1.304051938531323,3.269937084944626,1.46318939290165,0.0272504167742089,0.1045800898810383,-0.4557793114775267,-0.0029178190536072,0.0005570625732413,-0.0003452203927389,19.332283721186144,-8.137979063345497,-2.7054504577129608,1.955083770737394e-06
3598,1724820314064912839,-2.122072696685791,0.1885546445846557,0.1696520000696182,-0.0252627599984407,-0.0481440611183643,0.2262744158506393,-0.972545087337494,0.0,0.0,0.0,0.1849894455367788,-0.0409781848005294,0.1664083255553631,1.879074252,0.0262584739328277,0.0720868698813348,0.0019615483104118,3.6837641267997623,-1.7207060267338936,-1.0101372915430014,0.0275065311239073,0.1052715030967042,-0.4557413872124735,-0.0025707933741045,0.000596471057598,-0.000199921340422,8.099156077590418,-11.14873356402108,1.2445427886129332,-1.7286614597739113e-05
3600,1724820314075196447,-2.1220853328704834,0.1885512471199035,0.169663056731224,-0.0251628831028938,-0.0478829741477966,0.226274162530899,-0.9725606441497804,0.0,0.0,0.0,0.0517705340940025,-0.1531347752116505,0.0031383106715193,1.88935786,-0.0074803874685671,-0.053922904365085,0.0010801212170274,0.079312827431162,-0.6759554132415895,-0.0809293692265005,0.0274291719446277,0.1047168891160852,-0.4557455527966502,0.0009709308942262,-0.0003214552488071,0.0031774612336352,-15.131950770411036,0.4919974159794877,-21.372842001961818,1.0198850591381271e-05
3602,1724820314085446380,-2.1220529079437256,0.1885480433702469,0.1697171032428741,-0.025367422029376,-0.0481370948255062,0.2262720167636871,-0.9725431799888612,0.0,0.0,0.0,-0.1255766742443961,-0.0316421572081649,-0.2720822445636118,1.899607793,0.0276611114407232,0.0574286434760275,0.0002994602164176,-5.19692392629332,-3.0088947485495803,3.904778259859008,0.0277147246181979,0.1053051989605708,-0.4557260592137612,-0.0014880843395417,-0.0025436332802044,-0.0001136085958624,0.1099108524641168,11.995699328766282,-3.4030834191904575,5.661808992892771e-05
3604,1724820314095108453,-2.122109651565552,0.1885031461715698,0.1696669459342956,-0.0248025115579366,-0.047778096050024,0.2259114384651184,-0.9726593494415284,0.0,0.0,0.0,0.0340742758085359,0.085560716556781,-0.0914014940643929,1.909269866,-0.1011113372133654,-0.0979935383364478,0.074285836172094,-1.5088055966049951,-4.070653849899606,-1.8639941283272037,0.0268105534335083,0.1043391803546338,-0.4550306295364317,-0.0016601166476988,-0.0011629643737993,-0.0022962000983186,3.284212312615253,0.1842397576640215,11.638426659940468,-5.1369233155037624e-05
3606,1724820314106087887,-2.122075319290161,0.1885338425636291,0.1696778535842895,-0.0249534305185079,-0.0477885529398918,0.2262651771306991,-0.9725727438926696,0.0,0.0,0.0,-0.0950452906408305,-0.0614591112987868,-0.0517212123949923,1.9202493,0.0297792039267304,0.0072188697633447,-0.0649725916646808,-3.351016629131521,2.1227606342511125,6.053980740608813,0.0270630244180481,0.1044376233323785,-0.4557454865305786,-0.0006387345051734,-0.0009388911017715,-0.001621769856932,-6.215478173763706,3.282387857348489,-3.161799476287566,1.1494163225058678e-05
3608,1724820314114852928,-2.1221072673797607,0.1884994804859161,0.1696453392505645,-0.0244984775781631,-0.0477686524391174,0.2257376164197921,-0.9727078080177308,0.0,0.0,0.0,-0.1107268495997427,0.08397548757671,-0.1268469254964079,1.929014341,-0.1064578512349034,-0.0263740379133679,0.1192022990985036,-4.590178241492009,-2.4162197037674704,6.531953201304468,0.0262386093453139,0.1041786813487849,-0.4547014769375688,-0.0027877998484058,-0.0020504312918223,-0.0028668335560722,-1.1958339463400716,14.679294659094776,-8.775727359491883,-3.256373952405236e-05
3610,1724820314125500539,-2.1221258640289307,0.1885018348693847,0.1696257144212722,-0.0243875123560428,-0.047609943896532,0.2257310152053833,-0.97271990776062,0.0,0.0,0.0,-0.1157859755899969,0.2155275411585185,-0.2229347005515456,1.939661952,-0.0136597789424866,-0.0337807855730913,0.0014538244232657,3.1775372150958434,-0.4973641340793613,-4.112009710198812,0.0260937981749497,0.103818714483824,-0.4546953786744289,-0.0022276113634376,0.0015701835738965,-0.0040208210763008,-12.373319262216846,-0.9188734840509064,-4.950830063013375,-2.1192540057519724e-05
3612,1724820314135623481,-2.122153043746948,0.1885307133197784,0.1695640534162521,-0.0241804849356412,-0.0474646873772144,0.2255958020687103,-0.9727635383605956,0.0,0.0,0.0,-0.355549932496042,0.0784756602947168,-0.2338475890495225,1.949784894,-0.0347907403506378,-0.0369074832653498,0.0266837784407751,3.419022429903043,0.016749880528208,-0.646239329085832,0.0257686889802243,0.1034382232396163,-0.4544336306764141,-0.005020386214511,0.0025536316191239,-0.0073800655503193,-22.439933815306897,-9.564236177073909,-10.81296808556905,-6.550141825252603e-05
3614,1724820314146747979,-2.12223744392395,0.1885554641485214,0.1694661974906921,-0.0245162080973386,-0.047201532870531,0.2257209569215774,-0.9727389812469482,0.0,0.0,0.0,-0.589959307321219,0.0206672295549475,-0.4731474172773277,1.960909392,0.0705613937037513,-0.0327403685870453,-0.0188750738717202,-8.528376807287255,-6.952510969641681,0.5093074562596722,0.0265309142368244,0.1030796328493029,-0.4546542969842312,-0.0099496078010474,0.0031983322855602,-0.0087834736971821,12.069655820066838,-8.209388950158742,-6.051094483500627,-0.0001058264878428
3616,1724820314155821602,-2.122345209121704,0.1885916888713836,0.1693865954875946,-0.0237488225102424,-0.0466805025935173,0.2256200611591339,-0.9728065133094788,0.0,0.0,0.0,-0.2351717179355645,-0.0761195965134619,-0.4136359737476268,1.969983015,-0.1400270842746337,-0.1500515296413462,0.01982461771473,-18.73809897803413,-9.609767470020218,12.275951429080816,0.0252752123118937,0.1017139087317857,-0.4545089320714311,-0.0163895873616155,0.0031099111461188,-0.0156446724171228,55.30643936783267,-9.086429777534738,40.47151829666999,-9.023475079183588e-05
3618,1724820314165456654,-2.122549295425415,0.188612625002861,0.169165551662445,-0.0222834516316652,-0.0459759496152401,0.2245503515005111,-0.9731221795082092,0.0,0.0,0.0,0.4635102676906338,-0.1474983624757012,0.3232783845894259,1.979618067,-0.2748282695443567,-0.2086842718593413,0.2200650717513583,5.375537636423651,5.659083393087551,-0.2163395341293463,0.0228364828421274,0.0996528011978639,-0.4524270171030297,-0.013799992071128,0.0016974003358605,-0.0161255389213668,36.015787518584744,6.16279418263041,56.23199029451702,-0.0002374494259497
3620,1724820314174912758,-2.1226112842559814,0.1886242628097534,0.1690763235092163,-0.0220357775688171,-0.0458080507814884,0.2244391292333603,-0.9731614589691162,0.0,0.0,0.0,0.4653527757437015,0.0367233539450335,0.6670780533659165,1.989074171,-0.044268593710218,-0.0461773414109232,0.0231400557945342,11.794578969392612,7.686569126252689,-9.40729972592094,0.0224387147809179,0.0992113147009689,-0.4522171601655442,-0.0076096907202014,0.0002943149844654,-0.0096052359756706,-5.54947958609316,21.288123987864964,10.151474747696906,-9.44190597426834e-05
3622,1724820314186109621,-2.1227104663848877,0.1886151432991027,0.16896653175354,-0.0215144827961921,-0.0454300753772258,0.2240524441003799,-0.9732798933982848,0.0,0.0,0.0,0.3270572769462141,0.2990322367406469,0.433302149928578,2.000271034,-0.0790926168913667,-0.086048098199398,0.069186855790771,6.191202610438035,9.34305684003024,-6.1671587053841845,0.0216277287888349,0.0982310037776184,-0.4514601750261549,-0.0049087240711571,0.0031595996671001,-0.002433773855909,-19.807282825153067,-14.24049281904803,-39.715751782059314,-0.0001164840717722
3624,1724820314194635172,-2.1227266788482666,0.1886678785085678,0.1689936369657516,-0.0217200294137001,-0.0457231402397155,0.2242598831653595,-0.9732138514518738,0.0,0.0,0.0,0.1097881931341517,-0.0668962888003502,-0.0275782442432225,2.008796585,0.0340710698778048,0.0773732293808919,-0.0501223372358719,6.226538731516769,4.37969438976444,-7.615066954706604,0.0218773773524835,0.0988997964625197,-0.4518750812025852,-0.0015631978313166,0.0059890051013535,-8.459534697102811e-05,-23.676985176496153,-33.937687031312365,-32.37594839081095,2.2370449847434596e-05
3626,1724820314205643679,-2.12273907661438,0.1887310147285461,0.1689463108778,-0.0216177776455879,-0.045271947979927,0.2245023995637893,-0.9731813073158264,0.0,0.0,0.0,-0.1251675133496918,-0.3127998409890999,-0.0757773206338463,2.019805092,0.0024466455425925,-0.0846285458464178,-0.0432745376068025,-2.7260532042349976,-4.5637092630597405,6.449233091607059,0.0218552634712327,0.097978801280018,-0.4523741415754019,-0.0043719719541712,-0.0004157745283386,-0.0046969730573191,-7.415591386548394,10.823357523149165,5.9119496671733405,-5.199987020843221e-05
3628,1724820314215479461,-2.1228106021881104,0.1886728703975677,0.1688966155052185,-0.0214787255972623,-0.0450969710946083,0.2241599559783935,-0.9732714295387268,0.0,0.0,0.0,-0.0757108676769476,0.0850743221736222,0.0728023227607486,2.029640874,-0.0230772609461839,-0.0402975364479599,0.0713679513665948,0.545855647310343,3.617856302527682,1.349867328440018,0.0216962693532163,0.097567250189007,-0.451677639970246,-0.0044608451017609,-0.0011284117359586,-0.0024262151542018,0.2166593179600529,26.20227567427834,10.15344370058531,-5.1430858206446616e-05
3630,1724820314226577357,-2.1228249073028564,0.188720241189003,0.168902575969696,-0.0215744972229003,-0.0450133793056011,0.2243974953889846,-0.9732185006141664,0.0,0.0,0.0,-0.1335568049397844,0.1974336152981289,0.1234680515582035,2.04073877,0.0223103320697917,-0.0112822189422928,-0.0427000598646584,-5.231162187269826,-7.189681020585078,5.103256722342388,0.0218972586507978,0.0974524105581975,-0.4521564620437546,-0.0061359804374205,0.001788292241331,-0.0035975430798629,12.910325418432468,7.74496951441021,14.224203611746336,1.8696835978744588e-06
3632,1724820314235354277,-2.1229124069213867,0.1887187212705612,0.1688423007726669,-0.0210785884410142,-0.044481661170721,0.2239285111427307,-0.9733617901802064,0.0,0.0,0.0,0.1055517172891764,0.2488942985976753,0.3153582154660416,2.04951569,-0.0883028099921562,-0.1424395944915376,0.1088598246332335,0.8215161158209963,2.1694335092627384,-0.2457271293131033,0.0212123861198091,0.0961819198451529,-0.4512237762985863,-0.0071875232463867,0.0030673100117528,-0.0009242149650869,9.347811390373002,-5.947051676703412,-10.483160446723014,-6.664134961887578e-05
3634,1724820314244770318,-2.1229519844055176,0.1887803375720977,0.1688936352729797,-0.0213696919381618,-0.044663667678833,0.2242574393749237,-0.9732713103294371,0.0,0.0,0.0,0.0128005112996162,0.073593153459383,-0.1101033352437268,2.058931731,0.0550403373226516,0.0508570224995229,-0.0703724345192895,6.401209417215042,6.136710448241328,-6.846676267696188,0.0216675581339394,0.0966748749028057,-0.4518789754040691,-0.0039171300865348,0.006453093146117,0.002154027294547,-15.84891493483672,-20.262713365468414,-34.80498525162953,4.4223914270323274e-05
3636,1724820314255528148,-2.122990608215332,0.1888486444950103,0.1688762754201889,-0.0213796906173229,-0.0443301685154438,0.2242378145456314,-0.9732908606529236,0.0,0.0,0.0,-0.2314268514278931,-0.1646133090490248,-0.3569534638154789,2.069689561,0.0154727848906451,-0.0600114897065052,0.0057740159253086,-9.720443356889469,-7.84428827095914,6.862280901207098,0.0218386566869123,0.0960280833476473,-0.4518306938588829,-0.0078909626630689,0.003729829824385,-0.0044017576450077,10.54727296768398,1.428130128179951,9.962639014532572,-2.4439115183879457e-05
3638,1724820314265473340,-2.1231086254119873,0.1888616532087326,0.1688068658113479,-0.0206050407141447,-0.0439165011048316,0.2238712161779403,-0.9734107851982116,0.0,0.0,0.0,0.1791622796853655,0.0662977148217432,0.0446877693457089,2.079634753,-0.1367525356891038,-0.1153930516465012,0.0720352466314932,0.5179307530784607,0.6533577306066749,1.3260379650270762,0.020544872696164,0.0948655687526137,-0.451135671633461,-0.0089241241400799,0.0029066503697698,-0.0056307813949683,22.149084716085525,9.376777850693326,23.58408676966095,-7.886195444302734e-05
3640,1724820314275618014,-2.123168706893921,0.1889076828956604,0.1687636971473693,-0.0207206420600414,-0.0436575897037982,0.223733589053154,-0.973451554775238,0.0,0.0,0.0,0.2058341077565569,0.0181872260372931,0.1100773065575504,2.089779427,0.0322546089778147,-0.0443783567503356,0.030263475985378,5.399415807232596,1.915578706339094,-4.817926413786363,0.0209003327749074,0.0944090877866095,-0.4508366600670526,-0.004177558046905,0.0051218117830273,-0.0034361804101834,-2.5459886388721005,-11.418962257411192,11.47747554427155,-5.0272818366691635e-05
3642,1724820314285294434,-2.1231930255889893,0.1889626383781433,0.1687380075454712,-0.0205455441027879,-0.0433381646871566,0.2238442450761795,-0.9734441041946412,0.0,0.0,0.0,0.1334327017318086,-0.15393029419294,0.2675803482527774,2.099455847,-0.0194282425224637,-0.072772298629081,-0.0228206064097621,-4.137286554420331,0.8286232571113014,-0.015577796009218,0.020690128422944,0.093709657103743,-0.4510731250210912,-0.0046045157375829,0.0034502753890421,-0.0033517184185765,7.013616729961232,-4.5022131816098785,18.620675041674932,-3.066406799988692e-05
3644,1724820314297311752,-2.123279571533203,0.1889708340167999,0.1686873286962509,-0.02025250159204,-0.0433608442544937,0.2234887778759002,-0.9735310077667236,0.0,0.0,0.0,0.434061448609146,-0.0097610588089066,0.5263292205398319,2.111473165,-0.0511807996151329,-0.0066539909756865,0.0586344517456523,8.103249622487823,8.459010223822682,-7.263861240646872,0.0201411003157561,0.0936153447682898,-0.4503672676003718,-0.0003510710303373,0.0018812206836198,0.003727117422704,-2.437168147118829,44.33373593978368,-1.7417817504648667,-5.745202695105047e-05
3646,1724820314305386242,-2.1232452392578125,0.1889925301074981,0.1687605232000351,-0.0205943919718265,-0.0436069667339324,0.2237945795059204,-0.973442554473877,0.0,0.0,0.0,0.2654396771582087,0.5236484355171849,0.3860019158790267,2.119547655,0.0725461276558744,0.0776912696762538,-0.0761993953213936,12.571950090648407,8.434670816826221,-13.69426221607855,0.020670123754519,0.094255079452359,-0.4509722491264921,0.0035884197006819,0.0024578071905326,0.0076366636218035,118.64861628740576,-2244.4360857586976,403.1117168132025,7.415894412023043e-05
3648,1724820314346211394,-2.1232357025146484,0.189045563340187,0.1687774807214737,-0.0209681559354066,-0.0436684787273407,0.2241076380014419,-0.973359763622284,0.0,0.0,0.0,33.91071351730611,-568.0262612528654,103.63856260462612,2.160372807,0.0179021136493345,0.0068922094694191,-0.015100528947272,-1796.382441463462,-10870.352624775873,-7379.981354079764,0.021343180956547,0.0945493369583199,-0.4515853903632569,-0.0314926816990919,0.1171848008573306,0.0031288424180502,-76598.6882770297,582704.2751900223,-36529.125042400614,1.4396246067328205e-05
3650,1724820314346467180,-2.123243808746338,0.1890757232904434,0.1687782853841781,-0.0208221357315778,-0.043338906019926,0.2243509590625763,-0.9733215570449828,0.0,0.0,0.0,14.19376345829584,-418.022503796616,94.23232896421813,2.160628593,-0.4444641068838147,-2.791009878646648,-1.9146260122794032,-2152.282965378323,-1729.203897800727,5832.324513201001,0.0211818002011967,0.0938460060066348,-0.4520924253319043,-0.0227630734298145,-0.029023188169674,0.0298044041350635,-103547.10919641532,1067554.2775539812,-127887.0672749542,-1.6161863982789418e-06
3652,1724820314346731091,-2.1232473850250244,0.1890280544757843,0.1687934100627899,-0.0206766426563262,-0.0432677567005157,0.2239311784505844,-0.97342449426651,0.0,0.0,0.0,-20.339267600994447,-5.27926815381649,35.671932125572816,2.160892504,-1.106322463159895,-0.73974283004658,3.2348144133859313,2243.517705817504,8280.902702339888,5317.1307988696535,0.0209696860114743,0.0936328331718592,-0.4512392860123549,-0.0244453108393827,-0.0975249233649435,0.0519350914006793,-94548.58262725968,1284429.1643123028,-203601.4325876164,1.762958430662238e-05
3654,1724820314347062518,-2.123260021209717,0.1890303194522857,0.1688083857297897,-0.0210128426551818,-0.0435684658586978,0.2240820974111557,-0.9733691215515136,0.0,0.0,0.0,-36.565570680246395,304.0749121035751,-24.193225175477412,2.161223931,1.6148473383538149,2.216347357977396,-0.9110840471450588,7944.960401741915,8629.47908531671,-12109.779154026965,0.0214778960830626,0.0943736279440591,-0.4515268315604026,-0.036998746176911,0.0065625446618274,0.0437025130673296,-47287.34033548022,902862.87897552,-174834.17233473677,1.381595238142496e-05
3656,1724820314357187518,-2.12328577041626,0.1890127956867218,0.168792188167572,-0.020632516592741,-0.0433937050402164,0.2238969355821609,-0.9734276533126832,0.0,0.0,0.0,1.6916244343653355,-0.2579396798613422,-2.1160830782936406,2.171348931,-0.0672264711236015,-0.0501709449478496,0.0356441926234112,-76.57930217477978,-104.36360351696348,40.992380117414235,0.0208302721885337,0.0938581235248013,-0.4511751881642414,-0.0016027356199401,-0.0027624141594468,-0.0012599726041777,1632.3245056600244,-13762.872937017426,1127.928089447378,-1.701578108570645e-05
