seq,stamp,px,py,pz,ox,oy,oz,ow,lx,ly,lz,ax,ay,az
752,1724815050865296002,-1.8452664613723755,-0.45062658190727234,0.19719161093235016,-0.0044137053191661835,-0.044594019651412964,0.4835495054721832,-0.8741691708564758,0.0,0.0,0.0,0.0,0.0,0.0
754,1724815050867834423,-1.8452380895614624,-0.4506007134914398,0.19726361334323883,-0.004356417804956436,-0.04470000043511391,0.48373472690582275,-0.874061644077301,0.0,0.0,0.0,0.0,0.0,0.0
756,1724815050879068772,-1.8452329635620117,-0.45058056712150574,0.19729508459568024,-0.004287725780159235,-0.044899266213178635,0.4839630126953125,-0.8739253282546997,0.0,0.0,0.0,0.0,0.0,0.0
758,1724815050887904469,-1.8452616930007935,-0.45057040452957153,0.19729341566562653,-0.0041379621252417564,-0.04501660168170929,0.4838937819004059,-0.8739583492279053,0.0,0.0,0.0,0.0,0.0,0.0
760,1724815050899363332,-1.8452717065811157,-0.4505719840526581,0.19728229939937592,-0.00412306422367692,-0.044929470866918564,0.4837948679924011,-0.8740176558494568,0.0,0.0,0.0,0.0,0.0,0.0
762,1724815050907903260,-1.845252275466919,-0.4505643844604492,0.19732356071472168,-0.004095282405614853,-0.04499248415231705,0.483926385641098,-0.8739417195320129,0.0,0.0,0.0,0.0,0.0,0.0
764,1724815050933381269,-1.8452465534210205,-0.45056694746017456,0.1973285675048828,-0.0039583249017596245,-0.04511508345603943,0.4840095639228821,-0.8738899827003479,0.0,0.0,0.0,0.0,0.0,0.0
766,1724815050933689630,-1.8452541828155518,-0.45057836174964905,0.19730181992053986,-0.004002456087619066,-0.045049384236335754,0.48382508754730225,-0.8739954233169556,0.0,0.0,0.0,0.0,0.0,0.0
768,1724815050941059539,-1.8452460765838623,-0.45057281851768494,0.19726598262786865,-0.003958535846322775,-0.04495890811085701,0.48373761773109436,-0.8740485906600952,0.0,0.0,0.0,0.0,0.0,0.0
770,1724815050947996597,-1.8452244997024536,-0.4505879878997803,0.19726450741291046,-0.004140243865549564,-0.04512980580329895,0.48367443680763245,-0.8740739226341248,0.0,0.0,0.0,0.0,0.0,0.0
772,1724815050957951261,-1.8452138900756836,-0.45057612657546997,0.19725576043128967,-0.003929191268980503,-0.04517161473631859,0.4836786687374115,-0.8740703463554382,0.0,0.0,0.0,0.0,0.0,0.0
774,1724815050981961906,-1.8451673984527588,-0.45053431391716003,0.1972968876361847,-0.003872678382322192,-0.04539802670478821,0.4840637743473053,-0.8738457560539246,0.0,0.0,0.0,0.0,0.0,0.0
776,1724815050982678711,-1.8451693058013916,-0.4505435824394226,0.1972762942314148,-0.003885261481627822,-0.04520921781659126,0.4838520884513855,-0.8739726543426514,0.0,0.0,0.0,0.0,0.0,0.0
778,1724815050987603901,-1.845130205154419,-0.4505520462989807,0.19723916053771973,-0.0038640934508293867,-0.04520725831389427,0.4837833642959595,-0.8740109205245972,0.0,0.0,0.0,0.0,0.0,0.0
780,1724815050999016358,-1.8450851440429688,-0.4505469799041748,0.19726209342479706,-0.00387560180388391,-0.04538878798484802,0.4837706983089447,-0.8740084171295166,0.0,0.0,0.0,0.0,0.0,0.0
782,1724815051008065052,-1.8450088500976562,-0.45054110884666443,0.197321817278862,-0.00391943845897913,-0.045640405267477036,0.4840182960033417,-0.8738580346107483,0.0,0.0,0.0,0.0,0.0,0.0
784,1724815051017710187,-1.8449461460113525,-0.4505282938480377,0.19734549522399902,-0.003789774142205715,-0.04587966948747635,0.48411834239959717,-0.8737906813621521,0.0,0.0,0.0,0.0,0.0,0.0
786,1724815051029317966,-1.844894289970398,-0.45054182410240173,0.197365403175354,-0.0038737328723073006,-0.04588569328188896,0.4841662347316742,-0.8737634420394897,0.0,0.0,0.0,0.0,0.0,0.0
788,1724815051037475127,-1.8448693752288818,-0.4505540132522583,0.1973418891429901,-0.003614133922383189,-0.045730218291282654,0.4841463267803192,-0.8737837672233582,0.0,0.0,0.0,0.0,0.0,0.0
790,1724815051050472644,-1.8448134660720825,-0.45054754614830017,0.1973581463098526,-0.0035411922726780176,-0.045864999294281006,0.48431819677352905,-0.8736817240715027,0.0,0.0,0.0,0.0,0.0,0.0
792,1724815051058355073,-1.8447719812393188,-0.45052847266197205,0.19735628366470337,-0.0038278193678706884,-0.04599396139383316,0.4843320846557617,-0.8736661076545715,0.0,0.0,0.0,0.0,0.0,0.0
794,1724815051068232679,-1.8447608947753906,-0.45054495334625244,0.19735375046730042,-0.003930809907615185,-0.04589880630373955,0.4842984676361084,-0.8736891746520996,0.0,0.0,0.0,0.0,0.0,0.0
796,1724815051078596940,-1.8447550535202026,-0.4505392014980316,0.19734050333499908,-0.003895675530657172,-0.045777253806591034,0.48423048853874207,-0.873733401298523,0.0,0.0,0.0,0.0,0.0,0.0
798,1724815051088089897,-1.8447707891464233,-0.45053425431251526,0.19734954833984375,-0.003608620958402753,-0.04574492201209068,0.48415589332580566,-0.8737776279449463,0.0,0.0,0.0,0.0,0.0,0.0
800,1724815051097731607,-1.84475576877594,-0.4505235254764557,0.19735844433307648,-0.003792569972574711,-0.04585336148738861,0.4843057096004486,-0.8736882209777832,0.0,0.0,0.0,0.0,0.0,0.0
802,1724815051108879722,-1.8448138236999512,-0.4505448639392853,0.1973191201686859,-0.00390259874984622,-0.04568241909146309,0.4840224087238312,-0.8738536834716797,0.0,0.0,0.0,0.0,0.0,0.0
804,1724815051143264852,-1.8448125123977661,-0.4505200684070587,0.19735835492610931,-0.0037230998277664185,-0.045913178473711014,0.48407530784606934,-0.8738130331039429,0.0,0.0,0.0,0.0,0.0,0.0
806,1724815051143945863,-1.844841480255127,-0.45054128766059875,0.19732412695884705,-0.003889323677867651,-0.0458863191306591,0.4839872419834137,-0.8738625049591064,0.0,0.0,0.0,0.0,0.0,0.0
808,1724815051144302100,-1.8448487520217896,-0.45052361488342285,0.1973683387041092,-0.0037767121102660894,-0.04600890725851059,0.48421430587768555,-0.8737307786941528,0.0,0.0,0.0,0.0,0.0,0.0
810,1724815051147750974,-1.844849944114685,-0.4504922926425934,0.1973859965801239,-0.003883186262100935,-0.0461161844432354,0.4843936264514923,-0.8736252188682556,0.0,0.0,0.0,0.0,0.0,0.0
812,1724815051158017110,-1.8449293375015259,-0.4505481719970703,0.19732820987701416,-0.004186627455055714,-0.045748692005872726,0.48412662744522095,-0.8737910985946655,0.0,0.0,0.0,0.0,0.0,0.0
814,1724815051167970598,-1.8449667692184448,-0.4505484700202942,0.19730600714683533,-0.003964334726333618,-0.04566097632050514,0.48391297459602356,-0.8739151358604431,0.0,0.0,0.0,0.0,0.0,0.0
816,1724815051179121256,-1.8450253009796143,-0.4505859315395355,0.19729411602020264,-0.0040834033861756325,-0.045479923486709595,0.4838162362575531,-0.873977541923523,0.0,0.0,0.0,0.0,0.0,0.0
818,1724815051187632558,-1.8450475931167603,-0.4505751132965088,0.19731447100639343,-0.004137660376727581,-0.04557226598262787,0.4838332533836365,-0.8739631175994873,0.0,0.0,0.0,0.0,0.0,0.0
820,1724815051203408589,-1.845077633857727,-0.4505856931209564,0.1972510814666748,-0.004299438092857599,-0.04536180570721626,0.4837384521961212,-0.8740257620811462,0.0,0.0,0.0,0.0,0.0,0.0
822,1724815051207840444,-1.8450993299484253,-0.4505847096443176,0.1972314417362213,-0.004025878384709358,-0.045324213802814484,0.48371270298957825,-0.8740432262420654,0.0,0.0,0.0,0.0,0.0,0.0
824,1724815051218074035,-1.8450970649719238,-0.45057758688926697,0.19723312556743622,-0.003963198978453875,-0.04536638408899307,0.4838049113750458,-0.8739902377128601,0.0,0.0,0.0,0.0,0.0,0.0
826,1724815051229373066,-1.845099687576294,-0.45058584213256836,0.19718323647975922,-0.00441591115668416,-0.04523271694779396,0.4837057888507843,-0.8740499019622803,0.0,0.0,0.0,0.0,0.0,0.0
828,1724815051237762676,-1.8450545072555542,-0.45053210854530334,0.19723524153232574,-0.004303464666008949,-0.04554226994514465,0.4839880168437958,-0.8738781213760376,0.0,0.0,0.0,0.0,0.0,0.0
830,1724815051247709648,-1.8450531959533691,-0.45054179430007935,0.1972278505563736,-0.004273057449609041,-0.04541846737265587,0.4839784502983093,-0.8738900423049927,0.0,0.0,0.0,0.0,0.0,0.0
832,1724815051258777116,-1.8450381755828857,-0.45052996277809143,0.1972382813692093,-0.0040530068799853325,-0.0454886220395565,0.48406997323036194,-0.8738367557525635,0.0,0.0,0.0,0.0,0.0,0.0
834,1724815051269456012,-1.8450335264205933,-0.450534850358963,0.197213813662529,-0.003845542436465621,-0.045627858489751816,0.48393070697784424,-0.8739075660705566,0.0,0.0,0.0,0.0,0.0,0.0
836,1724815051278398688,-1.8450161218643188,-0.450531542301178,0.19719448685646057,-0.003955033142119646,-0.0453447662293911,0.48398521542549133,-0.8738915920257568,0.0,0.0,0.0,0.0,0.0,0.0
838,1724815051288559059,-1.8449798822402954,-0.4505203664302826,0.19724254310131073,-0.003919781651347876,-0.045567892491817474,0.4839516282081604,-0.8738987445831299,0.0,0.0,0.0,0.0,0.0,0.0
840,1724815051299562118,-1.844938039779663,-0.4505496323108673,0.19723652303218842,-0.003980596084147692,-0.04570595547556877,0.48398399353027344,-0.8738734126091003,0.0,0.0,0.0,0.0,0.0,0.0
842,1724815051308808501,-1.844829797744751,-0.4505012035369873,0.1973053514957428,-0.0037202173843979836,-0.0459703728556633,0.48419031500816345,-0.8737463355064392,0.0,0.0,0.0,0.0,0.0,0.0
844,1724815051317776146,-1.8447442054748535,-0.4504946768283844,0.19737116992473602,-0.003496428020298481,-0.04626908525824547,0.4844569265842438,-0.8735836744308472,0.0,0.0,0.0,0.0,0.0,0.0
846,1724815051329488572,-1.844673752784729,-0.45048969984054565,0.19738644361495972,-0.0032481695525348186,-0.046295907348394394,0.48451197147369385,-0.8735527396202087,0.0,0.0,0.0,0.0,0.0,0.0
848,1724815051338383291,-1.8446462154388428,-0.45052045583724976,0.19733498990535736,-0.0033340658992528915,-0.04623977839946747,0.4842105209827423,-0.873722493648529,0.0,0.0,0.0,0.0,0.0,0.0
850,1724815051347937848,-1.8446085453033447,-0.45053285360336304,0.19734466075897217,-0.0034158348571509123,-0.046149954199790955,0.48418328166007996,-0.8737419843673706,0.0,0.0,0.0,0.0,0.0,0.0
852,1724815051358241152,-1.8445533514022827,-0.45053255558013916,0.19729405641555786,-0.003657722845673561,-0.04627160355448723,0.48422178626060486,-0.8737131953239441,0.0,0.0,0.0,0.0,0.0,0.0
854,1724815051367829390,-1.8445322513580322,-0.45053207874298096,0.19727115333080292,-0.003641035407781601,-0.046334244310855865,0.48403170704841614,-0.8738153576850891,0.0,0.0,0.0,0.0,0.0,0.0
856,1724815051378327512,-1.8445132970809937,-0.4505532383918762,0.19725744426250458,-0.0037890609819442034,-0.046247754245996475,0.48407450318336487,-0.8737955689430237,0.0,0.0,0.0,0.0,0.0,0.0
858,1724815051388387574,-1.844495177268982,-0.4505438804626465,0.19727078080177307,-0.0033891182392835617,-0.04633229970932007,0.48410072922706604,-0.873778223991394,0.0,0.0,0.0,0.0,0.0,0.0
860,1724815051403460250,-1.844468593597412,-0.4505423307418823,0.1972748190164566,-0.003670347621664405,-0.04635874554514885,0.4841780364513397,-0.8737328052520752,0.0,0.0,0.0,0.0,0.0,0.0
862,1724815051407934068,-1.8444958925247192,-0.4505431652069092,0.19726049900054932,-0.003383141942322254,-0.04626322537660599,0.4841427206993103,-0.8737586140632629,0.0,0.0,0.0,0.0,0.0,0.0
864,1724815051419691814,-1.8445322513580322,-0.4505355656147003,0.1972176432609558,-0.0036220073234289885,-0.04604116827249527,0.4840508699417114,-0.8738202452659607,0.0,0.0,0.0,0.0,0.0,0.0
866,1724815051429094556,-1.8445320129394531,-0.4505433738231659,0.19724781811237335,-0.003633058862760663,-0.046261996030807495,0.48409873247146606,-0.8737820386886597,0.0,0.0,0.0,0.0,0.0,0.0
868,1724815051437882795,-1.844520092010498,-0.4504952132701874,0.19726847112178802,-0.0034724536817520857,-0.04622920975089073,0.4843144714832306,-0.873664915561676,0.0,0.0,0.0,0.0,0.0,0.0
870,1724815051449278230,-1.844557762145996,-0.45052477717399597,0.19723781943321228,-0.0035957484506070614,-0.04618025943636894,0.48407548666000366,-0.8737993836402893,0.0,0.0,0.0,0.0,0.0,0.0
872,1724815051457702516,-1.8445967435836792,-0.4505510926246643,0.1972227692604065,-0.003816327778622508,-0.046079471707344055,0.48403534293174744,-0.8738259673118591,0.0,0.0,0.0,0.0,0.0,0.0
874,1724815051468073257,-1.8446131944656372,-0.45054835081100464,0.19722995162010193,-0.0037387232296168804,-0.04602952301502228,0.48406943678855896,-0.8738101720809937,0.0,0.0,0.0,0.0,0.0,0.0
876,1724815051480823838,-1.84462571144104,-0.45053279399871826,0.19721101224422455,-0.003828823333606124,-0.045889247208833694,0.4841666519641876,-0.8737632036209106,0.0,0.0,0.0,0.0,0.0,0.0
878,1724815051488164017,-1.8446260690689087,-0.45052722096443176,0.19726641476154327,-0.0036576881539076567,-0.045955754816532135,0.48416265845298767,-0.8737627267837524,0.0,0.0,0.0,0.0,0.0,0.0
880,1724815051499785405,-1.8446658849716187,-0.450548380613327,0.19723087549209595,-0.0035954562481492758,-0.04597645625472069,0.4841410517692566,-0.8737738132476807,0.0,0.0,0.0,0.0,0.0,0.0
882,1724815051507673500,-1.8446614742279053,-0.45053982734680176,0.19725613296031952,-0.0037379758432507515,-0.04592789337038994,0.4843863844871521,-0.8736397624015808,0.0,0.0,0.0,0.0,0.0,0.0
884,1724815051517743898,-1.8446662425994873,-0.450520396232605,0.1972794085741043,-0.0036172443069517612,-0.04609477519989014,0.4844154417514801,-0.8736155033111572,0.0,0.0,0.0,0.0,0.0,0.0
886,1724815051530977933,-1.8447027206420898,-0.45053449273109436,0.19721762835979462,-0.0039002196863293648,-0.04596904665231705,0.484234094619751,-0.8737214207649231,0.0,0.0,0.0,0.0,0.0,0.0
888,1724815051540130514,-1.8447240591049194,-0.4505552649497986,0.1972036063671112,-0.003627399681136012,-0.045868050307035446,0.4842083752155304,-0.8737420439720154,0.0,0.0,0.0,0.0,0.0,0.0
890,1724815051548731120,-1.844733476638794,-0.45054155588150024,0.19720359146595,-0.003689402248710394,-0.045806460082530975,0.48411184549331665,-0.8737986087799072,0.0,0.0,0.0,0.0,0.0,0.0
892,1724815051557981752,-1.844763994216919,-0.45054903626441956,0.19714516401290894,-0.0036387313157320023,-0.04593440890312195,0.4838240146636963,-0.8739514350891113,0.0,0.0,0.0,0.0,0.0,0.0
894,1724815051567685257,-1.8447301387786865,-0.4505448043346405,0.19718633592128754,-0.003363995812833309,-0.04601277410984039,0.48416733741760254,-0.8737582564353943,0.0,0.0,0.0,0.0,0.0,0.0
896,1724815051577991374,-1.8446990251541138,-0.4505211114883423,0.19713371992111206,-0.003691490041092038,-0.045936912298202515,0.4840446710586548,-0.8738288879394531,0.0,0.0,0.0,0.0,0.0,0.0
898,1724815051588067120,-1.8446903228759766,-0.45051267743110657,0.19713811576366425,-0.0034115260932594538,-0.045906372368335724,0.4840707778930664,-0.8738171458244324,0.0,0.0,0.0,0.0,0.0,0.0
900,1724815051600679127,-1.8446288108825684,-0.4504975974559784,0.19714179635047913,-0.003200191305950284,-0.046005550771951675,0.4840971827507019,-0.873798131942749,0.0,0.0,0.0,0.0,0.0,0.0
902,1724815051609733323,-1.8445781469345093,-0.45049813389778137,0.1971677839756012,-0.0034483543131500483,-0.04598033428192139,0.4841640293598175,-0.8737614750862122,0.0,0.0,0.0,0.0,0.0,0.0
904,1724815051617749052,-1.8445239067077637,-0.4505002498626709,0.19714461266994476,-0.003527676919475198,-0.04594563692808151,0.48411157727241516,-0.8737920522689819,0.0,0.0,0.0,0.0,0.0,0.0
906,1724815051631169596,-1.8444448709487915,-0.4504632353782654,0.1971816122531891,-0.0031612301245331764,-0.046353716403245926,0.4843020439147949,-0.8736663460731506,0.0,0.0,0.0,0.0,0.0,0.0
908,1724815051656647594,-1.8443948030471802,-0.4504702389240265,0.1971830129623413,-0.0032325147185474634,-0.046358417719602585,0.48432114720344543,-0.8736552596092224,0.0,0.0,0.0,0.0,0.0,0.0
910,1724815051657014710,-1.8443547487258911,-0.4504777789115906,0.1972239911556244,-0.0032003039959818125,-0.04648776352405548,0.484345018863678,-0.8736352324485779,0.0,0.0,0.0,0.0,0.0,0.0
912,1724815051657822742,-1.8442790508270264,-0.45042791962623596,0.19723768532276154,-0.0030609117820858955,-0.046681128442287445,0.4845792055130005,-0.8734955787658691,0.0,0.0,0.0,0.0,0.0,0.0
914,1724815051669883102,-1.8443121910095215,-0.4504757821559906,0.19719885289669037,-0.003303737146779895,-0.04645330831408501,0.484164297580719,-0.8737368583679199,0.0,0.0,0.0,0.0,0.0,0.0
916,1724815051686396360,-1.8442827463150024,-0.450470894575119,0.19723203778266907,-0.003398734610527754,-0.04660770297050476,0.48416680097579956,-0.8737268447875977,0.0,0.0,0.0,0.0,0.0,0.0
918,1724815051688277690,-1.844254732131958,-0.45046254992485046,0.19724619388580322,-0.003187880152836442,-0.04692920669913292,0.4844067692756653,-0.8735774755477905,0.0,0.0,0.0,0.0,0.0,0.0
920,1724815051698238905,-1.8442631959915161,-0.45045873522758484,0.19721202552318573,-0.0035509103909134865,-0.046704426407814026,0.4843599796295166,-0.8736141324043274,0.0,0.0,0.0,0.0,0.0,0.0
922,1724815051707713392,-1.844292163848877,-0.45049893856048584,0.1971740573644638,-0.0035081305541098118,-0.04665428400039673,0.484198659658432,-0.8737062811851501,0.0,0.0,0.0,0.0,0.0,0.0
924,1724815051717830609,-1.8442528247833252,-0.45045581459999084,0.19722376763820648,-0.0034850449301302433,-0.04677465558052063,0.48449504375457764,-0.8735356330871582,0.0,0.0,0.0,0.0,0.0,0.0
926,1724815051729289315,-1.8442801237106323,-0.4504428803920746,0.19720664620399475,-0.003291085595265031,-0.046809516847133636,0.4843769669532776,-0.8736000061035156,0.0,0.0,0.0,0.0,0.0,0.0
928,1724815051740253209,-1.8442915678024292,-0.4504640996456146,0.1972169280052185,-0.0036085406318306923,-0.0465858168900013,0.4843038022518158,-0.8736512660980225,0.0,0.0,0.0,0.0,0.0,0.0
930,1724815051748083414,-1.8443121910095215,-0.45046859979629517,0.19723519682884216,-0.003412671387195587,-0.046625226736068726,0.4843018054962158,-0.8736510872840881,0.0,0.0,0.0,0.0,0.0,0.0
932,1724815051759757856,-1.8443328142166138,-0.4504846930503845,0.19720937311649323,-0.0036983501631766558,-0.046474069356918335,0.48420852422714233,-0.8737096786499023,0.0,0.0,0.0,0.0,0.0,0.0
934,1724815051768489784,-1.844375491142273,-0.45048096776008606,0.19720558822155,-0.0035683128517121077,-0.04643649980425835,0.4840388000011444,-0.8738062381744385,0.0,0.0,0.0,0.0,0.0,0.0
936,1724815051779100386,-1.8443794250488281,-0.45046406984329224,0.19723208248615265,-0.003493537660688162,-0.04647514596581459,0.48415297269821167,-0.8737412691116333,0.0,0.0,0.0,0.0,0.0,0.0
938,1724815051788748825,-1.8444215059280396,-0.45048338174819946,0.19721440970897675,-0.0034953465219587088,-0.046390123665332794,0.4838840961456299,-0.8738946914672852,0.0,0.0,0.0,0.0,0.0,0.0
940,1724815051799087889,-1.8444331884384155,-0.45047077536582947,0.1972082108259201,-0.0037320090923458338,-0.04625368490815163,0.48398923873901367,-0.873842716217041,0.0,0.0,0.0,0.0,0.0,0.0
942,1724815051807928648,-1.844415545463562,-0.4504574239253998,0.19724182784557343,-0.0033364652190357447,-0.046390511095523834,0.48422205448150635,-0.8737080097198486,0.0,0.0,0.0,0.0,0.0,0.0
944,1724815051818017830,-1.8444210290908813,-0.450453519821167,0.19721975922584534,-0.00333756604231894,-0.046362120658159256,0.4840923249721527,-0.8737815022468567,0.0,0.0,0.0,0.0,0.0,0.0
946,1724815051828611742,-1.8444350957870483,-0.4504852890968323,0.19718778133392334,-0.0033404717687517405,-0.04629617929458618,0.4839572608470917,-0.8738597631454468,0.0,0.0,0.0,0.0,0.0,0.0
948,1724815051838682946,-1.8444340229034424,-0.45045894384384155,0.19718174636363983,-0.003282784251496196,-0.04626154154539108,0.4839116632938385,-0.8738870620727539,0.0,0.0,0.0,0.0,0.0,0.0
950,1724815051848706674,-1.8444122076034546,-0.45047280192375183,0.1971798688173294,-0.003472022246569395,-0.04628898948431015,0.48402225971221924,-0.8738236427307129,0.0,0.0,0.0,0.0,0.0,0.0
952,1724815051858551963,-1.8443546295166016,-0.4504333734512329,0.1972467601299286,-0.0032318097073584795,-0.04652388393878937,0.4843946099281311,-0.8736057877540588,0.0,0.0,0.0,0.0,0.0,0.0
954,1724815051868382563,-1.844343662261963,-0.45046478509902954,0.19718973338603973,-0.0036424833815544844,-0.04647819697856903,0.4841432273387909,-0.8737459182739258,0.0,0.0,0.0,0.0,0.0,0.0
956,1724815051886254874,-1.8442775011062622,-0.4504413902759552,0.19721932709217072,-0.003614392364397645,-0.04647712782025337,0.48441433906555176,-0.8735957741737366,0.0,0.0,0.0,0.0,0.0,0.0
958,1724815051888438346,-1.8442497253417969,-0.4504407048225403,0.19720995426177979,-0.0035340599715709686,-0.046761345118284225,0.4843718409538269,-0.8736044764518738,0.0,0.0,0.0,0.0,0.0,0.0
960,1724815051897797498,-1.8441728353500366,-0.450400173664093,0.1972903460264206,-0.003606699872761965,-0.0471675768494606,0.48484715819358826,-0.873318612575531,0.0,0.0,0.0,0.0,0.0,0.0
962,1724815051908040578,-1.844153881072998,-0.45039689540863037,0.19727647304534912,-0.003543155500665307,-0.04706389829516411,0.4847409725189209,-0.8733834624290466,0.0,0.0,0.0,0.0,0.0,0.0
964,1724815051974925475,-1.844091534614563,-0.4503845274448395,0.19731467962265015,-0.003319059032946825,-0.04739368334412575,0.484882116317749,-0.873288094997406,0.0,0.0,0.0,0.0,0.0,0.0
966,1724815051975454966,-1.844037413597107,-0.45035088062286377,0.19736751914024353,-0.0032253279350697994,-0.047454070299863815,0.48502442240715027,-0.8732061982154846,0.0,0.0,0.0,0.0,0.0,0.0
968,1724815051975811298,-1.844006896018982,-0.45035967230796814,0.19735129177570343,-0.003037169110029936,-0.04755772277712822,0.4849528670310974,-0.8732408881187439,0.0,0.0,0.0,0.0,0.0,0.0
970,1724815051976150682,-1.8439913988113403,-0.4503650367259979,0.19728723168373108,-0.0031933675054460764,-0.04751588776707649,0.4847390651702881,-0.873361349105835,0.0,0.0,0.0,0.0,0.0,0.0
972,1724815051976660989,-1.8440388441085815,-0.4504251480102539,0.19718216359615326,-0.003291871165856719,-0.046995025128126144,0.4841211140155792,-0.8737318515777588,0.0,0.0,0.0,0.0,0.0,0.0
974,1724815051977007020,-1.8439843654632568,-0.4503950774669647,0.19725485146045685,-0.0033418256789445877,-0.047226231545209885,0.4844084680080414,-0.8735600113868713,0.0,0.0,0.0,0.0,0.0,0.0
976,1724815051979454028,-1.8439651727676392,-0.4503844380378723,0.19724451005458832,-0.003148716175928712,-0.04740951210260391,0.4844329059123993,-0.8735371828079224,0.0,0.0,0.0,0.0,0.0,0.0
978,1724815051987785199,-1.8439277410507202,-0.45036083459854126,0.19727186858654022,-0.0033940591383725405,-0.047416411340236664,0.48469188809394836,-0.8733922243118286,0.0,0.0,0.0,0.0,0.0,0.0
980,1724815052002608523,-1.8439569473266602,-0.4503844082355499,0.19719108939170837,-0.0031067512463778257,-0.04727226123213768,0.484332412481308,-0.8736004829406738,0.0,0.0,0.0,0.0,0.0,0.0
982,1724815052007616150,-1.8439033031463623,-0.4503585398197174,0.19724389910697937,-0.0032104691490530968,-0.047454528510570526,0.48468878865242004,-0.8733925819396973,0.0,0.0,0.0,0.0,0.0,0.0
984,1724815052017897071,-1.8439191579818726,-0.450385719537735,0.1971912384033203,-0.0032319941092282534,-0.04729403182864189,0.48456045985221863,-0.8734723925590515,0.0,0.0,0.0,0.0,0.0,0.0
986,1724815052031272730,-1.843913197517395,-0.45038026571273804,0.19718794524669647,-0.0034301509149372578,-0.04709974676370621,0.4844723641872406,-0.8735309839248657,0.0,0.0,0.0,0.0,0.0,0.0
988,1724815052037786818,-1.843900203704834,-0.45039069652557373,0.1971772015094757,-0.0035061929374933243,-0.04708702117204666,0.4844660460948944,-0.8735349178314209,0.0,0.0,0.0,0.0,0.0,0.0
990,1724815052078435445,-1.8438820838928223,-0.4503704905509949,0.19720487296581268,-0.003195681842043996,-0.04725257307291031,0.48466363549232483,-0.8734174966812134,0.0,0.0,0.0,0.0,0.0,0.0
992,1724815052079263756,-1.843961238861084,-0.450492262840271,0.19706933200359344,-0.004162812139838934,-0.046176984906196594,0.48408734798431396,-0.8737905025482178,0.0,0.0,0.0,0.0,0.0,0.0
994,1724815052079685834,-1.8438912630081177,-0.45037612318992615,0.19708284735679626,-0.003461997490376234,-0.046185605227947235,0.4848807454109192,-0.873353123664856,0.0,0.0,0.0,0.0,0.0,0.0
996,1724815052080131342,-1.843996286392212,-0.4504185914993286,0.1966230422258377,-0.002039011800661683,-0.043731365352869034,0.4845605194568634,-0.8736615777015686,0.0,0.0,0.0,0.0,0.0,0.0
998,1724815052088163052,-1.8439877033233643,-0.45043766498565674,0.1963033825159073,-0.001720306696370244,-0.0424787700176239,0.4847983419895172,-0.8735921382904053,0.0,0.0,0.0,0.0,0.0,0.0
1000,1724815052099050803,-1.8438725471496582,-0.45031192898750305,0.19621603190898895,-0.0015421293210238218,-0.043349623680114746,0.4857158362865448,-0.8730399012565613,0.0,0.0,0.0,0.0,0.0,0.0
1002,1724815052107721114,-1.8440102338790894,-0.4503713548183441,0.19558028876781464,-0.0002152828237740323,-0.04097466170787811,0.48543667793273926,-0.8733111619949341,0.0,0.0,0.0,0.0,0.0,0.0
1004,1724815052117649854,-1.8440742492675781,-0.45043328404426575,0.19504155218601227,0.0015732665779069066,-0.03983797878026962,0.48567643761634827,-0.8732290863990784,0.0,0.0,0.0,0.0,0.0,0.0
1006,1724815052128222844,-1.8441088199615479,-0.4505561292171478,0.19447627663612366,0.00218245224095881,-0.03879449516534805,0.4859296679496765,-0.8731337189674377,0.0,0.0,0.0,0.0,0.0,0.0
1008,1724815052138182323,-1.8440502882003784,-0.4506811201572418,0.19411681592464447,0.004977560136467218,-0.03948387876152992,0.486942857503891,-0.8725268244743347,0.0,0.0,0.0,0.0,0.0,0.0
1010,1724815052167514072,-1.844017744064331,-0.4509672224521637,0.1936923861503601,0.004916129633784294,-0.03926285728812218,0.48690852522850037,-0.872556209564209,0.0,0.0,0.0,0.0,0.0,0.0
1012,1724815052168971515,-1.8439710140228271,-0.4512445330619812,0.19338664412498474,0.0055079273879528046,-0.03908882662653923,0.48714298009872437,-0.872429609298706,0.0,0.0,0.0,0.0,0.0,0.0
1014,1724815052170267025,-1.8438527584075928,-0.45148950815200806,0.1932690441608429,0.005703301634639502,-0.0390285849571228,0.48751136660575867,-0.8722252249717712,0.0,0.0,0.0,0.0,0.0,0.0
1016,1724815052178752881,-1.8436734676361084,-0.45174476504325867,0.1932111233472824,0.005888727959245443,-0.039043229073286057,0.487797349691391,-0.8720634579658508,0.0,0.0,0.0,0.0,0.0,0.0
1018,1724815052244962339,-1.8435579538345337,-0.45212414860725403,0.19305826723575592,0.006416856776922941,-0.0384707935154438,0.48712795972824097,-0.8724592924118042,0.0,0.0,0.0,0.0,0.0,0.0
1020,1724815052245382181,-1.8432550430297852,-0.45222994685173035,0.19299286603927612,0.006685434374958277,-0.039064858108758926,0.4877316355705261,-0.8720934987068176,0.0,0.0,0.0,0.0,0.0,0.0
1022,1724815052245653213,-1.8430196046829224,-0.45245519280433655,0.19295649230480194,0.006997790187597275,-0.03911447525024414,0.4881952404975891,-0.8718293905258179,0.0,0.0,0.0,0.0,0.0,0.0
1024,1724815052245928368,-1.8428683280944824,-0.4527283012866974,0.19275690615177155,0.0060821338556706905,-0.0381193608045578,0.48788750171661377,-0.8720526099205017,0.0,0.0,0.0,0.0,0.0,0.0
1026,1724815052246211527,-1.8427116870880127,-0.4529695510864258,0.19256949424743652,0.005876988172531128,-0.037573013454675674,0.48758068680763245,-0.8722493052482605,0.0,0.0,0.0,0.0,0.0,0.0
1028,1724815052246482902,-1.8422712087631226,-0.4529436230659485,0.1926395148038864,0.005716561805456877,-0.03994995355606079,0.4887959659099579,-0.871464192867279,0.0,0.0,0.0,0.0,0.0,0.0
1030,1724815052263641107,-1.8418852090835571,-0.45287272334098816,0.19270353019237518,0.005232807248830795,-0.04063895717263222,0.48984891176223755,-0.8708440065383911,0.0,0.0,0.0,0.0,0.0,0.0
1032,1724815052264649523,-1.8416818380355835,-0.45299336314201355,0.19242295622825623,0.004150534514337778,-0.03967474028468132,0.4894278943538666,-0.8711309432983398,0.0,0.0,0.0,0.0,0.0,0.0
1034,1724815052268521699,-1.8413790464401245,-0.45292431116104126,0.19226813316345215,0.004573855549097061,-0.040026161819696426,0.489782452583313,-0.8709133863449097,0.0,0.0,0.0,0.0,0.0,0.0
1036,1724815052279404020,-1.8411002159118652,-0.4528942108154297,0.19210393726825714,0.0049637132324278355,-0.04033784940838814,0.49009692668914795,-0.8707200288772583,0.0,0.0,0.0,0.0,0.0,0.0
1038,1724815052289201537,-1.8407319784164429,-0.452776163816452,0.19200338423252106,0.005362002179026604,-0.04118349403142929,0.490634948015213,-0.8703749179840088,0.0,0.0,0.0,0.0,0.0,0.0
1040,1724815052302752343,-1.8403855562210083,-0.4527547359466553,0.19186146557331085,0.005539356730878353,-0.04147668927907944,0.49049800634384155,-0.8704371452331543,0.0,0.0,0.0,0.0,0.0,0.0
1042,1724815052308581155,-1.8400053977966309,-0.4527295231819153,0.1917547732591629,0.0063434443436563015,-0.04215257242321968,0.49029552936553955,-0.8705132007598877,0.0,0.0,0.0,0.0,0.0,0.0
1044,1724815052319387434,-1.8397473096847534,-0.4528345763683319,0.1913527250289917,0.008085208013653755,-0.04167956858873367,0.4893154501914978,-0.8710728883743286,0.0,0.0,0.0,0.0,0.0,0.0
1046,1724815052329339910,-1.839403510093689,-0.45294374227523804,0.1911638379096985,0.008700991980731487,-0.04196145385503769,0.4886351525783539,-0.8714352250099182,0.0,0.0,0.0,0.0,0.0,0.0
1048,1724815052338735679,-1.8389819860458374,-0.4529065489768982,0.19118887186050415,0.009460813365876675,-0.04298396408557892,0.4888213574886322,-0.8712730407714844,0.0,0.0,0.0,0.0,0.0,0.0
1050,1724815052347832644,-1.8386256694793701,-0.4529990553855896,0.1911228746175766,0.010308144614100456,-0.0438724085688591,0.48885577917099,-0.8711998462677002,0.0,0.0,0.0,0.0,0.0,0.0
1052,1724815052358406046,-1.8382803201675415,-0.45294973254203796,0.19119086861610413,0.010490120388567448,-0.04474835470318794,0.48896849155426025,-0.8710898160934448,0.0,0.0,0.0,0.0,0.0,0.0
1054,1724815052367811391,-1.8380078077316284,-0.45294076204299927,0.19125965237617493,0.01132415235042572,-0.045392006635665894,0.48913949728012085,-0.8709499835968018,0.0,0.0,0.0,0.0,0.0,0.0
1056,1724815052378567974,-1.8377965688705444,-0.4529796838760376,0.19122962653636932,0.011271567083895206,-0.04584308713674545,0.48894816637039185,-0.8710344433784485,0.0,0.0,0.0,0.0,0.0,0.0
1058,1724815052388309200,-1.8376045227050781,-0.4529935121536255,0.1912820041179657,0.011267032474279404,-0.04629925638437271,0.4890689253807068,-0.8709425926208496,0.0,0.0,0.0,0.0,0.0,0.0
1060,1724815052397745065,-1.8375157117843628,-0.452909916639328,0.19133344292640686,0.013404950499534607,-0.04759727045893669,0.4888392686843872,-0.8709713220596313,0.0,0.0,0.0,0.0,0.0,0.0
1062,1724815052408974442,-1.8374474048614502,-0.45292040705680847,0.19133688509464264,0.012974039651453495,-0.04783419147133827,0.4889766275882721,-0.8708876967430115,0.0,0.0,0.0,0.0,0.0,0.0
1064,1724815052418986186,-1.8373478651046753,-0.4529074430465698,0.19141273200511932,0.011638586409389973,-0.04728119075298309,0.48940739035606384,-0.8706948757171631,0.0,0.0,0.0,0.0,0.0,0.0
1066,1724815052428186484,-1.8375215530395508,-0.4529719948768616,0.19123722612857819,0.012284770607948303,-0.04705057293176651,0.48853710293769836,-0.8711870908737183,0.0,0.0,0.0,0.0,0.0,0.0
1068,1724815052437615417,-1.837568759918213,-0.4529847502708435,0.1912316083908081,0.010785477235913277,-0.046118978410959244,0.4889658987522125,-0.8710161447525024,0.0,0.0,0.0,0.0,0.0,0.0
1070,1724815052449721788,-1.8377207517623901,-0.4530200958251953,0.1911023110151291,0.009874074719846249,-0.045498527586460114,0.48868808150291443,-0.8712154626846313,0.0,0.0,0.0,0.0,0.0,0.0
1072,1724815052457588899,-1.8379051685333252,-0.45301464200019836,0.19109342992305756,0.009745541960000992,-0.045112013816833496,0.48872068524360657,-0.871218740940094,0.0,0.0,0.0,0.0,0.0,0.0
1074,1724815052467693072,-1.8381094932556152,-0.453037828207016,0.1910172402858734,0.00918037910014391,-0.04455872252583504,0.4887077808380127,-0.8712605237960815,0.0,0.0,0.0,0.0,0.0,0.0
1076,1724815052478739888,-1.8383307456970215,-0.45304322242736816,0.1909942626953125,0.00879832822829485,-0.04394378140568733,0.4887197017669678,-0.871289074420929,0.0,0.0,0.0,0.0,0.0,0.0
1078,1724815052487664380,-1.8385320901870728,-0.45302614569664,0.1910211443901062,0.00833850260823965,-0.0436672568321228,0.48895391821861267,-0.87117600440979,0.0,0.0,0.0,0.0,0.0,0.0
1080,1724815052498619571,-1.8387490510940552,-0.4530660808086395,0.19098147749900818,0.008324968628585339,-0.04341287538409233,0.48929563164711,-0.8709970116615295,0.0,0.0,0.0,0.0,0.0,0.0
1082,1724815052508240576,-1.8389415740966797,-0.4530767798423767,0.19099269807338715,0.008161843754351139,-0.04287756606936455,0.48948395252227783,-0.8709192276000977,0.0,0.0,0.0,0.0,0.0,0.0
1084,1724815052518172200,-1.8391828536987305,-0.4530460238456726,0.19092820584774017,0.007677528541535139,-0.04247172921895981,0.48880770802497864,-0.8713232278823853,0.0,0.0,0.0,0.0,0.0,0.0
1086,1724815052528391274,-1.8393397331237793,-0.4530371427536011,0.19091223180294037,0.007698873057961464,-0.042340751737356186,0.4888991117477417,-0.8712781667709351,0.0,0.0,0.0,0.0,0.0,0.0
1088,1724815052537576852,-1.839521884918213,-0.45302221179008484,0.19086496531963348,0.007746228016912937,-0.04210949316620827,0.48883140087127686,-0.8713269829750061,0.0,0.0,0.0,0.0,0.0,0.0
1090,1724815052547399766,-1.8396095037460327,-0.45299822092056274,0.19080546498298645,0.007444007322192192,-0.042045313864946365,0.4888549745082855,-0.8713194727897644,0.0,0.0,0.0,0.0,0.0,0.0
1092,1724815052560684679,-1.8396791219711304,-0.4529532194137573,0.1907539665699005,0.007665164768695831,-0.04189690202474594,0.4889256954193115,-0.8712849617004395,0.0,0.0,0.0,0.0,0.0,0.0
1094,1724815052567782925,-1.8397365808486938,-0.452892541885376,0.1906827688217163,0.007938793860375881,-0.04194187745451927,0.48890236020088196,-0.8712934851646423,0.0,0.0,0.0,0.0,0.0,0.0
1096,1724815052578773974,-1.8397424221038818,-0.4528124928474426,0.1905524581670761,0.007926411926746368,-0.041810717433691025,0.48890531063079834,-0.8712982535362244,0.0,0.0,0.0,0.0,0.0,0.0
1098,1724815052587985344,-1.8397434949874878,-0.4527173638343811,0.19034360349178314,0.00853950995951891,-0.04179263114929199,0.48864373564720154,-0.8714399933815002,0.0,0.0,0.0,0.0,0.0,0.0
1100,1724815052597732808,-1.8396365642547607,-0.45258212089538574,0.19031529128551483,0.0076019857078790665,-0.04346480220556259,0.4888254702091217,-0.8712650537490845,0.0,0.0,0.0,0.0,0.0,0.0
1102,1724815052607978019,-1.8395700454711914,-0.4524793028831482,0.19008174538612366,0.007745930925011635,-0.04365861415863037,0.48879823088645935,-0.8712693452835083,0.0,0.0,0.0,0.0,0.0,0.0
1104,1724815052618295162,-1.8394707441329956,-0.45234739780426025,0.18984344601631165,0.007974298670887947,-0.044111303985118866,0.48880645632743835,-0.8712398409843445,0.0,0.0,0.0,0.0,0.0,0.0
1106,1724815052627980347,-1.8395183086395264,-0.4522925019264221,0.18930400907993317,0.009377574548125267,-0.042784567922353745,0.488299697637558,-0.8715761303901672,0.0,0.0,0.0,0.0,0.0,0.0
1108,1724815052637682671,-1.839456558227539,-0.4521819055080414,0.18889836966991425,0.010045469738543034,-0.04240003228187561,0.48818740248680115,-0.8716503977775574,0.0,0.0,0.0,0.0,0.0,0.0
1110,1724815052663918113,-1.8393019437789917,-0.45200833678245544,0.18855977058410645,0.010878480039536953,-0.04270253702998161,0.48819848895072937,-0.8716194033622742,0.0,0.0,0.0,0.0,0.0,0.0
1112,1724815052664163047,-1.8391295671463013,-0.45184874534606934,0.18820162117481232,0.011400066316127777,-0.04318033158779144,0.4884752631187439,-0.8714341521263123,0.0,0.0,0.0,0.0,0.0,0.0
1114,1724815052668249993,-1.8389328718185425,-0.45160752534866333,0.18782222270965576,0.011892510578036308,-0.043928179889917374,0.48861250281333923,-0.871313214302063,0.0,0.0,0.0,0.0,0.0,0.0
1116,1724815052677974907,-1.8386765718460083,-0.45138460397720337,0.18764233589172363,0.011211806908249855,-0.04591910168528557,0.4887363314628601,-0.8711501955986023,0.0,0.0,0.0,0.0,0.0,0.0
1118,1724815052691505725,-1.8384034633636475,-0.45118436217308044,0.18735462427139282,0.011907851323485374,-0.0472295843064785,0.48890671133995056,-0.8709752559661865,0.0,0.0,0.0,0.0,0.0,0.0
1120,1724815052701755922,-1.8381965160369873,-0.45106080174446106,0.18674714863300323,0.013745693489909172,-0.04680696502327919,0.4882698655128479,-0.8713282346725464,0.0,0.0,0.0,0.0,0.0,0.0
1122,1724815052708015087,-1.837815761566162,-0.45084214210510254,0.1863079071044922,0.015200712718069553,-0.04790116846561432,0.4889073669910431,-0.8708869218826294,0.0,0.0,0.0,0.0,0.0,0.0
1124,1724815052718205126,-1.8375670909881592,-0.4507591724395752,0.18590781092643738,0.015032900497317314,-0.04830589145421982,0.4879392683506012,-0.8714102506637573,0.0,0.0,0.0,0.0,0.0,0.0
1126,1724815052731806741,-1.8371330499649048,-0.4505428373813629,0.1857582926750183,0.01653284765779972,-0.050325676798820496,0.48841625452041626,-0.8710015416145325,0.0,0.0,0.0,0.0,0.0,0.0
1128,1724815052737937921,-1.8366472721099854,-0.4503716826438904,0.18552863597869873,0.017459429800510406,-0.05221014469861984,0.48834264278411865,-0.8709137439727783,0.0,0.0,0.0,0.0,0.0,0.0
1130,1724815052750407122,-1.8361669778823853,-0.45029258728027344,0.18529951572418213,0.017855392768979073,-0.05366051569581032,0.4882280230522156,-0.8708817958831787,0.0,0.0,0.0,0.0,0.0,0.0
1132,1724815052761934352,-1.8354820013046265,-0.4501541554927826,0.18528887629508972,0.017239531502127647,-0.05685926601290703,0.48884063959121704,-0.8703474998474121,0.0,0.0,0.0,0.0,0.0,0.0
1134,1724815052768396903,-1.8350324630737305,-0.45017772912979126,0.18503612279891968,0.018131090328097343,-0.05841862037777901,0.48839160799980164,-0.8704782128334045,0.0,0.0,0.0,0.0,0.0,0.0
1136,1724815052779345749,-1.834479570388794,-0.4501675069332123,0.18477314710617065,0.019542573019862175,-0.06075809895992279,0.4887561798095703,-0.8700827360153198,0.0,0.0,0.0,0.0,0.0,0.0
1138,1724815052788059551,-1.8339897394180298,-0.4501083493232727,0.18458345532417297,0.02093835361301899,-0.0626513883471489,0.48894527554512024,-0.8698096871376038,0.0,0.0,0.0,0.0,0.0,0.0
1140,1724815052797992311,-1.8334813117980957,-0.45009922981262207,0.1843687891960144,0.0213787741959095,-0.06439988315105438,0.48885610699653625,-0.8697214722633362,0.0,0.0,0.0,0.0,0.0,0.0
1142,1724815052809123519,-1.832942247390747,-0.4500293433666229,0.1843128353357315,0.0218944288790226,-0.06583627313375473,0.4890684187412262,-0.86948162317276,0.0,0.0,0.0,0.0,0.0,0.0
1144,1724815052818467269,-1.8324530124664307,-0.4500890374183655,0.1840408891439438,0.022475235164165497,-0.06700390577316284,0.48872900009155273,-0.8695684671401978,0.0,0.0,0.0,0.0,0.0,0.0
1146,1724815052831010289,-1.8319028615951538,-0.45001840591430664,0.18391598761081696,0.02355339378118515,-0.06870633363723755,0.4893431067466736,-0.8690615892410278,0.0,0.0,0.0,0.0,0.0,0.0
1148,1724815052839110137,-1.8315426111221313,-0.45010900497436523,0.18346309661865234,0.025001199916005135,-0.06863275170326233,0.48869287967681885,-0.8693927526473999,0.0,0.0,0.0,0.0,0.0,0.0
1150,1724815052851086691,-1.8311525583267212,-0.45013657212257385,0.1831749826669693,0.025904934853315353,-0.06931695342063904,0.488629549741745,-0.8693476319313049,0.0,0.0,0.0,0.0,0.0,0.0
1152,1724815052859334383,-1.8308637142181396,-0.45015445351600647,0.18306899070739746,0.024919191375374794,-0.07039917260408401,0.48884475231170654,-0.8691684007644653,0.0,0.0,0.0,0.0,0.0,0.0
1154,1724815052869877357,-1.8307429552078247,-0.45024538040161133,0.1828117072582245,0.02396557107567787,-0.06991016864776611,0.4882584512233734,-0.8695641756057739,0.0,0.0,0.0,0.0,0.0,0.0
1156,1724815052880210363,-1.8306413888931274,-0.45015427470207214,0.18269126117229462,0.023520709946751595,-0.06974788010120392,0.488678514957428,-0.8693534731864929,0.0,0.0,0.0,0.0,0.0,0.0
1158,1724815052888522665,-1.830556035041809,-0.4500562846660614,0.18254666030406952,0.023949692025780678,-0.07001082599163055,0.4894219934940338,-0.8689022064208984,0.0,0.0,0.0,0.0,0.0,0.0
1160,1724815052897495783,-1.830655813217163,-0.4500392973423004,0.18238112330436707,0.023523248732089996,-0.06954962760210037,0.4886188805103302,-0.8694027662277222,0.0,0.0,0.0,0.0,0.0,0.0
1162,1724815052907577715,-1.8307888507843018,-0.45002278685569763,0.18217045068740845,0.023068606853485107,-0.06927032768726349,0.48818179965019226,-0.8696827292442322,0.0,0.0,0.0,0.0,0.0,0.0
1164,1724815052917827864,-1.8308299779891968,-0.4499475061893463,0.18217231333255768,0.023158937692642212,-0.06944790482521057,0.4887043535709381,-0.8693726658821106,0.0,0.0,0.0,0.0,0.0,0.0
1166,1724815052927999635,-1.8309943675994873,-0.44993001222610474,0.18203318119049072,0.02258344180881977,-0.06917138397693634,0.4883993864059448,-0.8695811033248901,0.0,0.0,0.0,0.0,0.0,0.0
1168,1724815052937422136,-1.8311134576797485,-0.44989365339279175,0.18189264833927155,0.0225030779838562,-0.06914696842432022,0.488360196352005,-0.869607150554657,0.0,0.0,0.0,0.0,0.0,0.0
1170,1724815052947942497,-1.831165075302124,-0.449847936630249,0.18177998065948486,0.02221606858074665,-0.06905601173639297,0.4885396659374237,-0.8695209622383118,0.0,0.0,0.0,0.0,0.0,0.0
1172,1724815052957738158,-1.831209421157837,-0.44981127977371216,0.1816643625497818,0.02222066931426525,-0.0692182183265686,0.48843154311180115,-0.8695686459541321,0.0,0.0,0.0,0.0,0.0,0.0
1174,1724815052968941051,-1.8312387466430664,-0.44981732964515686,0.18150629103183746,0.0218870360404253,-0.06884832680225372,0.4882480204105377,-0.8697095513343811,0.0,0.0,0.0,0.0,0.0,0.0
1176,1724815052979244881,-1.83122980594635,-0.44978243112564087,0.18137295544147491,0.021961402148008347,-0.06902772188186646,0.48826169967651367,-0.8696857690811157,0.0,0.0,0.0,0.0,0.0,0.0
1178,1724815052988378371,-1.8311986923217773,-0.4496880769729614,0.18121910095214844,0.02150866389274597,-0.06909734010696411,0.4881403148174286,-0.869759738445282,0.0,0.0,0.0,0.0,0.0,0.0
1180,1724815053001034213,-1.8312660455703735,-0.4497217833995819,0.1809365451335907,0.02104429341852665,-0.0690336674451828,0.4882022738456726,-0.8697413802146912,0.0,0.0,0.0,0.0,0.0,0.0
1182,1724815053009037156,-1.831209421157837,-0.44959521293640137,0.18080167472362518,0.021092399954795837,-0.06931833922863007,0.48855531215667725,-0.8695192933082581,0.0,0.0,0.0,0.0,0.0,0.0
1184,1724815053019721029,-1.8312017917633057,-0.44947171211242676,0.1806018203496933,0.020861633121967316,-0.06949252635240555,0.48858028650283813,-0.8694969415664673,0.0,0.0,0.0,0.0,0.0,0.0
1186,1724815053030069042,-1.8311620950698853,-0.44931259751319885,0.18043912947177887,0.0202289130538702,-0.06982486695051193,0.4892873466014862,-0.8690875172615051,0.0,0.0,0.0,0.0,0.0,0.0
1188,1724815053037414291,-1.8312764167785645,-0.4492305815219879,0.18016590178012848,0.019556114450097084,-0.06988111138343811,0.48912882804870605,-0.8691876530647278,0.0,0.0,0.0,0.0,0.0,0.0
1190,1724815053058967688,-1.8313323259353638,-0.4491669833660126,0.17990562319755554,0.0168464332818985,-0.06934721022844315,0.4896431565284729,-0.8689975142478943,0.0,0.0,0.0,0.0,0.0,0.0
1192,1724815053059364765,-1.8315378427505493,-0.44891980290412903,0.17958500981330872,0.018651314079761505,-0.068695068359375,0.4900430738925934,-0.8687869906425476,0.0,0.0,0.0,0.0,0.0,0.0
1194,1724815053069728125,-1.8317853212356567,-0.44872036576271057,0.17948009073734283,0.02184365689754486,-0.06787596642971039,0.4900408089160919,-0.8687782883644104,0.0,0.0,0.0,0.0,0.0,0.0
1196,1724815053078727306,-1.8319324254989624,-0.4486767053604126,0.17891564965248108,0.019403880462050438,-0.066741943359375,0.48892685770988464,-0.869551420211792,0.0,0.0,0.0,0.0,0.0,0.0
1198,1724815053090780508,-1.8320255279541016,-0.4485588073730469,0.17856842279434204,0.018897920846939087,-0.06643553078174591,0.4889054298400879,-0.8695979714393616,0.0,0.0,0.0,0.0,0.0,0.0
1200,1724815053100042438,-1.8321166038513184,-0.44845399260520935,0.17829877138137817,0.01919206604361534,-0.06609183549880981,0.48890772461891174,-0.8696164488792419,0.0,0.0,0.0,0.0,0.0,0.0
1202,1724815053108094435,-1.8322256803512573,-0.448324590921402,0.17798765003681183,0.01891459710896015,-0.06568726897239685,0.48882830142974854,-0.8696978688240051,0.0,0.0,0.0,0.0,0.0,0.0
1204,1724815053118841868,-1.8323062658309937,-0.4482678771018982,0.17790168523788452,0.018110482022166252,-0.06712011247873306,0.48872196674346924,-0.8696653246879578,0.0,0.0,0.0,0.0,0.0,0.0
1206,1724815053127988109,-1.8324090242385864,-0.4481782913208008,0.17772673070430756,0.018285319209098816,-0.06724640727043152,0.4886976480484009,-0.8696655631065369,0.0,0.0,0.0,0.0,0.0,0.0
1208,1724815053137838729,-1.8325361013412476,-0.44809475541114807,0.1775076985359192,0.018011558800935745,-0.06709279119968414,0.4886159300804138,-0.8697290420532227,0.0,0.0,0.0,0.0,0.0,0.0
1210,1724815053148821107,-1.8326020240783691,-0.44786787033081055,0.17731589078903198,0.018757222220301628,-0.06776424497365952,0.48866355419158936,-0.8696345686912537,0.0,0.0,0.0,0.0,0.0,0.0
1212,1724815053157526699,-1.8326671123504639,-0.44779887795448303,0.177213653922081,0.018935009837150574,-0.06759700924158096,0.4889300465583801,-0.869493842124939,0.0,0.0,0.0,0.0,0.0,0.0
1214,1724815053178770684,-1.832671046257019,-0.4477198123931885,0.177173912525177,0.01985738053917885,-0.0672527477145195,0.4892192482948303,-0.869337260723114,0.0,0.0,0.0,0.0,0.0,0.0
1216,1724815053179019752,-1.8329192399978638,-0.4477664828300476,0.17697931826114655,0.02540374919772148,-0.06621672213077545,0.4886138439178467,-0.8696129322052002,0.0,0.0,0.0,0.0,0.0,0.0
1218,1724815053187872233,-1.8329123258590698,-0.44757458567619324,0.17669643461704254,0.02778172306716442,-0.06775639951229095,0.4887635409832001,-0.8693374395370483,0.0,0.0,0.0,0.0,0.0,0.0
1220,1724815053198267236,-1.8327711820602417,-0.4476434588432312,0.17675679922103882,0.023838836699724197,-0.06832737475633621,0.48872804641723633,-0.8694297671318054,0.0,0.0,0.0,0.0,0.0,0.0
1222,1724815053208104934,-1.8329312801361084,-0.44784772396087646,0.1763436198234558,0.020027147606015205,-0.07040021568536758,0.4899768829345703,-0.8686572909355164,0.0,0.0,0.0,0.0,0.0,0.0
1224,1724815053217571151,-1.8329037427902222,-0.44771212339401245,0.17704865336418152,0.02513808198273182,-0.06892690062522888,0.4896182715892792,-0.868844747543335,0.0,0.0,0.0,0.0,0.0,0.0
1226,1724815053228699579,-1.8328181505203247,-0.44757115840911865,0.17763552069664001,0.027952007949352264,-0.06872837990522385,0.4902416169643402,-0.8684228658676147,0.0,0.0,0.0,0.0,0.0,0.0
1228,1724815053237703821,-1.8327988386154175,-0.4475647509098053,0.1775427758693695,0.025940606370568275,-0.07040318846702576,0.4896572530269623,-0.8686807751655579,0.0,0.0,0.0,0.0,0.0,0.0
1230,1724815053249109601,-1.8319295644760132,-0.44693833589553833,0.1785522848367691,0.022771628573536873,-0.07544803619384766,0.4947689175605774,-0.8654436469078064,0.0,0.0,0.0,0.0,0.0,0.0
1232,1724815053257574479,-1.8319902420043945,-0.4470047950744629,0.17841365933418274,0.023201849311590195,-0.07496124505996704,0.4941543936729431,-0.8658255338668823,0.0,0.0,0.0,0.0,0.0,0.0
1234,1724815053269068539,-1.8325145244598389,-0.4473736584186554,0.17775636911392212,0.026744209229946136,-0.07080350816249847,0.4913382828235626,-0.8676741719245911,0.0,0.0,0.0,0.0,0.0,0.0
1236,1724815053281814201,-1.8323110342025757,-0.4470159411430359,0.17787255346775055,0.027029406279325485,-0.07166468352079391,0.49312540888786316,-0.8665800094604492,0.0,0.0,0.0,0.0,0.0,0.0
1238,1724815053289843010,-1.8323885202407837,-0.4470689594745636,0.17770825326442719,0.02742886170744896,-0.07095466554164886,0.49295204877853394,-0.8667246103286743,0.0,0.0,0.0,0.0,0.0,0.0
1240,1724815053300383964,-1.8319755792617798,-0.44695407152175903,0.17793232202529907,0.02578710950911045,-0.0722089558839798,0.49322324991226196,-0.8665170073509216,0.0,0.0,0.0,0.0,0.0,0.0
1242,1724815053307684603,-1.8316534757614136,-0.44686204195022583,0.17828571796417236,0.023166021332144737,-0.0749506801366806,0.4946565330028534,-0.8655406832695007,0.0,0.0,0.0,0.0,0.0,0.0
1244,1724815053318582849,-1.8315613269805908,-0.4468325972557068,0.17844703793525696,0.022662397474050522,-0.07550231367349625,0.49517011642456055,-0.8652123212814331,0.0,0.0,0.0,0.0,0.0,0.0
1246,1724815053329695688,-1.8321123123168945,-0.4474169909954071,0.17729462683200836,0.019221963360905647,-0.06731777638196945,0.49180611968040466,-0.8678856492042542,0.0,0.0,0.0,0.0,0.0,0.0
1248,1724815053338493249,-1.8320415019989014,-0.4475473165512085,0.17677941918373108,0.015344000421464443,-0.06451860815286636,0.4917210042476654,-0.8682237267494202,0.0,0.0,0.0,0.0,0.0,0.0
1250,1724815053381507208,-1.8319741487503052,-0.4475076198577881,0.17698973417282104,0.015256969258189201,-0.06501421332359314,0.49201661348342896,-0.8680208325386047,0.0,0.0,0.0,0.0,0.0,0.0
1252,1724815053381825917,-1.8319789171218872,-0.4475068151950836,0.17700587213039398,0.015556096099317074,-0.06526041775941849,0.49191445112228394,-0.8680548667907715,0.0,0.0,0.0,0.0,0.0,0.0
1254,1724815053382940394,-1.8320657014846802,-0.4476454257965088,0.1767442673444748,0.015386118553578854,-0.06352648138999939,0.49051567912101746,-0.8689775466918945,0.0,0.0,0.0,0.0,0.0,0.0
1256,1724815053384403566,-1.832061529159546,-0.44748973846435547,0.17689774930477142,0.019090643152594566,-0.06645778566598892,0.4913095533847809,-0.8682360649108887,0.0,0.0,0.0,0.0,0.0,0.0
1258,1724815053387939058,-1.8322217464447021,-0.4474461078643799,0.17715255916118622,0.022960631176829338,-0.06822843849658966,0.4905891716480255,-0.868412435054779,0.0,0.0,0.0,0.0,0.0,0.0
1260,1724815053407775693,-1.8320417404174805,-0.4473668932914734,0.17725521326065063,0.023156313225626945,-0.06912194937467575,0.49121230840682983,-0.8679841160774231,0.0,0.0,0.0,0.0,0.0,0.0
1262,1724815053408030612,-1.8320075273513794,-0.4474177360534668,0.17716142535209656,0.02356456033885479,-0.06896845251321793,0.4908241629600525,-0.8682048916816711,0.0,0.0,0.0,0.0,0.0,0.0
1264,1724815053418155280,-1.8318617343902588,-0.44743847846984863,0.17711742222309113,0.02358022890985012,-0.06892373412847519,0.49076831340789795,-0.8682395815849304,0.0,0.0,0.0,0.0,0.0,0.0
1266,1724815053428656112,-1.8317413330078125,-0.44755250215530396,0.1769304871559143,0.023074496537446976,-0.06800618022680283,0.4901899993419647,-0.8686521649360657,0.0,0.0,0.0,0.0,0.0,0.0
1268,1724815053438189725,-1.8314870595932007,-0.4476437270641327,0.17682145535945892,0.02217743918299675,-0.06709277629852295,0.4902350604534149,-0.868721067905426,0.0,0.0,0.0,0.0,0.0,0.0
1270,1724815053451938337,-1.83120858669281,-0.4478023648262024,0.17666995525360107,0.020976874977350235,-0.06617923080921173,0.4902324676513672,-0.8688223958015442,0.0,0.0,0.0,0.0,0.0,0.0
1272,1724815053458318831,-1.8308056592941284,-0.44792720675468445,0.17678950726985931,0.019864821806550026,-0.06730781495571136,0.490553081035614,-0.8685808777809143,0.0,0.0,0.0,0.0,0.0,0.0
1274,1724815053467932668,-1.8304954767227173,-0.4481411576271057,0.17672143876552582,0.01903454400599003,-0.06692373007535934,0.4903852939605713,-0.8687238693237305,0.0,0.0,0.0,0.0,0.0,0.0
1276,1724815053481336946,-1.830300211906433,-0.448469877243042,0.17630980908870697,0.019282782450318336,-0.06464207172393799,0.48994889855384827,-0.8691372871398926,0.0,0.0,0.0,0.0,0.0,0.0
1278,1724815053488337044,-1.8300155401229858,-0.44874557852745056,0.1761680543422699,0.01954841986298561,-0.06334667652845383,0.48948734998703003,-0.8694867491722107,0.0,0.0,0.0,0.0,0.0,0.0
1280,1724815053498254884,-1.829783320426941,-0.44906699657440186,0.17606334388256073,0.020166104659438133,-0.06200927495956421,0.489020973443985,-0.869831383228302,0.0,0.0,0.0,0.0,0.0,0.0
1282,1724815053509601501,-1.829430341720581,-0.44935721158981323,0.17590650916099548,0.019805101677775383,-0.06085176020860672,0.48842182755470276,-0.8702580332756042,0.0,0.0,0.0,0.0,0.0,0.0
1284,1724815053518521731,-1.829080581665039,-0.4496065080165863,0.17590683698654175,0.020012831315398216,-0.0600280687212944,0.4880561828613281,-0.8705155253410339,0.0,0.0,0.0,0.0,0.0,0.0
1286,1724815053532013277,-1.828629732131958,-0.44997352361679077,0.1755869835615158,0.017538437619805336,-0.05802374333143234,0.48760995268821716,-0.8709548711776733,0.0,0.0,0.0,0.0,0.0,0.0
1288,1724815053538168009,-1.8282294273376465,-0.4502090513706207,0.1754830926656723,0.01740722358226776,-0.05716661363840103,0.48734134435653687,-0.8711643815040588,0.0,0.0,0.0,0.0,0.0,0.0
1290,1724815053547983161,-1.8278344869613647,-0.4504444897174835,0.17539174854755402,0.017240434885025024,-0.0564107708632946,0.4869071841239929,-0.8714596629142761,0.0,0.0,0.0,0.0,0.0,0.0
1292,1724815053560618101,-1.8274688720703125,-0.4506685733795166,0.17532028257846832,0.016391245648264885,-0.05573171004652977,0.4867772161960602,-0.8715923428535461,0.0,0.0,0.0,0.0,0.0,0.0
1294,1724815053568001405,-1.827120065689087,-0.45099568367004395,0.17512796819210052,0.015752311795949936,-0.05425966903567314,0.486045777797699,-0.872105062007904,0.0,0.0,0.0,0.0,0.0,0.0
1296,1724815053577693952,-1.826562762260437,-0.45120248198509216,0.17551608383655548,0.01429990865290165,-0.05485649034380913,0.48625731468200684,-0.8719748258590698,0.0,0.0,0.0,0.0,0.0,0.0
1298,1724815053587985862,-1.8261269330978394,-0.451503723859787,0.17561207711696625,0.013881724327802658,-0.053867656737565994,0.48595261573791504,-0.8722130656242371,0.0,0.0,0.0,0.0,0.0,0.0
1300,1724815053597563498,-1.8257957696914673,-0.45186853408813477,0.1755388081073761,0.013486037030816078,-0.05204762890934944,0.48506250977516174,-0.8728249669075012,0.0,0.0,0.0,0.0,0.0,0.0
1302,1724815053608062324,-1.8254470825195312,-0.4522194266319275,0.17552727460861206,0.013682973571121693,-0.05042953044176102,0.48428958654403687,-0.8733460903167725,0.0,0.0,0.0,0.0,0.0,0.0
1304,1724815053617706159,-1.825229287147522,-0.4526713192462921,0.17528192698955536,0.014865824952721596,-0.04747690632939339,0.48312559723854065,-0.8741364479064941,0.0,0.0,0.0,0.0,0.0,0.0
1306,1724815053628061964,-1.8249027729034424,-0.45309147238731384,0.17518004775047302,0.01514058094471693,-0.045258235186338425,0.48252081871032715,-0.8745834827423096,0.0,0.0,0.0,0.0,0.0,0.0
1308,1724815053637767758,-1.824582815170288,-0.45354732871055603,0.1750607192516327,0.014134958386421204,-0.04274991154670715,0.48197078704833984,-0.8750296235084534,0.0,0.0,0.0,0.0,0.0,0.0
1310,1724815053647539625,-1.8242294788360596,-0.45395687222480774,0.17499509453773499,0.014037883840501308,-0.040702469646930695,0.4816887080669403,-0.8752841353416443,0.0,0.0,0.0,0.0,0.0,0.0
1312,1724815053657700524,-1.8238495588302612,-0.45421624183654785,0.17518950998783112,0.016477879136800766,-0.04080962762236595,0.4826112389564514,-0.874728262424469,0.0,0.0,0.0,0.0,0.0,0.0
1314,1724815053710581997,-1.82358980178833,-0.45472466945648193,0.17503385245800018,0.016890037804841995,-0.03870084136724472,0.4820326268672943,-0.8751351237297058,0.0,0.0,0.0,0.0,0.0,0.0
1316,1724815053710968833,-1.823301076889038,-0.4553234577178955,0.17484506964683533,0.016610465943813324,-0.03647666424512863,0.4815962314605713,-0.8754763007164001,0.0,0.0,0.0,0.0,0.0,0.0
1318,1724815053711336377,-1.8229025602340698,-0.4559214115142822,0.17494916915893555,0.01496981829404831,-0.03526420146226883,0.4815882742404938,-0.87555992603302,0.0,0.0,0.0,0.0,0.0,0.0
1320,1724815053711587808,-1.822744607925415,-0.4566904902458191,0.17452472448349,0.01578434370458126,-0.03150152787566185,0.4803644120693207,-0.876361072063446,0.0,0.0,0.0,0.0,0.0,0.0
1322,1724815053711836527,-1.8224577903747559,-0.457388699054718,0.17423464357852936,0.01608285866677761,-0.02929411642253399,0.47988688945770264,-0.8766936659812927,0.0,0.0,0.0,0.0,0.0,0.0
1324,1724815053735676916,-1.822086215019226,-0.4580186605453491,0.17409729957580566,0.015438683331012726,-0.02783985063433647,0.479740172624588,-0.876832902431488,0.0,0.0,0.0,0.0,0.0,0.0
1326,1724815053735932838,-1.8217514753341675,-0.4586872458457947,0.17404434084892273,0.014770684763789177,-0.025806870311498642,0.4794151484966278,-0.8770844340324402,0.0,0.0,0.0,0.0,0.0,0.0
1328,1724815053738512558,-1.8213614225387573,-0.4593510329723358,0.17388825118541718,0.015242212451994419,-0.025058330968022346,0.4801183342933655,-0.876713216304779,0.0,0.0,0.0,0.0,0.0,0.0
1330,1724815053750530871,-1.8209351301193237,-0.46011924743652344,0.1735636442899704,0.015821611508727074,-0.023779289796948433,0.4801183044910431,-0.8767386078834534,0.0,0.0,0.0,0.0,0.0,0.0
1332,1724815053757621624,-1.8206225633621216,-0.460855096578598,0.17329740524291992,0.015280408784747124,-0.02287604846060276,0.47975102066993713,-0.8769733309745789,0.0,0.0,0.0,0.0,0.0,0.0
1334,1724815053769183156,-1.8203810453414917,-0.46152687072753906,0.17295174300670624,0.01686212234199047,-0.021430743858218193,0.47928690910339355,-0.8772346377372742,0.0,0.0,0.0,0.0,0.0,0.0
1336,1724815053780979696,-1.8200304508209229,-0.46208375692367554,0.17278265953063965,0.016717230901122093,-0.019512536004185677,0.47954389452934265,-0.8771417140960693,0.0,0.0,0.0,0.0,0.0,0.0
1338,1724815053787860579,-1.8198250532150269,-0.46262574195861816,0.17239932715892792,0.017392652109265327,-0.017892392352223396,0.4799169898033142,-0.8769590258598328,0.0,0.0,0.0,0.0,0.0,0.0
1340,1724815053797644640,-1.8196995258331299,-0.46321871876716614,0.17180590331554413,0.017428716644644737,-0.015499689616262913,0.47973597049713135,-0.8771029710769653,0.0,0.0,0.0,0.0,0.0,0.0
1342,1724815053808178630,-1.8196157217025757,-0.4637724757194519,0.1711561679840088,0.01910979487001896,-0.012381000444293022,0.4797106385231018,-0.8771312236785889,0.0,0.0,0.0,0.0,0.0,0.0
1344,1724815053817964616,-1.8194031715393066,-0.46423253417015076,0.1708288937807083,0.019172310829162598,-0.010777750983834267,0.48079854249954224,-0.8765552639961243,0.0,0.0,0.0,0.0,0.0,0.0
1346,1724815053832809781,-1.8192652463912964,-0.4646468162536621,0.17071887850761414,0.019048012793064117,-0.010801669210195541,0.4814375936985016,-0.8762068152427673,0.0,0.0,0.0,0.0,0.0,0.0
1348,1724815053838021829,-1.8193767070770264,-0.4654153287410736,0.16977334022521973,0.019875165075063705,-0.007720148656517267,0.4802086055278778,-0.8768951296806335,0.0,0.0,0.0,0.0,0.0,0.0
1350,1724815053851138606,-1.8193358182907104,-0.46595197916030884,0.16931699216365814,0.020071595907211304,-0.005858916789293289,0.4802037477493286,-0.8769077658653259,0.0,0.0,0.0,0.0,0.0,0.0
1352,1724815053860870171,-1.8193665742874146,-0.466537743806839,0.16869403421878815,0.021232647821307182,-0.0025197449140250683,0.4795719385147095,-0.8772420883178711,0.0,0.0,0.0,0.0,0.0,0.0
1354,1724815053867805886,-1.8193176984786987,-0.4670335054397583,0.16836650669574738,0.021801063790917397,-0.000755030196160078,0.4794367253780365,-0.877305269241333,0.0,0.0,0.0,0.0,0.0,0.0
1356,1724815053879327715,-1.8192206621170044,-0.46748268604278564,0.16818244755268097,0.021640991792082787,0.000723225821275264,0.4795529544353485,-0.8772457838058472,0.0,0.0,0.0,0.0,0.0,0.0
1358,1724815053888070323,-1.8190383911132812,-0.46806600689888,0.16774433851242065,0.021311113610863686,0.0019177475478500128,0.4788455069065094,-0.8776383996009827,0.0,0.0,0.0,0.0,0.0,0.0
1360,1724815053898088531,-1.8187583684921265,-0.46841931343078613,0.1680947095155716,0.020127179101109505,0.0019398487638682127,0.48019304871559143,-0.876929759979248,0.0,0.0,0.0,0.0,0.0,0.0
1362,1724815053910809026,-1.818619966506958,-0.4688553810119629,0.16816075146198273,0.019946614280343056,0.002546004019677639,0.48037365078926086,-0.8768333792686462,0.0,0.0,0.0,0.0,0.0,0.0
1364,1724815053918490471,-1.8184425830841064,-0.46928510069847107,0.1681646704673767,0.019907182082533836,0.0034033774863928556,0.48004695773124695,-0.8770102858543396,0.0,0.0,0.0,0.0,0.0,0.0
1366,1724815053930350240,-1.8181121349334717,-0.4695775806903839,0.16836711764335632,0.01876234821975231,0.002934403717517853,0.4807610511779785,-0.8766460418701172,0.0,0.0,0.0,0.0,0.0,0.0
1368,1724815053938152464,-1.8179185390472412,-0.47007349133491516,0.1683444082736969,0.01863807812333107,0.0033407388255000114,0.4799739718437195,-0.8770783543586731,0.0,0.0,0.0,0.0,0.0,0.0
1370,1724815053952134615,-1.8176854848861694,-0.4704744815826416,0.16830553114414215,0.018705397844314575,0.003894858993589878,0.4793572723865509,-0.8774118423461914,0.0,0.0,0.0,0.0,0.0,0.0
1372,1724815053957593751,-1.8175084590911865,-0.47102564573287964,0.16783547401428223,0.019521817564964294,0.00523265078663826,0.47802016139030457,-0.8781163692474365,0.0,0.0,0.0,0.0,0.0,0.0
1374,1724815053968895401,-1.8172190189361572,-0.47122427821159363,0.1680920571088791,0.01889556460082531,0.0053769745863974094,0.4782947897911072,-0.8779796361923218,0.0,0.0,0.0,0.0,0.0,0.0
1376,1724815053980542901,-1.8169198036193848,-0.47160330414772034,0.16800981760025024,0.018090249970555305,0.006091506686061621,0.47785094380378723,-0.8782334923744202,0.0,0.0,0.0,0.0,0.0,0.0
1378,1724815053988741096,-1.816668152809143,-0.47192052006721497,0.16798169910907745,0.018773609772324562,0.007733828388154507,0.4773351848125458,-0.8784867525100708,0.0,0.0,0.0,0.0,0.0,0.0
1380,1724815054002778463,-1.8163447380065918,-0.4723178446292877,0.16785921156406403,0.018879305571317673,0.00857854075729847,0.4767407476902008,-0.878799319267273,0.0,0.0,0.0,0.0,0.0,0.0
1382,1724815054008040454,-1.8159751892089844,-0.47272199392318726,0.16781839728355408,0.018545107915997505,0.00914817862212658,0.47620105743408203,-0.8790932893753052,0.0,0.0,0.0,0.0,0.0,0.0
1384,1724815054024409256,-1.8155471086502075,-0.47320806980133057,0.16768263280391693,0.018371228128671646,0.009747805073857307,0.4760618805885315,-0.8791658282279968,0.0,0.0,0.0,0.0,0.0,0.0
1386,1724815054029065117,-1.8151805400848389,-0.4737367033958435,0.16740840673446655,0.01826578751206398,0.010752378031611443,0.47543784976005554,-0.8794939517974854,0.0,0.0,0.0,0.0,0.0,0.0
1388,1724815054037739769,-1.8146976232528687,-0.47408461570739746,0.1676185131072998,0.017263485118746758,0.011122371070086956,0.47579899430274963,-0.8793142437934875,0.0,0.0,0.0,0.0,0.0,0.0
1390,1724815054047660215,-1.814231276512146,-0.4744728207588196,0.1677742898464203,0.016042882576584816,0.010858498513698578,0.4759690761566162,-0.8792487382888794,0.0,0.0,0.0,0.0,0.0,0.0
1392,1724815054065026837,-1.813767671585083,-0.4748985767364502,0.16785722970962524,0.015970317646861076,0.010760504752397537,0.47621703147888184,-0.8791168928146362,0.0,0.0,0.0,0.0,0.0,0.0
1394,1724815054067970535,-1.8133609294891357,-0.4753728210926056,0.16785451769828796,0.01543413009494543,0.011155098676681519,0.47634726762771606,-0.8790510296821594,0.0,0.0,0.0,0.0,0.0,0.0
1396,1724815054078825190,-1.8130743503570557,-0.4758559465408325,0.16775651276111603,0.016049964353442192,0.01185508631169796,0.4760085344314575,-0.8792142868041992,0.0,0.0,0.0,0.0,0.0,0.0
1398,1724815054092871481,-1.8128376007080078,-0.47643500566482544,0.16753540933132172,0.017166677862405777,0.013776374980807304,0.4751681685447693,-0.8796196579933167,0.0,0.0,0.0,0.0,0.0,0.0
1400,1724815054100351768,-1.812418818473816,-0.47699153423309326,0.16768833994865417,0.017314329743385315,0.013339443132281303,0.4759666323661804,-0.8791916966438293,0.0,0.0,0.0,0.0,0.0,0.0
1402,1724815054107885017,-1.8119920492172241,-0.4773496687412262,0.16797439754009247,0.016845926642417908,0.01280935388058424,0.4764019250869751,-0.8789728879928589,0.0,0.0,0.0,0.0,0.0,0.0
1404,1724815054118545450,-1.8116668462753296,-0.47783878445625305,0.1679549515247345,0.016473423689603806,0.013222028501331806,0.47644340991973877,-0.878951370716095,0.0,0.0,0.0,0.0,0.0,0.0
1406,1724815054128752422,-1.811374306678772,-0.47832387685775757,0.16789807379245758,0.01675862818956375,0.013549805618822575,0.47650396823883057,-0.8789081573486328,0.0,0.0,0.0,0.0,0.0,0.0
1408,1724815054138277095,-1.810922622680664,-0.4787360429763794,0.16801463067531586,0.015908757224678993,0.012279948219656944,0.477224200963974,-0.8785517811775208,0.0,0.0,0.0,0.0,0.0,0.0
1410,1724815054150089136,-1.8106319904327393,-0.47967714071273804,0.16761550307273865,0.013744132593274117,0.014723964966833591,0.47496938705444336,-0.8797717094421387,0.0,0.0,0.0,0.0,0.0,0.0
1412,1724815054157769614,-1.8102819919586182,-0.4803725481033325,0.16746114194393158,0.013760021887719631,0.015547085553407669,0.4739929437637329,-0.8802838921546936,0.0,0.0,0.0,0.0,0.0,0.0
1414,1724815054168273638,-1.8100425004959106,-0.4812729060649872,0.1669495701789856,0.015212363563477993,0.017912371084094048,0.4721611440181732,-0.8811990022659302,0.0,0.0,0.0,0.0,0.0,0.0
1416,1724815054178575489,-1.8096520900726318,-0.4819850027561188,0.16697627305984497,0.015781661495566368,0.017411967739462852,0.47169381380081177,-0.881449282169342,0.0,0.0,0.0,0.0,0.0,0.0
1418,1724815054187558419,-1.809212565422058,-0.4826822280883789,0.1671954095363617,0.015210517682135105,0.016118746250867844,0.4716469645500183,-0.8815088868141174,0.0,0.0,0.0,0.0,0.0,0.0
1420,1724815054292813462,-1.8089107275009155,-0.48352935910224915,0.16700047254562378,0.015147154219448566,0.017425037920475006,0.4701695740222931,-0.8822740912437439,0.0,0.0,0.0,0.0,0.0,0.0
1422,1724815054293175435,-1.8087126016616821,-0.4844900369644165,0.1665119081735611,0.015950605273246765,0.01926516927778721,0.46778741478919983,-0.8834870457649231,0.0,0.0,0.0,0.0,0.0,0.0
1424,1724815054293493001,-1.8082833290100098,-0.4852127134799957,0.16675421595573425,0.015496275387704372,0.018836576491594315,0.4677736759185791,-0.8835116028785706,0.0,0.0,0.0,0.0,0.0,0.0
1426,1724815054293814247,-1.807883858680725,-0.486008882522583,0.16683228313922882,0.015932509675621986,0.019100522622466087,0.4671315550804138,-0.883837878704071,0.0,0.0,0.0,0.0,0.0,0.0
1428,1724815054294196242,-1.8075076341629028,-0.4866880178451538,0.16701944172382355,0.017772145569324493,0.018021445721387863,0.4667808413505554,-0.8840107917785645,0.0,0.0,0.0,0.0,0.0,0.0
1430,1724815054294733263,-1.8071542978286743,-0.48780447244644165,0.1665126234292984,0.01815258152782917,0.019679205492138863,0.4645754396915436,-0.8851287961006165,0.0,0.0,0.0,0.0,0.0,0.0
1432,1724815054295015444,-1.8067059516906738,-0.4887259602546692,0.16636508703231812,0.018455859273672104,0.02019817940890789,0.4632446765899658,-0.885807991027832,0.0,0.0,0.0,0.0,0.0,0.0
1434,1724815054295274840,-1.8062820434570312,-0.4898409843444824,0.1658252328634262,0.01676437072455883,0.024229811504483223,0.4605872333049774,-0.8871252536773682,0.0,0.0,0.0,0.0,0.0,0.0
1436,1724815054295528586,-1.8057624101638794,-0.4905228614807129,0.16615648567676544,0.017185887321829796,0.023462750017642975,0.4607142508029938,-0.8870719075202942,0.0,0.0,0.0,0.0,0.0,0.0
1438,1724815054295780923,-1.8051196336746216,-0.4911392331123352,0.16652697324752808,0.018555564805865288,0.02074088715016842,0.46152669191360474,-0.8866897821426392,0.0,0.0,0.0,0.0,0.0,0.0
1440,1724815054299235539,-1.8046478033065796,-0.49217095971107483,0.16610248386859894,0.021142663434147835,0.02248767763376236,0.4595032036304474,-0.8876396417617798,0.0,0.0,0.0,0.0,0.0,0.0
1442,1724815054308584701,-1.8040071725845337,-0.4931923449039459,0.1656821221113205,0.020782800391316414,0.024478331208229065,0.45804882049560547,-0.8883469700813293,0.0,0.0,0.0,0.0,0.0,0.0
1444,1724815054336352820,-1.8033329248428345,-0.4942685067653656,0.16530559957027435,0.018586911261081696,0.027518704533576965,0.4561000168323517,-0.8893086910247803,0.0,0.0,0.0,0.0,0.0,0.0
1446,1724815054336638494,-1.8025014400482178,-0.4952012896537781,0.16521815955638885,0.017728213220834732,0.027469787746667862,0.45547348260879517,-0.8896487951278687,0.0,0.0,0.0,0.0,0.0,0.0
1448,1724815054338399366,-1.801650047302246,-0.4960215091705322,0.16545574367046356,0.016866670921444893,0.02736927568912506,0.45547720789909363,-0.8896667957305908,0.0,0.0,0.0,0.0,0.0,0.0
1450,1724815054350939581,-1.8009991645812988,-0.4969549775123596,0.1652255654335022,0.01784014143049717,0.028889697045087814,0.45455458760261536,-0.8900715112686157,0.0,0.0,0.0,0.0,0.0,0.0
1452,1724815054358458107,-1.8003084659576416,-0.4979249835014343,0.1648164689540863,0.017994379624724388,0.03032355010509491,0.45330050587654114,-0.8906600475311279,0.0,0.0,0.0,0.0,0.0,0.0
1454,1724815054368300049,-1.7995251417160034,-0.4986637532711029,0.1649779975414276,0.019024081528186798,0.02974858507514,0.45360133051872253,-0.8905048370361328,0.0,0.0,0.0,0.0,0.0,0.0
1456,1724815054379200700,-1.7987086772918701,-0.4993506669998169,0.16524001955986023,0.0206716638058424,0.027612540870904922,0.4542946219444275,-0.8901835083961487,0.0,0.0,0.0,0.0,0.0,0.0
1458,1724815054387855407,-1.7978897094726562,-0.5003452301025391,0.16486410796642303,0.0204481091350317,0.029326051473617554,0.45345380902290344,-0.8905625343322754,0.0,0.0,0.0,0.0,0.0,0.0
1460,1724815054400570633,-1.7970056533813477,-0.5010018348693848,0.16527128219604492,0.02034267783164978,0.029052970930933952,0.4544124901294708,-0.8900850415229797,0.0,0.0,0.0,0.0,0.0,0.0
1462,1724815054407569808,-1.7962722778320312,-0.502038836479187,0.16470007598400116,0.022170450538396835,0.031892359256744385,0.45347902178764343,-0.8904201984405518,0.0,0.0,0.0,0.0,0.0,0.0
1464,1724815054424016376,-1.7952884435653687,-0.502753496170044,0.1648193746805191,0.022130301222205162,0.03167007490992546,0.4544318616390228,-0.8899433016777039,0.0,0.0,0.0,0.0,0.0,0.0
1466,1724815054429129736,-1.794259786605835,-0.5036373734474182,0.16487161815166473,0.020192665979266167,0.031267229467630386,0.4544553756713867,-0.8899915814399719,0.0,0.0,0.0,0.0,0.0,0.0
1468,1724815054437734720,-1.7934205532073975,-0.5047051906585693,0.16452400386333466,0.01897372491657734,0.0338422991335392,0.45296454429626465,-0.8906840085983276,0.0,0.0,0.0,0.0,0.0,0.0
1470,1724815054453222077,-1.7925126552581787,-0.505355954170227,0.16470858454704285,0.021430272608995438,0.03257273510098457,0.45423978567123413,-0.8900258541107178,0.0,0.0,0.0,0.0,0.0,0.0
1472,1724815054458264504,-1.7916336059570312,-0.5062744617462158,0.16445781290531158,0.022832531481981277,0.034671295434236526,0.45368173718452454,-0.8901963829994202,0.0,0.0,0.0,0.0,0.0,0.0
1474,1724815054470766630,-1.790627360343933,-0.5069917440414429,0.16456937789916992,0.023327575996518135,0.03489603102207184,0.454490065574646,-0.8897623419761658,0.0,0.0,0.0,0.0,0.0,0.0
1476,1724815054479594291,-1.7896090745925903,-0.5076560378074646,0.1647832840681076,0.02142219804227352,0.03436353802680969,0.4551650583744049,-0.8894858956336975,0.0,0.0,0.0,0.0,0.0,0.0
1478,1724815054488023641,-1.7886059284210205,-0.5085049271583557,0.16457776725292206,0.021376119926571846,0.03500485047698021,0.45571279525756836,-0.8891814351081848,0.0,0.0,0.0,0.0,0.0,0.0
1480,1724815054498620113,-1.787672758102417,-0.5092676877975464,0.1643645167350769,0.021398410201072693,0.03601176664233208,0.45571696758270264,-0.8891385793685913,0.0,0.0,0.0,0.0,0.0,0.0
1482,1724815054508000497,-1.786698341369629,-0.5100845694541931,0.1641305387020111,0.022606002166867256,0.03817632049322128,0.45539477467536926,-0.8891834020614624,0.0,0.0,0.0,0.0,0.0,0.0
1484,1724815054518139189,-1.7856786251068115,-0.5107688307762146,0.16414953768253326,0.023241130635142326,0.0384342223405838,0.4560551345348358,-0.8888174295425415,0.0,0.0,0.0,0.0,0.0,0.0
1486,1724815054529150441,-1.7846189737319946,-0.5113734602928162,0.16437295079231262,0.0230744406580925,0.03750236704945564,0.45720165967941284,-0.8882724642753601,0.0,0.0,0.0,0.0,0.0,0.0
1488,1724815054538039637,-1.7836132049560547,-0.5121105909347534,0.16425754129886627,0.023363882675766945,0.03885222598910332,0.4572737216949463,-0.8881697058677673,0.0,0.0,0.0,0.0,0.0,0.0
1490,1724815054607864815,-1.7825944423675537,-0.5126899480819702,0.1643776148557663,0.023047948256134987,0.039662230759859085,0.45785102248191833,-0.8878446817398071,0.0,0.0,0.0,0.0,0.0,0.0
1492,1724815054608243730,-1.7814706563949585,-0.5132721662521362,0.16434252262115479,0.023226188495755196,0.04034602642059326,0.45877641439437866,-0.8873313665390015,0.0,0.0,0.0,0.0,0.0,0.0
1494,1724815054608646180,-1.7803641557693481,-0.5140028595924377,0.16407255828380585,0.02260270155966282,0.041473936289548874,0.4588470458984375,-0.8872590065002441,0.0,0.0,0.0,0.0,0.0,0.0
1496,1724815054609012610,-1.7792969942092896,-0.5145910382270813,0.16391704976558685,0.0233970545232296,0.042028605937957764,0.4591996669769287,-0.8870298266410828,0.0,0.0,0.0,0.0,0.0,0.0
1498,1724815054609268276,-1.7780803442001343,-0.5150766372680664,0.1639411896467209,0.023580392822623253,0.042021363973617554,0.46039336919784546,-0.8864063024520874,0.0,0.0,0.0,0.0,0.0,0.0
1500,1724815054609579813,-1.7769949436187744,-0.5156915783882141,0.16371630132198334,0.024221917614340782,0.043336428701877594,0.4600159227848053,-0.886521577835083,0.0,0.0,0.0,0.0,0.0,0.0
1502,1724815054610010093,-1.7758421897888184,-0.516202449798584,0.16365021467208862,0.023759590461850166,0.0445982962846756,0.4604480266571045,-0.8862472176551819,0.0,0.0,0.0,0.0,0.0,0.0
1504,1724815054617513827,-1.7747297286987305,-0.5165129899978638,0.16377191245555878,0.024671347811818123,0.045804210007190704,0.4616405665874481,-0.8855401873588562,0.0,0.0,0.0,0.0,0.0,0.0
1506,1724815054630048224,-1.7735238075256348,-0.5170710682868958,0.16370011866092682,0.02430177479982376,0.04567592218518257,0.4623490571975708,-0.8851872682571411,0.0,0.0,0.0,0.0,0.0,0.0
1508,1724815054637916692,-1.7725200653076172,-0.517756998538971,0.16307267546653748,0.02576911263167858,0.048835817724466324,0.4608611464500427,-0.8857529163360596,0.0,0.0,0.0,0.0,0.0,0.0
1510,1724815054648186358,-1.7713767290115356,-0.5180789828300476,0.1633019745349884,0.025372250005602837,0.04889003187417984,0.4620806574821472,-0.8851257562637329,0.0,0.0,0.0,0.0,0.0,0.0
1512,1724815054657874950,-1.7702600955963135,-0.5185019969940186,0.16333819925785065,0.025479035452008247,0.04918566718697548,0.46261993050575256,-0.8848245143890381,0.0,0.0,0.0,0.0,0.0,0.0
1514,1724815054668359170,-1.769243597984314,-0.5188640356063843,0.1633739322423935,0.025614531710743904,0.0484522320330143,0.4631515443325043,-0.8845828771591187,0.0,0.0,0.0,0.0,0.0,0.0
1516,1724815054678146317,-1.7682571411132812,-0.5193670392036438,0.16324077546596527,0.02509632520377636,0.048889365047216415,0.4627179503440857,-0.8848006129264832,0.0,0.0,0.0,0.0,0.0,0.0
1518,1724815054687978163,-1.7673399448394775,-0.519826352596283,0.1631418913602829,0.024700865149497986,0.04965265840291977,0.46267130970954895,-0.8847936391830444,0.0,0.0,0.0,0.0,0.0,0.0
1520,1724815054698750801,-1.7664108276367188,-0.5201881527900696,0.16315974295139313,0.025353895500302315,0.04970187321305275,0.46340471506118774,-0.8843885064125061,0.0,0.0,0.0,0.0,0.0,0.0
1522,1724815054708029954,-1.7653769254684448,-0.5205212831497192,0.1633291095495224,0.025041580200195312,0.050492651760578156,0.46405935287475586,-0.8840093016624451,0.0,0.0,0.0,0.0,0.0,0.0
1524,1724815054718409957,-1.764324426651001,-0.5208156108856201,0.16333240270614624,0.02559424564242363,0.05119382590055466,0.4649827480316162,-0.8834676742553711,0.0,0.0,0.0,0.0,0.0,0.0
1526,1724815054729539650,-1.7633330821990967,-0.5210944414138794,0.16327247023582458,0.026079442352056503,0.05197329446673393,0.46556758880615234,-0.8830999732017517,0.0,0.0,0.0,0.0,0.0,0.0
1528,1724815054737882547,-1.7624688148498535,-0.5216024518013,0.16276532411575317,0.026988720521330833,0.05394035205245018,0.46499526500701904,-0.883256196975708,0.0,0.0,0.0,0.0,0.0,0.0
1530,1724815054748037048,-1.7615046501159668,-0.521921694278717,0.16250360012054443,0.027416175231337547,0.055863264948129654,0.4648866355419159,-0.8831806182861328,0.0,0.0,0.0,0.0,0.0,0.0
1532,1724815054759197427,-1.7606676816940308,-0.5222920775413513,0.16200722754001617,0.02938983589410782,0.058332934975624084,0.4644215703010559,-0.8832021951675415,0.0,0.0,0.0,0.0,0.0,0.0
1534,1724815054768645131,-1.7596135139465332,-0.5223790407180786,0.16202853620052338,0.027657892554998398,0.058405086398124695,0.46528249979019165,-0.8828001022338867,0.0,0.0,0.0,0.0,0.0,0.0
1536,1724815054778931089,-1.75855553150177,-0.5224834084510803,0.16213390231132507,0.028176285326480865,0.05947298929095268,0.4665108919143677,-0.8820639252662659,0.0,0.0,0.0,0.0,0.0,0.0
1538,1724815054787745720,-1.7575417757034302,-0.5225527882575989,0.16220174729824066,0.028575362637639046,0.059593360871076584,0.4678521454334259,-0.8813323378562927,0.0,0.0,0.0,0.0,0.0,0.0
1540,1724815054803105548,-1.7564613819122314,-0.5224524140357971,0.1626150757074356,0.02671789564192295,0.058192718774080276,0.4693838357925415,-0.8806694746017456,0.0,0.0,0.0,0.0,0.0,0.0
1542,1724815054808287627,-1.7555066347122192,-0.5227215886116028,0.16230592131614685,0.027392586693167686,0.05936291441321373,0.4693548083305359,-0.8805860280990601,0.0,0.0,0.0,0.0,0.0,0.0
1544,1724815054817940759,-1.7545076608657837,-0.5228859186172485,0.16207437217235565,0.02779986523091793,0.06020471453666687,0.4693259596824646,-0.8805314898490906,0.0,0.0,0.0,0.0,0.0,0.0
1546,1724815054829015697,-1.7535122632980347,-0.5229460000991821,0.16214467585086823,0.02921210788190365,0.06118280068039894,0.46960729360580444,-0.880268394947052,0.0,0.0,0.0,0.0,0.0,0.0
1548,1724815054838834450,-1.7525324821472168,-0.5228988528251648,0.1624138206243515,0.028729287907481194,0.061482805758714676,0.4701341986656189,-0.8799819946289062,0.0,0.0,0.0,0.0,0.0,0.0
1550,1724815054848103810,-1.7515764236450195,-0.5228516459465027,0.1627262383699417,0.02757575362920761,0.060087915509939194,0.47072160243988037,-0.8798012733459473,0.0,0.0,0.0,0.0,0.0,0.0
1552,1724815054858450776,-1.750540852546692,-0.5228435397148132,0.16296768188476562,0.02617510035634041,0.060358740389347076,0.4714174270629883,-0.8794528245925903,0.0,0.0,0.0,0.0,0.0,0.0
1554,1724815054867713473,-1.7496654987335205,-0.5228413343429565,0.16318559646606445,0.026360198855400085,0.060758933424949646,0.4716523289680481,-0.8792937994003296,0.0,0.0,0.0,0.0,0.0,0.0
1556,1724815054878715887,-1.7487818002700806,-0.5228539705276489,0.1633124053478241,0.026001762598752975,0.06172025576233864,0.4716523587703705,-0.8792374730110168,0.0,0.0,0.0,0.0,0.0,0.0
1558,1724815054888374019,-1.7478193044662476,-0.5228917598724365,0.16329234838485718,0.02525459975004196,0.06308459490537643,0.4714878499507904,-0.8792506456375122,0.0,0.0,0.0,0.0,0.0,0.0
1560,1724815054897715903,-1.7468982934951782,-0.5226467251777649,0.16364437341690063,0.02624979242682457,0.062428876757621765,0.47277525067329407,-0.8785768151283264,0.0,0.0,0.0,0.0,0.0,0.0
1562,1724815054907644478,-1.745967149734497,-0.5224315524101257,0.16386908292770386,0.027073625475168228,0.06309370696544647,0.47317859530448914,-0.878287136554718,0.0,0.0,0.0,0.0,0.0,0.0
1564,1724815054918358366,-1.7450551986694336,-0.5222800970077515,0.1638694703578949,0.02697349525988102,0.06481371819972992,0.4730144441127777,-0.8782533407211304,0.0,0.0,0.0,0.0,0.0,0.0
1566,1724815054928326219,-1.7441095113754272,-0.5219508409500122,0.16385957598686218,0.02720854990184307,0.06607778370380402,0.4734048545360565,-0.8779414892196655,0.0,0.0,0.0,0.0,0.0,0.0
1568,1724815054937675822,-1.743177890777588,-0.5216829776763916,0.1637476235628128,0.028400052338838577,0.06896393746137619,0.4733191132545471,-0.8777279257774353,0.0,0.0,0.0,0.0,0.0,0.0
1570,1724815054949930415,-1.7421163320541382,-0.5213670134544373,0.16372203826904297,0.028044484555721283,0.07089140266180038,0.4736434817314148,-0.8774107694625854,0.0,0.0,0.0,0.0,0.0,0.0
1572,1724815054957810332,-1.7410215139389038,-0.5211464166641235,0.16358500719070435,0.028216160833835602,0.07267774641513824,0.4735964238643646,-0.8772846460342407,0.0,0.0,0.0,0.0,0.0,0.0
1574,1724815054968075281,-1.7398160696029663,-0.5207171440124512,0.16387015581130981,0.027227064594626427,0.07312075048685074,0.4745377004146576,-0.8767701983451843,0.0,0.0,0.0,0.0,0.0,0.0
1576,1724815054979380930,-1.7386094331741333,-0.5203931927680969,0.1640234738588333,0.02614409662783146,0.07493804395198822,0.47487226128578186,-0.8764685988426208,0.0,0.0,0.0,0.0,0.0,0.0
1578,1724815054988233722,-1.737477421760559,-0.5201579332351685,0.16398625075817108,0.026367537677288055,0.07733418792486191,0.4752670228481293,-0.8760396838188171,0.0,0.0,0.0,0.0,0.0,0.0
1580,1724815054998316176,-1.736163854598999,-0.5196927189826965,0.16441671550273895,0.02567426860332489,0.07800911366939545,0.4765925407409668,-0.87527996301651,0.0,0.0,0.0,0.0,0.0,0.0
1582,1724815055009917390,-1.7347675561904907,-0.5191773772239685,0.16493721306324005,0.023633133620023727,0.07707113772630692,0.4783376157283783,-0.874468207359314,0.0,0.0,0.0,0.0,0.0,0.0
1584,1724815055017896831,-1.733482837677002,-0.5191159248352051,0.1646217554807663,0.02345985732972622,0.07891061902046204,0.4779840111732483,-0.8745022416114807,0.0,0.0,0.0,0.0,0.0,0.0
1586,1724815055028648876,-1.732166051864624,-0.5187856554985046,0.16478540003299713,0.023727692663669586,0.08043809235095978,0.4782651662826538,-0.8742020130157471,0.0,0.0,0.0,0.0,0.0,0.0
1588,1724815055038531724,-1.730721116065979,-0.5184266567230225,0.1650232970714569,0.02197869122028351,0.08126213401556015,0.47866740822792053,-0.8739514350891113,0.0,0.0,0.0,0.0,0.0,0.0
1590,1724815055051802262,-1.7292394638061523,-0.5182387828826904,0.16511116921901703,0.0201786570250988,0.08068598061800003,0.47949349880218506,-0.8735952377319336,0.0,0.0,0.0,0.0,0.0,0.0
1592,1724815055058008247,-1.7279471158981323,-0.5181223750114441,0.16510608792304993,0.020590348169207573,0.0817965716123581,0.4792235791683197,-0.8736304044723511,0.0,0.0,0.0,0.0,0.0,0.0
1594,1724815055069776447,-1.7267224788665771,-0.5179999470710754,0.164991557598114,0.02120334282517433,0.0827111080288887,0.47884318232536316,-0.8737382292747498,0.0,0.0,0.0,0.0,0.0,0.0
1596,1724815055079387651,-1.7253928184509277,-0.5178926587104797,0.16494381427764893,0.020558062940835953,0.08440298587083817,0.47878625988960266,-0.8736231327056885,0.0,0.0,0.0,0.0,0.0,0.0
1598,1724815055089649021,-1.723865270614624,-0.5176527500152588,0.16545738279819489,0.01912505552172661,0.0825275108218193,0.4801505208015442,-0.8730858564376831,0.0,0.0,0.0,0.0,0.0,0.0
1600,1724815055098510600,-1.7225048542022705,-0.5176709294319153,0.16552937030792236,0.018309427425265312,0.08299510180950165,0.4801124036312103,-0.8730800151824951,0.0,0.0,0.0,0.0,0.0,0.0
1602,1724815055108326881,-1.7214076519012451,-0.5179535746574402,0.16526715457439423,0.02121707797050476,0.08557697385549545,0.4784376323223114,-0.8736841082572937,0.0,0.0,0.0,0.0,0.0,0.0
1604,1724815055118274119,-1.7201176881790161,-0.5180224180221558,0.16512660682201385,0.02087932638823986,0.08648562431335449,0.47774815559387207,-0.8739800453186035,0.0,0.0,0.0,0.0,0.0,0.0
1606,1724815055129448247,-1.7188844680786133,-0.5180287957191467,0.16515547037124634,0.020537404343485832,0.08742830902338028,0.4775472581386566,-0.874004065990448,0.0,0.0,0.0,0.0,0.0,0.0
1608,1724815055139296914,-1.7176710367202759,-0.5179205536842346,0.1654062122106552,0.020468266680836678,0.08775263279676437,0.47789689898490906,-0.8737820386886597,0.0,0.0,0.0,0.0,0.0,0.0
1610,1724815055147777056,-1.716449499130249,-0.5179164409637451,0.16561762988567352,0.01998678408563137,0.08809619396924973,0.47814667224884033,-0.873621940612793,0.0,0.0,0.0,0.0,0.0,0.0
1612,1724815055158216207,-1.7150752544403076,-0.5179080367088318,0.16605404019355774,0.01729799434542656,0.08695930987596512,0.47861626744270325,-0.8735360503196716,0.0,0.0,0.0,0.0,0.0,0.0
1614,1724815055169685566,-1.7139549255371094,-0.5179607272148132,0.16616235673427582,0.016763238236308098,0.0869428738951683,0.4785562753677368,-0.8735809922218323,0.0,0.0,0.0,0.0,0.0,0.0
1616,1724815055178132098,-1.7128697633743286,-0.5180468559265137,0.16591542959213257,0.01713366061449051,0.08857747167348862,0.47758182883262634,-0.8739427924156189,0.0,0.0,0.0,0.0,0.0,0.0
1618,1724815055187600720,-1.7117767333984375,-0.5179886221885681,0.16597039997577667,0.016607625409960747,0.08900971710681915,0.4775947630405426,-0.8739020228385925,0.0,0.0,0.0,0.0,0.0,0.0
1620,1724815055197994057,-1.710578441619873,-0.5177823305130005,0.16649161279201508,0.014422725886106491,0.08775237947702408,0.47887176275253296,-0.873369038105011,0.0,0.0,0.0,0.0,0.0,0.0
1622,1724815055225644640,-1.7094957828521729,-0.5177278518676758,0.1666901409626007,0.01482268888503313,0.08728758990764618,0.4789695739746094,-0.8733552098274231,0.0,0.0,0.0,0.0,0.0,0.0
1624,1724815055225905080,-1.7083892822265625,-0.5175745487213135,0.1669963002204895,0.014629006385803223,0.08736789971590042,0.4794071912765503,-0.873110294342041,0.0,0.0,0.0,0.0,0.0,0.0
1626,1724815055229091581,-1.7072577476501465,-0.51749587059021,0.1671830415725708,0.013558176346123219,0.08792990446090698,0.4797247648239136,-0.872896671295166,0.0,0.0,0.0,0.0,0.0,0.0
1628,1724815055238023923,-1.7062064409255981,-0.5173014402389526,0.1673724204301834,0.013394230976700783,0.08730921894311905,0.4806132912635803,-0.8724727034568787,0.0,0.0,0.0,0.0,0.0,0.0
1630,1724815055251529712,-1.7052379846572876,-0.5173767805099487,0.1668839305639267,0.013576854951679707,0.08908233791589737,0.4793517589569092,-0.8729844689369202,0.0,0.0,0.0,0.0,0.0,0.0
1632,1724815055260037288,-1.7041233777999878,-0.5170786380767822,0.16733980178833008,0.01162190455943346,0.08782422542572021,0.4806138277053833,-0.8724461197853088,0.0,0.0,0.0,0.0,0.0,0.0
1634,1724815055269421302,-1.7030712366104126,-0.516950249671936,0.1674250066280365,0.0110841765999794,0.08742319792509079,0.48084908723831177,-0.8723637461662292,0.0,0.0,0.0,0.0,0.0,0.0
1636,1724815055279104731,-1.7021857500076294,-0.5168439149856567,0.16714121401309967,0.011666176840662956,0.08827419579029083,0.48061665892601013,-0.8723986148834229,0.0,0.0,0.0,0.0,0.0,0.0
1638,1724815055287550913,-1.701227068901062,-0.5165705680847168,0.16720391809940338,0.011425521224737167,0.08803342282772064,0.4813612699508667,-0.8720154166221619,0.0,0.0,0.0,0.0,0.0,0.0
1640,1724815055302927326,-1.7003083229064941,-0.51630038022995,0.16730952262878418,0.01200365275144577,0.08721296489238739,0.48199164867401123,-0.8717419505119324,0.0,0.0,0.0,0.0,0.0,0.0
1642,1724815055309091265,-1.6994656324386597,-0.5160067081451416,0.16757908463478088,0.01213754154741764,0.08632853627204895,0.4829029142856598,-0.8713236451148987,0.0,0.0,0.0,0.0,0.0,0.0
1644,1724815055318071377,-1.6985743045806885,-0.515911877155304,0.1675240695476532,0.010337802581489086,0.08692245185375214,0.4826567471027374,-0.8714242577552795,0.0,0.0,0.0,0.0,0.0,0.0
1646,1724815055344056814,-1.6976085901260376,-0.5157358050346375,0.16750860214233398,0.0096890302374959,0.08660253882408142,0.4829470217227936,-0.871302604675293,0.0,0.0,0.0,0.0,0.0,0.0
1648,1724815055344353456,-1.6966454982757568,-0.5155996084213257,0.16754555702209473,0.00851384736597538,0.08675313740968704,0.48330962657928467,-0.8710988759994507,0.0,0.0,0.0,0.0,0.0,0.0
1650,1724815055347950020,-1.6957403421401978,-0.5153986215591431,0.16778293251991272,0.00682781171053648,0.0865335613489151,0.4843462407588959,-0.8705596327781677,0.0,0.0,0.0,0.0,0.0,0.0
1652,1724815055358014759,-1.694739818572998,-0.5151496529579163,0.16811919212341309,0.005042906850576401,0.08541477471590042,0.48562565445899963,-0.8699693083763123,0.0,0.0,0.0,0.0,0.0,0.0
1654,1724815055368173922,-1.6937943696975708,-0.5151176452636719,0.16809147596359253,0.004251578822731972,0.08524225652217865,0.48608455061912537,-0.8697341680526733,0.0,0.0,0.0,0.0,0.0,0.0
1656,1724815055378209733,-1.692954421043396,-0.5151194334030151,0.16792307794094086,0.004630019888281822,0.08538714051246643,0.4861113131046295,-0.8697030544281006,0.0,0.0,0.0,0.0,0.0,0.0
1658,1724815055388141131,-1.692026972770691,-0.5151107311248779,0.1680847853422165,0.0036675757728517056,0.08477610349655151,0.4861593544483185,-0.8697406053543091,0.0,0.0,0.0,0.0,0.0,0.0
1660,1724815055398132477,-1.6911530494689941,-0.5150341391563416,0.16831976175308228,0.0038752658292651176,0.08504998683929443,0.4870568811893463,-0.8692106604576111,0.0,0.0,0.0,0.0,0.0,0.0
1662,1724815055408751071,-1.690240502357483,-0.5148371458053589,0.16884788870811462,0.002860128413885832,0.0832289457321167,0.4886862337589264,-0.8684760332107544,0.0,0.0,0.0,0.0,0.0,0.0
1664,1724815055419416972,-1.6893994808197021,-0.5149587392807007,0.16892388463020325,0.0022552073933184147,0.08308998495340347,0.4890575706958771,-0.8682820200920105,0.0,0.0,0.0,0.0,0.0,0.0
1666,1724815055434492709,-1.6885435581207275,-0.5150185227394104,0.1691422462463379,0.0016670548357069492,0.08237814158201218,0.48978978395462036,-0.8679383993148804,0.0,0.0,0.0,0.0,0.0,0.0
1668,1724815055437724779,-1.6877574920654297,-0.5150843262672424,0.1692628264427185,0.0017226991476491094,0.08217500895261765,0.49004682898521423,-0.8678125143051147,0.0,0.0,0.0,0.0,0.0,0.0
1670,1724815055448727153,-1.6869314908981323,-0.5152343511581421,0.16923895478248596,0.0012080229353159666,0.08174580335617065,0.4901852011680603,-0.8677756786346436,0.0,0.0,0.0,0.0,0.0,0.0
1672,1724815055478737511,-1.6860638856887817,-0.5153037309646606,0.1694345623254776,0.00041256906115449965,0.08068536967039108,0.4910339117050171,-0.8673957586288452,0.0,0.0,0.0,0.0,0.0,0.0
1674,1724815055479066086,-1.6852360963821411,-0.5154549479484558,0.16954022645950317,-0.0009658052586019039,0.07990729808807373,0.4915271997451782,-0.8671879172325134,0.0,0.0,0.0,0.0,0.0,0.0
1676,1724815055479311443,-1.6844524145126343,-0.515640914440155,0.16964787244796753,-0.0015432325890287757,0.07965441793203354,0.4919789731502533,-0.8669542074203491,0.0,0.0,0.0,0.0,0.0,0.0
1678,1724815055487826962,-1.6836121082305908,-0.5157959461212158,0.16978304088115692,-0.0029398894403129816,0.07899734377861023,0.49267345666885376,-0.8666161894798279,0.0,0.0,0.0,0.0,0.0,0.0
1680,1724815055502541792,-1.6827362775802612,-0.5160260796546936,0.16997180879116058,-0.003392183454707265,0.07807683944702148,0.4933158755302429,-0.866332471370697,0.0,0.0,0.0,0.0,0.0,0.0
1682,1724815055507801407,-1.6818588972091675,-0.5161677598953247,0.1703730970621109,-0.004380486905574799,0.07670129835605621,0.4943219721317291,-0.8658772706985474,0.0,0.0,0.0,0.0,0.0,0.0
1684,1724815055518333827,-1.6810345649719238,-0.5165217518806458,0.17035242915153503,-0.004882121458649635,0.07619819790124893,0.4942367672920227,-0.8659676909446716,0.0,0.0,0.0,0.0,0.0,0.0
1686,1724815055528249167,-1.6801798343658447,-0.5166527032852173,0.17076824605464935,-0.0036179579328745604,0.07358410954475403,0.49554747343063354,-0.8654507994651794,0.0,0.0,0.0,0.0,0.0,0.0
1688,1724815055566468416,-1.6793246269226074,-0.5169497132301331,0.17101514339447021,-0.003324794117361307,0.07205209136009216,0.496359646320343,-0.8651154041290283,0.0,0.0,0.0,0.0,0.0,0.0
1690,1724815055566735789,-1.6783499717712402,-0.5173435807228088,0.17118717730045319,-0.004964055493474007,0.07113451510667801,0.49672946333885193,-0.8649712204933167,0.0,0.0,0.0,0.0,0.0,0.0
1692,1724815055566962913,-1.677438497543335,-0.5177993178367615,0.17108415067195892,-0.0051581356674432755,0.07128025591373444,0.49641406536102295,-0.8651390671730042,0.0,0.0,0.0,0.0,0.0,0.0
1694,1724815055567779577,-1.676486849784851,-0.5181887149810791,0.17120341956615448,-0.0064701056107878685,0.0698026493191719,0.49679291248321533,-0.8650332689285278,0.0,0.0,0.0,0.0,0.0,0.0
1696,1724815055578146886,-1.6754250526428223,-0.518540620803833,0.17154395580291748,-0.008456669747829437,0.06702392548322678,0.49776580929756165,-0.8646765351295471,0.0,0.0,0.0,0.0,0.0,0.0
1698,1724815055588374931,-1.6743139028549194,-0.5189635157585144,0.1717429757118225,-0.009138550609350204,0.06553776562213898,0.4985770285129547,-0.8643159866333008,0.0,0.0,0.0,0.0,0.0,0.0
1700,1724815055598106654,-1.673210620880127,-0.5195322632789612,0.17189691960811615,-0.010581139475107193,0.06447568535804749,0.4984075725078583,-0.864477276802063,0.0,0.0,0.0,0.0,0.0,0.0
1702,1724815055607934690,-1.6721034049987793,-0.5200093388557434,0.17213714122772217,-0.011164817959070206,0.06185515969991684,0.4991213381290436,-0.8642495274543762,0.0,0.0,0.0,0.0,0.0,0.0
1704,1724815055716069665,-1.6708881855010986,-0.5205245018005371,0.17235681414604187,-0.012554686516523361,0.0583949014544487,0.5001123547554016,-0.8638982176780701,0.0,0.0,0.0,0.0,0.0,0.0
1706,1724815055716981224,-1.6696078777313232,-0.5210620164871216,0.17244134843349457,-0.013959420844912529,0.05499192327260971,0.5007551312446594,-0.8637276291847229,0.0,0.0,0.0,0.0,0.0,0.0
1708,1724815055717394310,-1.6683638095855713,-0.5215104818344116,0.1726594716310501,-0.01403302326798439,0.05195397138595581,0.501599133014679,-0.8634247183799744,0.0,0.0,0.0,0.0,0.0,0.0
1710,1724815055717859202,-1.6669785976409912,-0.5221214890480042,0.17280524969100952,-0.015406702645123005,0.04992322996258736,0.5020714998245239,-0.8632465600967407,0.0,0.0,0.0,0.0,0.0,0.0
1712,1724815055718341616,-1.665574550628662,-0.5227394700050354,0.17266732454299927,-0.016673389822244644,0.046636179089546204,0.5021951198577881,-0.8633348941802979,0.0,0.0,0.0,0.0,0.0,0.0
1714,1724815055718753569,-1.663999080657959,-0.5233378410339355,0.17280972003936768,-0.01964881271123886,0.04222404956817627,0.5029317736625671,-0.8630706071853638,0.0,0.0,0.0,0.0,0.0,0.0
1716,1724815055719186113,-1.6626133918762207,-0.5241072177886963,0.17238666117191315,-0.019108392298221588,0.04036321863532066,0.5024770498275757,-0.8634364604949951,0.0,0.0,0.0,0.0,0.0,0.0
1718,1724815055719588038,-1.6608738899230957,-0.5246609449386597,0.1727827936410904,-0.02187594585120678,0.03503395617008209,0.5040010809898376,-0.8627148866653442,0.0,0.0,0.0,0.0,0.0,0.0
1720,1724815055720022571,-1.6594136953353882,-0.5255345106124878,0.17231781780719757,-0.02366631291806698,0.03306715935468674,0.5034813284873962,-0.8630487322807312,0.0,0.0,0.0,0.0,0.0,0.0
1722,1724815055720455835,-1.6577438116073608,-0.5262818932533264,0.17233076691627502,-0.02446097880601883,0.028090355917811394,0.5040217638015747,-0.862887442111969,0.0,0.0,0.0,0.0,0.0,0.0
1724,1724815055720951559,-1.656042456626892,-0.5270496606826782,0.1725878268480301,-0.025407889857888222,0.023727739229798317,0.504622757434845,-0.8626397848129272,0.0,0.0,0.0,0.0,0.0,0.0
1726,1724815055729380906,-1.6542197465896606,-0.5279269814491272,0.17261449992656708,-0.028884952887892723,0.01815369911491871,0.5054064393043518,-0.8622066974639893,0.0,0.0,0.0,0.0,0.0,0.0
1728,1724815055741590605,-1.6526130437850952,-0.528954029083252,0.1722928136587143,-0.029197312891483307,0.015067404136061668,0.5045899152755737,-0.862733781337738,0.0,0.0,0.0,0.0,0.0,0.0
1730,1724815055750025616,-1.650795340538025,-0.5298653841018677,0.17272669076919556,-0.030052661895751953,0.009649034589529037,0.5056909918785095,-0.8621371984481812,0.0,0.0,0.0,0.0,0.0,0.0
1732,1724815055758349212,-1.6488579511642456,-0.5310441255569458,0.17251276969909668,-0.033378664404153824,0.004874362610280514,0.5064019560813904,-0.861637532711029,0.0,0.0,0.0,0.0,0.0,0.0
1734,1724815055768526965,-1.647025227546692,-0.5322452783584595,0.17227716743946075,-0.03551826998591423,0.0003599640040192753,0.506095290184021,-0.8617458343505859,0.0,0.0,0.0,0.0,0.0,0.0
1736,1724815055779131174,-1.6450884342193604,-0.5334214568138123,0.17240339517593384,-0.03708008676767349,-0.006651344243437052,0.5068436861038208,-0.8612145185470581,0.0,0.0,0.0,0.0,0.0,0.0
1738,1724815055788266636,-1.6433444023132324,-0.5347055792808533,0.17199987173080444,-0.03801026940345764,-0.009090032428503036,0.5061829686164856,-0.8615401387214661,0.0,0.0,0.0,0.0,0.0,0.0
1740,1724815055798406055,-1.6414650678634644,-0.5357433557510376,0.17219868302345276,-0.03896063566207886,-0.012053334154188633,0.5066971778869629,-0.8611590266227722,0.0,0.0,0.0,0.0,0.0,0.0
1742,1724815055808959771,-1.6399263143539429,-0.5367962121963501,0.1720023900270462,-0.0381782166659832,-0.013980071991682053,0.5069864988327026,-0.8609945178031921,0.0,0.0,0.0,0.0,0.0,0.0
1744,1724815055817793700,-1.638317584991455,-0.5377304553985596,0.1719466596841812,-0.04052175208926201,-0.015948496758937836,0.5073526501655579,-0.8606375455856323,0.0,0.0,0.0,0.0,0.0,0.0
1746,1724815055829647348,-1.6368799209594727,-0.5386568903923035,0.17207007110118866,-0.04326068237423897,-0.0174412801861763,0.5080231428146362,-0.8600795865058899,0.0,0.0,0.0,0.0,0.0,0.0
1748,1724815055838090266,-1.6356556415557861,-0.5395108461380005,0.17192603647708893,-0.0426383875310421,-0.017039557918906212,0.5083606839179993,-0.8599191904067993,0.0,0.0,0.0,0.0,0.0,0.0
1750,1724815055852658081,-1.6345957517623901,-0.5401827692985535,0.17169150710105896,-0.04160654917359352,-0.016721894964575768,0.508389413356781,-0.8599590063095093,0.0,0.0,0.0,0.0,0.0,0.0
1752,1724815055859336994,-1.6335142850875854,-0.5407609343528748,0.17147746682167053,-0.04033423960208893,-0.01662117801606655,0.5085656046867371,-0.8599173426628113,0.0,0.0,0.0,0.0,0.0,0.0
1754,1724815055868034112,-1.6325042247772217,-0.5412760972976685,0.17108206450939178,-0.04119069129228592,-0.016592686995863914,0.5088407397270203,-0.8597145676612854,0.0,0.0,0.0,0.0,0.0,0.0
1756,1724815055878364567,-1.6316001415252686,-0.5418076515197754,0.17076900601387024,-0.04238154739141464,-0.016070887446403503,0.5084444284439087,-0.8599010109901428,0.0,0.0,0.0,0.0,0.0,0.0
1758,1724815055888277758,-1.6307882070541382,-0.5422409772872925,0.17058593034744263,-0.04269354045391083,-0.016052018851041794,0.5083330273628235,-0.859951913356781,0.0,0.0,0.0,0.0,0.0,0.0
1760,1724815055900855295,-1.6300675868988037,-0.5425612926483154,0.17064876854419708,-0.04309608414769173,-0.016019990667700768,0.5082136988639832,-0.860002875328064,0.0,0.0,0.0,0.0,0.0,0.0
1762,1724815055908358478,-1.629404067993164,-0.5427995920181274,0.1707809567451477,-0.04427511617541313,-0.01731499470770359,0.5082969665527344,-0.8598687052726746,0.0,0.0,0.0,0.0,0.0,0.0
1764,1724815055918494972,-1.629030466079712,-0.5429677367210388,0.17074739933013916,-0.04419352114200592,-0.01691647246479988,0.5080123543739319,-0.8600489497184753,0.0,0.0,0.0,0.0,0.0,0.0
1766,1724815055928138759,-1.6286892890930176,-0.5430216193199158,0.1708957403898239,-0.04464618116617203,-0.016904525458812714,0.5081824064254761,-0.859925389289856,0.0,0.0,0.0,0.0,0.0,0.0
1768,1724815055937974074,-1.6284102201461792,-0.5430329442024231,0.1709158718585968,-0.044912707060575485,-0.016986200585961342,0.5081478357315063,-0.8599302768707275,0.0,0.0,0.0,0.0,0.0,0.0
1770,1724815055948731887,-1.628178596496582,-0.5430015325546265,0.1708402782678604,-0.04565892741084099,-0.016717972233891487,0.5079445838928223,-0.8600163459777832,0.0,0.0,0.0,0.0,0.0,0.0
1772,1724815055958081662,-1.6279640197753906,-0.5428676605224609,0.17088410258293152,-0.045809973031282425,-0.016814712435007095,0.5080719590187073,-0.8599311709403992,0.0,0.0,0.0,0.0,0.0,0.0
1774,1724815055967936500,-1.627762794494629,-0.5427031517028809,0.17073926329612732,-0.04609963297843933,-0.016523005440831184,0.5080050230026245,-0.8599609136581421,0.0,0.0,0.0,0.0,0.0,0.0
1776,1724815055980053232,-1.6276004314422607,-0.5424189567565918,0.17078186571598053,-0.04605450481176376,-0.016743799671530724,0.5080546736717224,-0.8599296808242798,0.0,0.0,0.0,0.0,0.0,0.0
1778,1724815056016312846,-1.627414345741272,-0.542107105255127,0.17088276147842407,-0.04584059119224548,-0.01711777225136757,0.508374035358429,-0.8597450256347656,0.0,0.0,0.0,0.0,0.0,0.0
1780,1724815056016672080,-1.6272417306900024,-0.5418606400489807,0.17088337242603302,-0.045941177755594254,-0.017361853271722794,0.5082777738571167,-0.8597917556762695,0.0,0.0,0.0,0.0,0.0,0.0
1782,1724815056016997315,-1.6271194219589233,-0.5416700839996338,0.17066514492034912,-0.04521101340651512,-0.01702280342578888,0.5080206990242004,-0.8599889874458313,0.0,0.0,0.0,0.0,0.0,0.0
1784,1724815056018354838,-1.6269919872283936,-0.541481077671051,0.17038267850875854,-0.044681988656520844,-0.015351463109254837,0.5074002742767334,-0.8604143857955933,0.0,0.0,0.0,0.0,0.0,0.0
1786,1724815056028871412,-1.6267722845077515,-0.5412726998329163,0.17037852108478546,-0.045412804931402206,-0.014927485957741737,0.5075868368148804,-0.860273540019989,0.0,0.0,0.0,0.0,0.0,0.0
1788,1724815056037788627,-1.6265525817871094,-0.5410876870155334,0.17036373913288116,-0.046141766011714935,-0.01464037410914898,0.5076298713684082,-0.8602142333984375,0.0,0.0,0.0,0.0,0.0,0.0
1790,1724815056048423778,-1.626322627067566,-0.5409084558486938,0.17030677199363708,-0.04674588516354561,-0.014219382777810097,0.5076842904090881,-0.8601565361022949,0.0,0.0,0.0,0.0,0.0,0.0
1792,1724815056058214814,-1.6260560750961304,-0.540713369846344,0.17031355202198029,-0.04758294299244881,-0.013965165242552757,0.5079493522644043,-0.8599583506584167,0.0,0.0,0.0,0.0,0.0,0.0
1794,1724815056067694455,-1.6258066892623901,-0.5405201315879822,0.17030394077301025,-0.048607613891363144,-0.013650990091264248,0.5080665946006775,-0.859836757183075,0.0,0.0,0.0,0.0,0.0,0.0
1796,1724815056078207294,-1.6255905628204346,-0.5403406620025635,0.17031428217887878,-0.04887298122048378,-0.01327784638851881,0.5078557133674622,-0.8599521517753601,0.0,0.0,0.0,0.0,0.0,0.0
1798,1724815056088178598,-1.6254240274429321,-0.5401455163955688,0.17023225128650665,-0.048935629427433014,-0.012605996802449226,0.5075955986976624,-0.8601123094558716,0.0,0.0,0.0,0.0,0.0,0.0
1800,1724815056097760512,-1.6252394914627075,-0.5399253964424133,0.1702575385570526,-0.049154896289110184,-0.012243724428117275,0.5075657963752747,-0.8601226210594177,0.0,0.0,0.0,0.0,0.0,0.0
1802,1724815056110009984,-1.625084638595581,-0.5397064685821533,0.17024773359298706,-0.04891097918152809,-0.012133674696087837,0.5074487924575806,-0.8602070808410645,0.0,0.0,0.0,0.0,0.0,0.0
1804,1724815056118804108,-1.62493896484375,-0.5394416451454163,0.1702582687139511,-0.04846663773059845,-0.011961471289396286,0.5074592232704163,-0.8602285385131836,0.0,0.0,0.0,0.0,0.0,0.0
1806,1724815056128726095,-1.6248009204864502,-0.5391919612884521,0.17027775943279266,-0.048808202147483826,-0.011850367300212383,0.5076172351837158,-0.860117495059967,0.0,0.0,0.0,0.0,0.0,0.0
1808,1724815056138633034,-1.6247164011001587,-0.5389150977134705,0.17025360465049744,-0.049028050154447556,-0.011149040423333645,0.5075442790985107,-0.8601574301719666,0.0,0.0,0.0,0.0,0.0,0.0
1810,1724815056149551096,-1.6246787309646606,-0.5386411547660828,0.17028199136257172,-0.04834165796637535,-0.010370629839599133,0.507424533367157,-0.8602766394615173,0.0,0.0,0.0,0.0,0.0,0.0
1812,1724815056158147596,-1.6246293783187866,-0.5383856892585754,0.17032679915428162,-0.04866029694676399,-0.009571707807481289,0.5074120759963989,-0.8602752685546875,0.0,0.0,0.0,0.0,0.0,0.0
1814,1724815056168883343,-1.6246014833450317,-0.5381622910499573,0.17030678689479828,-0.048734936863183975,-0.008415634743869305,0.5073287487030029,-0.8603323101997375,0.0,0.0,0.0,0.0,0.0,0.0
1816,1724815056179203749,-1.6245723962783813,-0.5379642844200134,0.17036479711532593,-0.048718445003032684,-0.007746967487037182,0.507529079914093,-0.8602213263511658,0.0,0.0,0.0,0.0,0.0,0.0
1818,1724815056187647489,-1.6245719194412231,-0.5377779006958008,0.1703626811504364,-0.04878208786249161,-0.006831342354416847,0.5076090693473816,-0.8601782321929932,0.0,0.0,0.0,0.0,0.0,0.0
1820,1724815056198170888,-1.624577283859253,-0.5376543402671814,0.1703597456216812,-0.048503290861845016,-0.006444765254855156,0.507652997970581,-0.8601710796356201,0.0,0.0,0.0,0.0,0.0,0.0
1822,1724815056208363536,-1.6246103048324585,-0.537498414516449,0.17058569192886353,-0.04892997816205025,-0.00607949448749423,0.5080046057701111,-0.8599420189857483,0.0,0.0,0.0,0.0,0.0,0.0
1824,1724815056218011355,-1.6246329545974731,-0.537387490272522,0.17062759399414062,-0.048905741423368454,-0.00571806775406003,0.5082898736000061,-0.8597772717475891,0.0,0.0,0.0,0.0,0.0,0.0
1826,1724815056230194039,-1.6246687173843384,-0.5373244881629944,0.17065377533435822,-0.04936235025525093,-0.0052429200150072575,0.5083391070365906,-0.8597251176834106,0.0,0.0,0.0,0.0,0.0,0.0
1828,1724815056238675468,-1.624706506729126,-0.5372762680053711,0.1706433743238449,-0.049092650413513184,-0.004462940618395805,0.5083730816841125,-0.8597248792648315,0.0,0.0,0.0,0.0,0.0,0.0
1830,1724815056248620115,-1.6246925592422485,-0.5372530221939087,0.17071618139743805,-0.04905696213245392,-0.003939747344702482,0.5084525942802429,-0.8596823811531067,0.0,0.0,0.0,0.0,0.0,0.0
1832,1724815056257932600,-1.6246830224990845,-0.5372290015220642,0.17073754966259003,-0.04900668188929558,-0.0030979649163782597,0.5085450410842896,-0.8596340417861938,0.0,0.0,0.0,0.0,0.0,0.0
1834,1724815056267775567,-1.624607801437378,-0.5371171236038208,0.17101900279521942,-0.049560822546482086,-0.003834507195279002,0.5089685916900635,-0.8593485951423645,0.0,0.0,0.0,0.0,0.0,0.0
1836,1724815056278452337,-1.6245938539505005,-0.5370724201202393,0.17106510698795319,-0.049545153975486755,-0.003216454992070794,0.5090406537055969,-0.8593093752861023,0.0,0.0,0.0,0.0,0.0,0.0
1838,1724815056291458995,-1.624586582183838,-0.5370312929153442,0.1711030900478363,-0.049273695796728134,-0.0023160334676504135,0.5088677406311035,-0.8594302535057068,0.0,0.0,0.0,0.0,0.0,0.0
1840,1724815056297542160,-1.6245661973953247,-0.5369802117347717,0.17116151750087738,-0.049452826380729675,-0.0015596579760313034,0.5089148283004761,-0.8593937754631042,0.0,0.0,0.0,0.0,0.0,0.0
1842,1724815056308262612,-1.62454092502594,-0.5369111895561218,0.17121116816997528,-0.049559585750103,-0.0006589481490664184,0.5089508295059204,-0.8593674302101135,0.0,0.0,0.0,0.0,0.0,0.0
1844,1724815056317949280,-1.624624490737915,-0.5369236469268799,0.17101812362670898,-0.04836969077587128,0.0013318383134901524,0.5084139704704285,-0.8597521781921387,0.0,0.0,0.0,0.0,0.0,0.0
1846,1724815056328448318,-1.6246049404144287,-0.5368692874908447,0.17100001871585846,-0.04859936982393265,0.0022453218698501587,0.5084253549575806,-0.85973060131073,0.0,0.0,0.0,0.0,0.0,0.0
1848,1724815056338057358,-1.624664306640625,-0.5368306040763855,0.17098203301429749,-0.04843974858522415,0.0028872641269117594,0.5085334777832031,-0.8596738576889038,0.0,0.0,0.0,0.0,0.0,0.0
1850,1724815056348750730,-1.6247302293777466,-0.536828875541687,0.17089314758777618,-0.048674970865249634,0.003877440234646201,0.5084941387176514,-0.8596798181533813,0.0,0.0,0.0,0.0,0.0,0.0
1852,1724815056359266970,-1.6247940063476562,-0.5367808938026428,0.17075228691101074,-0.04903688654303551,0.004928127862513065,0.5085184574127197,-0.8596394658088684,0.0,0.0,0.0,0.0,0.0,0.0
1854,1724815056368229993,-1.624848484992981,-0.5367475152015686,0.17067180573940277,-0.049625299870967865,0.006295464932918549,0.5085782408714294,-0.8595614433288574,0.0,0.0,0.0,0.0,0.0,0.0
1856,1724815056386937399,-1.6249194145202637,-0.5366992354393005,0.1704995185136795,-0.05011957511305809,0.007614174857735634,0.508390486240387,-0.859633207321167,0.0,0.0,0.0,0.0,0.0,0.0
1858,1724815056387676093,-1.6249943971633911,-0.5366703271865845,0.17034703493118286,-0.05084985867142677,0.008967714384198189,0.5083511471748352,-0.8596005439758301,0.0,0.0,0.0,0.0,0.0,0.0
1860,1724815056401208625,-1.6251157522201538,-0.5366538763046265,0.17009390890598297,-0.05098595470190048,0.010584092698991299,0.5080388784408569,-0.8597586154937744,0.0,0.0,0.0,0.0,0.0,0.0
1862,1724815056408532641,-1.6252528429031372,-0.5366648435592651,0.16980992257595062,-0.05147175118327141,0.012602418661117554,0.507543683052063,-0.8599949479103088,0.0,0.0,0.0,0.0,0.0,0.0
1864,1724815056418108318,-1.6253823041915894,-0.5366998314857483,0.1695856750011444,-0.05200667679309845,0.013772168196737766,0.5074874758720398,-0.8599780797958374,0.0,0.0,0.0,0.0,0.0,0.0
1866,1724815056428297658,-1.6254966259002686,-0.5367417931556702,0.1692262440919876,-0.05294175073504448,0.01517685130238533,0.5072817802429199,-0.8600187301635742,0.0,0.0,0.0,0.0,0.0,0.0
1868,1724815056438376676,-1.6256860494613647,-0.5368338823318481,0.16866151988506317,-0.05320337414741516,0.017074640840291977,0.5066372156143188,-0.8603467345237732,0.0,0.0,0.0,0.0,0.0,0.0
1870,1724815056448081957,-1.6258419752120972,-0.536893367767334,0.16820098459720612,-0.05430357903242111,0.01896112784743309,0.5061911344528198,-0.8605011105537415,0.0,0.0,0.0,0.0,0.0,0.0
1872,1724815056485499634,-1.6260349750518799,-0.5369490385055542,0.1677897572517395,-0.05485730618238449,0.020823197439312935,0.5058779120445251,-0.8606072664260864,0.0,0.0,0.0,0.0,0.0,0.0
1874,1724815056486625436,-1.626212239265442,-0.5370162129402161,0.16730155050754547,-0.05619140714406967,0.022644342854619026,0.5055361986160278,-0.8606759309768677,0.0,0.0,0.0,0.0,0.0,0.0
1876,1724815056486941115,-1.626388669013977,-0.5371228456497192,0.16677379608154297,-0.05726543068885803,0.024727094918489456,0.5047473311424255,-0.8610106706619263,0.0,0.0,0.0,0.0,0.0,0.0
1878,1724815056487794455,-1.6264516115188599,-0.5371633768081665,0.16693821549415588,-0.059449825435876846,0.024361174553632736,0.5051923394203186,-0.8606120347976685,0.0,0.0,0.0,0.0,0.0,0.0
1880,1724815056498258926,-1.6266226768493652,-0.5373597741127014,0.16641581058502197,-0.060368556529283524,0.02607494406402111,0.5046027302742004,-0.8608436584472656,0.0,0.0,0.0,0.0,0.0,0.0
1882,1724815056508909559,-1.6267966032028198,-0.5375915169715881,0.16575868427753448,-0.06113247200846672,0.02795805223286152,0.5039376616477966,-0.8611202836036682,0.0,0.0,0.0,0.0,0.0,0.0
1884,1724815056518055358,-1.6269367933273315,-0.537775456905365,0.16518937051296234,-0.06186994910240173,0.02974763512611389,0.5033578276634216,-0.8613467812538147,0.0,0.0,0.0,0.0,0.0,0.0
1886,1724815056529078869,-1.6270427703857422,-0.5378984212875366,0.1648489534854889,-0.06312617659568787,0.030841829255223274,0.5032884478569031,-0.8612575531005859,0.0,0.0,0.0,0.0,0.0,0.0
1888,1724815056537886636,-1.62724769115448,-0.5381984710693359,0.1639401614665985,-0.06326797604560852,0.033906903117895126,0.5023300051689148,-0.861691415309906,0.0,0.0,0.0,0.0,0.0,0.0
1890,1724815056548257381,-1.6273483037948608,-0.5383289456367493,0.16338226199150085,-0.0649784505367279,0.03553080931305885,0.5020713806152344,-0.8616493344306946,0.0,0.0,0.0,0.0,0.0,0.0
1892,1724815056557816668,-1.6274855136871338,-0.5383958220481873,0.16304905712604523,-0.06623707711696625,0.0363599918782711,0.5022175312042236,-0.8614338636398315,0.0,0.0,0.0,0.0,0.0,0.0
1894,1724815056568052739,-1.6276079416275024,-0.5385652184486389,0.16244177520275116,-0.06818242371082306,0.03798995912075043,0.501783013343811,-0.8614649176597595,0.0,0.0,0.0,0.0,0.0,0.0
1896,1724815056578012027,-1.6277347803115845,-0.538666307926178,0.16194041073322296,-0.06869106739759445,0.03945934772491455,0.50136798620224,-0.8616000413894653,0.0,0.0,0.0,0.0,0.0,0.0
1898,1724815056590888423,-1.6278045177459717,-0.5387465357780457,0.16156336665153503,-0.06971994042396545,0.04064926132559776,0.5010150671005249,-0.8616673946380615,0.0,0.0,0.0,0.0,0.0,0.0
1900,1724815056600275463,-1.627916693687439,-0.5388574600219727,0.1610853374004364,-0.06988857686519623,0.0423925518989563,0.5001118779182434,-0.8620942234992981,0.0,0.0,0.0,0.0,0.0,0.0
1902,1724815056608535383,-1.6278557777404785,-0.5388823747634888,0.1609049290418625,-0.07087653130292892,0.04255145415663719,0.5003666281700134,-0.8618579506874084,0.0,0.0,0.0,0.0,0.0,0.0
1904,1724815056618276384,-1.6278384923934937,-0.538978099822998,0.1605777144432068,-0.07167588174343109,0.04356325790286064,0.49989309906959534,-0.8620160818099976,0.0,0.0,0.0,0.0,0.0,0.0
1906,1724815056629469794,-1.627820372581482,-0.5390735864639282,0.16031762957572937,-0.07234252989292145,0.044718187302351,0.49969175457954407,-0.8620179891586304,0.0,0.0,0.0,0.0,0.0,0.0
1908,1724815056638514205,-1.6277873516082764,-0.5391672253608704,0.1600235551595688,-0.07270543277263641,0.04545706510543823,0.4995788633823395,-0.8620142340660095,0.0,0.0,0.0,0.0,0.0,0.0
1910,1724815056648346599,-1.6277332305908203,-0.5392478704452515,0.15982292592525482,-0.07299186289310455,0.04601011052727699,0.49965959787368774,-0.8619139194488525,0.0,0.0,0.0,0.0,0.0,0.0
1912,1724815056670921328,-1.6276555061340332,-0.5392847061157227,0.15965113043785095,-0.07346826046705246,0.046154871582984924,0.4999699294567108,-0.8616857528686523,0.0,0.0,0.0,0.0,0.0,0.0
1914,1724815056671185109,-1.6275843381881714,-0.5393446683883667,0.1594473123550415,-0.07334059476852417,0.0466352142393589,0.4999983012676239,-0.8616542220115662,0.0,0.0,0.0,0.0,0.0,0.0
1916,1724815056678159871,-1.6274667978286743,-0.5394140481948853,0.15924976766109467,-0.07386689633131027,0.047133538872003555,0.5000016093254089,-0.8615802526473999,0.0,0.0,0.0,0.0,0.0,0.0
1918,1724815056687914347,-1.627286672592163,-0.5394662618637085,0.1591198891401291,-0.07427368313074112,0.04756423458456993,0.5003234148025513,-0.8613347411155701,0.0,0.0,0.0,0.0,0.0,0.0
1920,1724815056698201182,-1.627072811126709,-0.5395047068595886,0.1591080278158188,-0.07547644525766373,0.046764738857746124,0.5006263256072998,-0.8610978722572327,0.0,0.0,0.0,0.0,0.0,0.0
1922,1724815056707772603,-1.6269091367721558,-0.5395840406417847,0.15896670520305634,-0.07514798641204834,0.04720813035964966,0.5006182193756104,-0.8611071705818176,0.0,0.0,0.0,0.0,0.0,0.0
1924,1724815056717827303,-1.6267107725143433,-0.5396571755409241,0.15886150300502777,-0.07480817288160324,0.04751314967870712,0.5006275177001953,-0.8611146807670593,0.0,0.0,0.0,0.0,0.0,0.0
1926,1724815056728761846,-1.6265349388122559,-0.5397558212280273,0.15843676030635834,-0.07383907586336136,0.04928072169423103,0.5001890659332275,-0.8613536357879639,0.0,0.0,0.0,0.0,0.0,0.0
1928,1724815056743005363,-1.6263006925582886,-0.5397980213165283,0.15837348997592926,-0.07353958487510681,0.049534715712070465,0.5004824995994568,-0.8611942529678345,0.0,0.0,0.0,0.0,0.0,0.0
1930,1724815056747838056,-1.6261014938354492,-0.5398727655410767,0.15833592414855957,-0.07308485358953476,0.04959011450409889,0.500789225101471,-0.8610514998435974,0.0,0.0,0.0,0.0,0.0,0.0
1932,1724815056758470470,-1.6258665323257446,-0.539925754070282,0.15827983617782593,-0.07251846790313721,0.049370501190423965,0.5012944936752319,-0.8608179688453674,0.0,0.0,0.0,0.0,0.0,0.0
1934,1724815056776446267,-1.6255828142166138,-0.5400280356407166,0.15821829438209534,-0.07292523235082626,0.049814268946647644,0.501850426197052,-0.8604339361190796,0.0,0.0,0.0,0.0,0.0,0.0
1936,1724815056778982317,-1.6253528594970703,-0.5401298403739929,0.15824444591999054,-0.07291693985462189,0.05016864091157913,0.502370297908783,-0.8601105809211731,0.0,0.0,0.0,0.0,0.0,0.0
1938,1724815056787881518,-1.6250795125961304,-0.5402082204818726,0.15822410583496094,-0.0729595348238945,0.05013614520430565,0.5029981732368469,-0.8597418665885925,0.0,0.0,0.0,0.0,0.0,0.0
1940,1724815056806737012,-1.6248252391815186,-0.5403025150299072,0.15814264118671417,-0.07300934940576553,0.05041995272040367,0.5032966136932373,-0.8595464825630188,0.0,0.0,0.0,0.0,0.0,0.0
1942,1724815056808832288,-1.6245536804199219,-0.5403957962989807,0.15813089907169342,-0.07339829206466675,0.05066978558897972,0.5036775469779968,-0.8592754006385803,0.0,0.0,0.0,0.0,0.0,0.0
1944,1724815056826584809,-1.6242737770080566,-0.5404802560806274,0.15811412036418915,-0.07355385273694992,0.051043801009655,0.5039892196655273,-0.8590571284294128,0.0,0.0,0.0,0.0,0.0,0.0
1946,1724815056828392778,-1.6239964962005615,-0.5405915379524231,0.158095583319664,-0.0735786110162735,0.051184237003326416,0.5044868588447571,-0.8587545156478882,0.0,0.0,0.0,0.0,0.0,0.0
1948,1724815056837887716,-1.6237201690673828,-0.5406591296195984,0.1580863893032074,-0.07385178655385971,0.05138673633337021,0.5050090551376343,-0.858411967754364,0.0,0.0,0.0,0.0,0.0,0.0
1950,1724815056848017475,-1.6234610080718994,-0.5407130718231201,0.15804165601730347,-0.0738583356142044,0.051466114819049835,0.5055624842643738,-0.8580808639526367,0.0,0.0,0.0,0.0,0.0,0.0
1952,1724815056883010967,-1.6231868267059326,-0.5407493710517883,0.15805813670158386,-0.074150949716568,0.051602523773908615,0.506101667881012,-0.8577294945716858,0.0,0.0,0.0,0.0,0.0,0.0
1954,1724815056883345567,-1.6229053735733032,-0.5407286882400513,0.15827254951000214,-0.07433732599020004,0.05125836655497551,0.5071777701377869,-0.8570981621742249,0.0,0.0,0.0,0.0,0.0,0.0
1956,1724815056888040493,-1.6226420402526855,-0.5407636761665344,0.15829722583293915,-0.07442730665206909,0.051075343042612076,0.5077136158943176,-0.856783926486969,0.0,0.0,0.0,0.0,0.0,0.0
1958,1724815056888301555,-1.6224157810211182,-0.5407619476318359,0.15829643607139587,-0.07426764816045761,0.05104951560497284,0.5083221197128296,-0.8564385175704956,0.0,0.0,0.0,0.0,0.0,0.0
1960,1724815056898176098,-1.6222047805786133,-0.5408114194869995,0.15813696384429932,-0.0742153748869896,0.051205333322286606,0.5086754560470581,-0.856224000453949,0.0,0.0,0.0,0.0,0.0,0.0
1962,1724815056932232503,-1.622031331062317,-0.5408130884170532,0.15814010798931122,-0.07421517372131348,0.05122506245970726,0.5091466903686523,-0.8559426069259644,0.0,0.0,0.0,0.0,0.0,0.0
1964,1724815056932536491,-1.6218961477279663,-0.5407952070236206,0.15812963247299194,-0.07431480288505554,0.051252201199531555,0.5093738436698914,-0.855797290802002,0.0,0.0,0.0,0.0,0.0,0.0
1966,1724815056932867740,-1.6217621564865112,-0.5407922267913818,0.15811656415462494,-0.07427327334880829,0.05110832676291466,0.5097162127494812,-0.8556055426597595,0.0,0.0,0.0,0.0,0.0,0.0
1968,1724815056937847745,-1.621650218963623,-0.5407817363739014,0.15808692574501038,-0.07460067421197891,0.051237236708402634,0.5097519755363464,-0.8555480241775513,0.0,0.0,0.0,0.0,0.0,0.0
1970,1724815056948269726,-1.6215338706970215,-0.5408031344413757,0.15806944668293,-0.07480796426534653,0.05133664608001709,0.5098695755004883,-0.8554538488388062,0.0,0.0,0.0,0.0,0.0,0.0
1972,1724815056958422201,-1.6214778423309326,-0.5408373475074768,0.15801620483398438,-0.07448755949735641,0.05129491910338402,0.5098614692687988,-0.8554891347885132,0.0,0.0,0.0,0.0,0.0,0.0
1974,1724815056967897201,-1.6213518381118774,-0.5408456325531006,0.15816283226013184,-0.07527495175600052,0.05021815747022629,0.5101382732391357,-0.855319082736969,0.0,0.0,0.0,0.0,0.0,0.0
1976,1724815056979324665,-1.6212546825408936,-0.5408935546875,0.1581674963235855,-0.07523538917303085,0.05024834722280502,0.5102282762527466,-0.8552671074867249,0.0,0.0,0.0,0.0,0.0,0.0
1978,1724815056987961220,-1.6211515665054321,-0.5409399271011353,0.15814216434955597,-0.07542887330055237,0.05040263384580612,0.5102770328521729,-0.8552119135856628,0.0,0.0,0.0,0.0,0.0,0.0
1980,1724815056999006706,-1.6211028099060059,-0.54093337059021,0.15812508761882782,-0.07515563070774078,0.05030624195933342,0.5104762315750122,-0.8551227450370789,0.0,0.0,0.0,0.0,0.0,0.0
1982,1724815057027135347,-1.6210414171218872,-0.5410134792327881,0.15785004198551178,-0.07507768273353577,0.05095319822430611,0.5100982785224915,-0.8553168177604675,0.0,0.0,0.0,0.0,0.0,0.0
1984,1724815057027607162,-1.6209564208984375,-0.5409934520721436,0.15782658755779266,-0.07485742121934891,0.050737958401441574,0.5103003978729248,-0.8552283048629761,0.0,0.0,0.0,0.0,0.0,0.0
1986,1724815057028388761,-1.6208765506744385,-0.5409799218177795,0.15776166319847107,-0.07498877495527267,0.050881557166576385,0.5105652809143066,-0.8550502061843872,0.0,0.0,0.0,0.0,0.0,0.0
1988,1724815057037714928,-1.620767593383789,-0.5409249663352966,0.15775422751903534,-0.0749787762761116,0.050618406385183334,0.5110527873039246,-0.8547754287719727,0.0,0.0,0.0,0.0,0.0,0.0
1990,1724815057047736759,-1.6206607818603516,-0.540880024433136,0.15771839022636414,-0.07499384135007858,0.050592031329870224,0.5113181471824646,-0.8546169400215149,0.0,0.0,0.0,0.0,0.0,0.0
1992,1724815057058139675,-1.6205875873565674,-0.5408600568771362,0.1576443910598755,-0.07482185959815979,0.050571296364068985,0.5113487243652344,-0.8546150326728821,0.0,0.0,0.0,0.0,0.0,0.0
1994,1724815057079292205,-1.6205235719680786,-0.5408684611320496,0.15762028098106384,-0.07479758560657501,0.05049701780080795,0.5115211009979248,-0.8545182943344116,0.0,0.0,0.0,0.0,0.0,0.0
1996,1724815057079545867,-1.620455026626587,-0.5408433079719543,0.1576760858297348,-0.07449144124984741,0.05041014775633812,0.5118699669837952,-0.8543412685394287,0.0,0.0,0.0,0.0,0.0,0.0
1998,1724815057088370802,-1.6204171180725098,-0.5408392548561096,0.1576719433069229,-0.07461703568696976,0.050384826958179474,0.5119872093200684,-0.8542615175247192,0.0,0.0,0.0,0.0,0.0,0.0
2000,1724815057097810242,-1.6203669309616089,-0.5408510565757751,0.15766875445842743,-0.07445254921913147,0.05045836418867111,0.5121222138404846,-0.8541905879974365,0.0,0.0,0.0,0.0,0.0,0.0
2002,1724815057128211566,-1.620288610458374,-0.5409145951271057,0.15757976472377777,-0.07432208955287933,0.05075203254818916,0.5121160745620728,-0.8541882634162903,0.0,0.0,0.0,0.0,0.0,0.0
2004,1724815057128461345,-1.620219349861145,-0.5410098433494568,0.1573392003774643,-0.0733555406332016,0.05202457681298256,0.5119194388389587,-0.85431307554245,0.0,0.0,0.0,0.0,0.0,0.0
2006,1724815057134306609,-1.6201021671295166,-0.5411114692687988,0.15712490677833557,-0.07240261137485504,0.05269376188516617,0.5119561553001404,-0.854331374168396,0.0,0.0,0.0,0.0,0.0,0.0
2008,1724815057138164694,-1.619929313659668,-0.5412713885307312,0.15692730247974396,-0.07213465124368668,0.05308574438095093,0.5120724439620972,-0.8542601466178894,0.0,0.0,0.0,0.0,0.0,0.0
