seq,stamp,px,py,pz,ox,oy,oz,ow,lx,ly,lz,ax,ay,az,timestamp,wx,wy,wz,aa_x,aa_y,aa_z,roll,pitch,yaw,vx,vy,vz,jx,jy,jz,fw
20,1724915605227658435,-0.0521123856306076,-0.1435208767652511,0.1625055074691772,0.037699606269598,-0.020043309777975,-0.4655900001525879,0.8839699625968933,0.0,0.0,0.0,0.1161915839378955,0.236474627338837,0.5056383529818046,0.0,0.0,0.0,0.0,3.132995671213654,2.195893035196959,-30.720027289503427,0.0854184081959107,-0.0003302482178827,-0.9695769103521504,-0.0047001108570717,-0.0114816993794406,-0.0099420617365508,36.050963428934445,-27.10841516964478,-30.622148178379668,0.0
22,1724915605237201294,-0.052157238125801,-0.1436304450035095,0.162410631775856,0.037900261580944,-0.0199685916304588,-0.4668194055557251,0.8833144903182983,0.0,0.0,0.0,0.4602208447543734,-0.0222171563385441,0.2134155106384205,0.009542859,0.0298977359380022,0.0209550976139666,-0.2931568888998834,-0.2704601852259949,0.9901184175833556,-20.31835657560356,0.0857040332102207,0.0001080624865899,-0.9723472119664752,-0.0035913109545657,-0.0092250553536685,-0.0051168262290532,11.75941736510267,-8.779936827371667,-28.80197157145497,-8.606460034465717e-05
24,1724915605252977238,-0.0521849766373634,-0.1437171250581741,0.162455752491951,0.0375330597162246,-0.0195979475975036,-0.4692118763923645,0.8820699453353882,0.0,0.0,0.0,0.0122064968413604,0.3172828498646818,-0.1934920692928716,0.025318803,-0.0631321013612316,0.0051282139172395,-0.3424196876582345,45.3350444279047,36.02147236102902,-132.575831113384,0.0847060247005082,0.0006483936657935,-0.9777226998267868,0.0126414858462347,-0.0163223054251382,-0.0093712478503746,-110.95560313125333,88.95836964907222,40.830446155482,5.1040199085164105e-05
26,1724915605256781027,-0.0521236844360828,-0.143789142370224,0.1624088883399963,0.0379883423447608,-0.01937304623425,-0.4708122909069061,0.8812022805213928,0.0,0.0,0.0,-0.4855618792231505,0.7175123086042944,0.0229215415720089,0.029122592,0.1562999462361037,0.1761032730855446,-0.9654373679525476,38.80190804327459,28.149449311768883,-102.68787253136296,0.0852964684661816,0.0016276126482745,-0.9813249930284688,0.0117554085923188,-0.0144118315232684,-0.0100373775916997,-96.53637797925944,79.605459406712,50.47782320159338,-4.747102160132908e-05
28,1724915605267022001,-0.0521234571933746,-0.1438120752573013,0.162369042634964,0.0381728261709213,-0.0193823985755443,-0.4723079204559326,0.8803933262825012,0.0,0.0,0.0,-0.527789255793433,0.8265469855982792,0.3629515849722338,0.039363566,0.032951298524478,0.0011966739008115,-0.3323973875179552,-6.708689239212043,-2.3448565610270915,28.65439319602943,0.0856278837198528,0.0019303887858141,-0.9847155375223864,-0.0001823096476334,-0.0011287751097475,-0.0043421904460139,28.84661914239979,-21.91051826387546,6.803404877398283,-3.859405341853888e-05
30,1724915605278529589,-0.0521281994879245,-0.1438107043504715,0.162313237786293,0.0387938655912876,-0.0185203216969966,-0.4744528532028198,0.8792307376861572,0.0,0.0,0.0,0.2304960687413389,0.1534143486624445,0.0998742301953856,0.050871154,0.0247486396362937,0.1647394166911868,-0.4314421792606327,8.10489171121021,2.656833540665578,-1.143833911140689,0.0858979231432459,0.0042444609617357,-0.9894999095424212,0.0019926085746475,0.0022987779770371,-0.0026632970667765,36.222422220125296,-39.92890823748173,-7.343780309942138,-5.5339009547707006e-05
32,1724915605287298056,-0.0520946606993675,-0.1437759846448898,0.1623044908046722,0.039652582257986,-0.0183483008295297,-0.4759300947189331,0.8783971667289734,0.0,0.0,0.0,0.3498630180570536,-0.0726569081101984,0.1391576131311542,0.059639621,0.1547300682127795,0.1108336715418831,-0.3916085514745002,8.128366697690902,-4.232520384101483,6.156129842156217,0.0872383843383278,0.005509551407728,-0.9928367550643964,0.0042909639874944,0.0026789536703133,-0.0020950296239612,-9.114039101780303,-23.07229885356666,17.73471843836702,-1.287280418744641e-05
34,1724915605303322984,-0.0520122498273849,-0.1437705606222152,0.1622387766838073,0.0406922027468681,-0.0179117545485496,-0.4776136875152588,0.877444326877594,0.0,0.0,0.0,-0.4617918492979134,-0.3630221658312495,0.8115382571640979,0.075664549,0.0889021994402058,0.0990963453968296,-0.2457089054916607,0.0750758468893408,63.635296215876,-120.25705641403763,0.0886385548919338,0.0074372397499106,-0.996619657579042,0.0124673030747786,-0.0018830216634277,0.002312404096795,-78.54355701522633,7.180282439546957,-14.33794680117397,-7.15426233725956e-05
36,1724915605307703155,-0.0519488714635372,-0.1437814682722091,0.162256583571434,0.0413853973150253,-0.0170534793287515,-0.4793502390384674,0.8764814734458923,0.0,0.0,0.0,-0.8392222912206476,-0.3012809351513735,0.6813345884032496,0.08004472,0.0942390564363148,0.454894311375931,-0.9273339788047724,-8.113927537842736,37.25756763916524,-88.74335187381892,0.0890180199738438,0.0097822388256723,-1.0004888520509132,0.0092808239153248,-0.0035669163307785,0.0065094094147539,-35.79328626273701,-2.7027908397939093,-78.9868249899378,1.3939266860771914e-05
38,1724915605317063666,-0.0519657880067825,-0.1438363939523697,0.1623664051294326,0.0405576936900615,-0.016905790194869,-0.4811015129089355,0.8755630254745483,0.0,0.0,0.0,-0.1665909818070725,-0.6626090651702948,-1.0434219534994895,0.089405231,-0.1683918095831519,-0.0759473578382019,-0.4203219896498196,-16.17729557953336,-35.707938461780884,40.17270644560144,0.0874035523566049,0.0094207053134821,-1.004470808258284,-0.0008100079864739,-0.0047236630396967,0.007349086181708,37.68291680149855,-8.027427774385163,-83.89433731277161,0.0001135658961502
40,1724915605334724932,-0.0519468635320663,-0.143881693482399,0.162350133061409,0.0401053540408611,-0.0166469197720289,-0.4824811816215515,0.8748294115066528,0.0,0.0,0.0,-0.6398925009440308,0.2144304129382224,0.8193429852648979,0.107066497,-0.0582252170449162,-0.0067177997111372,-0.1770860288413138,-2.522965175730839,-96.3185208378912,-189.2005215395686,0.0863455420727308,0.0095738734135357,-1.007597131365304,0.0266193836349657,-0.0343883338865182,-0.0488382289852182,-197.1848899026419,197.0300621818348,384.7601783322502,-1.5043263371038348e-05
42,1724915605337241002,-0.0518707297742366,-0.1439796239137649,0.162210077047348,0.0398730263113975,-0.0168828386813402,-0.48329558968544,0.8743857741355896,0.0,0.0,0.0,-1.1970976649490113,0.7629964203250699,1.8875363107539236,0.109582567,-0.0677134170201459,-0.2849919735866559,-0.7258825531911645,-3.812773855902487,-85.26374602384715,-164.75573429433177,0.086157668893457,0.0090168097690112,-1.0094784374076555,0.0242233066638366,-0.0331698881281856,-0.0453426595919523,-167.1103235559552,176.03283250927086,345.06423694492946,-0.0001394824249831
44,1724915605347081951,-0.0518646650016307,-0.1440846472978592,0.1621611565351486,0.0390835367143154,-0.0172118842601776,-0.4845951497554779,0.8736954927444458,0.0,0.0,0.0,-0.7497433164516599,0.8790379830328654,2.223929522258697,0.119423516,-0.1068410882744812,-0.1489167184561604,-0.2933615287157296,0.6902737791964899,7.147900195665629,27.09358915395194,0.0850810083238163,0.007803572455065,-1.0124802859149356,0.0030207548425762,-0.0149328417293705,-0.0075901464583214,79.16759502458402,-39.00758592823434,-68.79261639968179,-4.3733672883114506e-05
46,1724915605357663883,-0.0518053397536277,-0.1442911475896835,0.1620510369539261,0.0385041385889053,-0.0177418421953916,-0.4855473041534424,0.8731818199157715,0.0,0.0,0.0,0.4715692381005716,-0.1117679299011547,0.3242412060790842,0.130005448,-0.0464404243257648,-0.1492828000287774,-0.1984762713164324,-0.2902022719218022,11.984564520369933,-7.0090284045350035,0.0845737549767012,0.0064074971118235,-1.0147068703780746,0.0110716008297151,-0.0167153950921612,-0.0024029988493268,22.01085665136995,-46.9643896219076,-109.01858165402123,-0.0001034523476953
48,1724915605366984099,-0.051657285541296,-0.1444239616394043,0.1620943397283554,0.038274597376585,-0.0171997882425785,-0.4871506989002228,0.8723093271255493,0.0,0.0,0.0,-0.0900327935674821,-0.1663958517407981,-0.1130783089928443,0.139325664,-0.0983832654254785,0.0610804679273849,-0.3949458900476683,5.357830216837357,8.520342762282404,-4.350249943518865,0.0836320276498107,0.007283986717342,-1.0183272128454175,0.013092363546836,-0.0172917758465711,-0.0007432566967278,-43.50036118196096,1.2701081843593005,-22.748798813622845,3.9829452887830185e-05
50,1724915605377580786,-0.0515521988272666,-0.1446438431739807,0.1620215326547622,0.0386665277183055,-0.0174665078520774,-0.4882525205612182,0.8716704845428467,0.0,0.0,0.0,-0.3491169024966005,-0.0670187035510816,-0.0629066980237477,0.149922351,0.0900880586986924,-0.017909861978948,-0.2394851250364465,11.233174984486643,-2.4242512037571244,8.14192843937242,0.0845680962054571,0.0073080455648456,-1.0208719974345857,0.008441418043088,-0.0203146833698522,-0.0054493791363654,-1.4853515981559555,4.221259901356398,22.183539931143052,-6.864105818122974e-05
52,1724915605388892937,-0.0514745265245437,-0.1448683887720108,0.1619770526885986,0.0394119024276733,-0.0177222266793251,-0.489350289106369,0.8710160851478577,0.0,0.0,0.0,-0.0886057035461898,-0.0815411780816598,0.3987482724334255,0.161234502,0.1380295693490663,0.0154084853547938,-0.2262232758061153,-3.9699263805933103,-1.5134469459552378,0.9140383391598376,0.0861104838395214,0.0076998387735988,-1.0234069412698596,0.0055764364581953,-0.0184372342298475,-0.0015575764041804,15.712705884789278,8.798588304946785,22.88155199107634,-3.8185913954129833e-05
54,1724915605400086758,-0.0514263920485973,-0.145059123635292,0.1619859188795089,0.0393071435391902,-0.0179295018315315,-0.4904277622699737,0.8704103231430054,0.0,0.0,0.0,0.0062353108234091,0.1286284616239414,0.4562857520836275,0.172428323,0.0026733477530364,-0.050921754554598,-0.2188529904446578,17.861570918067812,-1.8989345257065091,-12.443160346128373,0.0861216771129262,0.0073426479073405,-1.025896708365691,0.0064084959023489,-0.0220915778047494,0.0035119581572331,-9.396508528379597,46.18508208866147,-15.81579179306376,1.5171954334961545e-05
56,1724915605407110897,-0.0513720847666263,-0.1452365666627884,0.1620225757360458,0.0400451980531215,-0.0184695180505514,-0.4915299117565155,0.8697434067726135,0.0,0.0,0.0,-0.1385280778776631,0.5738509259698126,0.2528269918587474,0.179452462,0.2601607969641725,-0.0465119196395624,-0.3640027763146447,17.682663953922848,3.879793173967012,-9.937985948864515,0.0879303015214332,0.0072394054640004,-1.0284722605869965,0.0061521465773966,-0.0191821961021361,0.0067319538094565,-7.484165755755497,33.44061666078371,-38.82074483765448,4.177019249490481e-05
58,1724915605417920707,-0.0513318553566932,-0.1453427821397781,0.162120521068573,0.0408436134457588,-0.018533619120717,-0.4928821623325348,0.868939220905304,0.0,0.0,0.0,-0.0010818179438422,0.4371957555509337,-0.330764999081842,0.190262272,0.1356457667395321,0.0495271418864987,-0.2929879135059196,-17.2975013998215,-0.1477890594506272,4.905018719595809,0.0893728401628415,0.0080530869497479,-1.0315795755938484,0.0029572930905215,-0.0103230203424597,0.0060447906732896,13.983837920595002,-9.148011520278605,-12.64929703234782,0.0001002345526389
60,1724915605427979914,-0.051309261471033,-0.1454512774944305,0.1621530950069427,0.0403732061386108,-0.0184107273817062,-0.4940307736396789,0.8683114051818848,0.0,0.0,0.0,0.1514621542897768,0.3778781555681958,-0.0710536713582284,0.200321479,-0.0924470819219938,-0.0365076595991425,-0.2592279050385555,3.3986301415740137,5.251470058271115,-1.9013330556547228,0.0884219063041946,0.0079188061606359,-1.0342097322437116,0.0057028584182874,-0.0095042867181387,0.0002164042231385,-24.78771997464478,7.660265400629989,93.4341582392418,3.64552916863578e-05
62,1724915605437350236,-0.0512256510555744,-0.1455291509628296,0.162128746509552,0.0413886159658432,-0.0181942693889141,-0.495304137468338,0.8675424456596375,0.0,0.0,0.0,-0.4295352459940955,0.5679921051563231,1.39464745668125,0.209691801,0.1669861145170585,0.133192810645684,-0.3229343750870994,2.660111969601476,3.4123059726028617,-4.240863845478719,0.089961446538496,0.0094314433625074,-1.0371127133368137,0.0060617696991052,-0.0033755288911079,0.0039878383696709,-42.801826099906144,4.65678906071453,110.7269554009416,-2.6127676704513452e-05
64,1724915605447166254,-0.0511955693364143,-0.1455115377902984,0.1622356176376342,0.0411829985678195,-0.0179031416773796,-0.496746301651001,0.8667333722114563,0.0,0.0,0.0,-0.6522245000777576,0.4529591230036265,2.0116927157720363,0.219507819,-0.0642483079826999,0.0155486306361219,-0.3382602564887521,-37.562411325342225,-23.105630827940654,-4.659076778188194,0.0892989860490216,0.0098806645105251,-1.0404062952722313,-0.0029652959834045,0.0013148576217476,0.0278800214456866,12.2088347718127,-8.569279858521494,-37.88551704558679,0.0001033316247661
66,1724915605457274349,-0.0512883067131042,-0.1455032378435135,0.1626943051815033,0.0377992689609527,-0.0177975874394178,-0.4986943900585174,0.8657704591751099,0.0,0.0,0.0,-0.1655976359298598,0.3991240437732675,0.5800850527120496,0.229615914,-0.5897147398605872,-0.3337592450382935,-0.4175988401198233,-17.45703707016457,-1.252555886818271,2.0679172876834837,0.0833003687930228,0.006883370215465,-1.044902603881635,-0.0067746973362043,0.0056345353727156,0.0438186689718058,46.8883318958062,-10.07157841407003,-118.73333275115476,0.000463044486124
68,1724915605467362618,-0.051332488656044,-0.1453979313373565,0.1631206572055816,0.0359717160463333,-0.0167373195290565,-0.5000289082527161,0.8650994896888733,0.0,0.0,0.0,0.2947989915185838,0.2497378489215143,-0.3871958924990475,0.239704183,-0.4181847318085979,-0.0110677462525895,-0.2968886867651593,12.830596816745924,13.377625897534914,9.18037915221326,0.0790607941051657,0.0070149601723899,-1.0478969750119225,-0.006318135129594,0.0093768301437071,0.0396351141002115,37.03629266406988,-14.57439260221006,-53.86746733662571,0.0004230871932935
70,1724915605477967404,-0.0514211021363735,-0.1453103274106979,0.1635116934776306,0.0342813991010189,-0.0161735899746418,-0.501129150390625,0.8645418882369995,0.0,0.0,0.0,0.5916843106859166,0.0977827445933553,-0.490084132152971,0.250308969,-0.3286309829496615,-0.0766513418294117,-0.2305794198768347,29.92947819390826,0.1415619220271251,-0.469255735384225,0.0755589443703386,0.0063933683337972,-1.0503975482561818,-0.0004100206828328,0.0106739472243351,0.03583553783122,56.337773216653176,132.7526319773551,296.70480475896534,0.0003916626757119
72,1724915605487515854,-0.051356703042984,-0.1451876610517501,0.1638449430465698,0.0348394699394702,-0.0165513660758733,-0.5023297667503357,0.8638153672218323,0.0,0.0,0.0,1.3732915218678965,2.629873960941868,4.977269286036426,0.259857419,0.1418613729453763,-0.0209137525693357,-0.2928515747299185,37.25513190576157,4.614164830914575,-3.8991277967733993,0.0768955608268398,0.0064072007253053,-1.0532009885862414,0.0055368277298759,0.011396714788442,0.0300229055604894,136.2122449384855,1638.5432586339816,3590.1917181598933,0.0003228189399055
74,1724915605521195850,-0.0513136871159076,-0.1449760794639587,0.1642766147851944,0.0343248881399631,-0.0163784399628639,-0.5039820671081543,0.8628764152526855,0.0,0.0,0.0,12.418247570059576,220.96917113668496,484.3815771547611,0.293537415,-0.0312354454736757,-0.0108206502117826,-0.1126160220670696,-4380.421832667862,-2109.914780864628,-7646.128850319888,0.0758192931046701,0.0063331593668272,-1.0570108665006708,0.1409456767750043,0.4034036765987707,0.861268540298255,-18806.25937200699,-77562.66316730561,-168984.94900205475,0.0004186784974398
76,1724915605521880261,-0.0512152798473835,-0.1446944624185562,0.1648778766393661,0.0331869386136531,-0.0162196848541498,-0.5056254863739014,0.8619619607925415,0.0,0.0,0.0,-0.7190799464655413,166.71553494918803,366.17822488356865,0.294221826,-3.0900953742090738,-1.4842182120458536,-5.452126827989274,-4229.254484672588,396.4893590621585,-5716.326127942451,0.0736817348238531,0.005598850486205,-1.0608078057489607,0.1495616577963119,0.5575487512959114,1.1991780992970291,-20091.395435967224,-101134.83355087176,-220836.2333644069,0.0005820741996542
78,1724915605522382115,-0.0511380955576896,-0.1443608999252319,0.1655976921319961,0.0320652388036251,-0.0155816841870546,-0.5072816610336304,0.8610426187515259,0.0,0.0,0.0,-11.131861636599902,107.91474336237138,237.63994886460833,0.29472368,-5.124217196409391,-0.3471229120778408,-7.553519530788906,-3692.2561078276262,2102.973537332078,-3792.277031833985,0.0710886937426276,0.0056992577429179,-1.0646013377694634,0.1443035613455094,0.6196853718454318,1.336010654338054,-19217.221289251404,-110394.97083017755,-241358.96230202497,0.0007002578516268
80,1724915605528647736,-0.0509766787290573,-0.1439964026212692,0.1662788689136505,0.0321733392775058,-0.0152539117261767,-0.5083968639373779,0.8603864908218384,0.0,0.0,0.0,-11.743981769393002,-54.01990970256932,-119.39304349834588,0.300989301,-0.0221946664109513,0.0929135740600346,-0.4166461343194237,497.1340109197725,42.77154618478021,679.895897201701,0.0709340467192772,0.006465175458377,-1.0671640892080492,0.0233551856560523,0.0520929635069862,0.0859565537729487,433.39732078274864,-12788.933615013031,-28263.889301404182,0.0006554058097886
82,1724915605537675186,-0.0507971495389938,-0.1436052322387695,0.1667588055133819,0.0337927415966987,-0.0155255319550633,-0.5093295574188232,0.8597676753997803,0.0,0.0,0.0,-0.9237669180579168,0.3438874170588266,-1.0057923329265734,0.310016751,0.3405357848955152,0.1218845776646321,-0.2510219345864143,9.619302906896358,-5.2825244208855455,11.740439330458806,0.0739927440985645,0.0077266600878125,-1.0693445836687543,0.0156610413672335,0.0400647908056299,0.0501966086594292,745.9165430266829,3668.5209664083377,8044.597807564318,0.0004510926734493
84,1724915605551623182,-0.0506697818636894,-0.1431168019771576,0.1673949956893921,0.0322359688580036,-0.0156263560056686,-0.5107568502426147,0.8589785695075989,0.0,0.0,0.0,-0.2751004187730139,0.7924373597070158,1.948739238411754,0.323964747,-0.1839122463814513,-0.1347977237642976,-0.2296356182002271,-63.74806558393804,-111.75120342508386,17.1735289499713,0.0714045318184627,0.0060841115153957,-1.072675759217294,0.00123630821402,0.0809862577329383,0.0998594872302689,135.63265616889285,-249.1005773733326,-234.80103931045593,0.0006076912009933
86,1724915605557260515,-0.0506808012723922,-0.1425555199384689,0.1680815368890762,0.0293732471764087,-0.0171161480247974,-0.5111048221588135,0.8588458299636841,0.0,0.0,0.0,0.6925746554110094,-1.2526550213489087,-0.3925178439290784,0.32960208,-0.602857287652368,-0.9774641923374126,-0.0971875363341113,-38.02145472483189,-71.6585513564238,10.558189439694395,0.0680028864529861,0.0006253518771325,-1.0736060589074157,0.001414983862034,0.0805744109341359,0.1071727265434887,145.56196075489484,-234.57308296207475,-324.09514315365334,0.0006671104257063
88,1724915605567200170,-0.050607681274414,-0.1420874595642089,0.1688907146453857,0.0270927399396896,-0.017599506303668,-0.5121145844459534,0.8583093285560608,0.0,0.0,0.0,1.68212244113459,-1.3374078526267468,-2.0152805313595534,0.339541735,-0.3446964377771643,-0.3258767678756677,-0.2189627878353183,23.290276728326457,46.252443519777245,-1.958416772865724,0.0645789038840991,-0.002462468854039,-1.0759922263201291,0.0198811426011169,0.0474504782877396,0.073656659562217,8.541245633352432,83.89988317589041,-23.40360645128232,0.0007899192042234
90,1724915605578286286,-0.0502324104309082,-0.1415569633245468,0.1696114242076873,0.0263874661177396,-0.0174891278147697,-0.5126733183860779,0.8579999208450317,0.0,0.0,0.0,0.6514369379533338,0.735553799573045,-0.5454194009349704,0.350627851,-0.1196668469626418,-0.0517810168775308,-0.1134025187842528,9.14655556454517,18.82457722079392,-7.891865857730229,0.0632557577455262,-0.0029550452253964,-1.0772834830517082,0.0363567940859264,0.0572927997841894,0.0680900479379911,-90.97549058245563,49.32519119311755,70.25046861968305,0.0006833409366922
92,1724915605587050564,-0.0498964041471481,-0.1409894227981567,0.1702295243740081,0.026134118437767,-0.0169197712093591,-0.5138134360313416,0.8573368191719055,0.0,0.0,0.0,-0.1320723482907508,0.2140323677112015,-0.3616284144708848,0.359392129,-0.1167713575250134,0.0723257388521446,-0.303223707134075,-0.3229192550307109,5.141059773263287,-10.228059433374394,0.062239014757699,-0.0021557649449338,-1.0798960296104796,0.0362826646694589,0.0626844844950857,0.0630098632641402,-40.75833073533188,-34.21619853092314,47.16962077977688,0.0005825655657507
94,1724915605597326600,-0.049548327922821,-0.1403702348470688,0.1707864701747894,0.025637462735176,-0.016472989693284,-0.5150138139724731,0.856640100479126,0.0,0.0,0.0,0.0351319736575741,0.167123302506035,0.4387503649302267,0.369668165,-0.1279609291961598,0.0164839303056262,-0.2706071819011635,-15.91489024429638,-15.379035421829249,2.726706472525251,0.0609295844607897,-0.0018155531618668,-1.0826612759162135,0.0334361113467776,0.060050533395997,0.061920562516005,35.88000173525156,21.524233835122143,25.013407723422585,0.0005202047899069
96,1724915605607885675,-0.0492000095546245,-0.139738380908966,0.1715240776538849,0.0229024291038513,-0.0163451600819826,-0.5162010788917542,0.8560051321983337,0.0,0.0,0.0,0.626744400888132,0.6774640415146242,0.1291854249357116,0.38022724,-0.4568681115625015,-0.2538052654824356,-0.2466691868117604,-5.547926021611907,-15.042799672053969,9.743367543906686,0.0561139438118862,-0.0043385782192798,-1.0854180836698029,0.0371937727386986,0.0664095199814003,0.072463896127795,45.47070265588832,35.87063014923894,-73.83037133878146,0.0007043446435131
98,1724915605617355647,-0.048812061548233,-0.1390536874532699,0.1722324639558792,0.0209765844047069,-0.0168643947690725,-0.5166242718696594,0.855789065361023,0.0,0.0,0.0,0.9676785143649488,0.9113213394123932,-0.9480435823966992,0.389697212,-0.2919696366909987,-0.3066143094527919,-0.0909019203055424,17.674767687314883,1.719270880097481,16.176227168088527,0.0533548641959126,-0.0071907659546196,-1.086436465434808,0.04542961328529,0.0734640676323099,0.0663039349431642,21.494285323887546,22.51272974041212,-48.838436393557544,0.0006751018149061
100,1724915605627491689,-0.048303160816431,-0.138296440243721,0.1728123128414154,0.0199436657130718,-0.0174948517233133,-0.5163515210151672,0.8559656739234924,0.0,0.0,0.0,1.0281562514609912,1.115840144534792,-0.7388265079464973,0.399833254,-0.1099750816170636,-0.2100364731615828,0.0701066256292746,16.27979006064625,6.749228397062847,-0.0777883396658154,0.0522352082723223,-0.0093542372580483,-1.0858391413918471,0.0563012306988737,0.0845063387261939,0.0534661941293386,1.0276335384839186,-8.459139635270837,44.69669670800648,0.0005411369373212
102,1724915605637502982,-0.0476792529225349,-0.1373535394668579,0.1733105927705764,0.019668286666274,-0.0183083564043045,-0.5167443156242371,0.8557180166244507,0.0,0.0,0.0,0.989607271469834,0.7479930076628518,-0.0534891985628043,0.409844547,0.0364401838895689,-0.1699462725297159,-0.0885110333523386,-26.077354342006696,-6.498759262784747,-13.416710920694468,0.0526099437390966,-0.0110068524409779,-1.0868133241238551,0.0661552347364762,0.095938718299803,0.0512876956076855,-34.90773037620636,-27.850591588774343,30.667201969429073,0.0004514310419642
104,1724915605647298549,-0.0469944700598716,-0.1363969445228576,0.173827514052391,0.0162869151681661,-0.0181486699730157,-0.517652153968811,0.8552435636520386,0.0,0.0,0.0,0.3499990357921372,0.5604119714603861,-0.1152769609041812,0.419640114,-0.6091136773156745,-0.3342736614063271,-0.1966722106324216,-28.9021727722507,-7.492759879281723,-4.91736531806194,0.0466695858321349,-0.0141816282899624,-1.088900012894512,0.0758999734575223,0.0994898730227484,0.0523366962459714,-65.45177659210422,-9.180690880168886,-31.957994543481007,0.0004748264957204
106,1724915605657092355,-0.0461924411356449,-0.1354046016931533,0.1743358373641967,0.0132812168449163,-0.0181172788143157,-0.5184961557388306,0.8547848463058472,0.0,0.0,0.0,-0.2925514439926466,0.568113922326833,-0.6794359418851614,0.42943392,-0.5298655630370632,-0.3167574321431243,-0.1848607052397431,27.43181725660125,8.923046878963017,-1.7051063221869018,0.0415107041746191,-0.0172010792400735,-1.0908457889286476,0.0730137672221795,0.1069161405531788,0.0490302753258813,-29.80344984107577,-27.5361473374123,-20.34999390600147,0.0004680355952005
108,1724915605667229346,-0.0455454476177692,-0.1342621147632599,0.1748027205467224,0.0126928454264998,-0.0186293125152587,-0.5195184350013733,0.8541618585586548,0.0,0.0,0.0,-0.2190018443625812,-0.0081857396871987,-0.4948507700349722,0.439570911,-0.0488686139659435,-0.1514474901349358,-0.2326894548210413,13.254398715612624,12.005828526489022,3.046872066199705,0.0410586956079427,-0.0186376410016137,-1.0932663209385658,0.0700706885325188,0.1106800379515231,0.0385562619946497,-6.451217242079732,-23.20042702219124,26.889745868023684,0.0004346269058667
110,1724915605677730306,-0.0447416976094245,-0.1331218928098678,0.1751260012388229,0.0112441573292016,-0.0181769113987684,-0.5200713276863098,0.8538553714752197,0.0,0.0,0.0,-0.4358481617653487,0.1142400494657902,-0.1180542480849644,0.450071871,-0.2816608491284167,-0.0721693673120665,-0.1162255122243786,-26.962708217772715,-17.66563065122734,-9.718748903665634,0.0381247170654676,-0.0193465860584729,-1.094516037556822,0.0685468729487377,0.106465999941542,0.0392165242287205,-29.60562187280943,-11.784920737044652,-39.30708690828016,0.0002882993339563
112,1724915605687642685,-0.04413703083992,-0.1320863664150238,0.175593614578247,0.0075224232859909,-0.0186684187501668,-0.521870493888855,0.8527873158454895,0.0,0.0,0.0,-0.8131048316752656,-0.221931980442096,-1.2112103017043958,0.45998425,-0.5937823043906211,-0.4832114304048253,-0.4072718808826167,-16.98343638246494,-15.768445735990142,-9.684727308865291,0.0323299820445544,-0.023991221329501,-1.0987203436525634,0.061506224373895,0.1124221920635477,0.0363533963380167,996.879771746843,1771.048713081367,-253.2557918954055,0.0004501255091909
114,1724915605697221769,-0.0435431823134422,-0.1309358328580856,0.175841674208641,0.0040187290869653,-0.0187205541878938,-0.5232349634170532,0.8519734144210815,0.0,0.0,0.0,18.316515394243787,33.451627944742924,-4.960677455697462,0.469563334,-0.6221989497934303,-0.3963622058319547,-0.3178911114104576,7.819229193763162,9.500344343190063,12.057289449622653,0.0264514259720932,-0.0276968908026787,-1.101876781341267,0.0527656543242232,0.1026794809114162,0.0162127670907854,240.62128089995872,362.1170223977456,-63.49836976963688,0.0002410982730065
116,1724915605716765275,-0.042879931628704,-0.1296240836381912,0.1757724285125732,0.0026977057568728,-0.020130580291152,-0.5230284333229065,0.8520732522010803,0.0,0.0,0.0,-47.01411048657928,-85.19965390119205,6.87371488267263,0.48910684,-0.0393211600502975,-0.1933953242926441,0.0264633754460623,-12608.443324591746,-13572.350209036747,7973.726285563709,0.0256705611003097,-0.0314887078578029,-1.101458033178645,1.1774553155889151,2.130818947055843,-0.1946983935135904,-10630.433352421358,-19119.055467747938,1972.964274588576,-7.222137001876267e-05
118,1724915605717311296,-0.0422195717692375,-0.1284291297197342,0.1756632030010223,-9.795130608836188e-05,-0.0209347251802682,-0.5220234990119934,0.852674126625061,0.0,0.0,0.0,-52.92972374407644,-95.83810753394012,7.971855044630081,0.489652861,-7.11659454752364,-7.811390099450794,4.501656897503077,-12263.323483968425,-13197.626883888057,7754.125490098505,0.0217054153462599,-0.035810916410995,-1.0991003099889145,1.1501895142840293,2.081415302443085,-0.190675709713913,-10277.414301728031,-18478.48624336648,1926.2537605328475,-0.0001063202242881
120,1724915605727411931,-0.0416659824550151,-0.1274095922708511,0.1754867732524871,-0.0028907072264701,-0.0203882530331611,-0.5209647417068481,0.8533297777175903,0.0,0.0,0.0,-52.733875622041914,-94.6796336580308,11.562133373117174,0.499753496,-0.5236013384380758,-0.1937104722444264,0.258114335044309,341.74957390219726,374.2675993306343,-228.5808692858481,0.0163220627819991,-0.0378167329519975,-1.096529152374812,0.0560911659610265,0.1121241106395567,0.0028105931307482,2761.7202411713492,5090.103614166197,-241.3891819683172,-0.0001671873484317
122,1724915605737041769,-0.0411140471696853,-0.1262271553277969,0.1757000088691711,-0.0034274829085916,-0.0204893145710229,-0.5217300653457642,0.8528576493263245,0.0,0.0,0.0,-0.9616609868564424,0.0164089096112398,3.758016067096915,0.509383334,-0.0877201823115221,-0.0775285255602465,-0.1845065133962192,41.491419059996986,2.024729259961489,-35.94061779747449,0.015545639239385,-0.0385349153826777,-1.0983188784493352,0.0586056556952194,0.1211120225297737,0.0444342159151336,2660.5247603803455,4929.9983579522695,-556.6354041055787,0.0002279291196733
124,1724915605746918111,-0.0405221655964851,-0.1250479966402053,0.1763646453619003,-0.0025979273486882,-0.0218985751271247,-0.5235412120819092,0.8517149686813354,0.0,0.0,0.0,-2.1932007616943636,-0.9626583301163684,0.8310172236276392,0.519259676,0.2838542313008527,-0.1592289204637218,-0.4379452305001068,-32.44683527377369,-20.84736545917637,-19.61026452805109,0.0185201227955563,-0.0400336252557931,-1.1026737802014612,0.0367222798800859,0.1119863456486438,0.075833344094498,0.4576681910775377,-44.26413698727023,-281.30739712048086,0.0006757772461698
126,1724915605757195018,-0.040392942726612,-0.123976320028305,0.1772352755069732,-0.0073960847221314,-0.0219797305762767,-0.5261313319206238,0.8500871062278748,0.0,0.0,0.0,-0.8501399120358091,-0.8308091113089668,-1.89893449672237,0.529536583,-0.7989024785566948,-0.507949203579129,-0.5747711729892879,-30.289682051115314,-14.839925634464404,28.012462427693222,0.010564788383067,-0.0451673509415031,-1.108661370236084,0.014423955173104,0.1016797258803734,0.0592625427419317,110.20322238624128,7.883966977004775,-77.32792334306433,0.0009041325506571
128,1724915605767912271,-0.0402176827192306,-0.1229156553745269,0.1775859147310257,-0.0099930735304951,-0.0232363454997539,-0.5252910852432251,0.8505465984344482,0.0,0.0,0.0,0.1019966980351958,-0.801590013205562,-0.6230200738335725,0.540253836,-0.2845235395174242,-0.4536058531752459,0.1873284501241868,35.23513573540493,22.120638274471112,32.66810519091618,0.007421901690732,-0.0500466231797179,-1.1066952543128827,0.0200613754874381,0.0946990044139992,0.0357090821756287,-2.0637159204223607,-27.77794861774617,129.52739042539162,0.0003890260071243
130,1724915605777754271,-0.0399867221713066,-0.1220222115516662,0.1779644042253494,-0.010445081628859,-0.0234335642307996,-0.5246173739433289,0.8509515523910522,0.0,0.0,0.0,-0.7399361713960348,-1.35068545212268,0.746464068778165,0.550095836,-0.0530695765231992,-0.0817927945291244,0.1614049487610267,17.229562509212247,13.336825478915271,-5.607639494640952,0.006819665257731,-0.0508629261876192,-1.105110583827341,0.0172328664714052,0.0854518848382195,0.0438097626006186,-105.95754124670368,-48.25067800137457,70.47183110758758,0.0004091610126966
132,1724915605787383048,-0.0398795157670974,-0.1212495937943458,0.178436666727066,-0.010698202997446,-0.0243171881884336,-0.5242765545845032,0.8511336445808411,0.0,0.0,0.0,-1.9524683622542065,-1.7442489309964295,0.7780902209886023,0.559724613,0.0536016232980303,-0.1836174756469943,0.0793977262912027,10.832878019777008,-3.628103354817516,-7.039976558589439,0.0072968328185929,-0.0526362901666609,-1.1043575695668133,0.005845138603761,0.0685735341172586,0.0502756331097886,-69.91558015258678,5.660819679652057,-2.8565572247508264,0.000502131138988
134,1724915605798529672,-0.0398826077580452,-0.1206357777118682,0.1790129244327545,-0.0102816307917237,-0.025453794747591,-0.5241501331329346,0.8511833548545837,0.0,0.0,0.0,-2.0090219805029763,-1.080680953019788,0.6670060694089566,0.570871237,0.1711838158834637,-0.1344171492048157,0.0199834442165307,-46.28057526983762,-44.93626590963436,-4.175333783374959,0.0091937120834488,-0.0541363685639075,-1.1041468017768694,-0.0258514860357852,0.0492427687406262,0.0603239279793363,130.3027741094103,52.83249479136105,-57.70803969904193,0.0006026120936402
136,1724915605807107589,-0.0402731783688068,-0.120251826941967,0.1795873194932937,-0.0143755609169602,-0.0271901320666074,-0.5242032408714294,0.8510376811027527,0.0,0.0,0.0,0.0023457101752213,-0.6717051053792167,-0.1431634354727764,0.579449154,-0.6009461968028958,-0.8456452446809795,-0.0082084407117223,-47.17433489429523,-21.031515921058663,-0.5394503459594029,0.0040456546681212,-0.0613896375920882,-1.1042654803828005,-0.0375754758091384,0.0442869334555533,0.0644977474712487,180.08602099049045,32.18616959647237,-39.19087531105949,0.0006058370034002
138,1724915605817327783,-0.0405603200197219,-0.1198049709200859,0.1802164912223816,-0.0176423285156488,-0.0270199831575155,-0.5241701006889343,0.8510020971298218,0.0,0.0,0.0,1.180485051676485,-0.5313955959857628,0.1291616399075046,0.589669348,-0.5614267958314738,-0.3070569836553597,0.0197295938952575,20.21990128791041,39.06895706802682,-1.3092426497167493,-0.0017047312775117,-0.0645280586479689,-1.1040671764194596,-0.0208799993735517,0.0362778159680496,0.0553663050059816,21.21758271319996,34.79474599062955,45.945079715384374,0.0006618313423769
140,1724915605829691574,-0.0407105535268783,-0.1194677948951721,0.1808083653450012,-0.0180747602134943,-0.0269562359899282,-0.5244776010513306,0.8508055210113525,0.0,0.0,0.0,0.035989585904947,0.2138846715934659,0.9858763635109344,0.602033139,-0.0668389422076196,-0.0278725601712319,-0.0569265254343696,24.308617061957996,-15.913029752188546,10.092827791205137,-0.0024855587377129,-0.0648741384549805,-1.1047716913476198,-0.0130616239216467,0.0334808096015439,0.0722587309704252,-58.22776167944893,12.948819238554396,-53.225711973926096,0.0006145741413859
142,1724915605837345936,-0.0408148467540741,-0.1191820949316024,0.1814770251512527,-0.0186053402721881,-0.0281208492815494,-0.5241318941116333,0.8509693145751953,0.0,0.0,0.0,-0.2469744670520784,0.0887111456773774,-0.0021178287063965,0.609687501,0.0448561563478642,-0.3320904046039388,0.0975359575793419,-17.110084639910028,-24.862860258997912,12.071530875387424,-0.0021920603045411,-0.0674143154096791,-1.1040173744835255,-0.0156122167352947,0.0372035451904713,0.0780023274467325,-25.37199622380527,-37.711533383303944,-64.10541601896708,0.0006875653744906
144,1724915605847181815,-0.0409935191273689,-0.1188177019357681,0.1821260154247284,-0.0218160059303045,-0.0283853560686111,-0.523689866065979,0.85115647315979,0.0,0.0,0.0,-0.3499708584940662,-0.552165443371772,0.1885206550992442,0.61952338,-0.5241278706068074,-0.3885489961566685,0.1137902352731402,-12.99801936401213,6.389919640259326,-1.3788624313689168,-0.0074263226609923,-0.0712306212942418,-1.1028771554384744,-0.0169513483474585,0.0330502255849092,0.0684707131700435,-7.759204519853652,-34.584451328038355,-24.051473477778167,0.0006762438801664
146,1724915605857917402,-0.0411612764000892,-0.1185097247362136,0.1828902512788772,-0.0229566358029842,-0.0288019962608814,-0.5233997106552124,0.8512909412384033,0.0,0.0,0.0,-0.4014889172460281,-0.5652128797173153,-0.5786211784739184,0.630258967,-0.1381376783724467,-0.1778152251487664,0.0634664851299886,-7.151700322331958,-4.862579961474541,-6.593594068130959,-0.0089597088773592,-0.0731339263227381,-1.1021783703386576,-0.0232139845434802,0.0256002517193278,0.0840587205491232,25.35634101449665,8.045420375344687,-173.0776190950987,0.0007876803983565
148,1724915605867118356,-0.0414347015321254,-0.1182985231280326,0.183765172958374,-0.0260857883840799,-0.0291215851902961,-0.5234732031822205,0.8511447906494141,0.0,0.0,0.0,0.0696079170352933,-0.4181597786712963,-2.972442895443914,0.639459921,-0.5438606366659697,-0.4156923300807992,-0.0122312412818315,0.5459262345725122,-5.196135854406817,8.182310652300217,-0.0139585953545778,-0.0769597405182782,-1.1022473563495907,-0.0254739415923781,0.0214149453011023,0.0627220440657607,21.958774606101677,15.8419088182309,-92.45323963507104,0.0008941520293171
150,1724915605879016710,-0.0416725128889083,-0.1180674061179161,0.1840134263038635,-0.0258843693882226,-0.0303432513028383,-0.5217114686965942,0.8521892428398132,0.0,0.0,0.0,-0.1190533941821132,-0.231828434208365,-1.491888059283626,0.651358275,0.1495158173870606,-0.1596720740030317,0.3376097398837787,33.579110774944624,13.83292999294932,8.13326850477635,-0.0124950216591067,-0.0788062742468932,-1.0981931907383955,-0.0197954243280933,0.017004489944103,0.0173000807195116,-44.87200409454483,1.1144787534442102,153.60361498010815,0.0002708528919422
152,1724915605889399445,-0.041876308619976,-0.1179127767682075,0.1841607540845871,-0.0249384809285402,-0.031434591859579,-0.5206410884857178,0.8528321981430054,0.0,0.0,0.0,-0.8478368678360315,-0.352044461332456,0.3672231930697063,0.66174101,0.2744098088353732,-0.0856700257934147,0.2293526057742132,-21.530725187405853,-1.775289442642105,-4.640027249586755,-0.0098357549441972,-0.0796691119808446,-1.0957944730412452,-0.0264341592907317,0.0158554762437503,0.0228806544438757,-25.38345231650409,-31.58125574423224,39.31421276557974,0.0001641268787783
154,1724915605897321623,-0.0421268641948699,-0.1177813485264778,0.1843945533037185,-0.0256179701536893,-0.0317265912890434,-0.5198691487312317,0.8532720804214478,0.0,0.0,0.0,-0.7780740521205907,-0.7231484657837506,-0.1660367838992918,0.669663188,-0.0990201890870551,-0.153548685737356,0.2275720919597705,-36.4180778415314,-6.339116509585905,3.750352353548694,-0.0107662361755353,-0.0808669226221711,-1.0939733697022165,-0.0344108116877293,0.0116074468038132,0.02476066859648,20.273979645228454,-32.505117067807916,-28.992728402430025,0.0002499949384816
156,1724915605907167772,-0.0424997434020042,-0.1177280321717262,0.1845802068710327,-0.0275209359824657,-0.031644195318222,-0.5185794234275818,0.854000449180603,0.0,0.0,0.0,-0.4381156585009109,-0.8677322919683188,0.0174273276962722,0.679509337,-0.3264230143549124,-0.1886866693639143,0.3131434383960407,-1.267091789027309,7.612873674458555,0.3292962676398456,-0.0142348393356965,-0.0826860846917869,-1.0908568123550524,-0.039271907554087,0.0021997045216464,0.0181899372578762,-9.064847273573363,5.520056361613687,-3.0781827803435533,0.0001987667351907
158,1724915605917601751,-0.0429250001907348,-0.1177406311035156,0.184762641787529,-0.0279569122940301,-0.0312820114195346,-0.5175986886024475,0.8545942902565002,0.0,0.0,0.0,-1.0146893835000992,-0.5867385015229812,-0.2547497339865129,0.689943316,-0.0982879985993278,0.0143795095890546,0.2241264820228281,31.94743593278881,10.57886982500169,-18.187714421494775,-0.0154537550155285,-0.0825013376190466,-1.088512609475331,-0.0432285479309615,-0.0058840411350189,0.0259431823258413,-29.230106521196134,14.049104337560175,-73.19060985492155,0.0001912124951592
160,1724915605928128229,-0.0434062927961349,-0.1178522333502769,0.1851255595684051,-0.0263076536357402,-0.0320910923182964,-0.5178598761558533,0.8544583916664124,0.0,0.0,0.0,-1.045955367754806,-0.5756502670927479,-1.525434254430012,0.700469794,0.3450834111296867,0.0314006296380392,-0.0698736758385636,-2.0327827024478697,-16.969454986075913,3.182798396211121,-0.0117601727360014,-0.0821808355109962,-1.0892550503591223,-0.0606583447785888,-0.0100636663217299,0.0126648523100065,76.9259490613627,-10.054457424271426,2.3907445375339265,0.0003662218276809
162,1724915605937908663,-0.0441352874040603,-0.1179457679390907,0.185051217675209,-0.0274320729076862,-0.0331351608037948,-0.5168123841285706,0.855017364025116,0.0,0.0,0.0,0.4324514409225624,-0.7749269535173476,-0.3833739168236529,0.710250228,-0.0760227800754701,-0.3034678681332902,0.2439819255342222,-4.767862362608584,-5.098801251168938,14.623002756338318,-0.0127068198801257,-0.0851194949155744,-1.0868244066055155,-0.0653463756646166,-0.0173166884339295,-0.004653706699365,108.82058002669368,2.112308587081202,123.24615894017823,-6.1021707353182305e-05
164,1724915605946977155,-0.0446506105363369,-0.1181679964065551,0.1850337982177734,-0.0269261114299297,-0.0339873619377613,-0.5158777236938477,0.8555641770362854,0.0,0.0,0.0,1.0632874118536852,-0.5666895032192282,0.7887376647649373,0.71931872,0.2026807294978437,-0.1046878677780703,0.2297201957206105,7.202075940948414,13.689674591588204,-4.286417220228818,-0.0110484847758098,-0.0860440337945352,-1.0847222373631449,-0.0537581149521857,-0.0246244598186287,0.0035351227919324,-4.88330458386085,28.027962677452475,29.345201085075217,-1.9732486222125466e-05
166,1724915605956878244,-0.0451497137546539,-0.1184130907058715,0.185127779841423,-0.0270180143415927,-0.0342625342309474,-0.5151975154876709,0.8559600710868835,0.0,0.0,0.0,0.2101579443608168,-0.234426473842831,-0.0007073140737045,0.729219809,0.0196149710532815,-0.0581144536728992,0.1579440228181996,5.104287400730916,4.815501877762496,-4.596922955806045,-0.0109901452719618,-0.086602161363644,-1.0831462833833467,-0.0455499659450202,-0.0276500342274834,0.0101093164796779,-50.94856016078282,38.65263708315552,-53.18630909457053,8.901480949374264e-05
168,1724915605967415138,-0.0455751828849315,-0.118736907839775,0.1852412223815918,-0.0255356281995773,-0.0351876020431518,-0.5145067572593689,0.8563835024833679,0.0,0.0,0.0,0.0682213046669004,0.229978532105727,-0.2634421212832902,0.739756703,0.3379674103181551,-0.0061222094361614,0.1392494722444949,-5.034059276223785,-12.13887526667184,9.040512408891049,-0.007556487182335,-0.0866530723572499,-1.081673077056548,-0.0502751220668855,-0.0293222795174292,0.0026482963093705,8.297132654326324,-2.609934358671051,50.08212302365223,0.00010158848171
170,1724915605977533386,-0.0461800321936607,-0.119019903242588,0.1851891428232193,-0.0266029667109251,-0.0362772047519683,-0.5130223035812378,0.8571956753730774,0.0,0.0,0.0,0.363672648821705,-0.2500233157851731,0.9721828081803991,0.749874951,-0.0554383379506492,-0.2948333943256082,0.3358019042616192,-28.388250947344115,-11.6180964773127,3.912848083011388,-0.0084197465516082,-0.0896090318932869,-1.0782382267785835,-0.0445648470760917,-0.0232187704980777,0.0043029817786841,45.19282024492332,-16.173523967093658,30.33639947023124,-5.420152831060255e-05
172,1724915605993815524,-0.04650704190135,-0.1192734986543655,0.1855068057775497,-0.028465237468481,-0.0355494916439056,-0.5131325721740723,0.8571004271507263,0.0,0.0,0.0,1.5185398325449704,0.3058291674103426,-0.9386558915454976,0.766157089,-0.2427442411314416,-0.0407951059436681,-0.0069363026139924,-4.112899976568585,-23.38822287657934,63.62284656709379,-0.0123625838719768,-0.0902744148049443,-1.0783448210091542,-0.0439015302365373,-0.0496454428634436,0.0413195675627946,186.1260444013483,253.28142118237497,-275.1099330969381,0.000305093808538
174,1724915605997064204,-0.0466651022434234,-0.1194568648934364,0.1856551766395568,-0.0289482176303863,-0.0355259999632835,-0.5127858519554138,0.8572925925254822,0.0,0.0,0.0,2.1978737235376373,1.270705553654878,-1.9346532987715832,0.769405769,-0.2513150504420564,-0.1420492109206998,0.2546380413229437,1.3585094276400995,-21.52873364040762,58.80602771334938,-0.0132546237239833,-0.0907252358264438,-1.0775081407462064,-0.0380103842385419,-0.0474016233138261,0.0361881211144679,199.09262906876796,224.4232361797959,-193.7470053035203,0.0001369008492964
176,1724915606007264488,-0.0467119440436363,-0.1196507960557937,0.1857205927371978,-0.0295940488576889,-0.0354476980865001,-0.5121018290519714,0.8576825857162476,0.0,0.0,0.0,3.907823938874038,1.2352814952163942,-0.2970458556884963,0.779606053,-0.1094534654880238,-0.052938103087469,0.1591330709517104,11.901184237382552,6.934000650112775,-7.837120567598356,-0.0145198452176132,-0.091242629569308,-1.0758708529249863,-0.0032777686471516,-0.0158637398327482,0.0050811201704923,917.0010740054136,-115.4236751660222,-520.7846978215372,4.9679940799021495e-05
178,1724915606040502355,-0.0466785281896591,-0.1198370605707168,0.1857452094554901,-0.0288011003285646,-0.0362533964216709,-0.5111411213874817,0.8582488298416138,0.0,0.0,0.0,115.54783617828345,-14.72614350300347,-91.39919962064396,0.81284392,0.0688076685219303,-0.0176498821702112,0.0639033070402981,-2983.3239490032756,-189.02706359916692,559.4522318410028,-0.0124284692901995,-0.0918006085679726,-1.0737302287500088,0.1810621161811596,-0.175885263511077,0.2933293972865272,-32245.42944858801,19846.56064365183,-22095.82559608089,7.304048436668582e-06
180,1724915606041316693,-0.0465274900197982,-0.1199836879968643,0.1859899163246154,-0.029691182076931,-0.035804733633995,-0.5109890699386597,0.8583278656005859,0.0,0.0,0.0,88.57879831791145,1.8412153816207564,-109.7788301782126,0.813658258,-2.4202552776415533,-0.1753743649475638,0.530705611013461,1350.814037391364,1734.9106533007136,130.33036486331736,-0.0144393639810617,-0.0919376029482909,-1.073294326499365,0.2773518135851063,-0.1880750755476583,0.2169029763914665,-44071.9681920312,21352.284501613067,-12642.742755578642,0.0002261087200499
182,1724915606042098138,-0.046241857111454,-0.1201366707682609,0.1860967278480529,-0.0285202264785766,-0.0353077426552772,-0.5108911991119385,0.8584463596343994,0.0,0.0,0.0,45.92461906716798,19.28251467697512,-112.21416026414092,0.814439703,1.940326774833698,2.626578876081875,0.3004303828911434,4836.637680736872,3071.7098971620935,-254.1478217308047,-0.0129419414246867,-0.0898820457424231,-1.0730867419368242,0.3243267276844079,-0.1740306246027856,0.1191728736252937,-49609.61973131018,19518.65607202515,-495.2173583854208,8.437014477976788e-05
184,1724915606047594202,-0.0460516177117824,-0.1202528551220893,0.1860747933387756,-0.0295788254588842,-0.0358042791485786,-0.5097741484642029,0.8590538501739502,0.0,0.0,0.0,-34.459208973819095,18.29984055456034,-13.612489833005013,0.819935767,-0.217722359826019,-0.3557048336241092,0.470338423789876,-244.168331647034,-332.25361662163516,5.764978254567819,-0.0143764454670328,-0.0918015377612712,-1.070464495719105,0.0282845914372715,-0.017410705651633,-0.0008798361886963,-7939.7399934469395,-803.5695442115956,11893.842247768072,-3.795118434496005e-05
186,1724915606057057199,-0.0458870828151702,-0.1203568577766418,0.1861171573400497,-0.0302156060934066,-0.0358189605176448,-0.5093143582344055,0.8593037128448486,0.0,0.0,0.0,-0.6573202288445428,0.5161215847581303,0.4210538885145554,0.829398764,-0.1089911729487009,-0.0722562406986938,0.1151270176692978,23.56879577627405,12.514937554411254,-17.570296624734393,-0.0155094217968726,-0.0924689352521913,-1.0693601943368465,0.0183691432481953,-0.0103792346954172,0.0044127994821288,1870.7318423917231,-981.7741669968814,749.3001724849199,2.791812204935168e-05
188,1724915606067186160,-0.0456903763115406,-0.1204553619027137,0.1861611604690551,-0.0294560045003891,-0.0370534099638462,-0.5085771679878235,0.8597142696380615,0.0,0.0,0.0,-0.1536196014378981,0.3024536856996362,0.0561573519213958,0.839527725,0.260690490822642,-0.1345567283986727,0.1536317511612242,7.868984813482872,0.434676643875306,-5.460230392886247,-0.0130160542167773,-0.0938095235845068,-1.067777930795773,0.0159448103899462,-0.0076117598366112,0.0071788234822465,29.4049868439019,-8.833760782388637,-42.82901112163961,2.8465704271296344e-05
190,1724915606079018859,-0.0455497466027736,-0.1205162182450294,0.1862852871417999,-0.0297762192785739,-0.037129271775484,-0.5087780356407166,0.8595811724662781,0.0,0.0,0.0,-0.0866149767192505,0.367410272629473,-0.5446764054938994,0.851360424,-0.0419304118553923,-0.0383831875730483,-0.0390018383136675,-7.753251883977938,-9.162291770491056,0.0134808263528842,-0.0134692493892486,-0.0942697825999193,-1.06823549556796,0.0153120820092915,-0.0036288735488536,0.0048447818067316,-4.58494017813655,-13.943649621289484,-26.21392134218195,0.0001134342277833
192,1724915606087012984,-0.0454088300466537,-0.1205370500683784,0.1862935274839401,-0.0302267186343669,-0.037812203168869,-0.5085858702659607,0.8596493601799011,0.0,0.0,0.0,-0.1786128287573345,0.1509880004452559,-0.6215713161914601,0.859354549,-0.0076593595686736,-0.2050078884989398,0.0491024964524098,1.0142215912058516,-8.954072055194997,6.909309356845075,-0.0135700255106286,-0.0959031792348673,-1.067818908958415,0.0144406771884533,-0.0005253497097124,-0.0013857907330514,-1.5933027429726283,-29.098128491618333,26.672673127889787,1.4894290317253724e-06
194,1724915606097147270,-0.045303426682949,-0.1205156445503234,0.1862484365701675,-0.0307796895503997,-0.0383233465254306,-0.5082825422286987,0.8597864508628845,0.0,0.0,0.0,-0.0673793453513897,-0.1699226967472792,0.1149900362889498,0.869488835,-0.0394280371531739,-0.1430040881951443,0.0662971223962333,5.11481350899578,7.234350136241394,0.5141644307713595,-0.014036653614013,-0.0973430046217508,-1.067123787052277,0.0117362922051387,-0.0020430811755041,-0.00565736129316,22.233702189226676,-24.017791149002484,59.83219098120824,-4.65541935624867e-05
196,1724915606107081355,-0.0451738312840461,-0.1205764040350914,0.1861804723739624,-0.0305515602231025,-0.0388031192123889,-0.5080000162124634,0.8599400520324707,0.0,0.0,0.0,0.2631182552838245,-0.3340419901669691,0.5842568229086491,0.87942292,0.0917160914992633,-0.0602687521852597,0.0598897432667421,5.898355072173353,9.317196390592972,-1.5036476219765906,-0.0131846065121233,-0.0979335703862271,-1.06651789071782,0.013009401946711,-0.0039274288008708,0.0007091832883707,21.13952135501831,-16.209193227509893,11.198500771124367,-7.784672418158139e-05
198,1724915606122644233,-0.0449722483754158,-0.1205841600894928,0.1863756030797958,-0.0300894975662231,-0.0380926541984081,-0.50791996717453,0.8600353598594666,0.0,0.0,0.0,0.2963796359666397,-0.5787057515291858,-0.1201433728251256,0.894985798,0.0054550195351346,0.1088407653449935,0.0155536904944196,-7.220396211046764,-67.58436944772795,26.671314642967506,-0.0131211128187485,-0.0962366527675096,-1.066297048130508,0.0203948043400163,-0.0126456531341432,0.0084213988584274,33.97517357471838,-5.688172298770311,-22.92795472413016,0.0001864630102229
200,1724915606127834346,-0.0448535159230232,-0.1206708177924156,0.1864121854305267,-0.030685557052493,-0.0388735905289649,-0.5074359178543091,0.8602650761604309,0.0,0.0,0.0,0.527821881617385,-0.5908625445965024,-0.2004855403053497,0.900175911,-0.0349234430699428,-0.3777172751361516,0.2050762800061323,-7.269728549737234,-87.67003884065102,34.10412719556942,-0.0134086908436145,-0.0981827608238695,-1.0652016235345847,0.021624654629405,-0.0156812434872765,0.0067321543069633,186.21301660788592,-92.76471127051946,-2.435891351612659,2.4165320740251155e-05
202,1724915606206785692,-0.0446498766541481,-0.1206893250346183,0.1865638047456741,-0.0305743757635355,-0.0389776863157749,-0.507398784160614,0.8602862358093262,0.0,0.0,0.0,185.3150459937511,-116.51189326059182,15.272964309333986,0.979127257,0.0038139979717193,-0.0008473448218923,0.0008908203436285,1845.3185182338475,1253.545355882616,219.36915253125977,-0.0131145875247671,-0.0982487227238308,-1.0651300791843044,0.4126211665259234,-0.0695163403639185,0.1410139047597454,-63771.54253993597,33573.22684901644,-160324.7617750659,0.0001418309510336
204,1724915606207446080,-0.0443751215934753,-0.120735615491867,0.1866576969623565,-0.0300864148885011,-0.0389458425343036,-0.5073495507240295,0.8603339791297913,0.0,0.0,0.0,142.83589402168798,-94.1469745840988,-91.49027074245052,0.979787645,1.2326306839963297,0.8338769456282326,0.1469856157591088,2072.2292717126093,-1802.0297234388056,2755.34210251801,-0.0123094260569042,-0.0976968615177646,-1.0650396797650037,0.5359972884301314,-0.1470992196448151,0.1511749570930192,-132626.96064101838,135021.60387318657,-24922.628709652356,7.918746928641611e-05
206,1724915606207982664,-0.044035218656063,-0.1208481192588806,0.1867427378892898,-0.0297525376081466,-0.0395947284996509,-0.5066816806793213,0.8607093691825867,0.0,0.0,0.0,41.89123315316073,22.406118260195527,-45.244022049882275,0.980324229,2.4367587352828113,-1.469816803167734,2.730306842478349,1186.0807313793616,-2305.248828118415,3651.5689699356058,-0.0111469551247356,-0.0984682867823033,-1.063558202274994,0.5934625169981018,-0.1874436921417981,0.0554855717496991,-159130.116167219,167043.3459791957,200492.57845146128,6.14282193866244e-05
208,1724915606208523680,-0.0437359623610973,-0.1209374070167541,0.1867165714502334,-0.0294374991208314,-0.0402848683297634,-0.5056933164596558,0.8612692952156067,0.0,0.0,0.0,-28.384650485895463,85.41239347747084,125.57792605607712,0.980865245,2.5013346000934304,-1.6325647003090338,4.071566581672883,-3865.963975474149,1560.5325843327846,-2945.7589476555845,-0.0100131722265969,-0.0993281829712019,-1.0613353941389887,0.5805589320819067,-0.1220857431401896,0.1036045508744507,-166807.73276987436,-4637.035250008041,33319.14604750904,-4.6057995949089546e-05
210,1724915606209059554,-0.043410301208496,-0.1209800317883491,0.186852753162384,-0.029796352609992,-0.0400152876973152,-0.5058021545410156,0.8612056374549866,0.0,0.0,0.0,-137.36455116564505,18.6519766307095,-6.472323637597455,0.981401119,-1.6856689028397407,0.1916539584875873,-0.3864268709457138,-3965.930760965266,-257.9689043281014,-4516.87531795479,-0.0108957472070165,-0.0992276559434128,-1.061544605761702,0.5629417767834468,-0.0951016821780541,0.1903442098749792,-181262.48740594133,-84371.6687520137,-239874.72104821593,0.0001189614256873
212,1724915606209594888,-0.0431328862905502,-0.1210392639040947,0.1869205385446548,-0.0304496623575687,-0.0402234680950641,-0.5059833526611328,0.8610666990280151,0.0,0.0,0.0,-222.57833957782503,-5.01061866670862,-131.38485982792514,0.981936453,-1.7511553429097395,-1.9049499120331017,-0.7710507357462425,680.763210446572,-2282.548300690484,-34.62850022566346,-0.0117930552923466,-0.1002520681043553,-1.0619478781647131,0.4335257172139588,-0.1020713742905741,0.0968530595566861,-73169.30237628543,-24851.88977690917,-118835.29103290522,5.1254966488956115e-05
214,1724915606210620226,-0.042854681611061,-0.1211270838975906,0.1869613826274871,-0.0304982922971248,-0.0408086143434047,-0.5057194232940674,0.8611924052238464,0.0,0.0,0.0,-128.6916076616123,7.507719135724006,-28.369061760813548,0.982961791,0.5240116033927726,-1.0366066786163508,0.5364174358562739,1060.7628871576203,667.0367972402203,953.9503401811446,-0.0113126210395068,-0.1013085013115615,-1.0613826365547994,0.2429546069696133,-0.0914810015521538,0.0470875089199154,78148.61559253014,6351.252363158522,66379.27942169711,2.1421423726385648e-05
216,1724915606212052994,-0.0425633937120437,-0.1212698295712471,0.1870433688163757,-0.0308645032346248,-0.0409535057842731,-0.5049401521682739,0.8616296052932739,0.0,0.0,0.0,-43.58688624310684,4.879849714579752,-1.5159916982435095,0.984394559,-0.2749486753159259,-0.4409706276567983,1.2601182627199956,-426.8138585043141,345.7072991770388,369.5409468534654,-0.0118913871206152,-0.1019193169663508,-1.059560535446974,0.1730294397142244,-0.0863719836413059,0.0468168554051322,48570.72484781511,-1400.6195741859535,14896.528144675638,5.65810630603082e-05
218,1724915606217829132,-0.0422689393162727,-0.1214600130915641,0.1870714873075485,-0.0302397888153791,-0.0415640547871589,-0.5043051838874817,0.8619943261146545,0.0,0.0,0.0,-15.18111316228778,6.884285783696402,-5.020293646119619,0.990170697,0.3060260156632357,-0.0745429166482474,0.2378201902181214,55.21896048985102,41.965673210905734,-122.95880237056544,-0.0102649980945336,-0.1023346443470401,-1.058174957681332,0.0427583138246598,-0.0275869037984106,0.00715737014474,3712.480642711344,24.00835425361261,-277.71581167809705,-2.0363013189858915e-06
220,1724915606229152276,-0.0419672280550003,-0.1216538771986961,0.1872033476829528,-0.0308364573866128,-0.0417112298309803,-0.5040912628173828,0.8620912432670593,0.0,0.0,0.0,0.1016842331751379,-0.0137928230382227,-0.8627216320349176,1.001493841,-0.0756471178212265,-0.0759873343315604,0.0447974509495674,7.76595774291877,-10.686031149753063,12.849577056497552,-0.0111748205442692,-0.1031895806314556,-1.0576558418423212,0.0345022373941521,-0.022728981054108,-0.0087167795004017,626.1080588553768,-294.80690434493187,234.6229722487797,0.0001003724293691
222,1724915606237302528,-0.0416399352252483,-0.1218720227479934,0.1870128512382507,-0.0305425282567739,-0.0429352819919586,-0.5028814077377319,0.8627479672431946,0.0,0.0,0.0,0.9597359096802314,-0.5721634198597071,0.2719072175125231,1.009644093,0.2309482731948637,-0.2250218577157513,0.3249098826519633,8.88694935329885,-4.922972909669309,10.965124861875886,-0.0095711520690669,-0.1049960028925593,-1.0549743683721673,0.0402049327850513,-0.0254391683243344,-0.0125849964022295,46.645754939947395,-35.45595346545372,88.39667079330027,-0.0002245487250198
224,1724915606248019406,-0.0412083938717842,-0.1221259608864784,0.1870300024747848,-0.0311732701957225,-0.0431184470653533,-0.5023639798164368,0.8630176186561584,0.0,0.0,0.0,0.6333843481380548,-0.4863560135118876,0.5031380294571748,1.020360971,-0.0786813596486909,-0.0894737602445045,0.1126259584228009,21.534857258978946,6.291327443498338,1.6805791320908767,-0.0105431598261106,-0.1059426848280125,-1.0537509034458223,0.0541547337195695,-0.0349478605639941,0.0008487933793297,22.61281309293286,-14.418384894161044,-0.8714923509607573,-2.6211353924142177e-05
226,1724915606256998671,-0.0406176447868347,-0.1225244253873825,0.1870319694280624,-0.0294971223920583,-0.0445052273571491,-0.5011340975761414,0.8637209534645081,0.0,0.0,0.0,1.2356586491317576,-0.7845354678821883,0.3264291163842986,1.029340236,0.4940648061606594,-0.0808066785640427,0.2893859906415316,36.08157667767118,4.023184594514919,8.394046545159613,-0.0063847081871605,-0.1066462630605795,-1.051131696674502,0.0548143157647669,-0.0362988004109432,-0.0002787875834808,29.19758970419037,-17.307359072153012,0.6953923017679458,-6.40738062059063e-05
228,1724915606274330841,-0.0400348007678985,-0.1228833347558975,0.1870104819536209,-0.0276813078671693,-0.0446441136300563,-0.5006546974182129,0.864051878452301,0.0,0.0,0.0,0.4745525196716968,-0.5525634662874701,1.0201356314878094,1.046672406,0.1925961778221712,0.0912285716011384,0.0571187304256662,-159.53986407979835,-52.071493626683974,-34.447751883224626,-0.0031509806762084,-0.1050603780068076,-1.050143779137397,0.1151128100844314,-0.0711099948870526,0.0205009127011805,-478.2073583720374,271.0023059629004,-76.05510410067808,-8.339312085400379e-05
230,1724915606278017408,-0.0395465344190597,-0.1231850087642669,0.1871031075716018,-0.0286195408552885,-0.0444184653460979,-0.5008261203765869,0.8639335632324219,0.0,0.0,0.0,-1.6289367981687417,0.6485125266222385,0.6487314356136763,1.050358973,-0.5070202143065663,-0.1493507621508096,-0.0863787800685413,-125.41962722277884,-45.01656149160576,-27.60102393734833,-0.0049867139591464,-0.1056122561217771,-1.0504617016535325,0.1145063903570114,-0.0720054262800116,0.0241215281873783,-466.80321638775433,271.44771280464977,-91.51613031804231,4.029132798263148e-05
232,1724915606288375360,-0.038882527500391,-0.1236449033021926,0.1873237490653991,-0.0283798798918724,-0.0447167344391346,-0.5009979605674744,0.8638263940811157,0.0,0.0,0.0,-3.443868022007455,1.878443858860222,-0.030600018184391,1.060716925,0.0667568440783215,-0.0265493625971,-0.0427330258693994,13.737282625818317,5.561098293647085,3.3479040169301566,-0.004248401256315,-0.105889285237798,-1.0509054605799943,0.055015462518777,-0.0393463908890323,0.0211390020307398,63.22999874589889,-18.98391266932701,-32.32470921243464,0.0001438329701108
234,1724915606298919566,-0.0384000092744827,-0.1240055337548255,0.187544897198677,-0.0295423083007335,-0.0442586429417133,-0.5011239647865295,0.863737940788269,0.0,0.0,0.0,-0.217669837489776,0.1999422442676135,-0.0144234371754123,1.071261131,-0.2355386527528069,-0.0354777009425431,-0.0167257933631432,-9.70922077044384,-4.071511660171833,-3.634813537988898,-0.0067134105906858,-0.1062643340782976,-1.0510807831267197,0.0433864511071675,-0.0332209619903238,0.0235786469349967,202.2844152393482,-103.28723071135926,-68.90837507578706,0.000162890023595
236,1724915606308959020,-0.0379871353507041,-0.1243296787142753,0.1878065168857574,-0.0304451789706945,-0.044358056038618,-0.5016250610351562,0.863410472869873,0.0,0.0,0.0,0.8220501417160682,-0.3026658441222225,-1.3795766224280932,1.081300585,-0.1517766536205869,-0.1071784858495418,-0.1115389194045967,29.02939138317594,-6.736379231379808,9.634345734295998,-0.0081179659599055,-0.1073486069781729,-1.0521988112188756,0.049662784664223,-0.0348554462339736,0.0210843083600185,60.76234198879405,-38.69102147833738,-90.30143960435124,0.0002096239652714
238,1724915606317463268,-0.0375032871961593,-0.1246445998549461,0.1879499852657318,-0.0299138370901346,-0.04545783624053,-0.5011618137359619,0.8636409044265747,0.0,0.0,0.0,1.0304578480542133,-0.54978032702633,-1.8184716218110089,1.089804833,0.2441151139761718,-0.161545028307213,0.1078309370467018,42.86791259533257,1.2523474451689816,21.08956588415208,-0.0061424653078302,-0.1087158674646604,-1.051266701348464,0.0580720112930537,-0.0384369135493063,0.0012036609349861,-6.581639876119649,-8.414582918644518,40.39718248739633,8.851429041078208e-05
240,1724915606329185520,-0.0368035323917865,-0.1251178830862045,0.1877109557390213,-0.0265784319490194,-0.0475448444485664,-0.4995575547218323,0.8645665049552917,0.0,0.0,0.0,0.4509888074347978,-0.3148666562793489,0.1417039917637513,1.101527085,0.6870924696895152,-0.0233336925036569,0.2790127053099743,-39.92701510946753,-11.30945221973306,17.85194482649406,0.00155435046905,-0.1089818753720078,-1.0479758518982734,0.0708239733925002,-0.0469601629322031,-0.0117227497823773,-82.88888812608533,51.903486912125985,116.28124254647211,-0.000320790275505
242,1724915606337390073,-0.0361585430800914,-0.1255409866571426,0.1876645535230636,-0.0274825822561979,-0.0482008084654808,-0.4979710578918457,0.8654168248176575,0.0,0.0,0.0,-0.4211954804563351,0.2939535234943611,0.8032347683079517,1.109731638,-0.0867753251541349,-0.2487735545082431,0.4441360598992727,-55.69910822946943,-8.534868770205854,-3.9960732574041824,0.0004401470720369,-0.1110266042371889,-1.0443119314498426,0.0708670221186158,-0.0471762651813074,-0.003414039424431,-37.39817753917782,34.7465780969037,25.15679617606243,-0.0001227096383109
244,1724915606347253812,-0.0355513915419578,-0.1259542256593704,0.1876574605703354,-0.0285372827202081,-0.0482094772160053,-0.4974918663501739,0.8656577467918396,0.0,0.0,0.0,0.0270462775735049,0.1687667483427191,0.3935515531990054,1.119595377,-0.1781718194564837,-0.1083299498099087,0.1186713817611889,-12.655868260396586,9.463424427664592,-25.861138375942144,-0.0014484853497159,-0.1120945476553926,-1.0431334859151395,0.0616555104070808,-0.0404786052604047,0.0020249825222808,52.793695983060005,-25.400877256672715,-61.248599160856,-8.072430451936907e-05
246,1724915606357812010,-0.0348992720246315,-0.1263656020164489,0.1877098530530929,-0.0302822347730398,-0.0475860647857189,-0.4979076087474823,0.8653938174247742,0.0,0.0,0.0,0.6675224049245441,-0.243055116155586,-0.4759257530624318,1.130153575,-0.3501067940495227,-0.062377574697588,-0.0737397834928753,22.407857915801657,19.34808545342385,-11.038604616710971,-0.0050573264391897,-0.1127556570883661,-1.0439147196627423,0.0728009850305166,-0.0444633669501612,0.0043960665019824,-30.468374753035405,7.916735930685029,-44.71066975326708,-2.3040314392569175e-05
248,1724915606367105944,-0.0341323725879192,-0.1268238425254821,0.1877460777759552,-0.0289980955421924,-0.0470411144196987,-0.4983749985694885,0.8651986718177795,0.0,0.0,0.0,-0.3611872681167742,0.2143913523009133,-0.5835267811168814,1.139447509,0.1746947051745049,0.24012366950545,-0.1175488361628648,23.27049126075185,3.051937713860903,11.588253642473834,-0.0033102019146541,-0.1105285802928922,-1.0450236523535124,0.075829823068052,-0.0456231463855631,-0.0057579738492172,-10.453299432215026,0.4710179132563397,32.77252141623924,-4.873543134695631e-05
250,1724915606377776141,-0.0334051623940467,-0.1272655427455902,0.1875663548707962,-0.0292100589722394,-0.047461848706007,-0.4974068105220794,0.8657254576683044,0.0,0.0,0.0,0.7551522740242875,-0.377769209240939,0.3094624218018132,1.150117706,0.0163283587600448,-0.0886489791858488,0.205803587904396,-13.39037702341522,-16.933751626406636,7.126105821220257,-0.0033810792492612,-0.1114671108269085,-1.0428107620084606,0.0635589589398546,-0.0391805027676168,-0.0057487152622996,86.08717071821822,-39.62717399537701,73.40044969356222,-0.0002604299298323
252,1724915606390693642,-0.0326559878885746,-0.1277370154857635,0.1876655966043472,-0.0302294585853815,-0.0475489348173141,-0.4977917671203613,0.8654643893241882,0.0,0.0,0.0,1.577330272316389,-0.641483935572273,1.096702961428556,1.163035207,-0.133942245535224,-0.0903572842922412,-0.0646077131857197,50.607423624878706,8.464855900024164,24.443086059114773,-0.0050179224152873,-0.1126377975967374,-1.0436456732080237,0.1031068426668819,-0.0594102037358457,0.0030746074056011,-201.49586560704992,89.70405418966047,34.1360105021719,1.2509951767516264e-05
254,1724915606398072674,-0.0317050106823444,-0.1282719820737838,0.1876688599586486,-0.0286654494702816,-0.0484096370637416,-0.4967230856418609,0.8660836815834045,0.0,0.0,0.0,-1.0271555865668072,0.4846225172309286,1.2355932802777885,1.170414239,0.5018490830707654,0.0083438428982678,0.3070318222963012,5.051936355389177,0.3185020145897121,12.815029533827424,-0.0015709307677693,-0.1125687639257506,-1.0413658469877818,0.1084895993187737,-0.0602464034229761,0.0129108443344616,-243.2087642339281,89.41816682600174,-57.970217176551074,-0.0001017093263817
256,1724915606407422838,-0.0309321451932191,-0.1286901384592056,0.1879373043775558,-0.0306620262563228,-0.0480359941720962,-0.4968690276145935,0.8659523725509644,0.0,0.0,0.0,-2.00091042742749,0.5720227514204668,-0.2162629114157448,1.179764403,-0.4118919526655429,-0.1433799238276955,-0.0180227832999743,-35.524502851786124,-8.962341038098575,-21.738948055796804,-0.0054035584595379,-0.113909968250013,-1.041530734679074,0.0780733543333265,-0.048630765559916,0.023309805659343,69.08201228075924,-50.63281065685814,-175.84390793473585,0.000183786016052
258,1724915606417269419,-0.0302109289914369,-0.1292095184326172,0.1881108283996582,-0.0315189957618713,-0.0484314672648906,-0.4972863495349884,0.8656600117683411,0.0,0.0,0.0,0.4755434079407585,-0.5484939044184607,-2.1609999656706016,1.189610984,-0.116712043052946,-0.1563000137961362,-0.0970096217232953,32.53081164645735,12.443255423848608,-2.235188260396043,-0.0064437971480683,-0.1154546281288766,-1.0424831264814671,0.0713547664371918,-0.0499485604521767,0.0074053764225663,151.22948827318143,-71.42225512067576,-83.68540996540148,8.113949902547167e-05
260,1724915606429610798,-0.0293595567345619,-0.1297826617956161,0.1880441755056381,-0.0291318297386169,-0.0483111813664436,-0.4974162876605987,0.865675687789917,0.0,0.0,0.0,0.7908510407860074,-0.7744704704984953,-1.4332191937529415,1.201952363,0.3242520355018353,0.2100391701218392,-0.0350867484400199,11.996205182015634,-12.370092988483435,28.23375956571507,-0.0023911120553745,-0.112864389010071,-1.042930477738105,0.095133886987917,-0.0631318251077548,-0.0277065640161726,-119.6178217197344,77.09836670257218,207.8339985583903,-0.0001692206590255
262,1724915606437221067,-0.0285128504037857,-0.1303414404392242,0.1877286434173584,-0.0283371154218912,-0.0491231232881546,-0.4963996112346649,0.8662397861480713,0.0,0.0,0.0,-0.8007174766363843,0.2600078859827364,0.8470456308198431,1.209562632,0.304164821440972,-0.08145307946315,0.2887300919738268,-1.206901465258312,-18.49457432427416,18.453830374164298,-0.0003261729814545,-0.1134812857040732,-1.0407181891786486,0.0958217368206164,-0.0676472487751045,-0.0319882046323485,-147.29625354335752,119.28895112482031,239.5760697466436,-0.0004164245567282
264,1724915606447085009,-0.0277650281786918,-0.1309348493814468,0.1875342279672622,-0.027075670659542,-0.0499061234295368,-0.4956271052360534,0.8666776418685913,0.0,0.0,0.0,-1.4630388470283502,1.223886889394647,2.4424202225037814,1.219426574,0.3105756466238147,-0.0106381275368206,0.1626880548394478,-23.84913232648197,2.47818710338416,-13.091582532526305,0.0025543617183469,-0.113588014335872,-1.0391032165630911,0.0765307608529592,-0.0541725759362776,-0.0056104911688574,1.1635090858509614,17.07412033654891,34.94281585524247,-0.0002949871186358
266,1724915606457132728,-0.0269887298345565,-0.1314178854227066,0.1876221597194671,-0.0279498137533664,-0.0496020019054412,-0.4955457150936126,0.8667138814926147,0.0,0.0,0.0,-0.7522088624203263,0.5700650917051353,1.4957768998354406,1.229474293,-0.1797996276009416,-0.0338522204595357,0.027938628465599,-28.97732288613612,-0.8819344928130827,-18.009009731566152,0.0007157762065153,-0.1139286085778036,-1.0388212165465442,0.0668729721398966,-0.0433303686268269,0.0165584702199019,75.13367467715946,-78.20450484792711,-147.73730998329506,-5.0302173003573795e-06
268,1724915606468905446,-0.026344746351242,-0.1318625658750534,0.187924787402153,-0.029211463406682,-0.0490459762513637,-0.4968755543231964,0.8659421801567078,0.0,0.0,0.0,0.1928498580514981,-0.5317671324958346,-0.981775822100031,1.241247011,-0.2474461708979649,-0.0245311404112804,-0.2475014263984143,-10.11395210756241,5.105363639429415,-20.13605869040357,-0.0018635269866096,-0.1142190716681104,-1.0417538193509888,0.0609001168991398,-0.0436403193627761,0.0243660373470255,43.98307456262257,-33.76464555692209,-181.1509733355717,0.0002204779210955
270,1724915606477882104,-0.025755638256669,-0.132294476032257,0.1881343424320221,-0.030439468100667,-0.0480805337429046,-0.4985395073890686,0.8649972081184387,0.0,0.0,0.0,0.3392623644614962,-0.4253622121038951,-2.4073731148243964,1.250223669,-0.3681325638513201,0.0508232140519928,-0.4059394873481438,23.114956809688465,-5.196604983501104,17.651213774938853,-0.0047507518325046,-0.1137749152296549,-1.0454232071305485,0.0674238828969981,-0.0518733767398158,0.0042937100459141,-19.556760419227924,44.26039603259862,-30.608874518918483,0.0001336258804574
272,1724915606487259966,-0.0251057390123605,-0.1328177601099014,0.1879879683256149,-0.0299307852983474,-0.0490804575383663,-0.4980461001396179,0.8652428984642029,0.0,0.0,0.0,-0.1955283050888216,0.3071958379452386,-1.438417277701833,1.259601531,0.2068089053963759,-0.1310616319562659,0.1054371130800034,32.20936205944916,-2.7337777812864834,34.54801285467742,-0.002925465443198,-0.1150001691846457,-1.044423034764429,0.0668092451986896,-0.0510441951057565,-0.0199606772443727,-22.81394788342255,39.41124654538913,145.01612679808292,-0.000233914635033
274,1724915606498609033,-0.0243817456066608,-0.1333317458629608,0.1877016574144363,-0.028956338763237,-0.0492028295993804,-0.4969134032726288,0.8659201264381409,0.0,0.0,0.0,0.0154567857010454,0.2228862577736281,0.7800092412676983,1.270950598,0.1726913970569591,0.0667497851458811,0.223077315152979,6.153428843836032,0.7136388408272389,1.5393720296895823,-0.0012568545279763,-0.1142373338682794,-1.0418762359854736,0.06280486055826,-0.0445529940376294,-0.0205190251080331,0.6454484996024483,-1.302862494957573,122.41286285961326,-0.0003762109202609
276,1724915606508466134,-0.0237711332738399,-0.1337646096944809,0.1875397115945816,-0.0278350058943033,-0.0502389371395111,-0.4961328506469726,0.8663449287414551,0.0,0.0,0.0,-0.1318136120008022,0.2624893445527174,1.3611648314552465,1.280807699,0.3117643901193222,-0.0693269777712169,0.1626870934073333,3.5295637298231117,-4.813288289424646,-14.024277654220915,0.0016317054974238,-0.114921008686162,-1.0402622404155846,0.0661102931020587,-0.0453444881299764,-0.0057313298528836,42.037305649051746,-22.979363159331136,-9.07996787609938,-0.0002396205298826
278,1724915606517380333,-0.0231482461094856,-0.1341803520917892,0.1875748634338379,-0.0269210450351238,-0.0509659983217716,-0.4961701929569244,0.8663099408149719,0.0,0.0,0.0,0.7022417484386767,-0.159990061779774,0.7317361219846106,1.289721898,0.2579422705878089,-0.0397473950297228,-0.0259954158538718,-9.237039789925056,2.9364944254618157,-14.960594450541285,0.0039579589115154,-0.1152746724075687,-1.0404964821939229,0.0611693641030337,-0.0402412376650107,0.0052814742277327,37.56894646548576,-38.37363242446347,-44.41526053818043,-4.386355467681941e-05
280,1724915606532034157,-0.022461611777544,-0.1346159428358078,0.187684491276741,-0.0266178660094738,-0.0511878691613674,-0.4967595040798187,0.8659684062004089,0.0,0.0,0.0,-0.09611657205952,-0.5050188411759802,0.7118812308013016,1.304375722,0.0455175935811453,-0.0059127637366277,-0.095730670189922,-42.96901516629666,22.06631193460409,-40.77414623604188,0.0047874950091457,-0.1153551756491431,-1.041909001432998,0.1017282126457357,-0.0602303441797502,0.003870876204342,-351.5187581550831,166.18946389823304,11.588016878204384,2.394991723717674e-05
282,1724915606537214518,-0.0218341350555419,-0.1349838227033615,0.1876979321241378,-0.0268965195864439,-0.0505943112075328,-0.4976359903812408,0.8654913902282715,0.0,0.0,0.0,-2.461087471345772,0.7033715291587113,0.7956142813599338,1.309556083,-0.2292208446747334,0.1445811928260355,-0.3729117466264623,-32.33631297812334,13.314232672760731,-31.932006065484487,0.0038227714740275,-0.1145978987200403,-1.0438505152267137,0.0959854886380752,-0.0612732758908203,0.0090386622791616,-231.49657389252656,145.34031874498964,-39.10224557146233,-6.045550956733348e-05
284,1724915606547566401,-0.0213605649769306,-0.1354166120290756,0.1879248023033142,-0.0275485310703516,-0.0504734478890895,-0.4988170266151428,0.8647976517677307,0.0,0.0,0.0,-0.2025253703797069,0.3891245928511049,-0.7524016397962285,1.319907966,-0.1357954157100855,-0.0431209808687069,-0.2571835565234046,10.74435803045836,-10.270114989974996,13.120015189368866,0.002724229019625,-0.1150355375464268,-1.0465317453580802,0.0425300085748968,-0.0352774282942753,0.0130970381021198,144.36875630798363,-27.96606096617928,-97.08923112098267,0.0001546290111341
286,1724915606563912940,-0.0207483917474746,-0.1358247101306915,0.187911257147789,-0.0269891507923603,-0.05087211728096,-0.4987282454967499,0.8648431897163391,0.0,0.0,0.0,0.2521709829606351,-0.0063201923684239,-0.9855938201974296,1.336254505,0.0842195922026334,-0.008061312431818,0.0073747965107987,-63.57766776194103,188.81780425977496,55.21136297701256,0.0040870428971269,-0.1151677331328227,-1.0464109271160875,0.1672840354149736,-0.0836934338832406,-0.0287432334092372,-803.3964449745604,290.3374570965916,174.45809665692371,-9.06013011533796e-05
288,1724915606567106527,-0.0201331488788127,-0.1361286342144012,0.1878020465373993,-0.0266699511557817,-0.0497477650642395,-0.4984847903251648,0.8650588393211365,0.0,0.0,0.0,-2.8321588884939892,1.1171398039438825,-0.3106975062040341,1.339448092,-0.1668865114786284,0.7114145541280159,0.2080469681032496,-55.16899889957829,165.06883665570416,47.66871052763335,0.0034769968719513,-0.1128982991385074,-1.045733537441326,0.1634850182807725,-0.0818695916553369,-0.0309087653806257,-780.8609467149729,279.6498327154449,194.11059231208972,-0.000174206995939
290,1724915606579110357,-0.0194865781813859,-0.1365114152431488,0.1875793784856796,-0.0255801100283861,-0.0505438894033432,-0.4979138970375061,0.8653743863105774,0.0,0.0,0.0,-3.861702853496283,1.2192749164638794,1.242510527223475,1.351451922,0.2293349477470239,-0.0241511433371512,0.0959197026393451,-18.456559310932217,-28.90455499697702,-15.30813911559251,0.0060993365708791,-0.1131937260795757,-1.0445762310200246,0.055376356708884,-0.0438225666272256,-0.0180619930319938,212.2469510339632,-39.28453363921749,79.99595953705919,-0.0002975431121096
292,1724915606587427720,-0.0190172754228115,-0.1369446814060211,0.1874319612979889,-0.0265222638845443,-0.0503744110465049,-0.4981884956359863,0.8651977777481079,0.0,0.0,0.0,-0.3788967103123393,0.6170978734926265,1.6231906451317706,1.359769285,-0.2207667001793095,-0.077993828181636,-0.0657927412592073,-17.064626518185467,0.3693583383463142,-12.580601234984805,0.0043259104116224,-0.1138395540896205,-1.0451302888309997,0.052904992859736,-0.0449210609196359,-0.0067346811452342,232.6352235655417,-24.81074976212811,-1.0916811988661408,-0.0002165985460492
294,1724915606597242881,-0.0185387693345546,-0.1373025327920913,0.1874931454658508,-0.0263095218688249,-0.050467912107706,-0.4986451268196106,0.8649357557296753,0.0,0.0,0.0,-0.2511283433682743,0.9247875533186132,1.0696993638477412,1.369584446,0.0408945157796701,0.0048904755187957,-0.1097912207602246,8.871100547443156,-0.5989363755548842,-3.778464915547733,0.0048504498780859,-0.1137866142426126,-1.0462147277887843,0.0482390185992541,-0.0301867432908169,0.0122237892056507,38.04819248397475,-40.414133159550104,-75.20615038495437,-2.72971334054027e-06
296,1724915606607642161,-0.0180427674204111,-0.1375473439693451,0.1876862645149231,-0.0268168617039918,-0.0507784336805343,-0.4992831647396087,0.8645338416099548,0.0,0.0,0.0,0.4203382160630227,-0.2861815776232819,0.0803062848178877,1.379983726,-0.0628410629714135,-0.1009802681669529,-0.1413250955099674,-11.8049182589564,1.0113826511204551,3.355738953702809,0.0043662337634194,-0.1148299539148863,-1.0476989256234048,0.0480983538041832,-0.0269203969150657,0.013851887659781,39.219230614485184,-50.566039097432395,-62.6107537606738,0.0001378141409966
298,1724915606618739515,-0.0175042357295751,-0.137886106967926,0.1877841055393219,-0.0277241226285696,-0.0499803572893142,-0.4994862973690033,0.8644344210624695,0.0,0.0,0.0,0.555373821568657,-0.0671447680389238,-0.2292803666249794,1.39108108,-0.2155116945179378,0.0427818924556274,-0.0284361200216364,7.954667207884746,5.760539303255703,8.626465375064177,0.0020107697417737,-0.1143541909371158,-1.0480150992479749,0.0579009453713416,-0.0372048855084568,0.013840071098162,-69.00003994099615,59.34753776685916,-49.41715617176172,3.243105609009221e-05
300,1724915606628056124,-0.0168914832174778,-0.1382849663496017,0.1879523396492004,-0.0275254528969526,-0.0498795360326767,-0.4993243813514709,0.8645400404930115,0.0,0.0,0.0,-0.7223396468603105,0.7955854418150388,-0.8580003570636487,1.400397689,0.0284221318530072,0.0401811626110915,0.039839996265124,21.288834958051098,0.520415777022508,13.10474305144645,0.0022329153153134,-0.1139806094376383,-1.0476405599328649,0.0605100240200672,-0.0311069368751937,0.009918941901974,-90.88851343587754,40.99360200347214,-43.713435066838656,9.228704880718768e-05
302,1724915606637077608,-0.0163915418088436,-0.1384633481502533,0.1879707276821136,-0.0267624538391828,-0.0500516667962074,-0.4984772801399231,0.8650428056716919,0.0,0.0,0.0,-1.1382178380953063,0.7145787000704231,-1.044709626911912,1.409419173,0.1777277835798794,0.0518608567211967,0.2085244093597492,0.6009195804272398,-3.566897323352883,10.54877725904738,0.0036212161831883,-0.1135182688255681,-1.0457458533476611,0.0452369007851189,-0.0226973081760109,-0.0016400926691311,19.253240886651067,-2.483397380692736,28.979727354757728,-2.884371771214328e-05
304,1724915606648358877,-0.0160248205065727,-0.1387606561183929,0.1879003345966339,-0.0271801613271236,-0.0501836277544498,-0.4974425137042999,0.865617573261261,0.0,0.0,0.0,0.0009091316746472,0.7782014164230783,-0.0169997840757477,1.420700442,-0.040488590749364,-0.0569606811306907,0.2125649521163748,7.4030307963253135,10.050118914253574,3.469123289454888,0.002890510998676,-0.1141686556505154,-1.0433342951308222,0.0402223402437562,-0.017705649675797,-0.010088439154849,43.45166671993401,-4.871261019288404,75.43016833650624,-0.0001207121623844
306,1724915606657453582,-0.0156024424359202,-0.1388582736253738,0.1877803653478622,-0.0259588956832885,-0.0499508455395698,-0.4963622987270355,0.866288423538208,0.0,0.0,0.0,-0.0256693121312274,0.6568330988804185,0.5541339249374867,1.429795147,0.2229420652733433,0.1788546436503642,0.2669249927290341,4.479469212386726,9.218521797377283,-7.104286979849245,0.004641032696363,-0.1125511910536525,-1.0408849654643342,0.043496348087383,-0.008166595641545,-0.0048769213605712,-14.739204632236529,-25.65855388844293,20.956652869594045,-0.0001541093751149
308,1724915606667415577,-0.0152012770995497,-0.1389116197824478,0.1878225058317184,-0.0257521234452724,-0.0495636500418186,-0.4961430728435516,0.8664423227310181,0.0,0.0,0.0,-0.3014459741452058,0.2668566922653363,0.3063262599670338,1.439757142,0.0003775790126318,0.0883464514268232,0.0534080415679075,-4.320485466754431,-3.812706507569968,-11.84428467358606,0.0045844364254735,-0.1116735317771798,-1.0403453514776373,0.0390323133737582,-0.0059009999395662,0.0004371894274388,-19.816738231474215,-16.89911085277137,-20.580341617169992,1.2669163623179642e-05
310,1724915606677432764,-0.0148227456957101,-0.1389762312173843,0.1877886801958084,-0.0249017383903265,-0.0494559220969677,-0.4959857761859894,0.8665634393692017,0.0,0.0,0.0,-0.4207208309767647,0.3216652368464105,0.1434309426987705,1.449774329,0.1386170260652134,0.103263513947946,0.0313472631482399,3.1006094685256573,-0.4552610780444133,-5.715919741584658,0.0059373338952779,-0.1106407986563255,-1.0400240010739523,0.0374899379277997,-0.0028306524112586,0.0012180877451033,-0.0497146264277041,0.244213467489093,-20.292331826848805,-6.267126993321618e-05
312,1724915606687992901,-0.0144301671534776,-0.138965830206871,0.1878526955842971,-0.0244437362998724,-0.0492502488195896,-0.496293842792511,0.8664117455482483,0.0,0.0,0.0,-0.2892441716591225,0.2660518632334163,-0.1157312374299622,1.460334466,0.0522462329197967,0.0768097423756003,-0.0681291405952257,-0.8522336097651788,-3.614848575233749,0.5450818741881047,0.0065681281351623,-0.1098251840065203,-1.040742648300811,0.030077492859879,0.0007349152100042,0.0034616406705536,29.421017179003453,-6.649281445823681,-33.91465181335211,4.059887233203486e-05
314,1724915606699411619,-0.014174360781908,-0.138960525393486,0.1878601163625717,-0.0237412638962268,-0.0495105125010013,-0.4959569275379181,0.8666093945503235,0.0,0.0,0.0,0.2562456050240143,0.1730503891448181,-0.6187236967974745,1.471753184,0.1329785084867964,0.0218301236686487,0.061134806750175,15.615647830988328,2.284222451331492,10.211898998912414,0.0080094846201482,-0.1095810156060994,-1.0400386061899602,0.0318701332071671,0.0028889299304744,-0.0019120104924308,9.273764458953565,-9.2516104637057,-7.773609698198832,-8.072500237046203e-06
316,1724915606706944687,-0.0138872293755412,-0.1389267146587371,0.1878329813480377,-0.0226704888045787,-0.0498035252094268,-0.4954758584499359,0.866896390914917,0.0,0.0,0.0,0.1347847436734761,0.0978561698880612,-0.4970025052774536,1.479286252,0.2930803412358532,0.0743173717854653,0.132553087447235,7.4258740492265005,7.1091599273544155,4.600613766719547,0.0101071453514499,-0.1090302418294474,-1.039028989903735,0.0342937082210134,0.0041150605867814,-0.0073090210857698,-0.5213124218424525,7.773223503588527,24.183712822840835,-4.2317888995161545e-05
318,1724915606717439570,-0.0135832093656063,-0.1388889849185943,0.1877020746469497,-0.0215384326875209,-0.0495425574481487,-0.4949512183666229,0.8672398328781128,0.0,0.0,0.0,0.3574392857496649,0.4390364126425865,-0.1258552826873268,1.489781135,0.1688417220926323,0.1509972545947689,0.1094841510175107,-16.07191142657737,7.967757678992441,-6.862697837566583,0.0117523824448698,-0.1074581941271934,-1.0378558354486038,0.032974968091372,0.004192982958429,-0.0093165249691713,12.282762221774789,14.863286170286727,27.70951910055166,-0.0001465253878643
320,1724915606729476533,-0.0131309777498245,-0.1388302594423294,0.1876335144042968,-0.0211980901658535,-0.0479635447263717,-0.495204359292984,0.8671925067901611,0.0,0.0,0.0,0.3819638990524847,0.3743322798579049,0.1020001076717793,1.501818098,-0.0830668429394036,0.2560352271713894,-0.0375194273298405,-14.339743636269482,9.262811223377948,-3.03621025804087,0.0107968252549768,-0.1043714164402417,-1.038275078433755,0.0439468801948357,0.0154363185621999,-0.0099281547467544,-51.40731221331926,-54.56582191856228,22.30499916256953,-9.135983933066917e-05
322,1724915606737132510,-0.0127634704113006,-0.1386606693267822,0.1875368952751159,-0.0211040787398815,-0.0465660206973552,-0.4953135251998901,0.8672086596488953,0.0,0.0,0.0,-0.2718584979388784,-0.2829548669358673,0.289202971889031,1.509474075,-0.1607704833315709,0.3295637097883079,-0.0160797691173969,-8.639497727213502,5.575760924917816,-0.6427688401663345,0.0095760481652165,-0.1018471669177842,-1.038373050919044,0.0442925221742726,0.0155765677164199,-0.00840312272532,-20.027217584346868,-41.09438186664511,-3.219643502156382,-0.0001040818657459
324,1724915606751384355,-0.0122306514531373,-0.1386131048202514,0.1875290125608444,-0.0215056743472814,-0.0438554771244525,-0.496158242225647,0.8668570518493652,0.0,0.0,0.0,1.1770806298772245,0.3188272851014199,-0.4908151161182915,1.52372592,-0.2438409272495083,0.302156685162527,-0.1165881026639973,-4.0842487194044805,-2.271500936185955,-5.287526579857141,0.0062636279227043,-0.0975278297448248,-1.0400084560491598,0.0320078060263177,0.0035510661704661,-0.0018935105010872,644.0485910549504,525.9393571008171,-82.60653002584769,-3.314289705637623e-05
326,1724915606818198086,-0.0117766791954636,-0.1383089274168014,0.1869826465845108,-0.020083263516426,-0.0430935770273208,-0.4937407970428467,0.8683085441589355,0.0,0.0,0.0,214.09745538974175,186.97164612929396,-14.741449802433069,1.590539651,0.0297016006859614,0.0412450078109915,0.0829097224584004,12689.68210979507,12285.28753913335,3379.1428540590746,0.0077118871345377,-0.0948108756126334,-1.034424145500121,0.7493415543108153,0.3890158305646025,-0.3314922785192209,-9256.728701941143,246075.32084221428,267055.9090918553,-0.0005453140248545
328,1724915606818933205,-0.0112198181450366,-0.1380198448896408,0.1867363452911377,-0.0154401836916804,-0.0418636053800582,-0.4928246736526489,0.8689839243888855,0.0,0.0,0.0,207.19201322617812,369.83399041822395,183.73813826110245,1.59127477,9.460731050599682,9.171790217088535,2.5942887257520657,-25515.56747005378,-8495.253146780391,3363.775223770548,0.014484961361224,-0.0880900908229468,-1.032434080206846,0.9083734783859612,0.5279278335617335,-0.3424083298352229,78809.03758872853,-119389.43960268772,141380.42814081523,-0.0002576760028109
330,1724915606819425666,-0.0107227098196744,-0.1377154290676117,0.1865652948617935,-0.0190867595374584,-0.0403444543480873,-0.4920699298381805,0.8694109320640564,0.0,0.0,0.0,275.1007029158809,189.5884355888741,210.93166563480588,1.591767231,-15.754756321627772,-1.9119565934022007,4.233492370578265,-27825.28676903887,-1110.113547605285,-4224.113484528503,0.0065420812628963,-0.0890535204330434,-1.0303510849913036,1.007391187324984,0.7697257334041012,-0.1864098832978697,3832.554999829794,-498683.8742057924,-348197.1047969748,-0.0001737145207878
332,1724915606819906483,-0.0102392993867397,-0.1372741758823394,0.1865512132644653,-0.0219700559973716,-0.0366137064993381,-0.4925560653209686,0.8692325353622437,0.0,0.0,0.0,214.00732773462755,-112.4708669756326,-145.87074132957304,1.592248048,-18.158992633575693,7.598944759502284,-1.343139890068556,24185.86039927286,14183.569705526872,-1474.1347016527352,-0.0021333445358994,-0.0853983807619952,-1.030991061744278,1.1744192286387456,0.7193863547676926,-0.1346774824733074,-592716.0666145927,94013.87871757106,-630070.6042200576,-1.5689948026527455e-06
334,1724915606820381616,-0.0096019338816404,-0.1370254904031753,0.1864377409219741,-0.0191703401505947,-0.0350045301020145,-0.4919937252998352,0.8696835041046143,0.0,0.0,0.0,-286.24394996706474,271.2991672541468,-392.6500715500478,1.592723181,7.0358896145902,11.710079058352475,2.7098827187073886,15811.681085632135,5713.404747425772,2984.0307269677637,0.0011032753301805,-0.0798338747446584,-1.0297020767824103,1.213478754067424,0.6622970759784153,-0.3229906771707362,-809312.4805260785,602738.850722892,-129485.29300514988,-0.0001230364976285
336,1724915606820856915,-0.0090860128402709,-0.1366446614265442,0.1862442046403885,-0.0183090474456548,-0.0319373607635498,-0.4917685091495514,0.8699474334716797,0.0,0.0,0.0,-555.1082779352685,460.3233618346467,-268.80823635416283,1.59319848,-3.1434226034989017,13.028171478166144,1.4911367218503129,6652.704894050621,-3663.3462697920986,-467.13116676567415,-0.0004454484200677,-0.0736418193164561,-1.0289891872214116,0.9022414715127648,0.9773677501575831,-0.5078634507183324,-156664.48166370555,-34807.05878914817,267542.4082307322,-0.0001882956643098
338,1724915606821329177,-0.0087458956986665,-0.1361004412174224,0.1859571188688278,-0.0146593321114778,-0.0317562520503997,-0.4912384450435638,0.870322585105896,0.0,0.0,0.0,-437.1694902243774,240.93598247154,-139.17962171293522,1.593670742,13.169784753636623,8.277805595666095,2.2545507415503745,32773.579072206616,-9604.950943541668,1525.5531530787507,0.0056969654632381,-0.0697353287084337,-1.0279113742228052,0.6868760596980369,1.0997079963488106,-0.5784303546821821,239626.1359312262,-443233.66200561466,261847.17160541005,-0.0002694190193792
340,1724915606830453874,-0.0083511704578995,-0.135350152850151,0.1858737766742706,-0.011970492079854,-0.0299207959324121,-0.4906768798828125,0.8707454800605774,0.0,0.0,0.0,-32.26943231317045,-46.07425220690624,22.12146707462926,1.602795439,0.3205682687961243,0.6407879402766262,0.1398411764044496,-532.6020358102612,-320.63594494075073,-89.90901571976839,0.0085339008042253,-0.0638975553648458,-1.026590908473738,0.0228718357105505,0.1043735037337558,-0.0424510202552781,21009.181058638085,-9047.35264744655,5131.079306653312,-6.142848088946152e-05
342,1724915606836903680,-0.0082965977489948,-0.1345759928226471,0.1854480803012848,-0.0080606937408447,-0.0286983735859394,-0.4900434911251068,0.8711881637573242,0.0,0.0,0.0,-3.286166238865118,-2.273772253845003,-1.9835205638428537,1.609245245,0.877197077315328,0.926703797390996,0.2066368420279372,15.405228913968944,12.583893626551852,5.596617296075867,0.0141062752055207,-0.0579359533977427,-1.0251879415108027,-0.00061540650055,0.0944564658173723,-0.0667150809261185,2764.2562283025622,4158.8576396977105,-2216.9520428641954,-0.0003945899177986
344,1724915606847057721,-0.0084479413926601,-0.1340256631374359,0.1847592443227768,-0.007168024778366,-0.0260230787098407,-0.4892494678497314,0.8717261552810669,0.0,0.0,0.0,-2.86357060832533,-2.1207742084500634,-0.1904268671271412,1.619399286,-0.0997050228784453,0.5470080234457331,0.1873794894139951,-50.86783275386857,-28.92821319794315,-11.740043246158985,0.0129846374588735,-0.0524078884958527,-1.023207295962595,-0.0283023423963468,0.0595998179543642,-0.0584258944791455,51.73996718847851,24.7323825280439,51.510383642428,-0.0006611364014014
346,1724915606858365434,-0.0089366845786571,-0.1332837045192718,0.1842171102762222,-0.0067670391872525,-0.0241291057318449,-0.489618718624115,0.8715764880180359,0.0,0.0,0.0,-2.151055317093497,-1.7194053818414112,-1.1830121003605658,1.630706999,-0.103956919415465,0.3264956875216511,-0.0693277271971184,48.08880377310873,-15.433455516404557,0.3452911575528077,0.0118464649695761,-0.0487065162383112,-1.0239462457207011,-0.0624064236549886,0.0521401678308901,-0.0732569055545901,88.52375612583018,36.470324556718566,25.882201152610843,-0.0004978516805389
348,1724915606867763970,-0.0096730757504701,-0.1328989267349243,0.1833308637142181,-0.0033133444376289,-0.0249238274991512,-0.4890731871128082,0.871880292892456,0.0,0.0,0.0,-1.119767017661359,-1.3690198525549744,-0.0518661268356219,1.640105535,0.7266001515430355,0.2132186752811446,0.1139557294735633,36.72665139632525,-12.838167569593493,12.40251824109609,0.0186228674517899,-0.0467191174823993,-1.0228435119172938,-0.0758664917652481,0.0277021390399978,-0.0833711250834019,44.62388004688204,64.35300381956212,87.16926398458928,-0.0008439045181675
350,1724915606879493662,-0.0105265853926539,-0.1327677816152572,0.182512879371643,-0.0011370235588401,-0.025810532271862,-0.4882187247276306,0.8723388314247131,0.0,0.0,0.0,-1.5494143077956355,-0.2178684059512712,0.4848178096827569,1.651835227,0.4013695472365537,0.0511312962894082,0.1555143326094138,-40.78944673868978,30.331461336729383,-22.26791729038866,0.0232454800828727,-0.0461576798232678,-1.0210052684979534,-0.0844280931380495,0.0296672009408034,-0.0689849753658045,7.541415226186658,-63.472222120269045,-42.42517689952292,-0.0007758401973012
352,1724915606888552234,-0.0113729760050773,-0.1323697119951248,0.1818932294845581,5.79996922169812e-05,-0.0231720451265573,-0.4891226589679718,0.8719072341918945,0.0,0.0,0.0,-1.1720954351540378,-1.923430822299573,-0.5163733383120892,1.660893799,-0.0595050529028258,0.6347524887887488,-0.2267675200130555,5.638388716951614,3.7913998710859302,-19.19199588148043,0.022789617018303,-0.04036196760283,-1.0229284705236676,-0.104196613674887,0.0249974901365614,-0.0697816353121911,73.15984503895746,-118.9361314868558,-86.53149370050522,-0.0005757525289255
354,1724915606897073409,-0.0123471124097704,-0.1323085725307464,0.1812875717878341,0.0020958506502211,-0.023419639095664,-0.4898425638675689,0.8714937567710876,0.0,0.0,0.0,-0.2961413923164588,-2.3810568018063334,-1.06140623281131,1.669414974,0.4415501678454947,0.1810213344137708,-0.2058726124890638,49.32833080708811,-15.304498341733396,12.85298125729576,0.0266200658799683,-0.0387765816347113,-1.0246453068715922,-0.1060867897791717,-0.0026778787555681,-0.0776158749306858,56.79379806899171,43.96840294314705,-2.0980879874515317,-0.0005620440115756
356,1724915606907214137,-0.0133235566318035,-0.1324546337127685,0.1804215759038925,0.0069476566277444,-0.0233375634998083,-0.4895125329494476,0.8716562986373901,0.0,0.0,0.0,-0.2753860146428248,-0.7564583837359045,-0.3361005734080029,1.679555702,0.8274559853469846,0.483722236934187,0.0499846255738017,-18.47417980562401,-1.5033403293197631,12.170520396255382,0.0349872195620302,-0.0338892249256613,-1.0239872897353235,-0.1099867840022688,-0.0163631671181274,-0.0900932340304105,32.75138084886167,79.53099505448347,41.12356174264586,-0.0008201690815082
358,1724915606917268586,-0.0145659614354372,-0.1326386928558349,0.1794689297676086,0.0076692840084433,-0.0228475965559482,-0.4893129467964172,0.871775209903717,0.0,0.0,0.0,0.3600027480993715,-0.7610525032696915,-0.2256850980618736,1.689610151,0.0781739092370681,0.1560483672449935,0.0421572451519787,-30.84969462298751,-23.370717102230092,8.032044777100323,0.0357573411484177,-0.032336211644762,-1.023507828388668,-0.1116670224649766,-0.0180565948154827,-0.084557151050741,25.913736418271707,-23.172982021415933,-24.534506389104532,-0.0008943766554249
360,1724915606929853532,-0.0157838221639394,-0.1328620016574859,0.1785653233528137,0.009723630733788,-0.0239853523671627,-0.4877090454101562,0.872622549533844,0.0,0.0,0.0,0.0988628027947626,-1.4105137721500252,-1.0939139050976605,1.702195097,0.3778790945843169,0.0071532429375647,0.2820265746565937,76.61414002269399,68.07707427958046,11.320975640545589,0.0403980249916984,-0.0323813719774758,-1.019955879917258,-0.0988330984572951,-0.0369696444817915,-0.0996258365435434,-99.89104317506576,-46.87992425701432,-24.00881299094523,-0.0008412997928931
362,1724915606938107627,-0.016610762104392,-0.1332712322473526,0.1775923669338226,0.0163742210716009,-0.0229996107518672,-0.486327588558197,0.8733202815055847,0.0,0.0,0.0,-1.1540856996485085,-1.7718788590411376,-1.0485768325140796,1.710449192,1.296096116073408,1.0016607635586026,0.3335747538523006,17.69324759903587,36.92699132866993,-2.551060191206637,0.0510076728774712,-0.0242479582586034,-1.016826293122851,-0.1030025895242799,-0.0481123878383504,-0.1080950991929787,-61.491472414112394,-17.64505784999855,15.67128356936686,-0.000922466052943
364,1724915606949611093,-0.017840813845396,-0.1338011771440506,0.1765056997537613,0.0165946073830127,-0.0225783698260784,-0.4854993522167206,0.8737878203392029,0.0,0.0,0.0,-0.4136684869466247,-1.5558609705045132,-0.7051192268323057,1.721952658,-0.0001738117669013,0.0868213325290224,0.1632075649167635,-33.34297089509676,-10.524635331507746,-22.045972646190094,0.0509598339722193,-0.0233461875720887,-1.0148998407122547,-0.1266824447702776,-0.075259255305351,-0.1205182291447535,193.80721248191267,137.11222646048438,91.16131054465262,-0.0010128555624008
366,1724915606957125517,-0.0188897233456373,-0.1345099955797195,0.1754721850156784,0.0176852438598871,-0.021691670641303,-0.4855901598930359,0.8737384080886841,0.0,0.0,0.0,1.6780699354350834,0.0553180783532769,0.2808279298313954,1.729467082,0.1387365625600406,0.346445099500886,-0.0379737623894877,10.68032922636614,14.346878652204738,-10.618101332112971,0.0520056870400956,-0.0207316158049573,-1.0150508535380955,-0.1217170241726648,-0.0830039716763453,-0.1239768945961365,170.82911219628534,123.79034474924238,102.41860509594864,-0.0009671470155268
368,1724915606967232061,-0.0198769699782133,-0.1351949572563171,0.1744035333395004,0.0188298225402832,-0.0210859179496765,-0.4852269291877746,0.8739312291145325,0.0,0.0,0.0,1.9428713513533575,0.0746131358210915,0.92460667931691,1.739573626,0.1405789757054185,0.2168242617231421,0.0743003549240927,3.815494188621076,-3.012928627582113,1.9885656302896433,0.0534094561993581,-0.0185828799436245,-1.0141855650590026,-0.0909297664753279,-0.0676835704777092,-0.1110650794074121,-43.70320757027832,-57.65049400308421,-7.995600280433576,-0.0010039908006882
370,1724915606977626643,-0.0207499396055936,-0.1358975321054458,0.1731921136379242,0.0205575227737426,-0.0203190594911575,-0.4851850867271423,0.8739335536956787,0.0,0.0,0.0,0.7412609900217744,-1.1613817858588829,0.0750189166925014,1.749968208,0.2190813115642436,0.2904099724422912,-0.0025348920487556,-13.629060950696612,-2.107871566659931,-18.225337302094207,0.0556843434834353,-0.0155672375481881,-1.0140470694492885,-0.082530672978172,-0.0823164345611839,-0.1052276476523044,-61.81160654524944,-15.55843986260592,-90.36463656270809,-0.0011495854776632
372,1724915606987745657,-0.021570760756731,-0.1368755549192428,0.1722387820482254,0.0204623714089393,-0.0191859118640422,-0.4864773750305176,0.8732428550720215,0.0,0.0,0.0,0.6456414317900983,-0.3007508447487259,-0.9244032074162084,1.760087222,-0.127483039424302,0.1785804658024967,-0.2936752736774451,44.92114856031455,1.8185596761935212,0.3324999336832408,0.054436175678556,-0.0135993786281207,-1.016915322789674,-0.075687529095991,-0.0916416640927453,-0.1092615626875908,-4.244273213624027,77.08791864077736,18.840489303723817,-0.0008912906451916
374,1724915606997389686,-0.0222507920116186,-0.1377132982015609,0.1710467338562011,0.0255532581359148,-0.0202836524695158,-0.4864407777786255,0.8731041550636292,0.0,0.0,0.0,0.6525524869290216,0.3694970898637013,0.3382631066221666,1.769731251,1.0334159532831937,0.314411093431732,-0.0229628209004843,17.90329757356949,9.026214473713152,14.79491136370058,0.0644030030546911,-0.010559385205742,-1.0169561222074717,-0.0697424240886386,-0.0888360906283622,-0.1230089375233856,13.041457427289371,37.16154411596608,177.00594068246696,-0.0011276689184182
376,1724915607007090019,-0.0229197964072227,-0.1385942548513412,0.1698593199253082,0.0272637605667114,-0.0192783009260892,-0.4864137768745422,0.8730903267860413,0.0,0.0,0.0,0.8993120325004014,0.4144634595959462,2.5048677598858875,1.779431584,0.2072720240328161,0.3526155681025495,-0.0089764507920828,-61.97474185960496,-7.396610391732452,-4.73579282970018,0.06641241450076,-0.00714051929157,-1.0168195703526055,-0.0630602407759668,-0.0844851036001417,-0.1025188872974007,-17.270184485674527,-42.03730185284256,122.0667940305773,-0.0011190829253882
378,1724915607018654375,-0.0235676113516092,-0.1394839733839035,0.1689479798078537,0.0266343504190444,-0.0181619022041559,-0.4871686697006225,0.8727127909660339,0.0,0.0,0.0,0.1107905357512,-0.7151294378144177,2.5200933725822425,1.79099594,-0.1896903961117422,0.1108066357372825,-0.1489112783358072,6.673771724846663,-6.890578563678282,-11.058767731834417,0.0642293097486574,-0.0057494382752683,-1.0184544581104509,-0.0497588813319664,-0.0801618987713617,-0.0681395938371398,-18.16965870684553,-60.60867287757121,-31.862861918024024,-0.0008464814880072
380,1724915607029995497,-0.0240623150020837,-0.1404289752244949,0.1682938337326049,0.0288748107850551,-0.0181336998939514,-0.4884034991264343,0.8719516396522522,0.0,0.0,0.0,0.4610123677851065,-0.9901980639602392,1.789704266718918,1.802337062,0.3420093808474886,0.1885848291762246,-0.2627434357580326,-14.807249151333362,-14.719550276632871,7.430417987303619,0.0681210733563573,-0.0034183081199709,-1.0212863880380654,-0.0600629451605947,-0.1003839883491366,-0.0445947461183191,135.09149551403888,54.091806958308325,-150.16659250605665,-0.0005921811619971
382,1724915607037420297,-0.0245881956070661,-0.1412572264671325,0.168026328086853,0.0286172032356262,-0.0180804599076509,-0.4888077974319458,0.871734619140625,0.0,0.0,0.0,1.9705942194905293,-0.2077484282500554,0.2578565191412134,1.809761862,-0.0677968210979437,-0.025590765298384,-0.1226667557911737,-26.267475604539143,-5.137916864190441,1.464838470615243,0.067620899859288,-0.0035461089304119,-1.0222078997357724,-0.049982726238167,-0.10388193582724,-0.0326984853734977,113.1564580224302,59.82283787769964,-186.4251414518712,-0.0002089188874811
384,1724915607047529413,-0.0248065702617168,-0.1422018110752105,0.1677416115999221,0.0295491106808185,-0.0170940868556499,-0.4902952909469604,0.8708876371383667,0.0,0.0,0.0,1.873556545738728,-0.2300816598944814,-1.352974527897781,1.819870978,0.0648074138329437,0.2487848461025414,-0.3473671789045634,14.059193856280578,10.63608920398114,1.2052418895307817,0.0682832833185919,-0.0007984782694055,-1.025540569649769,-0.0216251432551619,-0.1023571130881082,-0.0485956534249787,-50.04479090906221,-5.3632011090634,-17.645112854732723,-0.0002384410771371
386,1724915607057156609,-0.0250149741768836,-0.1432689875364303,0.1670864522457122,0.0309059862047433,-0.016731821000576,-0.4907560348510742,0.870587944984436,0.0,0.0,0.0,1.0209486563612007,-0.3106307623290298,-0.2237129763435419,1.829498174,0.2087936126821717,0.199855700038789,-0.120926800221233,6.279564457302433,-1.8427544501285595,3.837877810957739,0.0702931666353272,0.0012015554536472,-1.026568654779308,-0.0121291254503512,-0.1080645063962082,-0.0596078111093598,-60.31333832424967,-28.207301066323108,64.52380837993718,-0.0006012456258473
388,1724915607068284814,-0.0250275135040283,-0.1444357186555862,0.1665317565202713,0.0323495417833328,-0.0160603355616331,-0.4923064112663269,0.8696723580360413,0.0,0.0,0.0,0.7131443733171132,-0.8797401738610731,-0.1845402947226007,1.840626379,0.1670643288997676,0.2210213401315036,-0.3314056617254597,-4.373793434702024,-3.3758358639027506,-6.4145171660781815,0.0721433339213565,0.0039173238642806,-1.0300722944727272,-0.0003230599976857,-0.1078911350451221,-0.0502612706423324,-25.789170974280296,-35.85069522386078,-15.144414556511462,-0.0005053002275343
390,1724915607078678137,-0.0250230692327022,-0.1455866396427154,0.1660053431987762,0.0332394242286682,-0.015700627118349,-0.4935241043567657,0.8689548969268799,0.0,0.0,0.0,0.4632676437582413,-1.1039238448053164,-0.5231172385105407,1.851019702,0.1155496409145601,0.1347035675720534,-0.2767417002625216,14.227449097148282,17.91612699381836,-6.7465685301988145,0.0733312191101682,0.0055226685783526,-1.032839228636565,0.0037130927864255,-0.1257254004666865,-0.0621234357996129,-30.206979517183033,75.15567021168782,29.591359500682064,-0.0004766083917064
392,1724915607087228454,-0.0249682106077671,-0.1467670649290084,0.1653934568166732,0.0356464311480522,-0.0146715156733989,-0.4949856996536255,0.8680456876754761,0.0,0.0,0.0,0.161623474017461,0.2190610927125602,0.1671939130175017,1.859570019,0.3721412374884948,0.4723356156480868,-0.4188793613180386,23.36278598947999,2.201068247447431,0.2594930085651921,0.0764880849250157,0.009818013231192,-1.036108633396526,0.0082012217341522,-0.1308593379102367,-0.062247700166389,-31.3914060040198,96.4251410030096,52.08804641641772,-0.0005574949466628
394,1724915607097278456,-0.024864699691534,-0.147997185587883,0.1648779064416885,0.0381015166640281,-0.0157114118337631,-0.4958808422088623,0.8674120903015137,0.0,0.0,0.0,-0.1079405455048235,0.4994024619903845,0.3522785017659573,1.869620021,0.5284202949730407,0.0540000634695847,-0.216835282843367,-15.786172031400373,-24.178205179939457,17.404533608776976,0.0817770551140116,0.0105312818509367,-1.0382382516534316,0.0055341590760698,-0.1189772533296231,-0.0584207074196685,-0.948060347466452,-21.32324059423671,37.147390087481064,-0.0004583891881355
396,1724915607107650627,-0.0248583108186721,-0.149194598197937,0.164195716381073,0.038212601095438,-0.0158187635242939,-0.4961737096309662,0.8672376871109009,0.0,0.0,0.0,0.1592009876941217,-0.2486270830477162,0.9380868930745984,1.879992192,0.0292384865143858,-0.0100137813372672,-0.0652081372082828,-25.426811729628227,10.704981296342083,-11.091573619619195,0.0820731391359533,0.0104831123038249,-1.0389207619526617,0.0060999109946544,-0.1211075218572483,-0.0550720765764847,4.889158466019783,17.691569864376095,46.19095215894454,-0.000619707481192
398,1724915607118013310,-0.024738322943449,-0.1505082249641418,0.1637357920408249,0.0389611423015594,-0.0144937084987759,-0.4981228411197662,0.8661095499992371,0.0,0.0,0.0,-0.0061687779547715,0.864531116198993,1.310236284946478,1.890354875,0.0007685037084311,0.2756461824454775,-0.4463297884024763,-3.6555481406780848,2.853695875659607,-8.031078044230641,0.0820281871551597,0.0137090205035436,-1.043296730820198,0.0088331832722565,-0.1241316793743703,-0.0389812820928918,459.2190370093384,-1654.2470990063607,-458.8194991986854,-0.0003963167475919
400,1724915607128666103,-0.024674292653799,-0.1518017351627349,0.1633796840906143,0.0388498567044734,-0.014157585799694,-0.4991202056407928,0.8655456304550171,0.0,0.0,0.0,10.089474277470122,-36.04987964315938,-8.99529477767357,1.901007668,-0.0481189249187267,0.0354185865301688,-0.2170718844019229,-3.2124627226620444,-14.948841877222865,15.69011227363724,0.0814837533372966,0.0142739085815128,-1.045570675691842,0.0058114601769224,-0.1022586524401392,-0.0276795261963664,-688.6956581957419,2269.326704273455,503.3803260591783,-0.0002902314625741
402,1724915607151452422,-0.0245515797287225,-0.1531976908445358,0.1630291789770126,0.0387096479535102,-0.0131416553631424,-0.5005166530609131,0.8647611737251282,0.0,0.0,0.0,-85.36112601127024,295.16173755001364,74.16070038438784,1.923793987,-0.054218741761159,0.0653019326169839,-0.1437451043710818,13914.992267417294,24711.666121875085,-24355.70547595821,0.0802006674628361,0.0160215456560989,-1.048715584219612,0.7412990075892409,-2.7808472193040075,-0.722788314126376,-10432.776296631782,38021.79650954611,9809.289707368822,-0.0002817838327026
404,1724915607151936586,-0.0241850987076759,-0.1545720547437667,0.1626719534397125,0.0416654236614704,-0.0112828398123383,-0.5029259324073792,0.8632509708404541,0.0,0.0,0.0,-90.4765342882972,313.81213796241786,78.97337551220959,1.924278151,6.826073130167899,12.284009388707014,-12.186493874095872,12992.173924649942,23076.97173550651,-22753.983145814913,0.0834019127743427,0.022431280293083,-1.0541112333811278,0.6987600123498563,-2.6336947247171945,-0.6858056165191933,-9538.506127537416,34933.997145568355,9035.68903494911,-0.000295124235669
406,1724915607157608199,-0.0240871161222457,-0.1558935344219207,0.1622380465269088,0.0401368662714958,-0.0113904047757387,-0.5040416121482849,0.8626710176467896,0.0,0.0,0.0,-76.34681287639926,273.63980565001714,70.12746354231601,1.929949764,-0.4421512827652564,-0.3225309969961267,-0.4348170131544661,-788.249345903839,-1384.339709368085,1307.360852710047,0.0808377969618109,0.0208104594554076,-1.0567196094555034,0.0118206711778822,-0.1973907295641419,-0.0659078002477082,4486.2805780947665,-14712.723279374362,-3568.4692566423637,-0.0003619480171069
408,1724915607167313195,-0.0240629911422729,-0.157217875123024,0.1617743968963623,0.0409821979701519,-0.0108533520251512,-0.5058666467666626,0.8615692853927612,0.0,0.0,0.0,0.3225330325933971,4.148999338786981,2.136093355210565,1.93965476,0.0993258358123652,0.165601685631494,-0.445318608601424,26.03601093011613,24.939384329155924,2.3163701702809902,0.081710744157375,0.0227631904206869,-1.0608977569905185,0.0143925862508575,-0.1310594425243865,-0.0358210231233098,4120.241602284748,-14676.496400972052,-3765.739089379777,-0.0003844543240711
410,1724915607177932825,-0.0237717851996421,-0.1585469245910644,0.1615328937768936,0.0415061302483081,-0.0102298408746719,-0.5075782537460327,0.8605446219444275,0.0,0.0,0.0,0.1555805963676382,0.4223298441272716,-0.2035256242198106,1.95027439,0.0300211496610022,0.1357809023193577,-0.3812280359334332,-11.189555753746887,-15.907691717679,9.809196610685907,0.0819369210034003,0.0245312094517679,-1.064816048383588,0.0184862190433214,-0.1182083478952202,-0.0243390870276032,-19.173678226121673,-177.35096544002332,-117.09598968695605,-0.0001768779846718
412,1724915607188221992,-0.0236706528812646,-0.1596939861774444,0.1612665355205536,0.0405223816633224,-0.0105360029265284,-0.5086926817893982,0.8599295020103455,0.0,0.0,0.0,-0.0761191291496109,0.327870822153347,-0.3793988639158332,1.960563557,-0.1316000659640996,-0.1584858464490936,-0.2426756933309379,29.977185587430256,21.480933826617928,-8.475346499723944,0.0805204143052097,0.0231084951129995,-1.067437737924877,0.0177951703466014,-0.1217164595385487,-0.0392406023324163,-51.12980246885194,34.2686709014711,66.00846524395766,-0.0002037799382364
414,1724915607197394149,-0.0234422981739044,-0.1608940660953521,0.16079743206501,0.0436298996210098,-0.0098820477724075,-0.5105517506599426,0.8586826324462891,0.0,0.0,0.0,-0.7790250110158159,0.9974462182763828,0.9055133277749524,1.969735714,0.5168954561115682,0.4480202538919643,-0.4998131255437628,16.587724752305846,19.90076643803035,-12.495205742064073,0.0851542954753548,0.0275830551878756,-1.0716678273942029,0.0170237626582182,-0.1132406065620355,-0.033980959355417,-47.26043478270854,35.45840926526925,46.20276565424892,-0.0004034640320352
416,1724915607209291447,-0.0233612544834613,-0.1619697362184524,0.1606580168008804,0.0429497137665748,-0.0095546981319785,-0.5126520395278931,0.85746830701828,0.0,0.0,0.0,-0.887989068310906,0.8399463189103065,0.0063493529111864,1.981633012,-0.1208622277824048,-0.0285469931335049,-0.4086672705038471,-24.526021053546728,-28.499997394357067,11.475906335854706,0.0835817101451955,0.0276543397554719,-1.07654288253426,-0.0029686372556039,-0.1002415740254427,-0.0180831414669633,70.86545249137284,2.8593665089971836,-83.30920610090385,-7.508046918061544e-05
418,1724915607217778815,-0.0234456695616245,-0.1628800332546234,0.1604660004377365,0.041968647390604,-0.0098988534882664,-0.5137426853179932,0.8568599820137024,0.0,0.0,0.0,0.1980001672007667,0.9616824486842832,-0.7475423159857395,1.99012038,-0.1529554947141363,-0.2004633887800143,-0.2881689792106735,9.384694804675298,-5.672003480100802,13.65249487091134,0.0822141221244766,0.0261612924623653,-1.079122050588757,-0.0057073686991453,-0.0946424234818845,-0.0260815233113627,98.26115402044844,23.523258262199008,28.514896154538157,-0.0001300178610278
420,1724915607228183457,-0.0234509892761707,-0.16370390355587,0.1601505279541015,0.0422821901738643,-0.0104939080774784,-0.5144349932670593,0.8564220666885376,0.0,0.0,0.0,0.8416445441251582,1.3235252151061392,1.045819872480373,2.000525022,0.1126214366836892,-0.0734649478606334,-0.1530695337173274,29.058127514488532,28.283853246621696,-5.7193492613804775,0.0833432504503469,0.0255312211834298,-1.0807730673232157,0.0029940811159379,-0.0807847196745932,-0.0313741901819852,13.014289209749345,8.87544784221977,135.08876062430193,-0.000263176190762
422,1724915607237020913,-0.0233982168138027,-0.1644298583269119,0.1598653495311737,0.0444718934595584,-0.0102050257846713,-0.5156611800193787,0.8555769324302673,0.0,0.0,0.0,0.5899964132029419,1.2075357324486666,1.9598777464070207,2.009362478,0.3959432871585778,0.2971784057762461,-0.3440114779795982,-0.4948685854982413,20.86886655683891,-20.46014806092402,0.0867667131502417,0.0284063089136904,-1.08358035736341,0.0104721612093638,-0.0691508153496007,-0.0104631969689634,-56.90811464303757,-10.739636606641383,-11.741232067676709,-0.0002397294810988
424,1724915607248763999,-0.0232050120830535,-0.1650391370058059,0.1600827425718307,0.0445598065853118,-0.0086279986426234,-0.5184544324874878,0.8538999557495117,0.0,0.0,0.0,-0.5219493218429079,1.1186368197876737,0.0248626137379488,2.021105564,-0.1178433198424969,0.2134475749020314,-0.5663970596809986,6.19269313023338,-16.127790636192525,4.012133717059282,0.0851908327764367,0.0314747596943715,-1.089994608808441,0.0134030366080775,-0.0566698319463832,0.0062118894867904,-68.57850921383695,26.556315089874516,-107.7958493477418,0.0002456383620056
426,1724915607257068599,-0.0231116153299808,-0.1655378639698028,0.160062089562416,0.0454359464347362,-0.0089482059702277,-0.5198526382446289,0.8529999256134033,0.0,0.0,0.0,-0.9381188604553424,1.539599901772467,-0.5356798725472919,2.029410164,0.2269080120358596,0.026670599100181,-0.3982957407787349,17.83369384323368,-17.140343600142877,15.82028053929212,0.0869712282155685,0.0319798059182778,-1.0932726412718907,0.004537296685303,-0.0470522904501065,-0.0017751398387391,-10.385814906590914,24.071760567599313,-17.493813210469007,7.616024525564813e-06
428,1724915607268729601,-0.0231685601174831,-0.165873646736145,0.1600530445575714,0.0454258061945438,-0.0094409463927149,-0.5212954878807068,0.8521140813827515,0.0,0.0,0.0,-0.4087353784541625,1.3844497355571814,0.0790871935798027,2.041071166,0.047138494574591,-0.0855952052416056,-0.286215580483344,-8.56900468868011,0.0796978441402647,5.365603975619168,0.0874129575277841,0.0312761076516588,-1.096686056229318,-0.0042824886247434,-0.0228523278365671,-0.0010451017194039,47.08479829815296,-41.83757497636509,14.02378949929882,1.7296899511546955e-05
430,1724915607279216169,-0.0232078023254871,-0.1660572439432144,0.1600395441055297,0.0455552972853183,-0.0094060525298118,-0.5224985480308533,0.8513703942298889,0.0,0.0,0.0,0.1009319444156155,0.6766435203786861,-0.1387719995315095,2.051557734,0.0218519024845905,0.0067830744073768,-0.2699897339477155,-9.706962950374344,3.1241162823508146,-6.272139679269831,0.0875536152070786,0.031594340067427,-1.0995016814871492,-0.0052905801804474,-0.0148491145675446,-6.0315412611089414e-05,39.027360247106984,-29.5015106198624,-19.370694054878093,1.4914036451368206e-06
432,1724915607287206333,-0.0232595019042491,-0.1661597043275833,0.1600465327501297,0.0452225282788276,-0.0091398647055029,-0.5237529277801514,0.8506199717521667,0.0,0.0,0.0,0.3544765911383341,0.6722366553538202,-0.2849971096717344,2.059547898,-0.1001244717130706,-0.0028657848406999,-0.3677102646224229,-1.576782747993744,2.5539905214882825,0.4692451760867238,0.0866606974790154,0.0318271332907877,-1.1024321093573175,-0.0032843846578831,-0.0099695031779392,-0.0025857012040759,17.166114053818795,1.7014316433918957,0.7233369324453969,1.7113591299217147e-05
434,1724915607297777299,-0.0232496634125709,-0.166225180029869,0.1599708050489425,0.0457795150578022,-0.0089572509750723,-0.5245630145072937,0.8500927090644836,0.0,0.0,0.0,0.3322285015873257,0.7217309989649647,-0.0112935766837656,2.070118864,0.0746534746115246,0.076739450848113,-0.185144926912629,2.424031351405626,-2.265591758055018,10.001892172682922,0.0873890959897963,0.0328053771834855,-1.1043122379635624,0.0019087699001867,-0.0020027319719595,-0.0051639447676485,-9.557127766754832,-11.400501198558583,21.01376923194469,-7.153957290751103e-05
436,1724915607307142608,-0.0232236720621585,-0.1662091612815857,0.1599390357732772,0.0456441156566143,-0.0089788204059004,-0.5251734256744385,0.8497228026390076,0.0,0.0,0.0,0.1808885610909824,0.4815218235563767,0.1450313328313301,2.079484173,-0.0197155240370995,-0.0257587242115081,-0.1517825130709409,-3.328397125843559,-1.8332335296492324,3.9076227124983065,0.0871573764908739,0.0326889577008864,-1.1057501217150327,0.0037006339343359,0.0044916940324934,-0.0033397513385731,-13.861602931341665,-27.078632696953637,3.796884603415265,-3.436596025684684e-05
438,1724915607316987229,-0.0231776647269725,-0.166136160492897,0.1599067002534866,0.0458520203828811,-0.008787871338427,-0.5256202220916748,0.8494372963905334,0.0,0.0,0.0,0.068207397575472,0.2001466382343722,0.0489665010962878,2.089328794,0.0173495731788256,0.0504809026998891,-0.1097403016215088,1.2874521547316782,2.6972512682616943,3.8096002175801984,0.0872940937206951,0.0332781488245973,-1.1067836350990663,0.0053733610004771,0.0070389048057126,-0.0024268156114031,-16.691310893972872,-22.21012070182252,-1.5080660608252012,-4.011118598750098e-05
440,1724915607328330225,-0.0231075659394264,-0.1660612374544143,0.1598903834819793,0.0458986312150955,-0.0086949178948998,-0.5259658098220825,0.8492218255996704,0.0,0.0,0.0,-0.1896757735619315,0.0314891333485986,0.1396837796256554,2.10067179,-0.0004271252054813,0.015113871589891,-0.0725527233747984,-10.119508672515462,-2.641157106973729,-3.663221596029339,0.0872623608401471,0.0335206705263225,-1.107589022833709,0.0048178059476415,0.0085433676723809,-0.0024434110938535,-20.749455331242288,3.0217883368769645,21.921384023277092,-2.5820725585582008e-05
442,1724915607337102691,-0.0230745431035757,-0.1659731417894363,0.1598621308803558,0.0453448891639709,-0.0083426684141159,-0.5265375375747681,0.8489007353782654,0.0,0.0,0.0,-0.358228712647904,0.1793761979042086,0.4264534822350307,2.109444256,-0.1472230369877785,-0.0048207228394781,-0.1517838180401192,-9.341334607064278,-0.9458972010645286,-7.946465224521795,0.0859261945139188,0.0335936961222006,-1.1089199302704675,0.0021993212292175,0.0081333936443117,-0.0002604340892693,5.119338978355069,10.256792924099944,8.996804699011435,-3.618534623102095e-05
444,1724915607351433175,-0.0230796635150909,-0.1659012734889984,0.1599276959896087,0.0447498746216297,-0.0077798943966627,-0.5280002951622009,0.8480286598205566,0.0,0.0,0.0,0.2847722719850686,0.1718250196342599,0.0007320215550591,2.12377474,-0.1080339031019967,0.0126775574972028,-0.2402530751654258,-39.07183689984256,-20.06703252003796,-71.99794396015724,0.0842624370905005,0.0340673364617809,-1.1123369327100694,-0.0043327714963883,0.0159971684423005,0.010008671447288,56.76693712328755,-49.04385397040078,-65.93675784833658,6.073986526629079e-05
446,1724915607357469959,-0.0231159292161464,-0.1657767742872238,0.1600019335746765,0.0433579124510288,-0.0073647769168019,-0.5301865339279175,0.846739649772644,0.0,0.0,0.0,0.6577175932261692,-0.2476218200144463,-0.4894460532914357,2.129811524,-0.450217080697984,-0.1625988902452743,-0.8422822326552911,-17.244215404359846,-10.9502237975512,-47.55590224689166,0.0813705341185336,0.0335097363958086,-1.117488277141196,-0.0007303241255172,0.0160759236914147,0.0081926424072245,21.533872066999063,-42.92911038318454,-42.929283768714114,6.790087843491213e-05
448,1724915607367242179,-0.02303958684206,-0.1656916141510009,0.1600170582532882,0.0434391275048255,-0.0072079021483659,-0.5321744084358215,0.845488965511322,0.0,0.0,0.0,0.2315140320211965,-0.2470952056291314,-0.3035765009497262,2.139583744,0.0051537773171763,0.0164732506848139,-0.4817140857230625,25.526138680854498,11.336701722840658,23.914696617615412,0.08126279576548,0.0340525612163258,-1.122169881042929,0.0066614963885426,0.0095325890387432,0.00042589438854,-57.39717862963863,11.509747688476924,32.489997533041844,5.003814137468644e-06
450,1724915607378481880,-0.0229795891791582,-0.1655738949775695,0.1600073426961898,0.0437079742550849,-0.006919209845364,-0.533968448638916,0.8443456292152405,0.0,0.0,0.0,-0.5917985485228143,0.0303671226418026,0.2357328948980032,2.150823445,0.0196458197776134,0.0535578161055193,-0.3807528109936367,0.2168245100569683,-0.1592668360923708,3.76863802334071,0.0813379704703535,0.0350000946848149,-1.1263889280107748,0.0024780045447319,0.0122170750414465,0.0033638214013045,-33.132884629767226,-9.45094952463142,6.296362422512647,-2.0997982384356303e-05
452,1724915607387900912,-0.0229788236320018,-0.1654450595378875,0.1600724011659622,0.0438353270292282,-0.0067744622938334,-0.5354985594749451,0.8433705568313599,0.0,0.0,0.0,-0.5872192745174453,-0.3281036929948755,-0.0340023431323834,2.160242477,0.0132222532785949,0.0247572256356175,-0.3864108514700491,-9.8328663665658,-3.9154527145846783,5.772373836846885,0.0813351968107389,0.0355282186854592,-1.1299997441068337,-0.0048294660978405,0.0108575710345402,0.0053816911817392,25.294886261641125,-27.731508410693785,-24.109359763574247,5.61665980637996e-05
