seq,stamp,px,py,pz,ox,oy,oz,ow,lx,ly,lz,ax,ay,az,timestamp,wx,wy,wz,aa_x,aa_y,aa_z,roll,pitch,yaw,vx,vy,vz,jx,jy,jz,forward_velocity
16518,1724813816946342587,-0.2338149398565292,0.710090696811676,0.1661251485347747,0.0228755585849285,-0.0225598886609077,0.7194463610649109,0.6938045620918274,0.0,0.0,0.0,0.42205106995897834,-0.011858854325550125,0.510789111658526,0.0,0.0,0.0,0.0,-8.670693274445448,8.176137206027569,2.9583446521225003,-0.0007204129463911362,-0.06426400656147184,1.6071032590842822,-0.007345391971792514,0.036893593521106244,-0.004892424368699048,-4.868009648317607,-10.412588621651565,-23.00990517001475,0.0
16520,1724813816956268726,-0.2338878512382507,0.710456907749176,0.166076585650444,0.0222861189395189,-0.0225910749286413,0.719546914100647,0.693718433380127,0.0,0.0,0.0,0.37373052953643665,-0.11521565633388198,0.282389594564141,0.009926139,-0.08606650666851066,0.08115747439010129,0.029364940226874584,-3.726331567740271,4.7236587844988085,-6.260999639867729,-0.0015933011199342128,-0.0634580880634886,1.6073943784249936,-0.003156054386280971,0.03677588088469008,0.00017773935331000246,-13.284952789586828,-7.553381394571184,-35.26682814653154,0.036752649542087776
16522,1724813816966017411,-0.2338785082101822,0.7108142971992493,0.166126862168312,0.0217153113335371,-0.0225229114294052,0.7191430926322937,0.6941574215888977,0.0,0.0,0.0,0.16363250031905674,-0.16147598876938196,-0.17876832930024378,0.019674824,-0.07505402567353266,0.09415151470710935,-0.11994129460406311,-0.8011776574470768,0.7134627132185156,-1.1974262284858188,-0.0022511064465771695,-0.06254248972351235,1.6062211145273,2.4686473379276208e-05,0.03466310002497508,0.0007438774394730174,-12.032360995027721,-0.17177368071766352,-23.97914947107904,0.03685410159944043
16524,1724813816976671997,-0.2338891178369522,0.7111603617668152,0.1660833954811096,0.0209570489823818,-0.0225833412259817,0.7192582488059998,0.6940593123435974,0.0,0.0,0.0,0.14627898867652167,-0.11004909186905709,-0.16263877228287132,0.03032941,-0.10607394492019404,0.09454000123129584,0.031701208535503025,-3.3776523904004883,-3.8059838998454607,0.2351973296235519,-0.0034020843656249727,-0.06153424277049692,1.6065564873392228,-0.00012578138998797783,0.03358599316305089,-0.0039187670376357175,3.9789627460207715,-9.082756269045497,7.17728837039231,0.03218279578546256
16526,1724813816985550341,-0.233883798122406,0.7114667296409607,0.1660497933626175,0.0204309970140457,-0.0229227077215909,0.7190321683883667,0.6942981481552124,0.0,0.0,0.0,0.22309259141934945,-0.2935944537649233,-0.05701704075949571,0.039207754,-0.1395112340216453,0.032321899938948816,-0.06976655003142317,-1.0661710787844623,-6.620105365185579,-2.6988045296791285,-0.00460256855885448,-0.06124976479068234,1.6059348523345438,0.0023596185477448017,0.03254268225679269,-0.003328368573375151,18.93081345414926,50.20837300136292,-32.805371798413105,0.03416867396044731
16528,1724813816995878706,-0.2338382750749588,0.7117792367935181,0.1660209000110626,0.0201233271509408,-0.023474495857954,0.7190407514572144,0.6942798495292664,0.0,0.0,0.0,0.5421214696901809,1.0766347210060132,-0.9329457430418866,0.049536119,-0.11808208366501814,-0.03139413563233245,0.007250463672037922,1.6965213403186676,-1.590779482601547,3.8210148466644402,-0.005826872353347584,-0.06157362354265313,1.6060116304038752,0.003980771973051134,0.027394663364230354,-0.005401328508495062,7.576201639499589,80.78289229793387,-46.05531336870462,0.02985408289164688
16530,1724813817011481003,-0.2337862253189087,0.7121391892433167,0.1658752560615539,0.0192923303693532,-0.0237554516643285,0.7189281582832336,0.6944103837013245,0.0,0.0,0.0,0.1108718736265204,1.1141738068972327,-0.7381415549820076,0.065138416,-0.10052787028303287,0.05169201303161148,-0.018826659298033385,-56.05959580313533,-18.498352481312487,13.375412396978458,-0.00737702097629703,-0.06076905891324513,1.6057118939041384,0.02151704346413652,0.08131582858362663,-0.037215767513234965,-82.70698331210315,-170.83994457727087,60.74305936894963,0.022330700391744854
16532,1724813817015606929,-0.2336776107549667,0.7125382423400879,0.1656912863254547,0.0188000854104757,-0.0244147405028343,0.7189822196960449,0.6943451166152954,0.0,0.0,0.0,-0.2904530424123618,0.22027664197915975,-0.4348677234587298,0.069264342,-0.39421837122041326,-0.0506241421092142,0.05277645395384762,-50.63715455488103,-17.56737108695193,13.296047003444528,-0.009016913259048517,-0.0609761447383211,1.605931860479999,0.020869144217844138,0.08335774697457587,-0.03884185693752906,-70.8566725159956,-161.84988850859267,62.762860735180624,0.09283890860037655
16534,1724813817030156205,-0.2336538881063461,0.7130655646324158,0.1654210090637207,0.018066082149744,-0.0244950335472822,0.7191691994667053,0.6941681504249573,0.0,0.0,0.0,0.033725982136985966,0.6771984875748283,-0.07281173941718233,0.083813618,-0.07690950517661328,0.06477007686128178,0.0380079462698881,25.22607986016523,28.923932522654944,22.777761246198615,-0.010168840426493514,-0.06002852881992416,1.6064768329400654,0.009798030969754734,0.07247303776551917,-0.0472596926069464,42.50931823894658,-39.78128994813203,75.57476374689924,0.03498305581481499
16536,1724813817036712186,-0.2335655242204666,0.713647723197937,0.1650264412164688,0.0175237469375133,-0.0235579181462526,0.7197813391685486,0.6935796737670898,0.0,0.0,0.0,0.3721726089086397,0.2060970553925663,0.5724011984047155,0.090369599,0.09856604275039128,0.31641051301228207,0.25762633752972464,4.205211444391027,17.924638472989102,2.737046450308826,-0.009621161992945786,-0.057937526700797874,1.60814797299647,0.012366705593811034,0.08112337810853987,-0.046242941847822294,28.621604722504774,-69.50421787995491,24.991108024660512,0.08459979619943596
16538,1724813817046169492,-0.2334637343883514,0.7143102288246155,0.1647793054580688,0.0162792298942804,-0.023445039987564,0.7193323373794556,0.6940795183181763,0.0,0.0,0.0,0.3290419877543964,-0.41911024913729555,-0.19295577725227142,0.099826905,-0.169448007590238,0.20681941427478717,-0.13616078667827985,-15.322163150309049,-19.252996904842874,-9.918879017375723,-0.0111490954802468,-0.055995054095996144,1.6068379659046805,0.015618601287522793,0.06788336381075766,-0.035136324152799325,-12.298844844820291,28.24113805202611,-85.14597817129305,0.06804732957854757
16540,1724813817056223010,-0.2332548201084137,0.7149695158004761,0.1643298268318176,0.0158720687031745,-0.024359680712223,0.7196642756462097,0.6937131881713867,0.0,0.0,0.0,0.12269383998398731,0.873155860837632,-1.0940556593992674,0.109880423,-0.18437068797564918,-0.06865937036210197,0.10311618879620416,9.114461736193281,-11.875908635945109,16.736896175569953,-0.013061597967361876,-0.05667271719655177,1.6078844874814424,0.01876837175887225,0.07415266882602367,-0.051689524745276216,-27.407032581876088,97.18021096276041,1.9852291299212883,0.062125743485076435
16542,1724813817065727514,-0.2330945134162902,0.7157513499259949,0.1637758165597915,0.0159845408052206,-0.0245217997580766,0.7203156352043152,0.6930285692214966,0.0,0.0,0.0,-0.19963499260337558,1.5150347866424294,-0.2519783015179198,0.119384927,-0.0025071640433828894,-0.04203164086920373,0.1987238674431796,15.957599854843917,-4.444209886033165,6.944084301038842,-0.013193228988061157,-0.0570473824314527,1.609781469177288,0.018221826760186133,0.08469402069378873,-0.05712393406702265,-26.659574880305037,50.9628414628428,53.77601594827622,0.07808336458976435
16544,1724813817076679834,-0.2328778356313705,0.7167096734046936,0.163164883852005,0.0171730183064937,-0.0247123073786497,0.7212098836898804,0.6920626163482666,0.0,0.0,0.0,-0.4000725858195415,1.8640545008660956,-0.10247975161270695,0.130337247,0.13217147416253625,-0.18215298703703,0.23546285635725583,-17.383265481396343,-3.353892737675146,-4.368519350929283,-0.011896900325312267,-0.05900987032511788,1.6123894837681574,0.014241567860286963,0.106410464131514,-0.055847666712127264,-16.268556072543586,-42.07864100212675,0.7793344098209207,0.08316081749936334
16546,1724813817085630865,-0.2327909022569656,0.717800498008728,0.1626645028591156,0.0168744213879108,-0.0259427558630704,0.7216047644615173,0.6916131377220154,0.0,0.0,0.0,-0.5308252739430812,0.9464615224200639,-0.1896579756433252,0.139288278,-0.24054928496166555,-0.1431170795275922,0.1398632584127878,-22.31705968686651,-9.821304452097042,2.363850404599807,-0.014125810228807708,-0.06027451707526785,1.6136601944744315,0.010392354032124018,0.12222687662919896,-0.058367112828109136,5.332203932577682,-76.68837293269695,10.610466843809636,0.11774992526490236
16548,1724813817096135614,-0.2326733469963073,0.7190889120101929,0.1620209813117981,0.0175660420209169,-0.0283986702561378,0.7227142453193665,0.6903398036956787,0.0,0.0,0.0,-0.22899123655330944,0.4592339793911444,0.172679511954954,0.149793027,-0.2367683121381603,-0.42112978608119345,0.3255051646877682,12.835717267131862,-1.7277787190011544,4.64709904004024,-0.01683112019605629,-0.06464493795207721,1.61715445662155,0.0035735501077063248,0.12205356852219751,-0.05922754963558674,5.8430605868910135,23.484233591365246,6.47698900247898,0.11778803596027741
16550,1724813817105825189,-0.2327068001031875,0.7202662229537964,0.1614652574062347,0.0182870887219905,-0.029148394241929,0.7235446572303772,0.6894193887710571,0.0,0.0,0.0,-0.37695785671868964,1.3112236190951272,-0.014956369111008172,0.159482602,-0.0008913342915873673,-0.21677453159775023,0.2541197707428279,-5.358361609390494,-2.279793850218148,-6.943515108244252,-0.017004014735831262,-0.06670344044361312,1.6196573819406483,0.00510965697378829,0.13075528142566384,-0.05527893044071419,-51.925370412045794,51.850026805773474,-70.20062926436832,0.11743341522392613
16552,1724813817115885176,-0.2325659692287445,0.7216782569885254,0.1609308123588562,0.0187542792409658,-0.0321717634797096,0.7240973114967346,0.6886917948722839,0.0,0.0,0.0,-1.2821682489709976,1.4560106381314775,-1.2521324717686944,0.169542589,-0.36501794648115043,-0.4837987031317602,0.18869368571988415,5.860095987706808,0.9102476564022961,5.50374529786119,-0.02081386766374684,-0.0715336969714265,1.6216521253371659,-0.004275488700553609,0.14826160095684315,-0.05984188834922932,-18.807278198313313,-64.23101742767035,-61.52118587101763,0.13531459001317264
16554,1724813817126353171,-0.2328097820281982,0.7233163118362427,0.1602312326431274,0.019911466166377,-0.0322551019489765,0.7254634499549866,0.6872161030769348,0.0,0.0,0.0,-0.7037764380245937,-0.07276853274739103,-1.2266938731379597,0.180010584,0.15441860613933323,-0.17523224396874312,0.37709743218746666,3.2654227992532814,11.269720014385575,-2.7501270753084643,-0.019486373279554572,-0.07328812209392048,1.6256462039561361,-0.0215014426468656,0.16040764160599252,-0.08164753337362285,36.524416908066,-38.11824274936727,-25.50555114334341,0.15220740923190185
16556,1724813817135754194,-0.2329968065023422,0.7248574495315552,0.1593385636806488,0.0199789423495531,-0.0336952582001686,0.7259790897369385,0.6866002678871155,0.0,0.0,0.0,-0.5185342875546378,0.48007003088514644,-1.7023276436249644,0.189411607,-0.2062575120876358,-0.22300695449035035,0.17607042430528608,-30.034371220864934,-15.662033628731011,-10.22196609326815,-0.02155182802167622,-0.07535021722906426,1.6273488603091937,-0.020166173154247957,0.14931296560549256,-0.08594943116439602,-19.850068402600364,89.6081561550616,-102.89716885060349,0.15717968967063686
16558,1724813817148071446,-0.2332495898008346,0.7264606356620789,0.1584252268075943,0.0206859875470399,-0.0381790027022361,0.726780891418457,0.6854955554008484,0.0,0.0,0.0,-1.4013678353048364,2.0808812615503385,-3.813814760845382,0.201728859,-0.4417477905723073,-0.5866640753996345,0.23029029802307255,3.217468364791781,-15.35920766031552,27.630071045590928,-0.027231218024090845,-0.08250500538216776,1.630370276637681,-0.03721341895007413,0.18201901521067754,-0.12700499295927692,14.764966384193443,-181.5880785690482,119.10474557681799,0.1245917635730625
16560,1724813817155984291,-0.233628898859024,0.728164553642273,0.1571515798568725,0.0216084718704223,-0.0408211164176464,0.7282161712646484,0.6837894320487976,0.0,0.0,0.0,-0.8451311121586313,-0.9397356129851744,-1.3944870580287692,0.209641704,-0.30274533575946355,-0.6361932009759476,0.5669998605896026,28.165855373191594,3.830506600135127,20.830972147475233,-0.03002100812304255,-0.08740863506890185,1.6350157681351007,-0.0483904427465216,0.19556470387977498,-0.15962638425002407,71.39562179266863,-295.01533835777155,330.9626613212682,0.2030846387995652
16562,1724813817165577183,-0.2340983897447586,0.7298106551170349,0.155635803937912,0.0234890989959239,-0.0421385243535041,0.7298662066459656,0.6818855404853821,0.0,0.0,0.0,-0.14744560885293767,-2.7612567566889368,2.0736525416274025,0.219234596,0.0907112609387714,-0.48210632313598406,0.5142180803370604,2.5450985803956137,14.554530092837123,-14.203670005381,-0.02960641428752354,-0.09188433797009411,1.6401046103672627,-0.04989920417255078,0.1557127978665207,-0.14127671555406707,-3.3453276585512057,84.10546161286621,60.814963165700135,0.15933864486610966
16564,1724813817177006709,-0.2346817553043365,0.7313740849494934,0.1542489528656005,0.0232608225196599,-0.0451655201613903,0.7306293249130249,0.6808817386627197,0.0,0.0,0.0,-1.2216517030850977,1.9311398303150566,-1.3263681692225404,0.230664122,-0.40408067634066874,-0.33629166314332715,0.2333816780442049,-15.304499361279085,5.932456477041198,-15.375749646403184,-0.034487182078711,-0.09564057318290203,1.6429063248445734,-0.051450527089039966,0.14312334305218855,-0.11538593887253246,-71.56013392745261,283.5940907930424,-223.41525390503267,0.12788292716448219
16566,1724813817188831120,-0.2352951467037201,0.7331439256668091,0.152957409620285,0.0237502623349428,-0.0476437322795391,0.7311741709709167,0.6801105737686157,0.0,0.0,0.0,-1.793483876619467,3.731423994126466,-3.0621295482860518,0.242488533,-0.24269413996621733,-0.3496368578063001,0.16405905809230775,6.551848232110558,13.63016423235161,53.71037491091222,-0.03756144764245612,-0.09970226930064317,1.6450037847781034,-0.07917986010085798,0.2030558525708983,-0.17500555350266467,57.19520529868209,-206.21819117058712,306.7350656069166,0.14147840987550836
16568,1724813817196762212,-0.23606838285923,0.7350383400917053,0.1512195020914077,0.0234352033585309,-0.0488309748470783,0.7335565090179443,0.6774667501449585,0.0,0.0,0.0,-0.7783406530295305,0.18894039592403544,1.7832532091078113,0.250419625,-0.22848330609182052,-0.16302262267519466,0.906951211826641,8.665490411627932,0.5066881041361597,35.432884081394725,-0.04010132159244768,-0.10071499653647126,1.652278140320867,-0.09046975998903761,0.22553707050088434,-0.18875886401769737,120.10995911866678,-409.51657275354825,479.0071541082125,0.22272337381915763
16570,1724813817206381304,-0.2368566691875457,0.7370523810386658,0.1497580856084823,0.0245955605059862,-0.0505143105983734,0.7353408336639404,0.6753645539283752,0.0,0.0,0.0,0.28501384714434064,-3.316935213489664,4.851748504935957,0.260038717,-0.06493810513264595,-0.42674044884342255,0.5683880104287018,-34.54320896346073,-3.280799615158754,-41.77627100572501,-0.041305947369462075,-0.10459399336458299,1.6579378638668774,-0.09043004676496302,0.1964896784667829,-0.1305708921699109,81.79705938069213,-170.03591334755515,48.89873164377212,0.19867652274255765
16572,1724813817216104659,-0.2378192991018295,0.7388362288475037,0.1486984193325042,0.022383440285921,-0.0544965490698814,0.7354040145874023,0.6750630140304565,0.0,0.0,0.0,0.7977871899690419,-3.0592058367776573,2.6724458412607066,0.269762072,-0.9074402939215288,-0.22142120533380458,0.0975165200204416,-28.128113443092783,15.155369540244124,-20.94290613374205,-0.05024023435082049,-0.10670130653735355,1.6589894048829978,-0.08489800544051995,0.16131712326026104,-0.09516523224227669,-285.6666606691632,532.5108144175591,-509.2033236955232,0.17877173006238198
16574,1724813817230288251,-0.2387316524982452,0.7406661510467529,0.1476344913244247,0.0224596876651048,-0.0556751154363155,0.7371105551719666,0.6731002926826477,0.0,0.0,0.0,-10.255481256265162,14.962844780618154,-10.447981620257258,0.283945664,-0.09564821420928574,-0.12978975752894537,0.36910829642042287,26.038502677791048,8.803005795034693,4.109786234965635,-0.05217120833876491,-0.10827183606171967,1.6643430497706464,-0.06884779059727464,0.12947401309428486,-0.07730576640536224,-119.70859639276827,188.97762565048194,-153.62899092261858,0.12556821778542898
16576,1724813817245049767,-0.2398174405097961,0.7425844073295593,0.146458089351654,0.0212346967309713,-0.0565650202333927,0.7380239963531494,0.6720640659332275,0.0,0.0,0.0,-1.8892719541439646,1.1350792916270507,-0.8645596644468867,0.29870718,-0.19054556496416458,0.036145627306173385,0.1987383540297668,-823.7690994711538,-253.8593560844675,579.3755114494649,-0.05529824291045276,-0.10758146696638238,1.6672607262784747,-0.39517390199006286,0.6147132245204432,-0.4113905498861712,2197.5386400835696,-3352.494048854164,2262.864552823208,0.12708434225341275
16578,1724813817247687971,-0.2410116344690323,0.7444347143173218,0.1452163606882095,0.0193860866129398,-0.0599695295095443,0.7395680546760559,0.6701245903968811,0.0,0.0,0.0,4.67720352547706,-8.848520667705081,5.866180802533007,0.301345384,-2.7491961264164253,-0.7585831742830469,2.0058691378082343,-764.1519069503345,-235.5804188692398,535.739081626618,-0.06313913913241413,-0.10926606636683968,1.6726936935224657,-0.3906256529985712,0.6027437390817045,-0.4034079210882906,2064.414746211262,-3125.175428328251,2102.975858044908,0.6879958674746115
16580,1724813817259838874,-0.2422867268323898,0.7462401390075684,0.1440789550542831,0.0169577673077583,-0.0621204786002635,0.7400439977645874,0.6694687008857727,0.0,0.0,0.0,6.000521354169166,-9.938275150947643,6.331545679365863,0.313496287,-0.5228899449702797,0.053394681009029166,0.1631713706661409,85.58587415321134,16.263744509668246,73.37801709902118,-0.06970427385523896,-0.10848710044332127,1.6746404070286234,-0.16852001815444595,0.25393531006984915,-0.17316842468661875,-568.5126311795705,877.0175464905973,-536.9876514905507,0.1475928236856915
16582,1724813817265786252,-0.2434740662574768,0.7480570673942566,0.1428174525499344,0.0161259640008211,-0.0628334507346153,0.7424814105033875,0.6667183637619019,0.0,0.0,0.0,0.6473919534528858,-1.9082468937116097,1.463217052856614,0.319443665,-0.29809580122301244,0.002938886910490209,1.254638415515589,25.750996435542,-0.2422257464354125,105.54998762821671,-0.07228564996521801,-0.10794037027966175,1.682126113189191,-0.16857515476881435,0.24946262277688902,-0.1722398581187825,-608.1890685632924,946.7575581135325,-538.6764119984779,0.30104260856028914
16584,1724813817279164396,-0.2447944283485412,0.7497080564498901,0.1417130380868911,0.0133512560278177,-0.0633328333497047,0.7437993884086609,0.6652616858482361,0.0,0.0,0.0,1.2949069389328614,-1.382586204739649,2.6794939619195457,0.332821809,-0.31610179001414557,0.2477095617802892,0.32032453040782427,-7.105450276486817,0.40848644439035553,-11.635867927660257,-0.07694343836258158,-0.10431621683051162,1.6861751207294469,-0.14015326935940564,0.1891401374482342,-0.11333050745499129,53.32916600221496,-26.207322746017866,13.427916302582304,0.12462678873509335
16586,1724813817286211531,-0.2459360063076019,0.7512849569320679,0.1408001333475113,0.0118586411699652,-0.0639380291104316,0.744784951210022,0.6641286015510559,0.0,0.0,0.0,1.6890191786741005,-1.8104200307739822,2.4864752888915107,0.339868944,-0.3875552632796858,0.18418535438273131,0.45438500315289726,-7.251406256040216,-18.86644972537249,0.5447559313706307,-0.0799957636208388,-0.10277123756380534,1.6892824519423726,-0.1341074912994369,0.19100280475132436,-0.10084721426295218,-11.28868992214904,-54.80784731537112,-34.995139133410134,0.22678153814009916
16588,1724813817296219885,-0.2468818575143814,0.7527309060096741,0.1401986926794052,0.0109419468790292,-0.0659922882914543,0.7452954053878784,0.6633703112602234,0.0,0.0,0.0,0.6206680234961288,-2.275059304411168,2.028128243905254,0.349877298,-0.4190807988716063,-0.14467562960447833,0.19718382569471862,11.69103536737018,-2.8977479326189908,0.9766866032883037,-0.08440653808178297,-0.10405227367410523,1.691379364057396,-0.10538984156860032,0.14339343227663903,-0.06579768960579635,-107.08660278808554,55.50955814918826,-83.98098771339292,0.14771455018023155
16590,1724813817306255652,-0.2480490505695343,0.7541590929031372,0.1394809633493423,0.0097994161769747,-0.0661628916859626,0.7468319535255432,0.6616407036781311,0.0,0.0,0.0,-0.45745634784796607,-0.6921834048868174,0.8010538367204574,0.359913065,-0.1524039510996155,0.1277474301166365,0.47542633246832294,12.827735895434872,15.512547121193222,1.7917195970554225,-0.08641708905012573,-0.1023678535076068,1.6960485473535698,-0.12179020239782723,0.14553749999151222,-0.06027608497179493,19.705396747310218,12.34474874334451,-46.35959477226529,0.14760055940547098
16592,1724813817315313739,-0.2491970956325531,0.75550377368927,0.1390268802642822,0.0086846752092242,-0.0661589056253433,0.7476320862770081,0.6607524752616882,0.0,0.0,0.0,0.7604369038053749,-1.7689293744285433,1.0017426201749184,0.368971152,-0.14858277788667637,0.1731567797686294,0.2796336985909596,0.8181564119804055,3.5119069616409035,-5.899301377376208,-0.08800599972003728,-0.10058472664651431,1.6984476438741445,-0.11631330801440143,0.131861923868005,-0.05096911533121151,52.79101362025743,-19.869224466093375,19.37676379633309,0.15751835561957347
16594,1724813817326631960,-0.250366061925888,0.7567616105079651,0.1384381353855133,0.0072107608430087,-0.0660290643572807,0.7492156028747559,0.658987283706665,0.0,0.0,0.0,0.20303966297650344,-0.593698168854222,1.1817517629957326,0.380289373,-0.1337180511301493,0.1916746099428958,0.43512338003522033,-3.845008679808111,1.8085191940253882,-2.1882234892322074,-0.08998889380305558,-0.09798618032151905,1.7031835823953487,-0.10550320927681511,0.10817560127987491,-0.03999510411121587,-41.486658662622474,82.8929880850476,18.969026873307392,0.11811196019938704
16596,1724813817337375405,-0.2515221834182739,0.7578936219215393,0.1381310522556305,0.0054598837159574,-0.0662011727690696,0.7500235438346863,0.6580671668052673,0.0,0.0,0.0,-0.16352317464079658,0.0832910669601441,1.416797424064126,0.391032818,-0.22763084671521772,0.21286256288448324,0.24920099068335186,3.3927335068889057,-22.01742714635286,5.245618542191778,-0.09267289171677708,-0.09546465587914155,1.7056526961884555,-0.11099132768350728,0.11708445949963675,-0.025135403077264584,32.85569567423876,-51.12252540974286,-5.483176998427368,0.11561331474632364
16598,1724813817345774258,-0.2524765729904175,0.7589539289474487,0.1379425823688507,0.0054151527583599,-0.0669455081224441,0.7512055039405823,0.6566425561904907,0.0,0.0,0.0,0.5521827193667974,-1.0954932945480724,1.1910930435680671,0.399431671,-0.11946385074254512,-0.1295726724861461,0.44132832575359365,16.118795919079858,-6.410977716461705,2.078177797776899,-0.09404077341915638,-0.09620264739044511,1.7094621999879216,-0.11008431457963397,0.11288618086093294,-0.013014945066192496,86.47768482083282,-102.09452806593337,-45.86216309408732,0.13793287946267044
16600,1724813817355907080,-0.25354865193367,0.7599344849586487,0.137925922870636,0.0047639487311244,-0.0658831819891929,0.7519314885139465,0.6559237241744995,0.0,0.0,0.0,1.443885184916342,-1.662326690474408,0.4942445934602393,0.409564493,0.08347347906829594,0.22551769682589606,0.20814447525752278,14.90431946435793,3.882530980304579,0.7754613396803549,-0.09337459960743837,-0.09373019210299649,1.7113567566417653,-0.09905902018577173,0.0945043004806223,-0.004026646028882475,-24.824760053811474,7.373604331212597,-49.6424589623651,0.10999911151085272
16602,1724813817366088557,-0.2544882297515869,0.7608734965324402,0.1378605514764785,0.0054259863682091,-0.0653737932443618,0.753523051738739,0.6541405916213989,0.0,0.0,0.0,0.03687964860969206,-0.9395278207123465,0.1845071963329576,0.41974597,0.1828071960960977,-0.0537413391484737,0.4594016653071666,-2.1439056770467335,-14.552263119245053,5.454060868285386,-0.09195617805031275,-0.09384218918657576,1.7160853859993674,-0.08071809242728634,0.07913198326096804,-0.003013028080445679,-87.52079986071713,50.02074670659974,-37.215630634685354,0.10355439258206016
16604,1724813817378299685,-0.2553045153617859,0.7616479992866516,0.1378736644983291,0.005455114878714,-0.0656342580914497,0.754490077495575,0.6529986262321472,0.0,0.0,0.0,-0.2897389467964988,-0.6358436129347895,-0.3694379958101907,0.431957098,-0.017655648983320987,-0.042868631624166084,0.2444617865385127,-36.34383759215045,37.93762383295904,-22.293832987235543,-0.09245645281958793,-0.09408858178562064,1.719119463740156,-0.10610985130412942,0.0760116091737757,0.0004841690569392654,167.79095936507787,-41.00565908685064,-31.289671286295057,0.072388060292227
16606,1724813817385495552,-0.2562345564365387,0.7622483372688293,0.1378746479749679,0.0035343514755368,-0.065712884068489,0.7545610070228577,0.6529217958450317,0.0,0.0,0.0,1.7425907924257555,-1.210254098887302,-0.5349131696534483,0.439152965,-0.3636820573847111,0.38722185865397935,0.0641427762012816,-13.223408052459753,21.26067372949726,-8.410261324653067,-0.09509190307441466,-0.09127118475430854,1.7193187096962586,-0.10060585286283086,0.06982349013442501,-0.004955272129573807,158.01941501638024,-46.59441639980823,13.103896793946236,0.10122461857670932
16608,1724813817396762489,-0.2568628191947937,0.7627950310707092,0.1377289891242981,0.0040369410999119,-0.0654762834310531,0.7555646300315857,0.6517812013626099,0.0,0.0,0.0,1.3282286397386551,-1.1490014458526976,0.24957140227229835,0.450419902,0.10236385622443851,-0.05257106106580061,0.2630835008553678,15.039449649551267,-17.888220036329514,1.363840664584071,-0.09421426966075291,-0.0915807225208265,1.7223384032781879,-0.06372423955317075,0.050007923365583906,-0.007083418756531401,-60.25018881480911,28.71392905730159,15.305176462217945,0.05496521193329184
16610,1724813817405712219,-0.2574897408485412,0.7632531523704529,0.1377071440219879,0.0043462933972477,-0.0654925182461738,0.7560428977012634,0.6512226462364197,0.0,0.0,0.0,0.6221314546422412,-0.7265381681931999,0.00036889912655213575,0.459369632,0.04981906796355221,-0.062338992736322964,0.15945970970734574,-8.043523255518021,1.75638573947372,-10.06748122268975,-0.0939039997838422,-0.09200212600259715,1.7238177186386379,-0.0656656158559592,0.04405932776946031,-0.0017328016792781398,1.6927151333290595,27.451171046832346,-42.690328379929625,0.06078403516289095
16612,1724813817415719572,-0.2580978274345398,0.763614296913147,0.1376977264881134,0.0041911280713975,-0.0657441839575767,0.7562709450721741,0.6509335041046143,0.0,0.0,0.0,1.5408546000226924,-0.672858238966626,-0.5929703181276018,0.469376985,-0.05498460075640605,-0.012895368741119153,0.07561828756986454,-0.2672102901136557,-1.284876915443379,2.1457888498050197,-0.09452490840092924,-0.09205941871680538,1.7245865685929704,-0.050050774095208084,0.036096274760531344,-0.008414925403966045,-289.3131062538287,335.0239331957284,-38.61920252715808,0.04469317139327031
16614,1724813817426856161,-0.2585224509239197,0.7640163898468018,0.1375113874673843,0.0047947722487151,-0.0658392012119293,0.7571262121200562,0.6499246954917908,0.0,0.0,0.0,-6.4043956824056885,7.143722544608973,-0.7668741356675763,0.480513574,0.06851834274407999,-0.10436000324335688,0.2299387640297378,8.256856758034427,-5.831472598707252,9.965170750902882,-0.09400853018871738,-0.09297543651714553,1.7272567181139042,-0.033132358203857626,0.03012558803368437,-0.014092183416035797,-5829.758072773294,-2121.203050496105,1149.485854500409,0.039872725727133754
16616,1724813817468205247,-0.2591253817081451,0.7643439769744873,0.1373339891433715,0.0040830755606293,-0.065964363515377,0.7576914429664612,0.6492578387260437,0.0,0.0,0.0,-1032.943775163284,-513.9808760934329,225.63572476785882,0.52186266,-0.025001816981122273,0.020136018584323047,0.044485137543160067,24646.43781188595,5272.130724255476,24732.28284942444,-0.09520486438271075,-0.09197279440646272,1.7290168112160116,-1.5144157784848176,1.5045631627613147,-0.08527149617145824,73067.88186708465,-822246.3027132293,1781082.2275747284,0.009684184896279226
16618,1724813817468461840,-0.2595163583755493,0.7647324204444885,0.1373119801282882,0.0044223475269973,-0.0652364790439605,0.758280873298645,0.6486406922340393,0.0,0.0,0.0,-1014.0391918857085,-726.2527130332769,685.4762477315837,0.522119253,6.338349616264933,1.3813178538928177,6.430004037411278,2952.271997786852,-2534.6052455284216,18372.216429439122,-0.09372648316329958,-0.09146430706494249,1.7306326624048822,-1.7810496302547563,1.3718040798016773,-0.02701292885865314,1238186.4574768106,-274921.3482104656,1526177.1205499186,1.7219695433292452
16620,1724813817468700190,-0.2599978446960449,0.7650279402732849,0.1373185515403747,0.0046065873466432,-0.065116211771965,0.7590211629867554,0.6477852463722229,0.0,0.0,0.0,-461.09000922238465,-669.4878768866811,990.3639898843787,0.522357603,2.204982486314085,-0.9584874557863258,9.366890959521301,-30175.704972386367,9195.200937038233,-18436.951562034366,-0.09340680260231891,-0.09148319021171276,1.732886467204485,-2.017190348524707,1.1524590723336132,0.23786850390030168,2271123.7796340026,644143.2487495934,387308.3224525836,1.5456468313883385
16622,1724813817468948575,-0.2604981362819671,0.7652915716171265,0.1374320685863495,0.003350569633767,-0.0654236227273941,0.7586989402770996,0.648139238357544,0.0,0.0,0.0,90.39660714132587,-404.40598836530097,855.7165035022567,0.522605988,-8.612225228480401,6.246544788805114,-3.174227871642468,-43120.967510594535,28721.447389182,-49995.68998007038,-0.0954611969975467,-0.0900128842265304,1.7319512403059922,-1.9946246128961875,1.0510799331539455,0.4525533427928321,2198684.5230742074,1056874.7238638378,-537133.9534214145,1.4063532128957494
16624,1724813817494101804,-0.2608632743358612,0.7654885053634644,0.1374364346265792,0.0033098398707807,-0.0653117448091507,0.7588602900505066,0.6479617357254028,0.0,0.0,0.0,362.2401619627665,-176.6281524900096,-26.186705332667927,0.547759217,0.00553677796858219,0.007342345203283941,0.019205328432294402,-4554.446488484674,743.7656963630184,1042.7316649691072,-0.09536368035305536,-0.08978300984747185,1.732416302875017,-0.8753110616555659,0.4239083749146175,0.054467304289573804,37737.938842547825,-17782.88414566277,-2290.1894255569205,0.010038323391204182
16626,1724813817494495366,-0.2612130641937256,0.765657901763916,0.1374582052230835,0.0030268372502177,-0.0655443295836448,0.7588925957679749,0.6479018330574036,0.0,0.0,0.0,377.2582155684356,-183.7920886817556,-26.886236084909015,0.548152779,-1.8170758744727535,0.3061677475312721,0.4352241226123845,-3369.1405378638533,419.97380441288453,789.3351377285276,-0.09609311882980909,-0.08964669781893791,1.7325759788273756,-0.7307904858970957,0.35346012890113343,0.04409741468859352,29822.469391797415,-14175.059259656366,-1293.9906171058847,0.5706299696987515
16628,1724813817495856357,-0.2614640891551971,0.7657767534255981,0.1374654173851013,0.0031829106155782,-0.0661011338233947,0.7589803338050842,0.6477417945861816,0.0,0.0,0.0,378.6090613610975,-184.12761661002463,-26.372019878219515,0.54951377,-0.463190798620183,-0.7192133592384179,0.24945540071302705,914.9554719666351,-687.0746615113783,-126.48384933624713,-0.09676257829311975,-0.0905883146733241,1.733010001963763,-0.1700616581939869,0.08077457150456713,0.004976088559191849,-1161.1200252701512,779.9722537179005,491.3780045195254,0.11597285934528444
16630,1724813817510913978,-0.2616290152072906,0.7659013867378235,0.1374865174293518,0.0033353567123413,-0.0660806819796562,0.7590498924255371,0.6476615071296692,0.0,0.0,0.0,2.3391226940721666,-1.374371266598752,-0.05584235173322538,0.564571391,0.01582211518796024,-0.014284031784116451,0.012731183757608707,17.554329092570637,13.496044236787675,10.78344863038165,-0.09654356160100135,-0.0907838835555769,1.7332223165288325,-0.03188135649146773,0.012138464393018467,0.003154655758098812,-5986.221732669813,2897.027220644778,384.7456116945357,0.010025495520246638
16632,1724813817515353899,-0.2617979645729065,0.7659603357315063,0.1375028192996978,0.0034259494859725,-0.0659519508481025,0.759198009967804,0.6475006937980652,0.0,0.0,0.0,0.6380977036412894,-0.6083452253987907,-0.1319310134351411,0.569011312,0.07509632801747718,0.0020167628263150416,0.09530781119926392,7.682581049185503,2.7381040813452704,10.601991630638757,-0.09624841477531164,-0.09073426278082121,1.7336446001174495,-0.03044743765095781,0.010204559083234699,0.0029919752968354807,-273.30570407776776,126.17871370512005,-11.458214355620274,0.01952419631626018
16634,1724813817526837383,-0.2619217336177826,0.7659862637519836,0.1375169903039932,0.0033900211565196,-0.0659520775079727,0.7591201066970825,0.6475920677185059,0.0,0.0,0.0,0.761214558541578,-0.5361000765881188,-0.09483361437439443,0.580494796,-0.005017761732668104,0.005739390503386061,-0.020454305166334133,-2.7329065524409595,-1.1582150080820102,-5.111939476623533,-0.09628417635272911,-0.09069122081488283,1.7334033037850751,-0.013759938933237237,-0.0019129129875281592,-0.0013532857075784221,-13.848843350419799,35.53468601972772,17.939882539625625,0.0040683698811240405
16636,1724813817535770832,-0.2620653808116913,0.7659401893615723,0.137486919760704,0.003450053744018,-0.0659945234656333,0.7590284943580627,0.6476947665214539,0.0,0.0,0.0,0.46674266750602744,-0.015420126689638547,0.1676568746582435,0.589428245,5.929901473738231e-05,-0.01490957816410559,-0.031589933848643864,0.32660495010975943,-1.1830367291307993,-1.1619700413378329,-0.09625923967970318,-0.09085092047869553,1.733134053115463,-0.011768561492472074,-0.003094498222843356,-0.00022983608715954063,-17.948400616788398,32.114193794607075,10.907751296088929,-0.0027859289445619946
16638,1724813817545720852,-0.262134701013565,0.7659322619438171,0.1375193893909454,0.0035194747615605,-0.0660370960831642,0.7588924169540405,0.6478495001792908,0.0,0.0,0.0,0.4545498513837056,0.01409238957297107,0.07144280896868652,0.599378265,0.0006302695060062397,-0.014175748860436896,-0.04221467030502511,0.1060621974055017,1.865783395407492,1.4318672879471965,-0.09621607872351966,-0.09103167909460248,1.732727848760014,-0.00442227074046464,-0.0019530190738450415,0.0019026916246618342,-17.674329654634857,-2.0599961053973823,-8.002606560923054,0.0006321824037064823
16640,1724813817556220876,-0.2621529400348663,0.7658989429473877,0.1375242918729782,0.0034263748675584,-0.0659420564770698,0.7588954567909241,0.6478561758995056,0.0,0.0,0.0,0.08670781439323857,-0.06322866190366055,0.0058877587111729746,0.609878289,0.0022833021240475254,0.025271505796435233,0.0005174770090903654,0.15149434388458766,0.58780993378155,1.3322412094422047,-0.09619028081053901,-0.09076703945122051,1.7327077586504644,-0.002793772845670617,-0.0029200601928707215,0.0010696581592561927,-20.560429392892193,-17.048290706609734,23.6457699285324,-0.002797647149559184
16642,1724813817565361372,-0.2621868848800659,0.7658742666244507,0.1375388652086258,0.0034210074227303,-0.0659132823348045,0.7588697075843811,0.647889256477356,0.0,0.0,0.0,0.01392948396671738,-0.29611722680710034,0.4598492754821583,0.619018785,0.0036207950782691043,0.005428154044627981,-0.009087282215299865,-0.09952323659603082,-1.146829169027912,-0.2198831906611779,-0.0961492233630801,-0.09072562409456165,1.7326199071192017,-0.002545374574035364,-0.0032682807575383777,0.0018016031475669436,-6.361679547202796,-12.342172591092561,20.998044728566008,-0.001913109082018626
16644,1724813817578492843,-0.262198269367218,0.7658206224441528,0.1375664323568344,0.0033612479455769,-0.0658837333321571,0.7588846683502197,0.6478750705718994,0.0,0.0,0.0,-0.03941515704456083,-0.21036615506445921,0.19478466081903156,0.632150256,-0.0023240407645750763,0.009688218419264476,0.0037004276693038884,-13.493343619480228,-7.821408048105084,-17.42399088625797,-0.09618303044259204,-0.09059432794347505,1.732656233459286,-0.0026123476497268427,-0.012024299326512278,0.015004504531741958,4.521425608903275,54.12440789244954,-76.08288712958068,-0.0036861638660029856
16646,1724813817585471994,-0.2622229754924774,0.76570725440979,0.1377190202474594,0.003275440307334,-0.0664349794387817,0.7584293484687805,0.6483522057533264,0.0,0.0,0.0,0.023980345731895232,0.3439174122114208,-0.5435495997814725,0.639129407,-0.14486770433403576,-0.07511386559814025,-0.18614721814627957,-7.2236088991092435,-5.640718626215144,-8.57640903352632,-0.09708080396123948,-0.0912414559172179,1.7314085534844637,-0.003014716423843211,-0.01179944008423206,0.01335697463435892,7.567724950049165,53.358150414521035,-61.517465823783354,-0.013412200870642767
16648,1724813817595751729,-0.2622460126876831,0.7656532526016235,0.1377275288105011,0.0033432564232498,-0.066625215113163,0.7584478259086609,0.648310661315918,0.0,0.0,0.0,0.07882301497771659,0.4978178335501059,-0.5055706627492577,0.649409142,-0.01925107321804166,-0.03452869822061648,0.007705675842540381,7.68470780859127,3.8175257005875336,7.53932665347632,-0.09728907646760578,-0.09158703347309337,1.7315222293217793,-0.0015321757874477981,-0.003544557538603499,0.003113725469264139,-2.39642189936354,-6.077114370737874,15.685937589454936,-0.004730948766633645
16650,1724813817605804928,-0.2622544467449188,0.7656344175338745,0.1377813071012497,0.0033865000586956,-0.0665652379393577,0.7583618760108948,0.6484172344207764,0.0,0.0,0.0,-0.021281636318950803,0.22978319089160007,-0.22998156704682227,0.659462341,0.013417049702359596,0.0025661291324286023,-0.027779020454354937,2.043641239196991,2.522381476310346,-0.01302662014306688,-0.09712844663757758,-0.0915884738998969,1.7312407237008374,-0.0013827103147363573,-0.0015405858385406646,0.002857286289345673,-14.659784301509577,-16.54260966994907,21.593151219324234,-0.001219003861532841
16652,1724813817615811539,-0.2622736990451813,0.7656223177909851,0.1377850770950317,0.0033936500549316,-0.0664299428462982,0.7583925127983093,0.6483952403068542,0.0,0.0,0.0,-0.21481234719320674,0.16503556175259143,-0.07187513128915604,0.669468952,0.021856080841990172,0.016178323224361135,0.007117454734824595,0.8510667800235251,-2.068146185221861,1.9185198573236795,-0.0969148070443164,-0.09142044597049749,1.731296161168912,-0.0019557209452951696,0.0010620193046335658,-0.0014806532052205057,-10.072057157383606,-8.401020905771793,22.499000179505316,-0.0008480678376904819
16654,1724813817625488411,-0.2622929215431213,0.7656538486480713,0.1377533674240112,0.0036165451165288,-0.0664321184158325,0.7584360837936401,0.6483427882194519,0.0,0.0,0.0,-0.22554628982449776,0.06567400806295293,0.20853219437043247,0.679145824,0.030164000131553802,-0.03591844539095653,0.011001690065453491,-0.7954540050766421,-1.5810522460332983,-3.8398004013488953,-0.09663572340967183,-0.09175610410355402,1.7314362221704156,-0.005508777172160251,0.0017695413954967876,0.001207974217295238,3.370704196584663,-0.0510784458599467,3.1926138274904794,0.003219035857775604
16656,1724813817635477208,-0.2623842656612396,0.7656561732292175,0.1378116756677627,0.0037042156327515,-0.066451758146286,0.758207380771637,0.6486077904701233,0.0,0.0,0.0,-0.14568533889479793,0.17050758644136804,-0.025435125536719394,0.689134621,0.0051644753307616914,-0.012503650738021838,-0.07108330148254328,-1.4898891273543233,-1.8130264744520468,-0.02416924323610914,-0.09652015623408788,-0.09194889372532591,1.7307386817204342,-0.006301463758621395,0.002348825887558803,0.00257633701980442,-1.8002483756990504,10.174954578397443,-16.442823378521716,0.0022149987211307186
16658,1724813817646709129,-0.2624191343784332,0.7657092809677124,0.1377994269132614,0.004060192964971,-0.0667581781744957,0.7583229541778564,0.6484389901161194,0.0,0.0,0.0,-0.2896178203714712,0.28074831854977345,-0.12196204899460453,0.700366542,0.001222421854969301,-0.085370976097558,0.032127578568303644,3.211252122025247,1.5322307554204966,2.615149649779263,-0.09654826799349388,-0.09286852048913523,1.7311921236907797,-0.008775493473041962,0.005684979887170982,0.00023926547143737764,0.8815357469639977,-4.292484391684592,14.31126410710647,0.005040019526710497
16660,1724813817655839778,-0.2625413537025451,0.76576828956604,0.1378114819526672,0.0042677256278693,-0.0665961280465126,0.7583614587783813,0.648409366607666,0.0,0.0,0.0,-0.17990954349776866,0.13684295484284428,0.1787228951762191,0.709497191,0.05698376452011773,-0.011854236435373654,0.007210793766414329,4.775572703361822,2.7695107386390347,-1.0679115305439542,-0.09603505563024242,-0.09296993533486674,1.7312684926482993,-0.011934642072560564,0.008127585685059557,-0.0002351620910880925,4.874055508082009,-12.718956608606884,24.519193416374804,0.008604254819478721
16662,1724813817666074320,-0.2626468539237976,0.7658705711364746,0.1377912312746048,0.0047342297621071,-0.0663912594318389,0.7584421038627625,0.6483327150344849,0.0,0.0,0.0,-0.21195041978123452,0.041564750808088746,0.3331617948719391,0.719731733,0.09058497975422519,-0.04410564810374897,0.015336091218113305,-0.9110644141155932,-3.076699525050482,-1.3095053625952582,-0.09512657639081117,-0.09340428553714485,1.7314685632703002,-0.011870631815556365,0.008029029206404914,0.004240353716544298,-13.066297042031696,8.00245273070589,-29.45974991536756,0.011279436873568758
16664,1724813817677011191,-0.262794941663742,0.7659354209899902,0.1379102915525436,0.0051737017929553,-0.0665321573615074,0.7583679556846619,0.64840167760849,0.0,0.0,0.0,-0.4709765458394154,0.3314178922597828,-0.5097058802584529,0.730668604,0.031601707130833864,-0.0768840285891237,-0.023569239827381204,-0.7355035671062295,-1.415700497174397,4.819950626141639,-0.09476430848389349,-0.09426581052665306,1.731290925804882,-0.01673895163991901,0.009081948392605455,0.006667053249254096,0.5305788612215636,7.4090025293911275,-41.47219340439479,0.009006161009778529
16666,1724813817686177548,-0.2629729509353637,0.7660428881645203,0.137938991189003,0.0055981087498366,-0.0665543302893638,0.758637011051178,0.6480811238288879,0.0,0.0,0.0,-0.28008739335603094,0.25264727800468134,-0.6164019696040909,0.739834961,0.06064137115951696,-0.07771216463927057,0.08496978051770507,8.04029512855878,1.706745374088047,11.90607620453013,-0.09428839297855665,-0.09490146282937613,1.732137417332035,-0.021254662633298338,0.01392633926362663,-0.0036254925412375627,8.89842721078417,-10.048587945699438,45.04603466917382,0.014922048044874379
16668,1724813817695579405,-0.2631904780864715,0.7661950588226318,0.1378397494554519,0.0062526096589863,-0.0660411268472671,0.759294331073761,0.6473574042320251,0.0,0.0,0.0,-0.31143820953041756,0.1441393858788904,0.3537606116755846,0.749236818,0.1832199245358917,-0.04433551245404898,0.19753636593113838,4.515562430345662,1.4055706133399184,2.6658912142150575,-0.0927457245705274,-0.09514304437259437,1.734033932192972,-0.021838276151898484,0.013641562961062448,-0.004536823890306962,-13.56040980023173,4.222955873344176,60.094813908219386,0.018638019793667113
16670,1724813817708759411,-0.2634543180465698,0.7663278579711914,0.1378911584615707,0.0069173849187791,-0.0658960416913032,0.7595875263214111,0.6470214128494263,0.0,0.0,0.0,-0.6791019503099038,0.4910613546698033,0.34959588367130834,0.762416824,0.08527663652485931,-0.065431555998039,0.06071450930211817,8.047096387748326,-11.87333858551279,2.8507010743143493,-0.09170574916648566,-0.09592807573320548,1.734914226132255,-0.030550383621257282,0.018764137975182393,0.008452905680043088,-9.965978294399093,-1.7862261018907724,-30.728884303022095,0.013523887459489115
16672,1724813817716323432,-0.2637311220169067,0.7665075063705444,0.1379748582839965,0.0079786842688918,-0.0657757893204689,0.7599768042564392,0.6465641856193542,0.0,0.0,0.0,-0.6766524643327909,0.3555331849640814,-0.014860441583855577,0.769980845,0.2133363452175175,-0.19983566107528739,0.1397161647255358,7.198187850202217,-4.7468654362823886,3.6494584216445847,-0.09020739936719777,-0.09733740145804765,1.7361095922457013,-0.03576566493395106,0.022923049554677277,0.008336521572410938,-1.878325538144697,-22.25211783282,-28.562439514379825,0.03038467513155668
16674,1724813817727069882,-0.2641028165817261,0.7667412161827087,0.138022780418396,0.0086582666262984,-0.0653794482350349,0.7602856755256653,0.6462323665618896,0.0,0.0,0.0,-0.7304599911023058,0.05022134821484858,-0.02224369926038544,0.780727295,0.14210597471857328,-0.05202986123961235,0.07519088465150361,-4.351855471064461,3.483067151911307,-11.98675214150824,-0.08876393061349963,-0.0978220811855062,1.73696836342836,-0.04284134720538546,0.02377730682088952,0.00818485695302762,34.06568922806664,-20.708552451747025,-16.010695032832874,0.027474784629478447
16676,1724813817735918571,-0.2645420432090759,0.7669664025306702,0.1381223499774933,0.0093464953824877,-0.0652469098567962,0.7601036429405212,0.6464502811431885,0.0,0.0,0.0,-0.14433724473452925,-0.07690545025353523,-0.27556644396602903,0.789575984,0.12018385452495776,-0.09604334078308553,-0.07446442108991455,-9.053304023315295,1.3553862879826217,-6.3601047884135475,-0.08764313191857465,-0.0987266794632749,1.7363840686554175,-0.04982984514757227,0.024008431825720322,0.007928788580167101,21.8881416362319,9.418458696662316,-7.716850464272914,0.03422935456897922
16678,1724813817746276000,-0.2650604844093323,0.7671976089477539,0.1381641775369644,0.0091929752379655,-0.0654737874865531,0.7600437998771667,0.6464998722076416,0.0,0.0,0.0,-0.45530864256737313,0.30900339765649587,-0.10197522301836526,0.799933413,-0.053306999465334175,-0.00527110456245587,-0.012405141879963465,-7.287316214130498,0.5380541888582195,5.10762113794614,-0.08818304539072018,-0.09879234074570616,1.7362602299432948,-0.043499863984928666,0.02196287249016393,0.002084656407697061,-32.09719038981399,24.20689739355884,20.223692796317884,0.030513190619232154
16680,1724813817759203365,-0.2655170559883117,0.7674757242202759,0.1381596028804779,0.0098416935652494,-0.0659982711076736,0.7602023482322693,0.6462504863739014,0.0,0.0,0.0,-0.9036916734908083,0.4113373804483347,0.21534929380882195,0.812860778,0.005173390001849633,-0.13104041551023082,0.03935731172848221,19.39915661230568,8.674216283814793,-10.462104437152082,-0.08818172526210574,-0.10043495248508202,1.7369194381748827,-0.06659313891032781,0.03412983611124787,0.008225099899627608,96.92428996194155,-27.910820516019633,-57.063445276802184,0.026885902291009824
16682,1724813817765755893,-0.2660572826862335,0.7677412629127502,0.1382419914007187,0.0102756666019558,-0.0655709356069564,0.7600775361061096,0.6464340686798096,0.0,0.0,0.0,0.16852036291832562,0.10945917625471857,-0.42961218298149495,0.819413306,0.18169249847824967,-0.013080079716822865,-0.0772424848726953,15.894293709592134,12.067396968017833,-6.956299851443834,-0.0869410992679069,-0.10056460003198867,1.736420289965774,-0.06958291072696099,0.03506537446051183,0.00877381907376229,112.08236241274356,-32.545803648935674,-61.83117581324909,0.05455438488010924
16684,1724813817777215280,-0.2665968835353851,0.7680336833000183,0.138266384601593,0.0107534863054752,-0.064930722117424,0.7603542804718018,0.6461653709411621,0.0,0.0,0.0,0.41979549042542796,0.0075491103486906574,-0.4047035977941331,0.830872693,0.1424855033010991,0.006265738058306486,0.06025076141740007,1.1363161487419298,-8.879791529941516,27.708496197842887,-0.08537703982172778,-0.10043364614765411,1.7371053961628038,-0.05513035308441516,0.03565203199455169,-0.006437266036600775,-21.58507862472669,-32.441435947334604,78.6508587079498,0.033008355407558046
16686,1724813817786020384,-0.2671367228031158,0.768416166305542,0.1381517499685287,0.0116377379745244,-0.0647443383932113,0.761566162109375,0.6447401642799377,0.0,0.0,0.0,-0.06465259551678448,-0.4374198476539779,0.8052411818430718,0.839677797,0.18332657068317304,-0.1434208110134668,0.41051611862106435,2.6852118317220945,-4.678958988185721,6.659146061582411,-0.08413835208181629,-0.10138596938766817,1.7408331370505379,-0.05712662066480334,0.03542321461229392,-0.0037581722925139616,-27.731943054993806,-26.306797188622113,76.73729132816204,0.05159627612137375
16688,1724813817795928239,-0.2676560878753662,0.7686777710914612,0.1382177621126175,0.0124020548537373,-0.064208023250103,0.7619654536247253,0.6443074345588684,0.0,0.0,0.0,-0.035200971233388945,-0.42794663040925385,0.88907555844465,0.849585652,0.18815639017299934,-0.052415766748046475,0.10724115448465991,-8.943082921885972,4.828427793680486,-21.15818297088761,-0.08238645811043359,-0.10181510494677894,1.741940630447306,-0.05596037839498713,0.026502373747227637,0.009805269892159352,6.703583965041927,22.53686120378332,-30.364884354332045,0.03544181347036066
16690,1724813817805961597,-0.2682535350322723,0.7689446806907654,0.1383480727672577,0.0125977769494056,-0.0643534064292907,0.7619341611862183,0.6443262100219727,0.0,0.0,0.0,0.06996744275024103,0.017443702419520424,0.18992119950044123,0.85961901,0.0026085307281618116,-0.04823659113689954,-0.009016340041482314,-4.055014437895854,-1.4108511492333595,-5.889300118880785,-0.08235513806631088,-0.10230489158352224,1.7418901210156075,-0.057867195102126345,0.027008774526194657,0.013849856403874483,-21.82511587886414,28.305347380583534,-52.39852793517545,0.03748845956284401
16692,1724813817816536820,-0.2688467800617218,0.769234836101532,0.138504147529602,0.0133480047807097,-0.0641513243317604,0.7619428634643555,0.6443209052085876,0.0,0.0,0.0,-0.5209431325250269,0.13748322784273248,-0.1715462465608314,0.870194233,0.12065779771590095,-0.08352526935481741,-0.007787349222833674,3.8338148051252046,-3.703200574424602,-0.03536709339856714,-0.08107811945210025,-0.10319195650960676,1.7418800124645155,-0.054229053340664635,0.026825103717463605,0.013481994038913925,-42.04558547175827,17.17517739062816,-55.75130069365843,0.03791299610186821
16694,1724813817827779462,-0.2694341242313385,0.7695291042327881,0.1386404633522033,0.0141822844743728,-0.0642935186624527,0.7619242072105408,0.6443111300468445,0.0,0.0,0.0,-0.8283323133068441,0.40018904057173366,-1.0561551444975652,0.881436875,0.07616244427928343,-0.12953687432607103,-0.00999669583394602,-9.492773419393904,9.36843591907345,-9.779779131437717,-0.08022242183874183,-0.10465263543608708,1.7418855478831643,-0.07042408853081028,0.030221589000611004,0.009918769228418611,81.50204614424291,1.3659562414735973,-55.28623741971591,0.03576354560748365
16696,1724813817835816198,-0.2701045572757721,0.7697952389717102,0.1387075036764145,0.0140660414472222,-0.064323291182518,0.7615451812744141,0.6447585821151733,0.0,0.0,0.0,0.45198493872159506,0.2847710982102165,-1.366059237818761,0.889473611,-0.03192736044844335,0.023088583353787655,-0.14365017740148664,2.4472440201290118,8.313073680475384,8.912903617730564,-0.08035662587964983,-0.1045602596551504,1.7407134084015727,-0.07356426047770626,0.03400128301039729,-0.0028160808016357564,107.50747324884048,-26.16524970354287,45.860340823626316,0.04735977341579674
16698,1724813817845844951,-0.2707189619541168,0.7701473236083984,0.1385396271944046,0.0147034851834177,-0.0636982768774032,0.7624620199203491,0.6437219381332397,0.0,0.0,0.0,0.881890726331485,-0.1253545365916755,0.1503545278733105,0.899502364,0.19155512319849022,-0.0271704629227787,0.2653962777512863,11.435702070820222,-9.545695032433585,17.15823837125655,-0.07871634272905333,-0.10462040262455069,1.7434028333233051,-0.05848527703026818,0.03453535043865941,-0.013781270927927913,-16.89561392180629,-24.020447375234212,119.68309859750909,0.043113285657649346
16700,1724813817856083594,-0.2712887227535248,0.7704949378967285,0.1384294480085373,0.015956126153469,-0.0635185167193412,0.7631512880325317,0.6428926587104797,0.0,0.0,0.0,0.08420503163530713,-0.19490310470494987,1.0462341004876532,0.909741007,0.19524291549216502,-0.17230108203173136,0.19407980074403194,-15.674100108529231,-7.635163410742055,-14.291713496441483,-0.07694147191914719,-0.10622470771120297,1.7455330491062009,-0.055954333475739304,0.03138491226267348,0.0007587702280833497,-57.60240456839153,9.850885119492535,-10.403449277156477,0.04172463482486649
16702,1724813817866387338,-0.2718684375286102,0.7707917094230652,0.1385567188262939,0.0162468496710062,-0.0646437555551529,0.7629957795143127,0.6429577469825745,0.0,0.0,0.0,-0.2987477539264023,0.07918008213071404,-0.07614488239366068,0.920044751,-0.13252264009080877,-0.18316076500823203,-0.029146562105434058,-2.5712997861058176,4.9942249488221835,-3.4780636713214106,-0.07829047739190753,-0.10812954759758822,1.7453790249750434,-0.05677679379834366,0.030546308604883166,0.00766204017259664,-22.076052316843576,12.456239120422138,-62.98506579921136,0.03924739597867028
16704,1724813817876030477,-0.272420585155487,0.7711020112037659,0.1385882794857025,0.0168414115905761,-0.0645089596509933,0.7633369565010071,0.6425509452819824,0.0,0.0,0.0,-0.3754417557849212,0.07164832745937999,-0.2688776439867983,0.92968789,0.106560966511471,-0.08041661598558321,0.10144531633444505,10.17571093475398,5.856784326797932,3.899307172591575,-0.0773756812299367,-0.10882661236804242,1.7464207995961332,-0.061633444695635475,0.032758964235732435,0.00019409984218299314,4.276720950784412,-1.0462486903149455,0.028675757317776274,0.04179668326184152
16706,1724813817885454195,-0.273041695356369,0.7714160680770874,0.1385617554187774,0.0172814298421144,-0.0644790157675743,0.7635014653205872,0.6423467397689819,0.0,0.0,0.0,-0.22251007791604138,0.05934646508145458,-0.08428170262715867,0.939111608,0.06783794213709991,-0.06940875072782847,0.049384647423338444,-3.5860291104088287,3.7998478541713743,-6.075032823925614,-0.07679275159245574,-0.10944291433574901,1.7469382010254697,-0.06399090589947676,0.03198088084158002,0.0023160548741403275,4.6016038613669,3.083492438082795,11.58743951627612,0.04378717799919358
16708,1724813817896478500,-0.2737224102020263,0.7717512845993042,0.1386534571647644,0.0173872765153646,-0.0643064081668853,0.7634270787239075,0.6424495577812195,0.0,0.0,0.0,-0.32172817778010554,0.14994245155000563,-0.0597251182501917,0.950135913,0.035050409930417845,0.006422887776894025,-0.02468935435283749,9.798382592621987,2.8688392258307767,13.872950802814511,-0.07637593324923772,-0.10939313391436208,1.746659690907249,-0.06608729811184588,0.03446534986317573,-0.0026040349506910587,19.94640164495761,-9.229373820183486,30.410914100973685,0.04140574689726821
16710,1724813817905660453,-0.2743624150753021,0.7720987796783447,0.1385460197925567,0.0179599225521087,-0.0635403841733932,0.7642594575881958,0.6415197849273682,0.0,0.0,0.0,0.08278561068683077,-0.06822862439946209,0.4350388779236345,0.959317866,0.22269623147892792,0.0020999309691778,0.26016934005100556,-6.905270533102158,-5.577688821410971,4.485097953677608,-0.07459238013651312,-0.1091937704963786,1.7490547075428358,-0.0700475502306972,0.03526533751447403,-0.00019614056936934077,46.547021441676975,-17.98600111783174,20.86807593235993,0.04803453151706141
16712,1724813817915748779,-0.2750729024410248,0.7724259495735168,0.1386715620756149,0.0178978778421878,-0.0644781962037086,0.7642374634742737,0.6414542198181152,0.0,0.0,0.0,0.5799856855707914,-0.1856677823685542,0.27960434426114184,0.969406192,-0.15002580066043356,-0.11077511976770305,0.011257461691576808,-4.531301271680068,-4.8765052542072,-9.673975635989729,-0.0761276466757748,-0.11029959442293079,1.7492533819595992,-0.06351407857131441,0.0328550469689759,0.0061079825018302,2.0584208183100596,-4.968494994538883,-22.017699882277945,0.045516947658412826
16714,1724813817925987931,-0.2756513953208923,0.7727667689323425,0.1386682540178299,0.0187087077647447,-0.064247265458107,0.7644982933998108,0.641143262386322,0.0,0.0,0.0,0.11027572237346028,-0.16719774780452568,-0.014534358249219614,0.979645344,0.14043731822296246,-0.09510880866410608,0.0680801992593746,8.851040858952162,-2.2249615933417424,-1.560776494806016,-0.07477514557511626,-0.11121809602362685,1.7500264907937735,-0.05827846061187003,0.03150736310050917,0.005382575008508361,-41.74378996814626,6.363476806594631,-33.180942065965276,0.04252429332218679
16716,1724813817935791201,-0.2762394249439239,0.7730589509010315,0.138774573802948,0.0194216500967741,-0.0645591989159584,0.7644540667533875,0.6411433815956116,0.0,0.0,0.0,-0.26018482430831735,-0.062018595249448305,-0.3816218399098395,0.989448614,0.04402243437630519,-0.1521649399589611,-0.013957684533404631,-4.016149976712173,0.4791599728940268,-1.8708970031813315,-0.07434072529571852,-0.11271584665605607,1.750000893679374,-0.06096170041229243,0.029534353828196913,0.005768632814303842,-18.696391038036822,22.04932430245485,-12.860295794558645,0.04098493832805545
16718,1724813817945682622,-0.2768521904945373,0.7733483910560608,0.1387809664011001,0.0199287682771682,-0.0645946115255355,0.7645684480667114,0.6409878730773926,0.0,0.0,0.0,-0.2545626366728695,0.2690616523753442,-0.26346001749367143,0.999340035,0.06237096765530226,-0.08455633363458401,0.032384137529564275,5.573482436978202,0.901763108195027,8.527152717715115,-0.07376711174355637,-0.11352624137073529,1.7503847124679832,-0.06340032533222661,0.030310584996122714,-0.002207906473361554,12.711896104734736,5.761493233777253,46.33768351971858,0.03967342470568381
16720,1724813817955678631,-0.2775005996227264,0.7736619710922241,0.1387300640344619,0.0208945944905281,-0.0644493922591209,0.7651057243347168,0.6403303146362305,0.0,0.0,0.0,-0.004824321217260064,0.04673579559958019,0.5471475682900673,1.009336044,0.15564660676721281,-0.1354788572435395,0.15643339236554912,8.3310280804515,3.2597917110911148,6.160085797157462,-0.07240139238329125,-0.1147626943314254,1.7520540014334482,-0.06602598417264005,0.03492537548311958,0.0006432626652213003,16.374137476793535,-22.283133803147336,43.804569403331115,0.04168691916251536
16722,1724813817965767679,-0.2781785428524017,0.7740505337715149,0.1387949585914611,0.0216531902551651,-0.0636364296078682,0.7656782269477844,0.639701783657074,0.0,0.0,0.0,0.07270332288938741,-0.1785041504460334,0.6093863855737014,1.019425092,0.22951314895293837,-0.017521486941789777,0.15494145086730257,-7.682906076746157,5.874748832377535,-8.599033804493562,-0.07026705690140761,-0.11482760228269084,1.7536362368687328,-0.06344901926988555,0.03117170791954038,0.008830547393383625,-5.66064613248569,3.087619040364978,-26.103125491113456,0.05049621996782288
16724,1724813817976964132,-0.2788423895835876,0.7743083238601685,0.13892363011837,0.0216188803315162,-0.0639009103178978,0.7654939889907837,0.6398970484733582,0.0,0.0,0.0,-0.15649272391771962,0.17183084737244636,-0.08386978871854556,1.030621545,-0.04294352728879633,-0.02402221565015626,-0.046346312685676135,-2.6309528986602437,-2.510286283762268,-7.265087926193142,-0.0706902797107647,-0.11513244111455437,1.7531342436535962,-0.06490535454792834,0.03157802704168944,0.013142141420233955,17.43080019535885,-4.2926249133278205,-62.28985322960776,0.034492853814681236
16726,1724813817985424949,-0.2794274389743805,0.7746301889419556,0.1390453726053238,0.0220151580870151,-0.063815027475357,0.7654021382331848,0.6400020718574524,0.0,0.0,0.0,0.23331056380275284,-0.09198749407337337,-0.6132736249064109,1.039082362,0.07355789183127603,-0.05759885435116126,-0.03932220685677893,4.608575399833513,-2.725391694285525,2.2460753048004216,-0.07003343486827165,-0.1156419734147008,1.7528347646767926,-0.06639833944516127,0.033898447813683674,0.00943422973811714,7.096686833263853,-14.696873088991937,-38.67290660993009,0.05125823947313891
16728,1724813817995706958,-0.2800757884979248,0.7749269604682922,0.1390804648399353,0.0223117768764495,-0.0640203207731247,0.7654011249542236,0.6399725675582886,0.0,0.0,0.0,-0.1807209419966691,-0.0371258288491767,-0.7122939998428438,1.049364371,0.006475308492556513,-0.07008862115201411,0.0014637180807031188,-1.1911963202759543,1.698607737090505,5.451394892688953,-0.06997448408571845,-0.1163598163561184,1.7529007030004922,-0.05887928377884677,0.028376354541002513,0.0009415262711929273,-41.05499519698371,17.18258287505917,-2.1945406332568353,0.03993253128981478
16730,1724813818007473959,-0.280712366104126,0.7752543091773987,0.1390582621097564,0.022570488974452,-0.063783012330532,0.765745997428894,0.6395743489265442,0.0,0.0,0.0,-0.6744189601159967,0.32459733829677884,-0.6379817479517176,1.061131372,0.06427612375530208,-0.010868870390597273,0.08560351227740849,-1.2679926682844058,0.3222838744741856,4.030309684402004,-0.06933665749312304,-0.11641726904054961,1.75392115940371,-0.07328729272563095,0.03467188994592618,-0.005909129134465729,79.89568029616005,-26.294219640421236,24.74559351069321,0.03673456357053307
16732,1724813818015446998,-0.2814003527164459,0.7755677700042725,0.1389894187450409,0.02270083501935,-0.0638146996498107,0.7660054564476013,0.639255940914154,0.0,0.0,0.0,0.6208775238666044,-0.1931683494277785,-0.3411174879090128,1.069104411,0.020779341783323017,-0.033746546083014806,0.10088106402121622,1.36109389810321,-3.3303425999069907,4.366996822997267,-0.06926710031055516,-0.1166300100474556,1.7547479737495364,-0.07569305001993598,0.036123163105408196,-0.011297177013950055,109.15567826234535,-44.19563733051181,54.12393545568399,0.053060883961332704
16734,1724813818026345036,-0.2820674180984497,0.7759138941764832,0.1388266384601593,0.0234352480620145,-0.0635329410433769,0.766687273979187,0.6384395360946655,0.0,0.0,0.0,1.0164398508617425,-0.3658103376138755,0.5003287203740274,1.080002449,0.13715305133783054,-0.07690729945175198,0.18498081043714706,4.082973880402594,-2.685813133708197,-1.3101995670633295,-0.06801549375037559,-0.11732789658218877,1.756830777959084,-0.05518334631752886,0.028429123267844858,-0.010029468646833628,-44.62681313629356,27.024211015384132,40.506430718144614,0.04049286970378981
16736,1724813818038293966,-0.2826478481292724,0.7762099504470825,0.1387710869312286,0.0242182966321706,-0.0634362176060676,0.7669065594673157,0.6381564140319824,0.0,0.0,0.0,-0.5769940365812141,0.5186914264849509,0.5034674782440345,1.091951379,0.09953237354480508,-0.0923011306797999,0.05105904735678881,-3.4184965083660197,-4.33893490807803,-7.971221520634299,-0.06690705963588454,-0.11838714850464524,1.7575185070041557,-0.05437733334251149,0.028514990057914247,0.000979825086780295,-86.56952525822095,13.45875839525681,-20.07749647772085,0.03258107717998155
16738,1724813818048082909,-0.2832266688346863,0.7765190601348877,0.1388258188962936,0.0250159222632646,-0.0636935830116272,0.7669041156768799,0.6381030082702637,0.0,0.0,0.0,-1.049236657230784,0.16474466986358927,0.14381372447458818,1.101740322,0.06390333798707973,-0.15923900195486565,-0.0010149600285205838,10.00413074750545,-2.3696828789463478,4.290417454613992,-0.06629275260900647,-0.11994314537901223,1.757613082278295,-0.0651935966774424,0.037694402959580486,0.0025569682793591397,25.042732183075906,-75.80202238280631,-24.639623959619556,0.04237753487650734
16740,1724813818056219859,-0.2837981581687927,0.776867151260376,0.1388261020183563,0.0260697938501834,-0.0633472874760627,0.7672067880630493,0.6377313733100891,0.0,0.0,0.0,-0.349782586903872,-0.720196094890357,0.025171764295241414,1.109877272,0.23759005067899244,-0.1482976711694011,0.09889621566299717,-1.1440698913792269,12.405552169777447,-3.384949324959507,-0.06446629046736828,-0.12109468784076362,1.7585013885430716,-0.07335437201710349,0.03380662427922232,0.003610153506252267,64.7171040176138,-41.848173338386225,-42.448726757703355,0.05473408543119514
16742,1724813818066464743,-0.2845899164676666,0.777097761631012,0.1389092057943344,0.0254273414611816,-0.0631844252347946,0.7667515277862549,0.6383206844329834,0.0,0.0,0.0,0.03922386224360075,-0.28589104387296693,-0.7691779550169316,1.120122156,-0.06422049296457019,0.121469196563746,-0.13782594789345712,-10.257700414846479,8.870899078338178,-6.323571546296634,-0.06494382845424893,-0.11994414819567029,1.7570009339718213,-0.06851300063088317,0.023301568695494268,0.002523188105803875,18.308703028644096,39.891794592220535,-25.562233762876165,0.037137090857877156
16744,1724813818077180369,-0.2852257788181305,0.7773563265800476,0.1388736069202423,0.0254881959408521,-0.0629420727491378,0.7667084336280823,0.6383939385414124,0.0,0.0,0.0,0.015040322139870277,0.11354791214195048,-0.46056879917285093,1.130837782,0.041077072848692046,0.020823998172544697,-0.017485311044264013,6.423514383881876,-2.842864526751005,3.44678212743536,-0.06447940792346105,-0.11973358609309966,1.7567980484245884,-0.07294957661835966,0.028526429153238553,-0.01315083002882389,59.30663405767119,-20.334194099768986,83.55484018067982,0.0340421019109811
16746,1724813818086158890,-0.285983145236969,0.7776455283164978,0.1386815905570984,0.0255571641027927,-0.0625573918223381,0.7666049003601074,0.6385533213615417,0.0,0.0,0.0,1.0106693202584127,-0.5024278647813331,0.7015523086450802,1.139816303,0.07314968430424702,0.0445713741425188,-0.045094506096137355,5.438763238433859,-6.636690965897307,-1.4843001525351487,-0.0637710183382552,-0.11936017105753301,1.756365282968828,-0.06958664361294709,0.026731976462116336,-0.009746815394235497,59.860999017185556,-38.99266902229185,52.460266052039074,0.044338452150172285
16748,1724813818095738866,-0.2864988446235657,0.7778456211090088,0.1387071907520294,0.0264296978712081,-0.0623704269528389,0.7665022015571594,0.6386593580245972,0.0,0.0,0.0,1.0625311074853898,-0.573282756047858,0.41732177663189524,1.149396279,0.1443329201076703,-0.11388190059809566,-0.04305409865717337,6.804138798559296,-10.283384506574508,1.9071590731016859,-0.06234699484543937,-0.12047497886299194,1.75601990259379,-0.05340225315513614,0.01882597140367892,0.0002697635925326125,-88.87388989528172,19.43731945269724,-32.0538399770439,0.030543652378207106
16750,1724813818105638036,-0.2870230972766876,0.778010904788971,0.1386852860450744,0.0276561584323644,-0.0620701424777507,0.7665234804153442,0.6386111378669739,0.0,0.0,0.0,-0.7817128984000654,-0.10638994079280606,0.07562321411183318,1.159295449,0.20528202698740483,-0.1516794535684477,-0.00684511891535283,4.248189982291101,1.3659156604850684,1.8785003912776683,-0.06031784450339405,-0.12197780954432239,1.7560444798150838,-0.049296296062934175,0.01572845933880984,-0.002025494186366217,-121.42773454878264,24.748494436652162,14.04467531139165,0.025701984121963402
16752,1724813818119556974,-0.2876375615596771,0.7782108783721924,0.1386607587337494,0.0288384314626455,-0.0609945282340049,0.7665455937385559,0.6386359333992004,0.0,0.0,0.0,-1.2021851148161211,-0.20062797653195208,1.2215292231355472,1.173214387,0.22705512831400304,-0.03120786515171038,-0.015520689371147088,8.937512766057125,-1.484561945830908,-20.887670432031868,-0.05713412180321259,-0.12242411960858436,1.755852879962282,-0.08359345277003172,0.018289358576780046,0.0050449317985119535,225.15909676708532,-38.26771360827461,-2.3556667080619604,0.021862970948871453
16754,1724813818125734605,-0.288262128829956,0.7783346176147461,0.1387105882167816,0.0296342354267835,-0.060394961386919,0.7662012577056885,0.6390695571899414,0.0,0.0,0.0,0.8889352804866553,-0.5233912856809847,0.9747924340924424,1.179392018,0.30248381244425765,-0.06818034994399129,-0.20011814388793026,-8.323933042121515,1.3137531684701464,-23.17947884578505,-0.05511622588295674,-0.12291400007298148,1.7546330461670037,-0.08756027238132447,0.01599541150568129,0.014547529989121344,191.9808195519259,-14.526923424872086,-64.47321239225438,0.03887527327643245
16756,1724813818135543302,-0.2889100909233093,0.7784286737442017,0.138954222202301,0.029200380668044,-0.0605368167161941,0.765166699886322,0.6403144598007202,0.0,0.0,0.0,0.49014401246800965,-0.07842675280992628,-0.03968090036973887,1.189200715,-0.09895848895314824,0.058375165319036235,-0.32309978338282525,-26.435645463418496,6.258829208898226,-1.4308915692756945,-0.05569269855673243,-0.1225177972041866,1.7514128441674146,-0.054996194146147204,0.008493438295019473,0.015334035037932736,-38.82745627361535,29.520514812253385,-71.82621180106769,0.024175720210558017
16758,1724813818151969105,-0.289509117603302,0.7785380482673645,0.1389446556568145,0.0286486148834228,-0.061485968530178,0.7648780345916748,0.6405937075614929,0.0,0.0,0.0,-0.09730562628777051,-0.029341866058588906,-0.35027408312135533,1.205626518,-0.13456778831002075,-0.021562074315421238,-0.04108047701684677,23.781529362816848,-15.397018594678574,-84.46236375820546,-0.05782246753934354,-0.12290966961205885,1.7507542096505118,-0.12478356431682158,0.026086017249582483,0.011385118055422083,544.6751377495694,-118.56797107548482,-35.677470584463634,0.012908558272004418
16760,1724813818155725529,-0.2900537252426147,0.7786527276039124,0.1389977037906646,0.0287995301187038,-0.0616013407707214,0.7643341422080994,0.64122474193573,0.0,0.0,0.0,2.447356006852319,-0.5791573356334536,-0.4986990042182031,1.209382942,-0.02294222017703387,-0.08844607724278614,-0.4456644324255872,22.92346188219418,-9.811600178455233,-71.97400756206815,-0.05770419811644935,-0.12333800659536819,1.7490894905172862,-0.12158284511082851,0.025030510575003717,0.009974959898554125,519.8885662082474,-106.75052066960859,-26.7715636010699,0.0570709861265288
16762,1724813818165749356,-0.2906466126441955,0.7787565588951111,0.1389867663383484,0.0288421157747507,-0.0613876022398471,0.7636659741401672,0.642038881778717,0.0,0.0,0.0,3.4450741938394605,-0.5895489798477832,-0.4262625843894684,1.219406769,0.025153614320701945,0.02701841181471396,-0.21139624181940656,0.0867537118435171,-6.0007421164590395,14.976605705194617,-0.05718804023164241,-0.12318928206767009,1.746942106697056,-0.0543800224827109,0.01124965797974653,0.0016780521458237274,-98.75532640653965,23.95321172476558,14.877787260942197,0.020273100421637397
16764,1724813818176764670,-0.2911879122257232,0.7788912653923035,0.1390387713909149,0.0298391543328762,-0.0623821876943111,0.7630912065505981,0.6425807476043701,0.0,0.0,0.0,-0.04302160414032086,-0.023197218455365043,-0.16976030834636202,1.230422083,-0.030921626028347388,-0.25115591336806203,-0.14803890142191048,6.462393389823788,0.9017077380342728,5.379668342920773,-0.05734456079134168,-0.12604466382451923,1.7454611097990353,-0.055884055329944005,0.014261068921790354,0.001842209243950066,-113.65313258158227,15.335228167461523,10.698722245257237,0.021012736390271156
16766,1724813818185659315,-0.2917334139347076,0.7790327072143555,0.1390344798564911,0.0303683243691921,-0.0621547698974609,0.7628200650215149,0.642899751663208,0.0,0.0,0.0,0.40411083792261193,-0.1459292568079259,-0.16500370178945975,1.239316728,0.10953597033535128,-0.055282963271247154,-0.1028610490658073,4.274552358397844,11.8200966252727,-0.03988356239679902,-0.05625781545027704,-0.1265875173214293,1.7445683509514653,-0.05559504375451674,0.011924618009949484,-0.0009940432985304781,31.500768806422496,0.7586691165416621,4.319837677895563,0.02599508488500557
16768,1724813818195631117,-0.2922236919403076,0.7791071534156799,0.1390188485383987,0.0306888129562139,-0.0622063614428043,0.7623048424720764,0.6434904336929321,0.0,0.0,0.0,0.5084031499427097,0.02437561882427486,-0.07961235450812454,1.24928853,0.023411095517089336,-0.05146031907641444,-0.1604872818380988,0.9052993113754066,-1.3028373007264076,1.8322837616887875,-0.05582419218645208,-0.12718950892891068,1.7429865938120657,-0.04741086165991959,0.011774651141486459,-0.0009192724602264946,-12.583615561013323,3.3384771564876043,5.024644074093361,0.0154531767256044
16770,1724813818205986275,-0.2926957607269287,0.7792754173278809,0.1390163004398346,0.0314870402216911,-0.0619392842054367,0.7621362209320068,0.6436774730682373,0.0,0.0,0.0,0.13031775851469174,-0.08880541649851936,-0.06563322995262408,1.259643688,0.13539465679500914,-0.08308335198412924,-0.059668518172228416,3.056215340276681,0.4141244962717947,6.654980975570657,-0.05434907325818095,-0.12808258674447712,1.7424125227518958,-0.045504822959667734,0.012450900855910163,-0.0026803929856313857,-30.843317834000523,-10.737367793471797,5.515175155961962,0.023569488368983673
16772,1724813818216943380,-0.2931933999061584,0.7793678045272827,0.1389587074518203,0.0319330915808677,-0.061741005629301,0.7620769739151001,0.6437445282936096,0.0,0.0,0.0,-0.1419151603842157,-0.20422343900419793,0.04308872360636992,1.270600793,0.0789346105644513,-0.03833797429456289,-0.02247171923542429,-1.089994141333654,3.4235965577320786,-0.8412220929148919,-0.053455367853858196,-0.1285152882544528,1.7421872274868448,-0.04470008396217473,0.009691080891037984,-0.0021886776920982953,-5.459168426256806,-3.2918404572004683,-1.6377519574394301,0.015248149719559824
16774,1724813818227068883,-0.2936393022537231,0.7794777154922485,0.1389652490615844,0.0323383472859859,-0.061353038996458,0.7618781924247742,0.6439967155456543,0.0,0.0,0.0,-0.015795330152816867,-0.1697934936174943,-0.08166387334875747,1.280726296,0.10591384794184508,-0.009848806000483198,-0.07062571872418688,-4.587018092318239,2.382672909323599,-1.433212918607153,-0.052291289890415996,-0.1286526801661059,1.7414725827272748,-0.0481521701290184,0.00806909155182467,-0.001769109895435328,45.8820411672217,5.173218356377859,-6.508754950739144,0.01810953816717684
16776,1724813818236353102,-0.2941213846206665,0.7795289158821106,0.1389282643795013,0.0323285348713398,-0.0613133125007152,0.7617135047912598,0.6441956758499146,0.0,0.0,0.0,0.6947368035427104,-0.10667180853264613,-0.09261703677197738,1.290010515,0.001596139373207827,0.008603995862683294,-0.05564807978048076,-0.9161113423072083,0.2886976960253603,1.0487110127137473,-0.05220919242338082,-0.12859987435516795,1.7409480100949528,-0.04553100140293864,0.006410926029381869,-0.0035752301885674242,17.500145996341356,10.568195040930965,9.3045016288914,0.01359931430196102
16778,1724813818246966733,-0.2945270538330078,0.7796078324317932,0.1388952732086181,0.0327816791832447,-0.0608617588877677,0.7615742683410645,0.6443801522254944,0.0,0.0,0.0,0.1642297522237779,0.05123052097966069,0.13334729027465117,1.300624146,0.11708852370340282,-0.008944669339398668,-0.05136706019963507,3.135580435751513,-1.1226399206136084,0.8170905395400931,-0.050896647314401786,-0.12872277097021675,1.740403889040743,-0.03315336514104672,0.006151489729635529,-0.003321602328012041,-42.1560755052477,6.787201603892954,23.981505862417727,0.01326730613680435
16780,1724813818259913757,-0.2948762476444244,0.7796671986579895,0.1388489007949829,0.033017061650753,-0.0607431828975677,0.7614420652389526,0.6445355415344238,0.0,0.0,0.0,-0.2579433096410657,0.011334105035090358,0.48634429585933014,1.31357117,0.03535023607352784,-0.015096873055033872,-0.0342538123622749,4.440584733146645,8.681381752221187,-7.039273320204221,-0.05038286947273799,-0.1289404289700285,1.7399672524480634,-0.04685163539948434,0.008009926377482657,0.00013345064109593352,13.638588060515392,-7.8884311676500944,20.30073432963068,0.008525068902880177
16782,1724813818266246552,-0.2952345311641693,0.7797285318374634,0.1388612538576126,0.033070184290409,-0.0603596083819866,0.7612540125846863,0.6447910070419312,0.0,0.0,0.0,-0.028321793828933517,-0.05351147190657299,0.5933332575984608,1.319903965,0.09678240443659758,0.06824362311911086,-0.10473105307640664,1.5619201425337512,5.281230125125388,-5.931026247448031,-0.04968141900460525,-0.12854197803624076,1.7392776102097178,-0.04600683088427093,0.007672181155800928,0.003893234559904535,16.550900640267468,-1.9869479139800479,-7.5826388241371045,0.019127832484626225
16784,1724813818279155324,-0.2955503165721893,0.7797746062278748,0.1389626264572143,0.0330313220620155,-0.0611228011548519,0.7610154747962952,0.6450026631355286,0.0,0.0,0.0,-0.333256979934875,0.13799473928867456,-0.14862043821662785,1.332812737,-0.09721128076537647,-0.07090199113928537,-0.0445195618605456,6.895537588571927,9.256959732063471,-12.857032666748049,-0.050867802576257115,-0.12948496213785443,1.7387452331621136,-0.050627896002382045,0.0069767103852171886,0.011542773462887013,70.43584793760007,2.096843703989265,-64.57723623308638,0.008558547409189207
16786,1724813818285563871,-0.295958012342453,0.7798301577568054,0.1390483379364013,0.0329744555056095,-0.0609548427164554,0.7606465816497803,0.6454563736915588,0.0,0.0,0.0,0.4173821117201193,0.11090467434726253,-0.5850571471103432,1.339221284,0.016729361109827503,0.05216689563305597,-0.18265914635071195,15.179867413625395,12.569856047473511,-9.674720610563979,-0.05060631551976397,-0.12921043245375527,1.7375491208665217,-0.052684936528496706,0.008471495583677324,0.008232176282469084,89.6918642640836,-9.76942517237023,-35.31609088512809,0.02067145940704678
16788,1724813818296594065,-0.2963315844535827,0.7799198627471924,0.1390415132045745,0.0332036688923835,-0.0601467490196228,0.7604762315750122,0.6457211375236511,0.0,0.0,0.0,0.8857746938784878,-0.10207261640590803,-0.35216009365552303,1.350251478,0.13481301314593688,0.0648692642801996,-0.06381816329490496,-1.2250563538379708,-5.0431495856277735,5.320533413232347,-0.04902357857830706,-0.12853085634408631,1.7368043028086564,-0.0340633768084988,0.007372115218281294,0.0004790626898607542,-3.5358058597053734,-9.614989270187754,24.592540658489664,0.013425828047962366
16790,1724813818306433715,-0.2966684699058532,0.7799857258796692,0.1390558630228042,0.0334249250590801,-0.0601938776671886,0.7602866888046265,0.6459286212921143,0.0,0.0,0.0,0.44721025471640496,-0.111594285786692,-0.07964924335538938,1.360091128,0.018037219526287653,-0.03912863994547285,-0.059335696447522755,-1.7224826111599372,-5.797309482006128,2.846528648627401,-0.048773052682090104,-0.12894396656473966,1.7362354276301197,-0.032391345458528065,0.006346667914407078,9.25800356652573e-05,-301.8739119207604,53.731461809040226,20.66400187696451,0.012326584945304033
16792,1724813818315900533,-0.2969582974910736,0.7800426483154297,0.1390442997217178,0.0338976643979549,-0.0600079596042633,0.7602729201316833,0.6459373831748962,0.0,0.0,0.0,-4.7541178033139975,0.8952776770054947,0.051932362973479404,1.369557946,0.09413622248790501,-0.05054717091279045,-0.010610837565963512,5.871871524735597,-0.806287180590594,4.119526648255304,-0.04787184391956054,-0.1294267630012244,1.736157421647073,-0.025632168646176234,0.005223021324036736,-0.0010291498812414757,793.283975618466,1454.3685066654875,-2064.3794996544457,0.010720918721820839
16794,1724813818352091283,-0.2971965372562408,0.7801223993301392,0.1390336602926254,0.0343178063631057,-0.0601962506771087,0.7602224946022034,0.6459569931030273,0.0,0.0,0.0,209.72464871645434,240.03235891696943,-362.1973025881837,1.405748696,0.006882539535425445,-0.024402885128618896,-0.0036644648899342696,-2439.5368791967708,-2574.737145713085,-6825.574512563932,-0.04761096096678084,-0.13031523873686907,1.7360662891146568,-0.9542202981042465,0.1779105261261975,0.02442900256869507,394670.90766206523,-145922.13182600331,84002.8018894305,0.003190796364710884
16796,1724813818352400911,-0.297494500875473,0.7801779508590698,0.1390412896871566,0.0343597084283828,-0.0603565983474254,0.7599974870681763,0.6462045311927795,0.0,0.0,0.0,332.95559903395156,194.44672874899305,-335.9386440853247,1.406058324,-0.7549223454906554,-0.8284360047732057,-2.135134943421584,1998.405962216096,-5118.814960546347,-1663.0371316521373,-0.04775967036661605,-0.1306029676904466,1.7354126215672252,-0.8886601441942616,0.25285447243436465,-0.08867874993563873,359475.1117593581,-186694.58345347267,145391.880225282,0.33504729202519506
16798,1724813818352712177,-0.2977480590343475,0.7802796363830566,0.1389782279729843,0.0348760187625885,-0.0605247542262077,0.759889543056488,0.6462880373001099,0.0,0.0,0.0,432.7940579318848,123.98517471678817,-271.72535583842523,1.40636959,1.262326455814473,-3.2109284505730584,-1.0190852177414882,5837.99303356294,-6839.20558070564,3273.3112402702045,-0.04733123054733208,-0.13161635959056,1.7351408859102788,-0.7470920066367093,0.2984849885393359,-0.18405683684978147,282132.7487696997,-211168.44732191123,196892.07071099596,0.42502729319393356
16800,1724813818355688889,-0.2980501055717468,0.7803654074668884,0.138958141207695,0.0356366746127605,-0.0604843273758888,0.7597442269325256,0.6464211940765381,0.0,0.0,0.0,173.3141873496573,-71.8349693064458,46.63112795945185,1.409346302,0.3419098094565525,-0.368793355462357,-0.16296433817663342,-246.78841361884594,746.4851550231377,223.84151388212177,-0.04625586903898641,-0.13273564738127397,1.734703907146773,-0.08563107057440877,0.02387526927365613,-0.005255691395543938,-71270.0976324157,-49376.786521724214,81793.4298384878,0.04369637642136424
16802,1724813818365904960,-0.2983695864677429,0.7804361581802368,0.1389567703008651,0.035880509763956,-0.0605807863175869,0.7593691349029541,0.6468393206596375,0.0,0.0,0.0,2.687523504604539,-1.0081206817704458,0.24426610005078564,1.419562373,0.0091519049546391,-0.046139534501431816,-0.11187225000156226,-14.536152452972484,16.921015455866613,5.037580022165601,-0.04601254137134748,-0.13325922597126258,1.733574043392596,-0.029471390185623392,0.005881204434082576,6.080492968418838e-05,-8935.232918856535,3688.9988504133157,-2400.5978722077257,0.011778532213764107
16804,1724813818377305362,-0.2986826598644256,0.7804899215698242,0.1389599442481994,0.0363400019705295,-0.0604008547961711,0.7591870427131653,0.6470442414283752,0.0,0.0,0.0,-0.37135923375505975,-0.22087301891483876,0.10137085647795878,1.430962775,0.07288657379353158,-0.03976293390588101,-0.053978329731270015,14.47999388568645,2.369695668122046,4.511991309568707,-0.04510182142617112,-0.1337400998720486,1.732974660750382,-0.03457720072225712,0.0039708149622299516,-0.0006675131743474338,-114.3145616351294,34.557937916225484,7.443315006687618,0.00904418475220794
16806,1724813818385514669,-0.2990085780620575,0.780518114566803,0.1389488726854324,0.037023801356554,-0.059662003070116,0.7591918706893921,0.6470682621002197,0.0,0.0,0.0,-0.3994475331180387,-0.14109971505128444,0.2805712398279003,1.439172082,0.24430656925257413,-0.009607525042945268,-0.020285319872204537,4.3483550976645,1.9617420449040417,0.5670507397700595,-0.04307430488517129,-0.133826216882594,1.7328101758054788,-0.03717355972671221,0.0018425157767261169,0.0011415721332124207,-5.734608909985063,19.103427882993774,-0.21122581754370784,0.009525804916940914
16808,1724813818396573833,-0.2993820309638977,0.7805147767066956,0.1389985978603363,0.0372669994831085,-0.0595028661191463,0.7589655518531799,0.6473343968391418,0.0,0.0,0.0,-0.4973287317289481,0.21000419790238314,-0.05012663317291498,1.450231246,0.04608401029034281,-0.013411976234677816,-0.06671256680168226,-24.18049984043779,5.887513163223436,-11.22245155142586,-0.042466203390339935,-0.13400595237280372,1.7320728069988995,-0.042830320611894734,0.002042380850120651,0.0051413538907922884,29.00976276059488,18.096770850308754,-34.53221782903188,0.005679390547234022
16810,1724813818405640368,-0.2998377084732055,0.7805507183074951,0.139050006866455,0.0363850258290767,-0.0599680580198764,0.7582725286483765,0.6481533646583557,0.0,0.0,0.0,0.04710359287472499,0.27261212358222003,-0.3976257695445182,1.459297781,-0.2196547746816482,0.0862858720924832,-0.2206730254846163,-1.0698220048493678,3.812424348675841,-1.7287240892754756,-0.04418439348727974,-0.13331104112035239,1.730021866763059,-0.04723403584492303,0.005373008385603839,0.0016260116949444736,42.32410597612271,-2.3413656289797355,-11.62343216809585,0.012531076775734971
16812,1724813818415674546,-0.3002780675888061,0.780620276927948,0.139021411538124,0.0365059897303581,-0.0594933629035949,0.758082389831543,0.6484126448631287,0.0,0.0,0.0,0.2749595254498003,0.14643239103147498,-0.21770430251353537,1.469331959,0.08321862602601306,0.04476339927526661,-0.06863939122897893,17.56919708174031,-4.826865742740672,8.440076704985055,-0.04325460333214049,-0.13289240350672493,1.7293078040357297,-0.04084443426620332,0.007056329910554382,-0.0024737606453628658,-5.024793940756799,-7.275011839018508,33.988190614439716,0.013273552413837073
16814,1724813818426866748,-0.3006972372531891,0.7807008028030396,0.1389984190464019,0.0370450764894485,-0.0590271614491939,0.7579089403152466,0.6486274003982544,0.0,0.0,0.0,-0.12749138477923738,0.13117328904369363,0.3631560069691946,1.480524161,0.12237284952316665,-0.01785826914926244,-0.057961869989730054,4.692625574956425,-3.8873256775972744,-1.6113732027096397,-0.041799400420983415,-0.13311967527227678,1.728662461824341,-0.042283998830932035,0.008428994836251036,-0.0025274737353750965,-7.365047394807433,-4.244243107221564,19.03758401239991,0.0126055972109957
16816,1724813818435455210,-0.3010922372341156,0.7807813286781311,0.138973593711853,0.0376727320253849,-0.058569349348545,0.7576984763145447,0.6488786339759827,0.0,0.0,0.0,-0.002304301239510753,0.07573550387455535,0.31009018838104146,1.489112623,0.1705461124550496,-0.03998930645790813,-0.0887081531619687,-5.254619672281525,-3.16496664473087,-5.432715738728408,-0.04023448021693506,-0.13349408128916568,1.7279086870863005,-0.04337150179561711,0.009611778514578617,0.0030164689619436302,-1.9028754773974015,-6.765413229439715,-34.46143722536376,0.015925637256615287
16818,1724813818446929746,-0.3015497326850891,0.7808952331542969,0.1390987634658813,0.0378943420946598,-0.0590928718447685,0.756992518901825,0.649641752243042,0.0,0.0,0.0,-0.2767704358047647,-0.006654563504264854,-0.518925351984095,1.500587159,-0.05629340916057884,-0.08532217391340688,-0.1794497423976847,0.9237128766861709,-0.534927758497945,5.6779764252375555,-0.04060834574921028,-0.13455551865401974,1.7258725323498716,-0.04149207018335943,0.009530592605401011,0.001432465568374397,-6.278762959362342,-12.017961045564492,-11.15836879296773,0.01728486469071222
16820,1724813818456397859,-0.3019552528858185,0.7809823751449585,0.1390382945537567,0.0384790375828743,-0.0588763169944286,0.7569527626037598,0.6496734023094177,0.0,0.0,0.0,-0.19839901390378456,-0.15823672175209458,-0.14730721267470415,1.510055272,0.11411446628537837,-0.0637008205173647,-0.019548510614783757,10.746538575050437,5.776219260497218,5.055604834278286,-0.03950608261761587,-0.1351655793458452,1.7257103159347318,-0.04755446765688731,0.009470873547776648,-0.0064564169833953855,-9.322152074729352,-3.7222850628937305,56.97046911136694,0.0146981545139769
16822,1724813818465455213,-0.3024269044399261,0.7810704708099365,0.1389792114496231,0.0388719141483306,-0.0582979992032051,0.7567710280418396,0.6499138474464417,0.0,0.0,0.0,-0.43532292845085174,-0.08548704513025246,0.5222368405979074,1.519112626,0.1486192867269059,0.0188779722035321,-0.07628231360187776,-0.4673968154962074,5.155712130049189,-4.677762863197076,-0.038065244469949355,-0.13502151557201103,1.7250068892733879,-0.0455226564570399,0.006721288721497132,-0.0018477242267800342,-18.112895568952027,14.324986016057158,26.290212196324738,0.016571177726872634
16824,1724813818479470688,-0.3029228448867798,0.7810994982719421,0.1390547156333923,0.0391126945614814,-0.0579834319651126,0.7563029527664185,0.650472104549408,0.0,0.0,0.0,-0.5146996819677714,0.251762666630017,-0.14233434087319452,1.533128101,0.049310283475569386,0.005219409748098005,-0.10744498518587549,19.285892117077687,-1.2877093920990317,6.862170938319345,-0.03716934503564728,-0.13500503764390012,1.7234853814648072,-0.06593023542376386,0.010252978673662483,0.0057623430778086515,85.78708891368932,-7.527652235552559,-34.79545690059672,0.008086462062179448
16826,1724813818485752290,-0.3034229874610901,0.7811869382858276,0.1390919685363769,0.039628580212593,-0.0574050545692443,0.7562676668167114,0.6505332589149475,0.0,0.0,0.0,0.28164647143823496,0.11553901868194394,-0.3253715604474603,1.539409703,0.24470185949677672,-0.0037511666262339226,-0.038760326482940095,16.229084872725025,-3.1678384310012557,8.955764846243538,-0.0355992903942463,-0.13503745209881035,1.723240768687259,-0.06651306996479533,0.011833825499465433,0.002938864033166677,73.41109543042488,-13.842514864477796,-10.014296977298445,0.026412369659984964
16828,1724813818497938744,-0.3039236664772033,0.7812818288803101,0.1390570551156997,0.0403648354113101,-0.0573233813047409,0.7563725709915161,0.6503731608390808,0.0,0.0,0.0,-0.08534741942171431,0.13228666932403188,0.004727018238183833,1.551596157,0.09077157839718858,-0.08348746266428365,0.023603139622761945,-16.972616292145275,6.347284696884317,-13.827951708689952,-0.03453717217476609,-0.13604414896833117,1.72356682830458,-0.054228502442860815,0.01002359261128305,0.001908003235296718,-0.9391431088400868,3.6109369150049435,2.2504880194966947,0.013430613924236863
16830,1724813818507095065,-0.304510623216629,0.7813889980316162,0.1391073614358902,0.0399254336953163,-0.0574189536273479,0.7556641697883606,0.6512148380279541,0.0,0.0,0.0,0.10677173169737308,0.18073689551976457,-0.14553495447309928,1.560752478,-0.09450203411576559,0.0633108027873667,-0.23334719605127063,-1.4104435116664509,-10.38018771070696,-1.4891229391787977,-0.03510795628038727,-0.13553920320124155,1.721391386939657,-0.06253214039212907,0.013166865733253985,0.00256575766692535,38.28319082975255,-13.198149025218758,-10.288144745845884,0.021737278159613682
16832,1724813818515552686,-0.3050272166728973,0.7815117835998535,0.1391061842441558,0.0407842136919498,-0.0579182803630828,0.7555291056632996,0.6512741446495056,0.0,0.0,0.0,0.565716415509615,-0.07533319284047624,-0.18471704224099245,1.569210099,0.04062699661690588,-0.23082269166202116,-0.038343185060103875,9.666954422334047,-14.117524546118815,10.678920665811475,-0.03472919008845645,-0.1375015514808226,1.7211330843056654,-0.05371025724763534,0.013425566728777483,-0.0003632761272758245,5.2767210708886,-20.395699008666373,6.5160784977205095,0.023261145504231487
16834,1724813818527662834,-0.3055498600006103,0.7816554307937622,0.1390978991985321,0.0412171483039855,-0.0578385964035987,0.7550473809242249,0.6518123745918274,0.0,0.0,0.0,-0.2198249278237392,-0.15098841121265383,0.08751511640814554,1.581320247,0.048275333432560255,-0.04354562961355133,-0.12364967467469083,3.651446075672067,9.953346397034492,-5.4665078350411775,-0.03393955362380725,-0.1380799814112044,1.719640462078532,-0.05513667359668162,0.010676591879239083,0.0002019591918571706,-21.05274112465079,-4.713519897564129,1.6932248494426,0.017863878960319258
16836,1724813818536675400,-0.30612713098526,0.7817437052726746,0.1391056627035141,0.0415261089801788,-0.0574362687766552,0.7545983791351318,0.652347981929779,0.0,0.0,0.0,-0.11569317248590227,-0.18318208544480788,-0.03664543648846394,1.590332813,0.10143947298855764,0.009194801976353216,-0.16233478665018242,0.14768266091664406,3.3053199076981334,-3.0903982680708157,-0.03282176120804794,-0.1380459693942696,1.7181612546124057,-0.057802259756790875,0.009825615153552292,0.001264624933248193,-1.314180010534244,-2.5545730602638868,-11.650398073668494,0.019030199327955365
16838,1724813818548600373,-0.3067178130149841,0.7818613648414612,0.139127105474472,0.0415983237326145,-0.057302787899971,0.753903329372406,0.6531583070755005,0.0,0.0,0.0,-0.33440660352320695,-0.19759042530610266,-0.14203123086890207,1.602257786,0.012455019548093704,0.008429735826834634,-0.18022263680619036,-5.009609609675189,-0.1746116294815357,3.28138993300637,-0.03237439429561644,-0.13801555641146443,1.7159893999708025,-0.056340657221515045,0.006240657047051457,-0.0016110170795400336,-0.4533533281226063,20.40819279071991,20.59475473606651,0.01701587194837439
16840,1724813818556921403,-0.307226151227951,0.7818922400474548,0.1390939056873321,0.0415675453841686,-0.0573109202086925,0.7535606026649475,0.6535548567771912,0.0,0.0,0.0,-0.2343197896494531,0.09773752634612948,0.20022921722881573,1.610578816,-0.014990718042906378,0.006335456376891966,-0.12515589075284397,-2.3868383630723566,-8.546246581762786,7.552135807465451,-0.03235432556695644,-0.1379965519339577,1.714936706727423,-0.06177657119843616,0.005194753499651483,-0.002217385239919878,42.66041011290143,26.008014933887708,26.283523554195465,0.011780041927015861
16842,1724813818565442977,-0.3077585697174072,0.7819494605064392,0.1390904784202575,0.0419500656425952,-0.0577762089669704,0.7533825635910034,0.6536946892738342,0.0,0.0,0.0,0.3965400662436651,0.23660261942756722,0.29462444316501907,1.61910039,-0.027375548508285854,-0.13887825006894008,-0.052645729145163966,4.781465849910386,-3.8140884246813003,2.391073607141484,-0.03253041744203564,-0.1391939420574242,1.7145227334182231,-0.060117150147704024,0.007977507111284865,0.0018722218375328836,38.38636575776977,10.749443154320847,-25.160636802037708,0.015387893116678451
16844,1724813818575421129,-0.3083308339118957,0.7820438146591187,0.1391357332468032,0.0423670448362827,-0.0574780292809009,0.7530775666236877,0.6540454626083374,0.0,0.0,0.0,0.36310491369826137,0.27906128474635034,-0.3798243063273108,1.629078542,0.09318036602910112,-0.02239987244067223,-0.10026737339730729,7.48783396887128,6.3361988668655,-1.4944360054551344,-0.031461427509682366,-0.13944934947965693,1.7135202449210327,-0.0538025452377493,0.00928739966932568,0.0026471830209322533,-21.370842556503153,12.280470051920611,-65.8943642813197,0.017977988960367775
16846,1724813818585568987,-0.3088401854038238,0.7821363210678101,0.1391431093215942,0.0428452491760253,-0.0570390000939369,0.7528392672538757,0.6543270945549011,0.0,0.0,0.0,-0.039737942648466085,0.4865065315352016,-1.030984904792814,1.6392264,0.12175210156484478,-0.01318274332377612,-0.08160065599266789,4.477578077550107,1.2942038542207293,5.570446589882547,-0.03011024490210805,-0.13960856463684432,1.712688693982531,-0.05290162796034181,0.01364448395000295,-0.005928724044943934,-21.222781038324438,1.1341856505147465,-16.699650086035938,0.016066657401906347
16848,1724813818595458164,-0.3093894422054291,0.7823148965835571,0.1390203386545181,0.0434191487729549,-0.0563525110483169,0.7529215216636658,0.6542540192604065,0.0,0.0,0.0,-0.0715728990010529,0.3116489519465,-0.7386807295391323,1.649115577,0.1820488407471149,0.003335019605426179,0.009442198628782858,-1.05271877708062,2.2986267043762907,4.6988114883646706,-0.0283229070884539,-0.13957285571609102,1.7127818692111638,-0.0545331334250605,0.019006359453264565,-0.017915751153646298,11.688456417798612,-16.006345730428844,56.60785982670262,0.02375814231491481
16850,1724813818605490390,-0.3099262714385986,0.7825152277946472,0.1387846171855926,0.0436162576079368,-0.0558743849396705,0.7529916167259216,0.6542012691497803,0.0,0.0,0.0,0.1974083979818677,0.16812045334377967,0.10451797050883471,1.659147803,0.09872008115827947,0.032790192539880504,0.01070734716845633,-1.6547719425356382,-0.10412298337299392,-4.00172072994489,-0.027346307970070805,-0.13924103954599623,1.7128810858440904,-0.05430054397861106,0.019786532115340094,-0.02050784626095492,16.713587673353125,-5.420219889857712,62.33734102135209,0.023819250102352255
16852,1724813818615686355,-0.3104881048202514,0.7827150821685791,0.1386064887046814,0.0441389754414558,-0.0552786402404308,0.7527913451194763,0.6544473171234131,0.0,0.0,0.0,0.2631788399256698,0.20494159885430685,0.5151227929343235,1.669343768,0.15077173954576342,0.00022508374499786394,-0.07286817722198831,3.8855596015741414,-6.5616257484852,-1.2151113645017797,-0.025704943386333313,-0.13925846142690415,1.7121311422089693,-0.05048239846141378,0.022436962440103514,-0.01568173179573762,-8.932393551612376,-5.881035895660485,-11.52505725691929,0.024479948121567393
16854,1724813818625716371,-0.3109488487243652,0.7829681038856506,0.1384668499231338,0.0450997501611709,-0.0549284517765045,0.7527652978897095,0.6544412970542908,0.0,0.0,0.0,0.021806022703111605,0.05229559653118798,-0.11153641015653726,1.679373784,0.17771081256930227,-0.09881648686845936,-0.016167863301408042,-2.6400668498001005,1.2210984396902165,-3.302901623107928,-0.02390315477676506,-0.14025331646614753,1.7119923054601236,-0.048940855026074814,0.023949785253797984,-0.0101027386173973,-14.809916632040457,-13.991626254067391,-79.8110132114995,0.029184984406424683
16856,1724813818635556237,-0.3114594221115112,0.783191442489624,0.1384043097496032,0.045384045690298,-0.0544615164399147,0.752361536026001,0.6549246907234192,0.0,0.0,0.0,-0.03457881881494096,-0.07353267903502392,-1.0641835055172428,1.68921365,0.10032016793823074,0.02030850121580186,-0.1351227745193819,-0.7936337680772017,5.41797198441,5.805518720291844,-0.022727810734978912,-0.14008451704406244,1.7106450787779786,-0.049999434175921564,0.02351318703206573,-0.017646402855921117,-4.007775370416079,7.785508435247934,-38.83174417124941,0.02853014697866639
16858,1724813818645648641,-0.3119444847106933,0.783437192440033,0.138109341263771,0.0458792895078659,-0.0538389980792999,0.7527672052383423,0.6544753313064575,0.0,0.0,0.0,-0.057196896184970925,0.21800277748370256,-0.8558794355181333,1.699306054,0.165509304391249,0.005754498194145725,0.10870341567147769,5.461108561970774,1.737702183565049,8.208823267207359,-0.02121185676845481,-0.14000234963764138,1.7117514201889257,-0.04959274475853803,0.02246919383421897,-0.031466540614037086,-7.438340489025138,27.93101510773802,50.92746460377383,0.02648027248096552
16860,1724813818655884378,-0.3124679923057556,0.7836476564407349,0.1377640068531036,0.046360820531845,-0.0528428517282009,0.7529290914535522,0.6543363928794861,0.0,0.0,0.0,-0.18728690512018842,0.4939770491686166,-0.020178693966794947,1.709541791,0.21104619415734982,0.056550763045401,0.02714239160220182,8.903636150270025,-1.6929903101151065,-1.5662903920758824,-0.01908906505744612,-0.13941803797757923,1.712020194367527,-0.05119028727281716,0.028037580282465058,-0.034896597929076734,-14.670553285855581,-11.443359428787746,39.61946807227518,0.022600051951485615
16862,1724813818665755104,-0.3129737079143524,0.7839955687522888,0.1374085247516632,0.0475314930081367,-0.0516669265925884,0.7532461285591125,0.6539813280105591,0.0,0.0,0.0,-0.3507636705540742,0.015454033192096928,-0.02913924751221586,1.719412517,0.3413358030161185,-0.023513425922422743,0.07262060743487428,-2.9549658199182147,-0.40977368909140743,-8.915936596243965,-0.015821054781270896,-0.13963758536637763,1.7127480247953075,-0.05333604286807514,0.032437202022784106,-0.032098067432004385,-4.937136463299902,-32.164712002240556,-31.383260908425537,0.03671797083685734
16864,1724813818675664929,-0.3135231733322143,0.7842890620231628,0.13712939620018,0.0478772446513175,-0.0509077608585357,0.7528089880943298,0.654518723487854,0.0,0.0,0.0,-0.2840353606953139,-0.1409804049025023,-0.6433447276273796,1.729322342,0.15132958557854098,0.04904864858828684,-0.1502793379319913,-5.022750778554592,6.292775533693312,-5.674919634813796,-0.014111441947222858,-0.13917385538369217,1.7112369574679178,-0.0581390364873986,0.02830955666713919,-0.03549748591082391,19.987154007358676,18.88218886731537,-63.032857362843764,0.03282014041456294
16866,1724813818685634032,-0.3141297698020935,0.7845581769943237,0.1367020010948181,0.0482995249330997,-0.0496551170945167,0.7527696490287781,0.6546291708946228,0.0,0.0,0.0,0.048135518604256244,0.39493409609718855,-1.28229014222461,1.739291445,0.24317157805741968,0.10145779211941648,-0.03819088458540881,-4.757172318878913,-7.431531852064328,10.640424409953742,-0.011632289054622503,-0.1381673976070105,1.7108394332939556,-0.05895850378549916,0.0296674273394828,-0.044922780937345586,12.895181500825968,24.827886209583035,-26.42144155572534,0.02898372659293048
16868,1724813818696133859,-0.3147279322147369,0.7848992347717285,0.136207640171051,0.0488771572709083,-0.0499207228422164,0.7529796957969666,0.654324471950531,0.0,0.0,0.0,-0.04234180084023986,0.33569515046626663,-1.1431130597033645,1.749791272,0.038732398928595674,-0.11689374791252774,0.06686149952254943,10.278482946221532,-7.514856999110059,11.504281751663344,-0.01132562359863164,-0.13938662556266923,1.7115624823437654,-0.057011726270548735,0.036675369502589206,-0.062111647758823274,-4.850707351563463,-25.567542955466322,70.0403455833925,0.03322284611648877
16870,1724813818705388059,-0.3152558803558349,0.7852728366851807,0.1355102658271789,0.0502462498843669,-0.0488873347640037,0.753609299659729,0.6535735130310059,0.0,0.0,0.0,-0.056511791427483526,-0.06343245758574056,-0.03178624762733184,1.759045472,0.3764963063846586,-0.07811436884275653,0.18555182928781308,10.202877984010234,11.971479433171544,-4.04088784394666,-0.008083949430055611,-0.14009281063715653,1.713303500634655,-0.0592611917263568,0.037076182373077415,-0.06866142712641032,-8.446402334806592,-7.800577004668693,57.15337609837728,0.03707086356189523
16872,1724813818715447771,-0.3158762156963348,0.785609781742096,0.1348927766084671,0.0504028163850307,-0.0477322787046432,0.7535580992698669,0.6537058353424072,0.0,0.0,0.0,-0.21710028947360804,0.24442803360102783,-0.14506110877480083,1.769105184,0.19158340821307773,0.1274033159397811,-0.03953868608068955,-7.740689774725583,9.343689371983608,-9.240383470109535,-0.006099570531134511,-0.13881401884635822,1.7128926575517973,-0.05778955138198505,0.03527078934349959,-0.06158915447800872,-27.692092577238693,22.542208200836484,-38.142594993999715,0.03299353321324872
16874,1724813818726705258,-0.3164779543876648,0.7860292196273804,0.1341968327760696,0.0508802682161331,-0.0463849194347858,0.753728449344635,0.6535695791244507,0.0,0.0,0.0,-0.6765986697369994,0.3966438731853623,-0.9131113630812315,1.780362671,0.23849468942671048,0.092928595243147,0.021911683982479464,10.111872549063587,2.5759269053069325,4.522145679674887,-0.003448355197764343,-0.13776673712301488,1.713136850446607,-0.06481150756314946,0.043362620597051205,-0.07390631705938588,25.506287988029037,-27.939478521561146,23.26642251788499,0.03555333727657963
16876,1724813818735762010,-0.3171477019786834,0.7864664196968079,0.1334394216537475,0.0514364652335643,-0.04465764015913,0.7540076375007629,0.6533241271972656,0.0,0.0,0.0,0.03765386909377577,-0.15849024248859567,-0.035759333976097096,1.789419423,0.3733903193189882,0.15734019748827824,0.056044241796605526,11.513806940068656,-2.25434612409384,1.1930506119911757,-0.00013630087110457262,-0.13634081280780322,1.7136464698399667,-0.071324298172593,0.04460765141853784,-0.0808571895228738,49.61040505768606,-32.19506280370848,73.2475796786469,0.04640164482042655
16878,1724813818745505042,-0.3178150951862335,0.7868626117706299,0.1326806843280792,0.0527234748005867,-0.0428958944976329,0.7542425394058228,0.653068482875824,0.0,0.0,0.0,0.21439250062607274,-0.16716157431276413,0.4302718344807013,1.799162455,0.45013578753983813,0.0372044257120306,0.040671543182337476,7.698379972801444,-11.201706661732167,-3.9099538857491147,0.004194998524929032,-0.13597915116027207,1.7140473041508344,-0.0630255666091184,0.03996142433483385,-0.07353620302847297,-27.61944154229522,20.680941846139014,-30.074358077909213,0.039008180192600564
16880,1724813818756093075,-0.3184194266796112,0.7872776389122009,0.1319520026445388,0.054833672940731,-0.0410099066793918,0.7542453408241272,0.6530125141143799,0.0,0.0,0.0,-0.6045658665284406,0.3000111168340087,-0.7845748455340447,1.809750488,0.5295916958698021,-0.06841216499222776,-0.02756151765620869,1.7148699075345668,4.763724874770503,-12.788758536620358,0.009843071603598378,-0.13670141441931002,1.713747471751912,-0.06808933389402938,0.04175519590005905,-0.07267555936677983,-9.756483215412889,7.3820809172495085,-69.66570155384102,0.03711287621166566
16882,1724813818765465898,-0.319148987531662,0.7876902222633362,0.1312388479709625,0.056046575307846,-0.0388978719711303,0.7537516355514526,0.6536086797714233,0.0,0.0,0.0,-0.1352028578004938,0.06436194241199034,-1.0635728292170255,1.819123311,0.4976293700785302,0.09852659331718729,-0.20006833028725649,-23.13061271787751,6.0640183447030385,-4.308549044626373,0.014762743768641085,-0.1357549657036712,1.7118665167235936,-0.07480384450961708,0.04565071412871902,-0.08721334975404105,28.45363458786869,-18.630765765496363,11.846449302614385,0.0437268264443268
16884,1724813818776200399,-0.3199146687984466,0.788200318813324,0.1301658749580383,0.0560082904994487,-0.0387806594371795,0.753502607345581,0.6539059281349182,0.0,0.0,0.0,-0.09560520119183069,-0.05558397094614165,-0.42481497048629047,1.829857812,0.006889828608101578,0.019204156244836255,-0.07301664055934153,-10.934694553051715,0.5707310532490633,5.475710188476853,0.01494324759373888,-0.13553718818962376,1.7110785433245776,-0.06911017627174587,0.04202325891397152,-0.0926371315658594,-14.234734823886484,14.628402555567817,12.687620940345674,0.04299671017320429
16886,1724813818787264456,-0.3206540048122406,0.7886025905609131,0.1292243897914886,0.0565637573599815,-0.0371558256447315,0.7532907724380493,0.6541965007781982,0.0,0.0,0.0,-0.457494524426715,0.4005076676227195,-0.818332648954434,1.840921869,0.2825455432262782,0.11629491950231345,-0.08496212200703815,17.165926788740116,-1.8175641477681999,3.030646425150362,0.01819401131060877,-0.1342351039429769,1.7101515972850658,-0.0773068467726965,0.044628014617494216,-0.09641986310506745,2.170273404421053,9.300525490611527,-8.334851492886436,0.033492278239397315
16888,1724813818795795387,-0.321382462978363,0.7890377044677734,0.128327339887619,0.0575236417353153,-0.0358465984463691,0.7532677054405212,0.6542124152183533,0.0,0.0,0.0,-0.209555278212461,0.26987240374611754,-0.7103085722448137,1.8494528,0.37801841631977023,0.031111813577753538,-0.03207121381004631,10.407021069588946,1.1796616476719786,7.177408660857438,0.02145505567065264,-0.13396432041764209,1.7098808894236743,-0.07934593576261406,0.04913059308920964,-0.10653490654449094,30.038685473542564,-29.959482979532392,75.99771471916489,0.0477466997666803
16890,1724813818805855009,-0.3221089541912079,0.7895097136497498,0.127239242196083,0.0584072656929492,-0.0334905833005905,0.7535715103149414,0.653908908367157,0.0,0.0,0.0,0.1041896909023361,-0.2052472880205065,0.8054959365602175,1.859512422,0.47340488082434945,0.17541916431943516,0.05172626678815751,0.7086345867392012,14.624200539262137,0.5968307547654168,0.02614206639959694,-0.13221253041183564,1.7104479382208628,-0.08110442893526937,0.04878587231273457,-0.10804124588409003,53.34235125608433,-38.31014268823052,140.4235148359533,0.04176468171264506
16892,1724813818815635803,-0.3229867219924927,0.7900046110153198,0.1261836886405944,0.0584955811500549,-0.030996361747384,0.7536748647689819,0.6539050340652466,0.0,0.0,0.0,0.8365961719818245,-0.49512224440253627,2.081393832013255,1.869293216,0.39690279856450333,0.3211086092017992,-0.01597711502145577,-14.832881888256274,-9.172175676187038,1.9379076973536584,0.03003303865222207,-0.12906870751238486,1.7103795425369548,-0.07743219697067971,0.045152427865396305,-0.09107884328805493,28.1878962820807,1.6053053244422415,33.71996198727696,0.048181672109050326
16894,1724813818826132095,-0.3236607909202575,0.7904171943664551,0.125417411327362,0.0592183656990528,-0.0305453836917877,0.7540440559387207,0.6534352898597717,0.0,0.0,0.0,0.6064948307108788,-0.12635326644981681,1.3457562662548637,1.879789508,0.1622372593182259,-0.04626625015920316,0.10416372756545053,-1.0725744169711113,-11.739082359495322,-6.31820624795609,0.03159574498102217,-0.1295877665222052,1.7114663208338536,-0.06345666617244916,0.03856284424419698,-0.06532172202271536,-23.0719863946909,25.447948506662083,-65.28584223991602,0.038087419589023765
16896,1724813818835850236,-0.3242706060409546,0.7907852530479431,0.1248517334461212,0.0601463839411735,-0.0290983039885759,0.7537361979484558,0.653771698474884,0.0,0.0,0.0,0.371932201121588,0.0338081440243605,0.7544847618164181,1.889507649,0.3433242034422966,0.04894993584051227,-0.11707435815870633,-4.320319842554126,5.911962450906036,-2.9594958831710394,0.0350780488738008,-0.12907441131027086,1.7103356570375754,-0.06408578583008406,0.041846791913343395,-0.06221442603823846,10.297912912216695,-20.592352397527566,4.958515668671353,0.038356003856338076
16898,1724813818845393740,-0.3248947262763977,0.7912218570709229,0.1242204457521438,0.0601640865206718,-0.0285819750279188,0.7538937330245972,0.6536113023757935,0.0,0.0,0.0,0.7929305669522173,-0.5101635524057238,1.4184895116336345,1.899051153,0.08696607075458744,0.06895289137815906,0.040303411670455244,-12.34047914676179,0.7312390753882949,5.304115422718101,0.03585522751435613,-0.1284304316435158,1.7107469409255056,-0.05644378683664186,0.03931930846106724,-0.0509395844550653,22.448247957170665,-38.51088684313928,34.570231483510106,0.04550372115581448
16900,1724813818856365288,-0.3254010677337646,0.7915721535682678,0.1238533928990364,0.0604066886007785,-0.0277963932603597,0.7537814974784851,0.6537520885467529,0.0,0.0,0.0,0.7659514335154225,-0.6994898935585556,1.3562331704678818,1.910022701,0.13473658374043052,0.05976191000968478,-0.04260002134208928,2.0164393606390787,7.767531213184548,-0.9608440244542245,0.0373905562839859,-0.12775805219448433,1.7103000188892294,-0.04784279018237925,0.030627666497998973,-0.03238627576369346,14.967569872262288,-8.370601508179579,-2.7350277012263575,0.03346232817083946
16902,1724813818865841910,-0.3258683085441589,0.7918517589569092,0.1235552281141281,0.0600957088172435,-0.0266845505684614,0.7538641691207886,0.6537318229675293,0.0,0.0,0.0,1.0504367233171543,-0.706083519661933,1.3543737903989697,1.919499323,0.1347114860743013,0.20380909970356578,0.002280128630341053,-1.3518238818631767,4.214593131001854,0.9002870943566921,0.038655058454518186,-0.12582885954001563,1.710395894879568,-0.04073137249077163,0.024757719568953007,-0.022274276768625256,32.59653813819025,0.3868259141812658,-8.76042556999834,0.03184451365974793
16904,1724813818875966786,-0.3261879682540893,0.7920510768890381,0.1234291046857833,0.0599648393690586,-0.0258467718958854,0.7538174986839294,0.6538313031196594,0.0,0.0,0.0,1.408347578172271,-0.6904559141905172,1.1730323549131434,1.929624199,0.10642976567575076,0.12764408311802253,-0.03009600962000801,-7.4348821495186055,-2.7004693135626123,-6.638198516828293,0.039764586423452174,-0.12452552617272372,1.710140060621303,-0.026850374665034593,0.01667116001762281,-0.005453257565760872,14.95575885943262,11.6907030840465,-43.536141426564896,0.022148157943646198
16906,1724813818885525032,-0.3264020085334778,0.7921832203865051,0.1234401762485504,0.0594362244009971,-0.0253803730010986,0.7534686923027039,0.6542996764183044,0.0,0.0,0.0,1.3672776241966398,-0.4871516416902117,0.5256745249396565,1.939182445,-0.006517265562833029,0.14534366019333383,-0.12459044546785647,-7.274467516254381,-2.5687679902014677,-1.0765830096603595,0.03984348963754559,-0.12308999864319035,1.7089966013284787,-0.01305185801937192,0.011048174870445848,0.00135257415798673,-20.739624251393437,19.345846058499482,-52.248892156964956,0.01679345064964083
16908,1724813818896433943,-0.326428085565567,0.7922691702842712,0.1234573498368263,0.0590792968869209,-0.0252699516713619,0.7533896565437317,0.6544272899627686,0.0,0.0,0.0,0.936310669935845,-0.3000665812424613,0.14841368729257587,1.950091356,-0.029320867381597424,0.06228369446716823,-0.02665159803389301,-6.387818599517556,-5.308386872621419,0.006881472611515171,0.039556143824456026,-0.1223995500375812,1.7087310807143394,0.0009131018293402349,0.006993051620092672,0.00476680750981906,-40.65303264342955,4.729655425090762,-35.69376594651587,0.008264081628859263
16910,1724813818905514139,-0.3263948261737823,0.7923259735107422,0.1235247626900672,0.0586263835430145,-0.0255607962608337,0.7531037330627441,0.6547857522964478,0.0,0.0,0.0,0.5585035145774709,-0.35099189970810724,-0.18408932172046555,1.959171552,-0.11980383084040899,0.031508077523705734,-0.09439222481379259,1.7221697490522792,-3.7208389411400344,-1.25204298941602,0.038572146552957196,-0.12208019970753635,1.7078794882615076,0.00681629285355001,0.004809991028587035,0.004870660561548057,-34.66105159840508,-4.371298474058268,-22.43966236991248,0.006558194119651581
16912,1724813818915482771,-0.3262923657894134,0.7923581004142761,0.1235453709959983,0.0587483830749988,-0.0254846401512622,0.752977192401886,0.6549233198165894,0.0,0.0,0.0,0.28900564194711625,-0.38102899566857046,-0.25260910183714863,1.969140184,0.025266744623374585,-0.00921182634374485,-0.03893067719879066,5.333910478777488,-2.772691349948175,2.922899316621522,0.03887205246956822,-0.12215693953924599,1.707485227476232,0.01138118979494962,0.00010098341749653628,0.0008956992426218946,-24.137014865362513,6.6229055752465715,7.070808105732396,0.0020307375897949675
16914,1724813818925830076,-0.3261627554893493,0.7923256158828735,0.1235420554876327,0.0587831474840641,-0.0256263352930545,0.7528419494628906,0.6550701260566711,0.0,0.0,0.0,0.07037358766178176,-0.20900492111980348,-0.029677952560216787,1.979487489,-0.018554867129299362,-0.023809148292398667,-0.03704870071147495,-2.9045821119296797,-2.8606408316789698,0.6184540065315676,0.038728306884139446,-0.12238824316929904,1.7070896439308045,0.01255735219474019,-0.002860469738379834,-0.00014855103257449542,-21.448927274626637,15.199921026231149,13.966549260663188,-0.004815356998238133
16916,1724813818937407895,-0.3260169625282287,0.7922961115837097,0.1235425621271133,0.05898417532444,-0.0260575041174888,0.7527190446853638,0.6551763415336609,0.0,0.0,0.0,-0.182097945131927,-0.05148457192771949,0.033849843773236285,1.991065308,-0.03494750171613421,-0.07571215678116903,-0.024232692031385894,-3.4796149569594115,-0.38993474530440553,1.305847421157043,0.03836247162649562,-0.1232533727777055,1.7067732131393354,0.012811253972561332,-0.004280186138871045,0.00043076033909450473,5.7468263767630425,-14.066654814184908,-53.63324241296322,-0.00419434988966898
16918,1724813818946015104,-0.325905293226242,0.7922481894493103,0.1235487461090087,0.0589365512132644,-0.0264566261321306,0.7526636719703674,0.6552280783653259,0.0,0.0,0.0,0.043674076019836916,-0.349626630169953,-0.806080939876267,1.999672517,-0.07810277677736731,-0.05287793223932859,-0.011720255190166395,-2.6329004000192007,2.4732757632651117,1.1223571130412964,0.037704875242407954,-0.12370431222028566,1.706653978154352,0.009938366558282397,-0.004268119408388671,0.0006185391836390775,1.46744755739158,-1.3028387864953466,-32.840181913363814,-0.007129328420472125
16920,1724813818967998469,-0.3258572518825531,0.7922273278236389,0.1235567331314086,0.0589927285909652,-0.0265338812023401,0.7526167631149292,0.6552738547325134,0.0,0.0,0.0,-1.3144398704572922,1.4934356805004967,2.107179760014077,2.021655882,-0.002299651654187913,-0.008593399646307343,-0.005651848504625586,1001.5549969669764,-646.1264929752633,-391.55790737802164,0.03767065994862809,-0.1238884206117881,1.7065217869657552,0.03209118136237521,-0.03166326439941258,-0.06358572742840352,-280.6396781913709,263.9190238460769,421.15498129673597,-0.0011815748134220384
16922,1724813818968432532,-0.3258430659770965,0.7922133207321167,0.1235285848379135,0.0591045953333377,-0.0265014544129371,0.7525900602340698,0.655295729637146,0.0,0.0,0.0,-1.4381309375976707,1.6095365584917862,2.2924613206047226,2.022089945,0.4409926917941966,-0.29460796215408136,-0.17897090159803744,983.3194701410862,-634.3252579764232,-384.35765688274824,0.03787235072692972,-0.12401327009068541,1.706438657872923,0.03150072944122928,-0.030991539103074395,-0.06262798769346689,-274.09650488840674,256.3596579334462,408.9081776508295,-0.0441347259755996
16924,1724813818980081334,-0.3258453011512756,0.7922518849372864,0.1234931796789169,0.0592045485973358,-0.0263338033109903,0.7526480555534363,0.6552268862724304,0.0,0.0,0.0,-1.234593892310964,1.121085759898903,1.445595540713791,2.033738747,0.03387085118262876,0.006222195002115785,0.01326437855339754,-0.775172411232953,17.17421828352681,12.79454893942938,0.03824732206734507,-0.12394672624311416,1.706597077100205,-0.009585753465586322,0.007141968516449992,-0.009036162875066367,174.77059727773158,-156.38435903310892,-193.90389492271888,0.0029049501082462517
16926,1724813818985386582,-0.3259188532829284,0.7922990322113037,0.1234307512640953,0.0592421405017375,-0.0259880237281322,0.7527933120727539,0.655070424079895,0.0,0.0,0.0,0.0726680188673858,0.014888517652075245,0.12403586119479673,2.039043995,0.11233027645431774,0.0764338284330498,0.07218334747358085,7.1503199832200215,8.04164054987697,4.727214194721698,0.038793721764877484,-0.1235562774194121,1.7069984530725961,-0.0105964635983824,0.007888736881056957,-0.00899006514057632,171.6837782179124,-144.40726877639057,-164.64580655666208,0.009155388702385463
16928,1724813818995846250,-0.3259623050689697,0.7923609614372253,0.12339399009943,0.0591343939304351,-0.0256852786988019,0.7527799010276794,0.6551074981689453,0.0,0.0,0.0,0.3274380973970348,-0.1736391672028056,0.14359414592343944,2.049503663,0.029595196757066074,0.05346234628404374,-0.009910342925745386,-3.8909081442590594,-0.8485718707459937,-4.37871709240248,0.03911341272605551,-0.12299346435860212,1.7069160084157085,-0.004409103037479767,0.005448741709784599,-0.0053140136173635,-12.985757528967497,36.94919104210565,-47.346506597061676,0.005949973352796981
16930,1724813819006940639,-0.3260142207145691,0.7924158573150635,0.1233138591051101,0.0590092949569225,-0.0253209676593542,0.7527401447296143,0.6551786661148071,0.0,0.0,0.0,-0.25607101291891216,0.8831964736700879,-0.9608464314753746,2.060598052,0.033722114433834875,0.05990629865966671,-0.017657314652383044,0.10952543371881474,0.17029559923677026,-0.41652994783443054,0.039508451204880966,-0.12232165939436915,1.7067451334707409,-0.0038842846067042025,0.004224111589128832,-0.00616689573501028,73.85535123434549,86.18292833003031,-100.5664941034683,0.004613973160410879
16932,1724813819043878092,-0.3260599076747894,0.792482852935791,0.1232159063220024,0.0588565841317176,-0.0250562876462936,0.7527791857719421,0.6551576256752014,0.0,0.0,0.0,18.022675895640262,2.9504620640793178,-4.800588696886734,2.097535505,0.0054910410339404055,0.015709544816864807,0.0016062312957219724,1814.6093608430683,1936.5763513705472,-1760.0353590945658,0.03970118280359741,-0.12174417750126477,1.706827882840924,-0.050651716992547335,0.15903640161013755,-0.15036791363692714,21452.420740871043,-54567.14221123783,40421.535978815984,0.0016281449856279052
16934,1724813819044415307,-0.3260875046253204,0.7925695180892944,0.123133972287178,0.0588214434683322,-0.0246515441685915,0.7526342868804932,0.6553427577018738,0.0,0.0,0.0,29.710983884093853,-26.790606880481846,17.231100773473372,2.09807272,0.994510298468846,1.0712076295244253,-0.9576667589731999,892.0262736260732,2381.7430281738543,-662.2534423073763,0.04029538908327808,-0.12114862429808711,1.7063334175551208,-0.040818957772444264,0.16061173993807643,-0.15295386771853714,15285.494662609613,-56413.148587252195,43495.254139750556,0.14713039872661052
16936,1724813819044912405,-0.3261029422283172,0.7926490306854248,0.1230577379465103,0.0585315115749836,-0.0240543689578771,0.752550482749939,0.6554869413375854,0.0,0.0,0.0,34.332526771313574,-55.31716927217974,39.99523369367764,2.098569818,1.0014233874320606,2.4469702253924317,-0.7701395575551063,-171.77640619288377,1496.4742403982848,493.4474759505669,0.04083354075635506,-0.11991768521263055,1.7059975406508017,-0.020802376320560256,0.13362228231900986,-0.13424825802003326,2562.520733755622,-39839.58538847935,32802.89149196928,0.1431651440574909
16938,1724813819046117584,-0.3260980546474457,0.7927331328392029,0.1229517832398414,0.0583853423595428,-0.0237340480089187,0.7526378631591797,0.655411422252655,0.0,0.0,0.0,17.743406776979818,-52.06206659018708,41.570082104124985,2.099774997,0.25185934972959473,0.5364578311187144,0.16408480385750107,-558.1439990805161,-1417.5866366469195,687.3164664923042,0.04111015497172508,-0.11927981553512082,1.7062233490026164,0.003235070948232277,0.0639657330989003,-0.07913482834125651,-12471.359397120597,2947.4906465923714,755.2213387012519,0.057648263418796516
16940,1724813819056055121,-0.326133131980896,0.7928920388221741,0.1228849366307258,0.0574912056326866,-0.0233097933232784,0.7520163655281067,0.6562185883522034,0.0,0.0,0.0,-0.19932288806002527,-2.567527019006877,3.883131456961607,2.109712534,-0.0661320018185656,0.18795270686852922,-0.20495806672293576,-11.683835162917328,-24.747190842147397,-13.017834875626523,0.040685777395449554,-0.11733031182931616,1.704250849627716,-0.0008522135938431319,0.016583941301810512,-0.006942509687966059,-928.7474985097463,2678.483749053965,-2129.6048126565574,0.015418338408917445
16942,1724813819066705738,-0.3261116445064544,0.793075442314148,0.1228085309267044,0.0574750490486621,-0.0229758936911821,0.7517956495285034,0.6564846038818359,0.0,0.0,0.0,-0.08246348754573389,-0.3179581845579107,0.18191953522687815,2.120363151,0.041322927896025236,0.04220839016554732,-0.06829757547939774,1.6773881513132922,-4.154215491745544,5.8493228892018365,0.04120921915567722,-0.11685136255532778,1.7035375384828575,-0.0005554632924607006,0.014355854423861558,-0.004183870775817944,0.7230154615537323,116.24956839799694,-161.77984773518992,0.015850541688289345
