seq,stamp,px,py,pz,ox,oy,oz,ow,lx,ly,lz,ax,ay,az,timestamp,wx,wy,wz,aa_x,aa_y,aa_z,roll,pitch,yaw,vx,vy,vz,jx,jy,jz,fw,fw2
10650,1724812250434088687,0.103995107114315,-0.5900947451591492,0.1600365340709686,0.0180112980306148,-0.0624097287654876,0.1277986317873001,0.989670753479004,0.0,0.0,0.0,-0.1214668051340943,-0.3049386120086326,-0.9752289552816882,50.070031517,-0.3558861231028608,0.2903785351211959,-0.4907945882222785,-3.071513035568013,-11.752416919533086,15.245082535548296,0.0198637887685438,-0.1284870437646456,0.2555656985773712,0.1655236464559388,0.0627504737925832,0.0491836735320925,159.61298157120137,90.9712158577656,-6.912831695192814,0.0005068660616716,0.0009510294438822
10652,1724812250444100935,0.1057011634111404,-0.589501678943634,0.1602818518877029,0.0184955578297376,-0.0629788041114807,0.1288048028945922,0.98949533700943,0.0,0.0,0.0,0.7300220668873836,0.3263948799962906,-0.3927808805671655,50.080043765,0.0943814124233199,-0.1234308644405389,0.1994004474579751,19.37023879085945,-6.0491541564855265,20.321526838562367,0.0205528222361837,-0.1297629602119621,0.2575533238519535,0.1619999336671291,0.0541611028937687,0.0296155272977474,30.23627249213406,58.69292933047275,67.44033263261261,7.369670449796121e-06,0.0004760519565679
10654,1724812250455895696,0.1074952408671379,-0.5889333486557007,0.1607022136449813,0.0181670542806386,-0.0612538158893585,0.1274451166391372,0.9897856712341307,0.0,0.0,0.0,0.3251090306576927,0.958039101853716,0.5314200629041497,50.091838526,-0.0328734545544225,0.2954392011121867,-0.2363787635721007,1.2739287858535675,22.83209609322523,-12.624753582130232,0.0205146099946592,-0.1262217960873205,0.2548150002273819,0.1856438249565304,0.0744659908474076,0.046681165516679,696.3080797158705,283.8816406788702,257.4428782854551,0.0001783821441277,0.0006543462289594
10656,1724812250463444938,0.1090587526559829,-0.5882441997528076,0.1611079722642898,0.0181518588215112,-0.0597033649682998,0.12668077647686,0.989978849887848,0.0,0.0,0.0,9.112073760962698,4.214054523114203,3.340243403426298,50.099387768,0.0350310434081961,0.4065303014918527,-0.2141642731315819,6.766246109305872,10.497050063277843,3.102490402454255,0.02097366552932,-0.1231199372923235,0.2532501135027522,0.1799829800871935,0.0780094116974123,0.0462695631539015,8719.18762783736,4872.893448985586,-2178.7492297947706,0.0001897738191957,0.0006089556075781
10658,1724812250500083084,0.1108297333121299,-0.5877470374107361,0.1614733934402465,0.0160798374563455,-0.0591982863843441,0.1252630650997162,0.990225315093994,0.0,0.0,0.0,1671.9862090872175,972.5204683558788,-530.0534904383323,50.136025914,-0.113345774768629,0.0410218954010508,-0.0720663185124023,49.759700315830386,2268.4316446994753,-3754.012820392386,0.0171419502871562,-0.1215669115667972,0.250619163223158,2.2674122856487315,0.898257551081656,0.7722835387766622,-464151.65693813073,-216984.45426957053,-50294.74403257598,0.0001389711967304,0.0005858927953593
10660,1724812250500769094,0.1124137043952941,-0.587119460105896,0.162012979388237,0.0160380136221647,-0.0586343333125114,0.1243548020720481,0.9903740882873536,0.0,0.0,0.0,1347.0286154069336,820.540366434961,-565.0152137117934,50.136711924,-0.0785189505150842,1.6264543845584338,-2.69562602115539,21522.122256738498,13050.741558899774,1128.1891063130006,0.0173105599789535,-0.1204194766778125,0.2487759915324277,3.435156053853063,1.5776205830601384,0.4015985818752199,-635749.4595643871,-316915.3064627617,4651.211941613932,0.0003288658568315,0.0007366630112052
10662,1724812250501171532,0.1140620186924934,-0.5863280892372131,0.1620837152004242,0.0185355823487043,-0.0564128905534744,0.124331846833229,0.990462362766266,0.0,0.0,0.0,1052.9196661237515,670.4854683770819,-550.0135295783397,50.137114362,13.651855504023386,9.414033671232104,-1.072376045414151,32232.20418101214,18273.26355512648,3828.515440837109,0.0228469233054511,-0.1166229998139379,0.2484180492418859,3.8933950503720833,1.8677570626715465,0.1683917259701501,-701585.3374648959,-358870.6388590761,39228.39730990464,-0.0001465227924391,0.0002799888974457
10664,1724812250508447182,0.1157626062631607,-0.5857195258140564,0.1623385995626449,0.0187111534178257,-0.054178737103939,0.1237266734242439,0.9906595349311828,0.0,0.0,0.0,-206.4174272448344,-99.81745783859012,-7.923370672240424,50.144390012,0.1137709148345736,0.6022614170103952,-0.185614225726839,-913.2524892088796,-502.255550676705,30.73508872310308,0.0238180857490646,-0.1122108338441998,0.2471619610700095,0.2764751910597489,0.108463330720852,0.0432683488361362,-47624.91675077262,-32055.256860045774,31314.576505924077,4.781334501063677e-05,0.0004580359895306
10666,1724812250513513810,0.1173141971230506,-0.5850824117660522,0.1625868827104568,0.015647092834115,-0.0531265623867511,0.1227097138762474,0.9908961057662964,0.0,0.0,0.0,-5.038467208404663,-1.774040437312272,-1.6617484109661216,50.14945664,-1.1703179520701066,0.5586522484579214,-0.3514808132908384,-150.03175659298395,-20.85167914028502,-13.725377197474614,0.0180799499105127,-0.1093436640637589,0.2454302015093268,0.2563461279414247,0.1037034096550968,0.0358457302713106,28541.98065436085,13892.048977511104,889.4644943129667,6.129448630851539e-05,0.0004275283839911
10668,1724812250526312461,0.118982084095478,-0.5844678282737732,0.162620261311531,0.0173015166074037,-0.0535968355834484,0.1233398839831352,0.9907650351524352,0.0,0.0,0.0,-1.9734965188171003,-0.4581823450713296,-1.4767325348788896,50.162255291,0.2527117319456208,-0.1040904620470296,0.0875063009328277,56.39589623343957,-7.36733786449505,-5.747589255736997,0.021193517002297,-0.1106976177493072,0.2465304456080171,0.1574095514465128,0.0540160422281914,0.0082167169570102,198.1371157256099,114.32277803050016,37.36431308000759,-0.0001660461783561,0.0002303656109793
10670,1724812250535249562,0.1205579414963722,-0.5839476585388184,0.1627286970615387,0.0191300194710493,-0.0528767667710781,0.1225007772445678,0.9908742308616638,0.0,0.0,0.0,-0.4607066610849202,0.6353649380955044,-0.9998406647791064,50.171192392,0.4148027845881989,0.1072442610722539,-0.2137798494843854,19.515956383898796,32.9940402906214,-25.427214712751496,0.0251095397720191,-0.1096951977801194,0.2446310635966359,0.1756979449114393,0.071289498860704,-0.0007248016771814,202.54351076334356,72.16483269241294,34.78699208587024,-7.64546104560774e-05,0.0002932488937935
10672,1724812250544410814,0.122161641716957,-0.5831716656684875,0.1626013070344925,0.0216931775212287,-0.0502465553581714,0.1210158094763755,0.9911406636238098,0.0,0.0,0.0,1.7073107353603731,0.8250973009590146,-0.8555764193591058,50.180353644,0.6065443993197948,0.4972902171286241,-0.368923815558648,-15.598425840707016,10.799856368205385,-2.5279751249770053,0.031016643975652,-0.1050463297625852,0.2413615600677344,0.1479335088688542,0.0649261730970565,-0.0098784556359756,165.92821238092483,0.3477697336296614,-4.463533600949269,-0.0003207460818698,6.545847090227796e-05
10674,1724812250558480267,0.1236570179462432,-0.5826855301856995,0.1625493317842483,0.0189536102116107,-0.0508349239826202,0.1202176287770271,0.9912641048431396,0.0,0.0,0.0,2.5137094536958458,0.3900116459635736,-1.3550747890673174,50.194423097,-0.4021879357549326,-0.0373486720269315,-0.0931991146529575,22.272993239222483,34.436369270614556,-39.6921290768168,0.0254981681335992,-0.1055345773085552,0.2400286618252536,0.274328497678443,0.1093711394472194,-0.018813271073732,-1041.3687373174887,-448.602971330449,40.02788189720624,-0.0002197700450651,0.000118177103161
10676,1724812250563426944,0.1253062933683395,-0.5820143818855286,0.1624299734830856,0.0186107195913791,-0.0502197593450546,0.1192508041858673,0.9914186000823976,0.0,0.0,0.0,-4.548438690275656,-2.555510001766837,-1.025707529963533,50.199369774,-0.128578529314926,0.2589783235822017,-0.3926596931070861,48.92556739195455,32.10176733297558,-27.74685493089678,0.0250630957998633,-0.1042047781604407,0.2381086964507546,0.275510482813921,0.1064846263261465,-0.0267686553869346,482.7619477486039,-59.34737730110294,-236.08604618088407,-0.0003083892608247,6.960600445649317e-05
10678,1724812250573603907,0.1268978714942932,-0.581541895866394,0.1621022820472717,0.0197942852973938,-0.0500598549842834,0.1193693801760673,0.9913895726203918,0.0,0.0,0.0,40.36378362101721,8.0652078736644,-9.765461929506044,50.209546737,0.2356248831061471,0.0035649196329683,0.0115173200983958,20.462675385620784,-17.27900109189845,26.595057862038733,0.0274486944904384,-0.1041716043115941,0.2382275014682656,0.1289857971429193,0.0391890629860789,-0.0250107770339811,-438.76804405667417,-91.61588391322027,148.04975017300876,-0.0005004380617581,-0.0001473975205727
10680,1724812250596189732,0.1284374743700027,-0.5810195803642273,0.1618977189064026,0.0190254468470811,-0.0500863716006279,0.1188219636678695,0.9914690256118774,0.0,0.0,0.0,-212.7469832972638,-50.906815193182865,44.045539841937625,50.232132562,-0.0703414642524341,0.0051916774362953,-0.0454421703574073,225.14173349204015,7905.383625333631,-12645.48729075326,0.0259668375497089,-0.104026975765645,0.2371990739830833,3.785549463176551,0.9570693676059818,-0.74372295733599,-33629.15804764861,-8392.774019824792,6689.487393145057,-0.0003752602609102,-3.002913000226421e-05
10682,1724812250596589143,0.1299757212400436,-0.5806307196617126,0.1615954786539077,0.0190051384270191,-0.049428854137659,0.1178075820207595,0.9916234612464904,0.0,0.0,0.0,-226.3372147512865,-54.29981939040492,46.747815899640834,50.232531973,0.0212685357469756,3.218525985270065,-5.185489218290051,219.686200976331,7697.334392711838,-12311.13664169878,0.0261866167914349,-0.1026878971601009,0.2351512311612497,3.6979297809926495,0.936090010720013,-0.7255948177912636,-32911.85707172667,-8215.022287439699,6555.4366851145005,-0.0004636363260804,-0.0001327350216057
10684,1724812250605781819,0.1315228193998336,-0.5799586176872253,0.1615095436573028,0.0188398342579603,-0.047664750367403,0.1164092496037483,0.991878092288971,0.0,0.0,0.0,-293.22811216624365,-70.57752989713325,62.53344356522685,50.241724649,-0.0065382397812287,0.3817846708879595,-0.3137221282344345,-2.704946071436806,-250.58394374159633,428.4851166270412,0.0264090391896376,-0.0991036505903866,0.232346303510703,0.1436702506528652,0.0615781483321189,-0.0079813740470872,-958.4783012211368,2311.4955336582307,-1494.4414377270723,-0.0002575611515567,8.524912552697119e-05
10686,1724812250643911648,0.1331060826778412,-0.5794349312782288,0.16142138838768,0.0177438259124755,-0.0477745123207569,0.1158852130174636,0.9919543862342834,0.0,0.0,0.0,669.4698393067847,663.19033610003,-502.391547836532,50.279854478,-0.059077076471047,0.0006545427510786,-0.0248809334665364,13567.748263634174,891.9995487183916,-9397.627256094022,0.024250652390193,-0.0990546733096471,0.2313938638372118,3.736710539576052,1.2538248281769029,-0.0797921600739073,-1299076.1484636487,-838609.2178870742,-215809.28745080697,-0.0002554818244592,8.151218628092745e-05
10688,1724812250644308221,0.134603202342987,-0.5789325833320618,0.1613894253969192,0.0188291929662227,-0.0475671254098415,0.1151917427778244,0.9920250177383424,0.0,0.0,0.0,148.82901207755094,327.08226496479847,-588.804701229909,50.280251051,5.377492720677731,0.3581178454264281,-3.7905188287958422,306.1006235155978,11677.746936024443,-7438.281320482126,0.0265320637525613,-0.0988745155755048,0.229887321339839,4.0045768269709185,1.5194346334012607,-0.2810914776522111,-1936657.294510122,-1381363.1703934816,179777.7780291814,-0.0001908645954559,0.0001292518992029
10690,1724812250644665095,0.1361060142517089,-0.578309178352356,0.1612247228622436,0.0189234130084514,-0.0461096055805683,0.1142045184969902,0.9922062158584596,0.0,0.0,0.0,-742.6487874727945,-337.32991303416657,-396.9329198185334,50.280607925,1.1824433990086505,7.9864221033067455,-5.784391189268418,-5690.81354278109,-1562.6438089754538,5152.101417687849,0.0271482498207089,-0.0959700030681093,0.2278908093406156,3.8885653350274367,1.526110283492926,-0.5173003021684224,-1824629.5258807696,-1422330.7600704108,642240.1082381932,-0.0003248722826879,-3.0362490914575733e-06
10692,1724812250645053262,0.1374792754650116,-0.5778099894523621,0.161000370979309,0.0192631464451551,-0.0465221665799617,0.1143541187047958,0.9921632409095764,0.0,0.0,0.0,-1166.6023224635903,-703.9048530348146,-103.47634091228728,50.280996092,1.533775599812874,-2.304653888633754,0.7495963172309591,870.8458662076065,-25620.958101554257,16269.59412988634,0.0277178549996581,-0.0968722482812709,0.2281583965188603,3.4239930721596403,1.244850208241278,-0.5595135978404964,-1052687.800885729,-910941.1668208006,731175.1455736595,-0.0003683295445562,-7.662150387242889e-05
10694,1724812250656311502,0.1388627290725708,-0.5772369503974915,0.1607303172349929,0.0199899077415466,-0.0453406050801277,0.1142536476254463,0.992215096950531,0.0,0.0,0.0,-118.18788148175744,-42.59469346434651,20.264760838481532,50.292254332,0.1510909741493861,0.1935774696066992,-0.0288117442633767,-47.06247808258166,95.36189194902867,-67.86859689755352,0.0294440392981673,-0.0946845190242485,0.2278952142198591,0.1623106448735338,0.072873362952528,-0.0023568523146551,46808.94000390135,27109.413271301182,2860.784074212068,-0.0004155534995786,-0.0001211370005687
10696,1724812250664039508,0.1403262168169021,-0.5765572190284729,0.1608268469572067,0.0206966754049062,-0.0442206859588623,0.1122110486030578,0.9924841523170472,0.0,0.0,0.0,-2.138620115553093,-0.8856760610798773,-0.7566351768109626,50.299982338,0.1892413962169901,0.2592693750568653,-0.5465499114487349,-4.069023993415443,-12.6665501970485,-13.06906313582097,0.0312971854682435,-0.0925535327594528,0.223715930254214,0.1588620458744714,0.0699684000686247,-0.0007766741832453,8364.656346464786,3027.9025077553206,-1506.7159214810447,-6.026357999072465e-05,0.000252506333366
10698,1724812250673792256,0.1415000110864639,-0.57609623670578,0.1606559753417968,0.0209545474499464,-0.0448023974895477,0.1121569946408271,0.9924588799476624,0.0,0.0,0.0,-2.4335931267422017,-0.5156385470994143,-0.5162449602466748,50.309735086,0.0387156948836262,-0.124787776086315,-0.0102895400980202,-13.426445300970128,-7.042373449391702,27.006435431735717,0.031687728930556,-0.0937668152135797,0.2235767564489015,0.1171749384654061,0.0550563229975509,-0.0199852556496971,44.16265308076349,28.19423958791964,77.25040579968699,-0.000292709174534,-4.559297401923268e-05
10700,1724812250684075910,0.1426705121994018,-0.5754455924034119,0.1604237258434295,0.0204784087836742,-0.044060256332159,0.1119721233844757,0.9925228953361512,0.0,0.0,0.0,-1.1726019449513003,-0.3313968087599312,0.8485586187101952,50.32001874,-0.0775863938291638,0.1534359310481931,-0.0359553076965316,-1.1658594094324926,11.89635943479848,-14.937396593252496,0.0309197101858647,-0.0921781293896009,0.2232551729567714,0.1121093827839638,0.0607421590739747,-0.0095352211480808,148.85320914779632,44.11849798896706,12.949507184045748,-0.000361027957666,-0.0001033819603811
10702,1724812250694150160,0.1437830328941345,-0.5748586058616638,0.1604564487934112,0.0205311253666877,-0.0434038788080215,0.1104411482810974,0.99272221326828,0.0,0.0,0.0,0.5858717811854901,0.371659504286177,-0.2029717357597457,50.33009299,0.0107762922578422,0.1236810676983008,-0.3092260302848582,0.0713488188953785,-5.678711318515158,-8.210524798836952,0.0313104391810479,-0.0908358164568068,0.220167289400555,0.093585118275536,0.0486763586216092,-0.0026408946860634,114.08688707381836,59.092776090920694,-59.71427021047023,-8.781036201566383e-05,0.0001517899251047
10704,1724812250708272625,0.1447711586952209,-0.5743610262870789,0.1603025645017624,0.0194300897419452,-0.0435949973762035,0.1100349202752113,0.992781102657318,0.0,0.0,0.0,1.0000207438628337,0.994468178208164,-0.1620578675401423,50.344215455,-0.160449441790011,-0.0104673369017057,-0.0507081845469393,-2.453743033586946,45.72101522347671,-24.79933377113002,0.029110148625291,-0.0909619416505322,0.219444038330368,0.1498607602370611,0.0849941012154147,-0.0230740510799591,-416.1061654736339,-237.82616249716415,139.57059829094362,-0.0002584609147192,-4.900253807998331e-05
10706,1724812250713552077,0.1457200199365615,-0.5738140940666199,0.160156711935997,0.0189576242119073,-0.0427353456616401,0.1093355566263198,0.9929048418998718,0.0,0.0,0.0,-2.075912095259501,-0.8175445295990056,0.8445422669289676,50.349494907,-0.1543175932001118,0.3398986855111795,-0.2667082222216424,9.957810186623828,33.61696049852243,-20.7174837993808,0.0284178551502378,-0.0891277025118667,0.2180826274685128,0.1492493902820451,0.0871316056626589,-0.0213939055816112,-422.306727606065,-251.17386004693063,127.32869624891444,-0.0002475069177711,-4.527822098189474e-05
10708,1724812250724416539,0.1466601192951202,-0.5732355713844299,0.160063624382019,0.0197949539870023,-0.042787529528141,0.109150543808937,0.99290668964386,0.0,0.0,0.0,-3.0797290668119675,-1.4884745480154322,0.8118722741218185,50.360359369,0.1505351337837177,-0.0270224094383872,-0.0402590467067347,8.43498124906893,-11.621307461795524,1.9422074560321363,0.0300932444259194,-0.0894083806438363,0.2176350862005803,0.0828721154034513,0.050918962776457,-0.0004515407622953,84.83439577435973,49.82707499150338,-90.54010651123374,-0.0001966346781595,8.604531649396234e-06
10710,1724812250735288022,0.1475212723016739,-0.5727073550224304,0.1601470112800598,0.0199503954499959,-0.0422734059393405,0.1079535037279129,0.9930564761161804,0.0,0.0,0.0,-0.2294668817558793,0.2670613674473849,-1.124662044812264,50.371230852,0.0287490370203169,0.0876097346039312,-0.2247580000082511,-17.069915178006667,7.392205973970882,-7.901269603669598,0.030620898978283,-0.0883822093358126,0.2152121077700812,0.0823511275526485,0.054804115746954,-0.0037627666313237,111.65012547651348,47.243966539491,-93.05399897650864,-1.1321358757124318e-05,0.0001751428533222
10712,1724812250743974700,0.1482584178447723,-0.572188138961792,0.1600349694490432,0.0192405357956886,-0.0417680628597736,0.1069412976503372,0.9932013154029846,0.0,0.0,0.0,-0.3044030691241208,-0.1154572730506011,-1.3424861374337782,50.37991753,-0.1602583105484805,0.1299449555064067,-0.2304419060858564,11.086355413978412,3.3270262220482354,8.572287013638814,0.0294019062747622,-0.0871938494460751,0.2132374762127382,0.0790977324118458,0.0564971574440456,-0.0192244953834226,-15.435642087968764,-33.910748054009154,30.8552947695899,-0.0001941766137533,-3.216904542236866e-05
10714,1724812250755239480,0.1490652710199356,-0.571599543094635,0.1597259938716888,0.0216391626745462,-0.0406901240348815,0.107066236436367,0.9931831955909728,0.0,0.0,0.0,-0.577749404487589,-0.3495576922547561,-0.1778670179827213,50.39118231,0.4444228176537188,0.1448310659490367,0.0009056553328528,6.300931515877694,-15.355867627621349,11.621041038065782,0.0344028464115687,-0.0855635074019797,0.2132999274985366,0.0766930708967539,0.0506628340363306,-0.0279570284716133,-64.8216089283845,-16.4863820316478,88.64756667017059,-0.0003995669975025,-0.0002185387912882
10716,1724812250764005259,0.1497721076011657,-0.5711662769317627,0.1594773232936859,0.0224484875798225,-0.0410619564354419,0.1072704792022705,0.993127942085266,0.0,0.0,0.0,-1.4226005695174424,-0.464775137268403,0.4986655924296527,50.399948089,0.1764825472001215,-0.1035339113703498,0.0419542584510687,-22.628198091718644,-12.483346245164247,2.1212100785689807,0.0359209140145373,-0.0864834394772135,0.2136368252448871,0.0691438199057872,0.048747156526705,-0.025441621020275,442.1761907242868,646.4240721623371,102.559435971553,-0.0003249619653159,-0.0001710260896524
10718,1724812250775750186,0.1504033505916595,-0.5706044435501099,0.1592245697975158,0.0226503927260637,-0.0410472229123115,0.1074338555335998,0.9931063055992126,0.0,0.0,0.0,12.245764319253931,17.50676877950915,2.10262233070167,50.411693016,0.0356396208605656,-0.0007232183201461,0.0265566895929852,-9.000840060333056,6.52393459672703,-1.4630576912176094,0.0363124976516233,-0.0865031905282676,0.213949389603208,0.0436012507557537,0.0394135170421217,-0.0162532730081257,3885.930107013569,1725.729645295665,-7086.234116276244,-0.0003302658323218,-0.0001767851518472
10720,1724812250807783344,0.1509137153625488,-0.5700777769088745,0.15916408598423,0.0227865483611822,-0.0408061370253562,0.1069100275635719,0.9931696653366088,0.0,0.0,0.0,374.55252124194703,89.87428923349489,-855.9287723830685,50.443726174,0.0086273729078427,0.0134568075814083,-0.0335947733710031,1194.363681299222,23424.25122243347,-27014.152334557853,0.0366805065086195,-0.0860331486263193,0.2128857377975924,1.6957561046842784,2.1991611330686283,0.1664512613622264,-678958.5662074779,-823951.9541125246,46264.5617415281,-0.0001275336432167,2.8771997188716623e-06
10722,1724812250808067887,0.151400476694107,-0.5694465041160583,0.1592118740081787,0.0227789226919412,-0.0398234389722347,0.1058332771062851,0.9933250546455384,0.0,0.0,0.0,179.61493955822607,-146.66374371853,-842.5798785092982,50.444010717,0.3514961174448177,6.7378678661650335,-7.788557014059563,36707.1031200243,9922.512066726878,-8244.432455081162,0.0369632863134982,-0.084035650370166,0.2107338700695567,1.803148734086733,2.22479098111603,-0.079275079686738,-721076.4498667008,-833934.4607005288,142593.11266424414,-2.2465087262901877e-05,0.0001116903125588
10724,1724812250808311103,0.1518582552671432,-0.5689041018486023,0.1591411978006363,0.0247385036200284,-0.0388315953314304,0.1052254661917686,0.9933819770812988,0.0,0.0,0.0,-3.2436481758901596,-350.03950157899084,-788.0079797642808,50.444253933,16.65983440828974,6.301031483430866,-5.841790662681005,64103.64022094495,-1767.8765423900973,7711.218971109908,0.0411286901400502,-0.0824488352203559,0.2093692140894527,1.8057117043666815,2.1399043447531625,-0.2798377349179692,-721836.2005756616,-800301.6337647127,221166.3965641792,-0.0001344019348145,-1.0449747280193062e-05
10726,1724812250813846613,0.1522186547517776,-0.5684252977371216,0.1589468270540237,0.0245615411549806,-0.0386549793183803,0.1050131916999816,0.9934157133102416,0.0,0.0,0.0,-219.39067025357372,-258.17375278791314,31.86098604976617,50.449789443,-0.0600791479282936,0.0686935080662028,-0.0765664033846562,-2080.1757198938453,-775.7055622409299,719.3559107345337,0.0408297466775254,-0.0820515364184291,0.2089599280449418,0.051479014215622,0.0734970110821287,-0.0282803265359725,-21457.334668485564,17928.554161079857,101423.38415763753,-0.0002466279102477,-0.0001445389424144
10728,1724812250826173443,0.1524791419506073,-0.5678761601448059,0.1587857902050018,0.0251675695180892,-0.0378466807305812,0.1047385483980178,0.9934606552124025,0.0,0.0,0.0,-1.0423981292357156,-0.5848527087237314,0.5111494992314138,50.462116273,0.1095496473364734,0.119142895785833,-0.0520545082856375,-18.45141076868214,-0.7635862270796014,-8.1617354580684,0.0422274188479387,-0.0805575074199032,0.2083778625538381,0.0238826710700941,0.0512762851905677,-0.0083999162218404,7624.535766936328,8981.46837562088,-1136.7687092216345,-0.0002104001680233,-0.0001163034119968
10730,1724812250835404948,0.1527186334133148,-0.567356288433075,0.1587404906749725,0.0238641612231731,-0.0376006662845611,0.1037920266389846,0.9936015009880066,0.0,0.0,0.0,-0.4041128505439024,-0.0468549437353891,-0.2595353036070625,50.471347778,-0.283482512414328,0.0785206005835187,-0.1975725555171834,-13.72110795329728,1.047016079727772,-1.3451944487549783,0.0397544517910859,-0.0797585122416415,0.2065794365888755,0.0225304683386315,0.0542962402728619,-0.0112972525460008,22.75778434495021,-3.4245316750656514,-44.28275735542759,-9.053988165339812e-05,-5.442519794647381e-06
10732,1724812250844185856,0.1528879702091217,-0.566896378993988,0.1585879176855087,0.0231072008609771,-0.0370844677090644,0.103390946984291,0.9936805963516236,0.0,0.0,0.0,-0.5916944625887228,-0.5922875292448899,-0.3209557230254346,50.480128686,-0.1629690374905546,0.1332128154237065,-0.0889610156640289,10.698486389445184,-0.1534127542365286,9.56547904385956,0.0383817280795261,-0.0785591630012819,0.205842249099447,0.0168301369897037,0.0507611271916061,-0.0131225294923407,-16.890734158823776,-39.82040848692672,-8.65216116391049,-0.0001883083411075,-0.0001211077704637
10734,1724812250853418777,0.1530195325613021,-0.5664433836936951,0.1585080474615097,0.02264941111207,-0.0368057787418365,0.1032545566558837,0.9937157034873962,0.0,0.0,0.0,-0.7042330614332996,-0.7434986431147108,-0.4169307457881916,50.489361607,-0.0935678026118826,0.0698391041231262,-0.0278613920046286,13.313075527243374,-5.907376638711189,6.754818245949785,0.0375360586038401,-0.0779050500389119,0.2056089593870101,0.0119250852951271,0.0434509693613165,-0.0171837588882448,-7.722482636672233,-4.805263138452201,22.19444044010421,-0.0001124144676212,-5.238477130208929e-05
10736,1724812250864353628,0.1531198322772979,-0.5660409331321716,0.1582096368074417,0.0233202408999204,-0.036644160747528,0.1035418659448623,0.9936762452125548,0.0,0.0,0.0,-0.7308356833988476,-0.6461786697759995,0.2478101123966585,50.500296458,0.1270744773226746,0.0176300893799957,0.0477788007810412,7.702076382033078,-3.722576625611934,5.640249717465263,0.0388843143224722,-0.0777323636293326,0.2061399959955148,0.0019842716751004,0.0359457914580652,-0.0214458375390211,-86.83950862954575,279.68265794752176,-135.12554686673508,-0.0003258103635041,-0.0002738981608794
10738,1724812250873868718,0.1530791968107223,-0.5657060146331787,0.1580539643764495,0.0237677376717329,-0.0366493500769138,0.1039873585104942,0.9936189651489258,0.0,0.0,0.0,-2.255980722261718,4.257017696398444,-2.6600458739884303,50.509811548,0.0970647855524593,-0.0090805552037039,0.0908723169886698,-2.7950794826521776,-2.1746272390769894,3.2469983243085334,0.0397408142772667,-0.0778526880028138,0.207003215901197,-0.0034937712354423,0.0301299810408273,-0.0138089489125992,-882.6813113564428,1120.1317988793394,26.69096965926562,-0.0001706914196787,-0.0001449726198381
10740,1724812250914731256,0.1530727595090866,-0.5653643012046814,0.157937467098236,0.024671196937561,-0.036286111921072,0.1039993017911911,0.9936090707778932,0.0,0.0,0.0,-165.09329897447287,156.16551018696782,56.743217247842495,50.550674086,0.0458189512062622,0.0130629781453921,-0.0014119820163716,-19680.4607051163,2301.627568506451,12569.876420543396,0.0416158911320841,-0.0773170038518632,0.2069671844035061,-0.3905376289313835,1.0583807892628556,-0.7301458991121308,-1472381.622760274,1201956.598278035,423921.55728430394,-0.0001349498019474,-0.0001023717664931
10742,1724812250915009274,0.1529634445905685,-0.5650680661201477,0.1577330976724624,0.0238893982023,-0.0362863428890705,0.1044597178697586,0.9935797452926636,0.0,0.0,0.0,-577.2194556456227,492.5976227116344,175.40016467665646,50.550952104,-5.462927804826581,0.6573095167918582,3.5170208882646947,-5919.868903048573,1868.1386604613035,2670.128589446914,0.0400208933401051,-0.0771742941322232,0.2079545160067953,-0.4367309052829,1.1020454101540054,-0.7142297702017117,-1249128.2245957842,943663.8458397136,415129.11856988654,-0.0002125698342776,-0.0002002087512698
10744,1724812250915284314,0.1528314799070358,-0.5647550225257874,0.1575423330068588,0.0234143305569887,-0.0361956171691417,0.1046563014388084,0.9935737252235411,0.0,0.0,0.0,-857.3154175390395,679.6447980602443,286.40281260272957,50.551227144,-3.3105242312950542,1.048912789139661,1.5344778345398118,-4754.331536507156,-1925.7937260595293,723.4143786306768,0.0390769375230238,-0.0769027212519484,0.2083889440532201,-0.7073382621282178,1.328828067627228,-0.6338393769050583,-265059.6647855984,64142.14253280568,188227.71812189856,-0.0001981475887292,-0.0001880005659112
10746,1724812250915584113,0.1525450646877288,-0.5642943382263184,0.1573718339204788,0.0220828913152217,-0.0364424027502536,0.1052528694272041,0.993532121181488,0.0,0.0,0.0,-690.6040377958396,497.5965985965575,272.45663014283787,50.551526943,-8.846883653488952,-0.6230428148377886,4.343303266549945,-17788.380160724166,-5381.264598542677,9026.03614436022,0.0363247716626044,-0.0771384480071995,0.209686924282351,-0.92299974249564,1.485233662527567,-0.5498987096620913,539889.3663266029,-588612.2077562395,-45893.12869556463,-0.0001742200068764,-0.0001752708358362
10748,1724812250923913596,0.1523452699184417,-0.5638206005096436,0.1571451276540756,0.0221786480396986,-0.0371409244835376,0.1058567911386489,0.9934399724006652,0.0,0.0,0.0,60.17020743005409,-95.69247602054377,34.90232516204077,50.559856426,0.010963281767028,-0.1666620208831132,0.1492650424985139,594.9112057327658,36.01665317203018,-284.5277600586806,0.0363230954782393,-0.0785708954706591,0.2108826198942089,-0.0220810732773539,0.0515299383709511,-0.0238261820376557,47466.33497774417,-35438.37667671169,-17322.937527123046,-0.0002366531369959,-0.0002243889232665
10750,1724812250934307833,0.1521404683589935,-0.5633543133735657,0.1569414585828781,0.0227987878024578,-0.037264909595251,0.1060420274734497,0.99340158700943,0.0,0.0,0.0,0.1050554791001008,0.1679321497271884,0.0746344755578125,50.570250663,0.1175032178946131,-0.0358150672810805,0.032287466936114,10.996638696852957,12.0440132036703,-3.649842562556548,0.0375190703510514,-0.0789553082474304,0.2112052751774051,-0.0191270658966464,0.0482583121128641,-0.0275407104169165,-2806.8194327150973,4481.773624353882,-1592.891191147586,-0.0002135253200677,-0.0002016089917085
10752,1724812250944126100,0.151958018541336,-0.5628489851951599,0.1565973609685897,0.0238795690238475,-0.0367739982903003,0.1064197421073913,0.993354082107544,0.0,0.0,0.0,0.1087833019020512,0.2050713874536027,0.7372474505478209,50.58006893,0.2323965250668869,0.0773873856480988,0.0669756558314165,-8.996364190590576,5.0179671612909615,-8.587893776808318,0.0397467435823462,-0.0782214609876321,0.2118938350770256,-0.0197569965523651,0.0543836476516084,-0.0228014813495711,5.161310287390916,-10.48834197793766,-4.133443235883593,-0.0003583010110735,-0.0003370129966849
10754,1724812250953531249,0.1517616212368011,-0.5623112320899963,0.1564932316541671,0.0236870869994163,-0.0364716351032257,0.1058458685874939,0.9934311509132384,0.0,0.0,0.0,0.2004058575981847,-0.0221464561076065,0.0531066448607187,50.589474079,-0.0386956944572844,0.0659145047802042,-0.1229971401811891,-10.72594185285818,-4.037231781596507,-4.931907643590192,0.0394711030686104,-0.0775562037267927,0.2107590446503206,-0.0171757642466596,0.0525392325038325,-0.0135741915530065,-7.975371642725433,11.130983385673,-56.50322430758626,-0.0001199486109095,-9.779559789218525e-05
10756,1724812250964389714,0.1516215801239013,-0.5617988705635071,0.1563144624233245,0.0240785758942365,-0.0365037582814693,0.1059384122490882,0.9934107661247252,0.0,0.0,0.0,-0.1083024437744569,0.541125070636741,-0.3568680111880997,50.600332544,0.0717182829366431,-0.0132433129089656,0.0148411522793373,-9.62586880817972,-0.6854227045652195,7.928894390293577,0.0402377792417637,-0.0777063235493109,0.2109148380899292,-0.0159278932724333,0.0544795861230014,-0.0246310508171792,-15.754010073248798,18.625805909016087,37.142692973795526,-0.0001971173184184,-0.0001684081090356
10758,1724812250973778549,0.1514474302530288,-0.5612281560897827,0.1560169011354446,0.0232166200876235,-0.0364403873682022,0.1061474382877349,0.9934112429618835,0.0,0.0,0.0,-0.1533075524429216,0.4460875273240998,0.5998963303730537,50.609721379,-0.1793500492550867,0.033937763900187,0.0505998767450538,3.1684633515661504,7.597202484556919,-5.293558088410491,0.0385160213241267,-0.0774066280189065,0.2114035333300133,-0.0187568836864739,0.0625023674571139,-0.0226122834642081,-7.414640529823242,-12.18658840300557,34.84312813886891,-0.000315440666176,-0.0002880067311301
10760,1724812250984128887,0.1512509137392044,-0.5605616569519043,0.1558864712715149,0.0241600964218378,-0.0355907902121543,0.1056456193327903,0.9934729933738708,0.0,0.0,0.0,-0.2599599386091371,0.2963991932536785,0.1953438294861461,50.620071717,0.1947226161320582,0.1419183488978963,-0.1080491588409737,13.85793687022434,-0.034868022776956,-3.948285838058197,0.040612824600562,-0.075894632282428,0.2103410257842572,-0.0186548659298786,0.062459385616485,-0.0120115720628657,-16.380261377405336,8.9405199344003,-46.630257750228694,-0.0001540605426279,-0.0001178643260509
10762,1724812250995131534,0.1510495394468307,-0.5598970651626587,0.1557612121105194,0.024625739082694,-0.0354336015880107,0.105564571917057,0.99347585439682,0.0,0.0,0.0,-0.5112517002348893,0.66848797920448,-0.4059514915246982,50.631074364,0.0865711739206532,0.0191069037018242,-0.0183939293566873,-17.415521933954167,-7.214834496504327,10.164956550962732,0.0415800398614267,-0.0756762774850982,0.2101469196056768,-0.0246709039678574,0.069235836216464,-0.0195565113082079,25.83913256709857,-46.25846127702994,24.140889522659965,-0.0001491523974656,-0.0001124706956267
10764,1724812251003815602,0.1507916450500488,-0.5592352747917175,0.1555353701114654,0.024117175489664,-0.0355671644210815,0.1059058979153633,0.993447244167328,0.0,0.0,0.0,0.0467823990901705,-0.2820750106916736,0.3437292096614179,50.639758432,-0.116661038562921,-0.0164930790976259,0.08370010175873,-3.9025634881061944,-0.3668191315559205,4.5462592029354685,0.0405122668087372,-0.0758492123423784,0.2108693658407505,-0.0288671279702521,0.0754015232108997,-0.0211641383921739,-206.3625857712393,725.4618024231431,-81.9328911574797,-0.000244797846336,-0.0002178239968605
10766,1724812251013376922,0.1505243778228759,-0.5585228204727173,0.1553839892148971,0.0243423711508512,-0.0354554615914821,0.1061603128910064,0.9934185743331908,0.0,0.0,0.0,-4.77520691282429,15.443684436224512,-2.2109748797234348,50.649319752,0.0513088678476211,0.0192938601441391,0.0512650205416258,12.981028821429405,2.83241471401496,-3.3655722507524324,0.0409650973152063,-0.0756848512828145,0.2113680578589415,-0.0228405008619765,0.0622607524727545,-0.012310297632307,2400.4297654324537,-5058.056985198409,610.5916994061732,-0.0001731954800827,-0.0001419355994605
10768,1724812251045146762,0.1503384262323379,-0.5578383207321167,0.1553647220134735,0.0240269880741834,-0.0352617464959621,0.1053200811147689,0.993522584438324,0.0,0.0,0.0,378.1207690133383,-852.8167220859114,109.84896279107602,50.681089592,-0.0204637611831172,0.0131669427768994,-0.0528348289292784,-4408.216379420512,-10896.416149268956,3031.5381318787313,0.0404404494254727,-0.075198584148961,0.2097031833205531,-0.7451716178927654,2.328270141976418,-0.4137021045801248,135020.15250606532,-447210.5342741329,79527.45916445716,-4.487316342583744e-05,-5.571439738746299e-06
10770,1724812251045432351,0.1501237154006958,-0.5571674704551697,0.1552455127239227,0.0238867625594139,-0.0357275530695915,0.1054192781448364,0.9934988021850586,0.0,0.0,0.0,416.9967286896496,-981.6130698214738,132.75624177483058,50.681375181,-1.2907130562664513,-3.1267029627687046,0.8207302386824872,8933.626179845303,-2003.5987337420509,-2800.9863874467123,0.0400568080426813,-0.0761002441794662,0.2099020227944435,-0.6361553856435194,2.0823425635350077,-0.3820160039907989,109601.6167262562,-389867.9913743087,72148.86170768845,-0.0001415016877435,-0.0001083055202623
10772,1724812251045765819,0.149956613779068,-0.5565769076347351,0.1551319062709808,0.0250489581376314,-0.0356454402208328,0.1050623953342437,0.993510901927948,0.0,0.0,0.0,443.2176329059615,-1087.8242103746236,153.67652878357237,50.681708649,6.898752617119696,-0.2940688928764029,-2.3949644662980316,23623.26515204852,8181.772059877592,-9277.158020472263,0.0424184966952839,-0.0761652937287117,0.2090976719968489,-0.4833661175154082,1.7080907651647743,-0.3292552652431119,73957.85597172359,-302528.67374284787,59841.493637920394,-0.0001360364880754,-0.000100919563618
10774,1724812251054458668,0.1497739255428314,-0.5559781789779663,0.1548590362071991,0.0264965649694204,-0.0356156937777996,0.1046975255012512,0.9935129880905152,0.0,0.0,0.0,27.175090969652768,-97.39733934816704,18.068753496631356,50.690401498,0.3286103783987273,-0.0302779612971874,-0.0954962025202984,-410.38742324035894,13.374585408021067,140.25018508804197,0.0453393289264395,-0.0763918367281929,0.2082543618438111,-0.0217056945989817,0.0646464333517933,-0.0225570427703605,-25962.730540276614,63534.81361625898,-8937.713019504994,-0.0002958673884769,-0.000258679464247
10776,1724812251063586709,0.1495691835880279,-0.5554286241531372,0.1547378003597259,0.026048369705677,-0.0359871350228786,0.1046423390507698,0.9935171604156494,0.0,0.0,0.0,0.0750653188652989,-0.5436068589453247,0.3423595239515815,50.699529539,-0.1065404616310962,-0.0708630509787564,-0.0064549633570512,-23.976464998144024,-2.5068503512261113,14.071311794230215,0.0443735672653088,-0.0770353681930892,0.2081661906570486,-0.0222184642959177,0.0541596345781236,-0.0226108628545169,-1583.5286976957043,5701.307339734881,-1019.3088146584728,-0.0001398162562499,-0.0001122086760861
10778,1724812251074029371,0.1493396908044815,-0.5549352765083313,0.1543902307748794,0.0256695933640003,-0.0364367924630641,0.1056146472692489,0.9934078454971312,0.0,0.0,0.0,0.0890259092849553,0.3441297537523322,0.7207558216045912,50.709972201,-0.073838632175127,-0.0738725868083341,0.1920559695665802,-3.1715661989830997,10.228613756801652,-6.7843374363115245,0.0434496097764492,-0.0778941075111919,0.2101419383398166,-0.0198667023988257,0.0557136025131157,-0.0148752419581636,-0.760516863969785,25.88976925018259,-27.612111211032833,-0.0003597774368042,-0.0003426826659812
10780,1724812251084301961,0.1491569280624389,-0.5542773604393005,0.1544234454631805,0.0247528795152902,-0.0358093380928039,0.1048952117562294,0.9935300946235656,0.0,0.0,0.0,0.0600186280302645,0.0126520647155361,-0.2080917443533543,50.720244791,-0.1701137425391379,0.1374771606506594,-0.1382920115795077,-15.453486924529637,1.029143163490533,-6.798349044051419,0.0418071735115789,-0.0764225954048696,0.2087787183350123,-0.0203283261267124,0.0612224731610915,-0.0076734717843951,20.40661861947008,-41.33269920427444,-72.50769324514046,7.8418004354455e-06,4.65525321525092e-05
10782,1724812251093589620,0.1489468216896057,-0.5537324547767639,0.1542605906724929,0.0230765715241432,-0.0360671021044254,0.1048855930566787,0.9935621619224548,0.0,0.0,0.0,0.4446175734176849,-0.4473482706656928,-0.7311059375833759,50.72953245,-0.3647073702629236,-0.0170870620724216,0.0115180170898774,12.626914293998214,-5.676514700341027,7.492906335550491,0.0384121906616196,-0.0765854602438773,0.2088795500081187,-0.0188895605331422,0.0569430853706478,-0.0172405078457797,17.91637408818705,-20.239444413994057,-2.103286726264229,-0.0001773263157089,-0.0001574684796323
10784,1724812251103801948,0.1487958282232284,-0.5531703233718872,0.1540878266096115,0.0237693246454,-0.0357464700937271,0.1048718467354774,0.9935588240623474,0.0,0.0,0.0,0.3637778645432917,-0.3251558812278854,-0.143863597912061,50.739744778,0.1413006326914984,0.0480733495556221,-0.0089484819249164,31.820977132178207,1.364499295621342,-0.123717095776034,0.0398607109178722,-0.0760913129656409,0.2088072147636779,-0.0110958548032469,0.0525252264503279,-0.0213495998155348,-26.434383671219567,10.71368826117014,52.82493106333745,-0.0001929201398932,-0.0001612693283058
10786,1724812251114574765,0.1487182229757309,-0.5526331067085266,0.1538074612617492,0.0252765268087387,-0.0355573110282421,0.1049862280488014,0.9935163855552672,0.0,0.0,0.0,-0.1314402791350861,-0.2239613669269471,0.3720446623838579,50.750517595,0.2826426797009644,0.0057699530469294,0.0110875043133069,-3.473325536271158,-2.67763532330358,-2.581656374955022,0.0428962835748471,-0.0760341568633765,0.2089295037838181,-0.0117156209196238,0.0502433903629722,-0.0199617790258948,-9.48461329503654,-15.62318655287168,12.621985569521064,-0.0003052196962036,-0.0002622221451812
10788,1724812251123740097,0.1485756635665893,-0.552169680595398,0.1536717861890792,0.0258413627743721,-0.0355345346033573,0.1047900095582008,0.993523359298706,0.0,0.0,0.0,0.0661266080027151,-0.5622259854904605,0.2127209846749889,50.759682927,0.1214165998639034,-0.0090303331170711,-0.0472079330249613,-5.325293525057727,1.9113844458156704,-1.1442004102256251,0.0440423234771725,-0.0760980385891619,0.2084923648954721,-0.0134966413824821,0.0480959903282709,-0.0146553187551292,-14.709905775123564,94.3851300512681,-63.31241956443259,-0.0001531046570562,-0.0001256445455115
10790,1724812251134285381,0.1484583020210266,-0.5516924262046814,0.1535190343856811,0.0269322525709867,-0.0351343713700771,0.1048584207892417,0.993501365184784,0.0,0.0,0.0,-0.5290065886190812,2.0260596411335543,-1.012184726287785,50.770228211,0.2140780511042939,0.0539091135751417,0.0040146656987546,2.100519314504754,2.417720746585077,3.8269244156161646,0.0462946723465266,-0.075532037800217,0.2085605078446527,-0.0096393002413388,0.0381883808577221,-0.0168558271136007,-22.678773665966567,78.50330910130093,-26.430139322685285,-0.000173679256385,-0.0001389857449582
10792,1724812251151023375,0.1483365446329116,-0.5512410402297974,0.1531739234924316,0.0275155212730169,-0.0350803546607494,0.1052177995443344,0.9934492707252502,0.0,0.0,0.0,-0.0117642403858724,-1.0951497746438363,0.9292271466691346,50.786966205,0.0715942336170858,4.2252707510234875e-05,0.0406928399803867,8.983661878246306,21.1390285935463,-51.68853154036832,0.0474415133575802,-0.0755632387210483,0.2092428460379522,-0.0422661537233892,0.1508884639587222,-0.0551449802735035,246.10478327980843,-888.2128956907271,335.6428132881106,-0.0003639670162575,-0.0003315852271732
10794,1724812251153698832,0.1482084989547729,-0.5507843494415283,0.1530116200447082,0.0276487823575735,-0.0349723398685455,0.1050647795200347,0.9934656023979188,0.0,0.0,0.0,0.7387107326783733,-3.771626409799092,1.921161182853112,50.789641662,0.1031119803557009,0.0670152976452968,-0.1206395345761266,4.894092461217832,17.946943665702737,-45.28434599381686,0.0477411193792826,-0.0753687944136696,0.2089280912564878,-0.0414690467570335,0.1446106172499632,-0.0512832014116293,229.2525842266277,-806.8411820795955,293.41817112561114,-0.0001819495803983,-0.0001495670237391
10796,1724812251163964159,0.1480344980955124,-0.5503273010253906,0.1528546512126922,0.0270616635680198,-0.0351786203682422,0.1050699949264526,0.9934739470481871,0.0,0.0,0.0,1.0734694696945517,-4.431251021534913,1.8872401224745117,50.799906989,-0.1178731981195326,-0.0278239637442421,0.0059503064111429,6.192253176432505,-0.885441290228568,4.619506351420109,0.0465275156129262,-0.0756569791985325,0.2089757888571481,-0.016525239439785,0.0497612045666144,-0.012744860334747,-56.65748063293917,209.34649491311615,-109.50964987222598,-0.0001731318329693,-0.0001483053947128
10798,1724812251173735526,0.1478769779205322,-0.5497923493385315,0.1527538001537323,0.0280170235782861,-0.0348728969693183,0.1050096452236175,0.9934646487236024,0.0,0.0,0.0,-0.3104499348760403,0.1591896474224081,-0.1706522925059667,50.809678356,0.2004583893065264,0.0412200861593143,-0.0206440948220532,0.8807008565068637,-6.353469360976364,4.4904617442519505,0.0485000565095771,-0.0752450800321002,0.2087929158349033,-0.0186524552304847,0.0511868437793729,-0.0116690938030554,-70.22671834135916,242.3695400358342,-114.46824067194233,-0.0001241573189489,-8.642724357936789e-05
10800,1724812251183951139,0.1476593911647796,-0.5493074655532837,0.1526201963424682,0.0274333916604518,-0.0358041897416114,0.1054815649986267,0.9933978319168092,0.0,0.0,0.0,-0.2652670877507619,0.206334240322902,-0.3132764658878127,50.819893969,-0.1290736413194081,-0.1670047160963675,0.1022546586249578,0.2041523504211682,-8.595313182649152,10.18547931267968,0.0471081294437632,-0.0769991067300618,0.2097575925860064,-0.0228144779505266,0.0529550013258948,-0.0164107952050418,6.764194749844599,-10.357711351628,7.79833455580269,-0.0001489321447589,-0.0001270317386777
10802,1724812251193574736,0.1474260985851287,-0.5487480759620667,0.1524320542812347,0.028273407369852,-0.0364263877272605,0.1063687801361084,0.9932570457458496,0.0,0.0,0.0,-0.1789454723097547,-0.0290847378548528,-0.0409571628541837,50.829517566,0.1671864747705494,-0.1428567127327001,0.183549011631795,17.350707769020534,5.279224492049529,-1.6233971129237807,0.0485847685105805,-0.0784568132380037,0.2114613631285962,-0.0240785787131496,0.0552421233409106,-0.0180577282632601,1.623739403880288,-24.736307744292528,18.68391275487174,-0.0002076170481089,-0.0001785430483487
10804,1724812251203707761,0.1471838504076004,-0.5482190847396851,0.1522649973630905,0.0292994119226932,-0.0366282798349857,0.1066971719264984,0.9931846261024476,0.0,0.0,0.0,-0.240870145650951,-0.2826578071005849,0.045800909642413,50.839650591,0.1996680972604932,-0.0598081702791236,0.0596495492414578,-14.21569111671873,6.329346034088352,-8.518892215912725,0.0505627242500843,-0.0790920525714119,0.2120367896222369,-0.0263996079442554,0.0521014198417049,-0.0170838275814251,4.509008466088401,1.5342409325314714,-5.794747843443908,-0.0001851328691294,-0.0001588095129768
10806,1724812251213951172,0.1468876153230667,-0.5476864576339722,0.1520838141441345,0.0286625027656555,-0.036771684885025,0.1067261770367622,0.993194818496704,0.0,0.0,0.0,-0.0847105401950094,0.0080729699828099,-0.1622202840543175,50.849894002,-0.1263457104543486,-0.0143015100403568,0.0107875199806881,-21.84282793876563,1.7754407726633443,-2.8675795371901267,0.0492603396968144,-0.0792438829982689,0.2121401776616174,-0.0289892762801784,0.0494886221911876,-0.0171356366377049,7.589897754594271,40.71739198191969,-53.09204597071455,-0.0001950757279388,-0.0001777013232152
10808,1724812251224921478,0.1465687751770019,-0.547173023223877,0.1519023180007934,0.0273227393627166,-0.0370600000023841,0.1066809669137001,0.9932267069816588,0.0,0.0,0.0,-0.0913838040852865,0.5996784419785075,-1.129831209133048,50.860864308,-0.2486700546466935,-0.0261594337446954,0.0016815199981575,6.115705891991899,2.0493730400366883,-0.9457175692616476,0.0465319782812526,-0.0795314121398594,0.212144873112398,-0.0279435764950468,0.0526688072078016,-0.0207617108029003,6.738307911278681,0.9496736094693974,-37.28761549727215,-0.000191039623927,-0.000182250684942
10810,1724812251235115354,0.1462945342063903,-0.5465805530548096,0.1516507267951965,0.0271958950906991,-0.0369476862251758,0.106634221971035,0.993239402770996,0.0,0.0,0.0,0.0468956905986444,0.1075285156532612,-1.0276483050683538,50.871058184,-0.022774973437666,0.0243829174966296,-0.009054572744214,5.106013180512927,-3.0501076851907394,10.131030712937305,0.0463062329559863,-0.0792788421020566,0.2120639543963441,-0.0306436732808306,0.0617162917970759,-0.0398503185866623,-1115.2755350682503,2267.250854939657,-955.640610461099,-0.0002686707851363,-0.0002449117547765
10812,1724812251244616482,0.1459702551364898,-0.5459623336791992,0.1511377692222595,0.0266103036701679,-0.0373914912343025,0.1074811816215515,0.993147313594818,0.0,0.0,0.0,-20.545878663144876,42.15404458536581,-18.658713314213728,50.880559312,-0.1252818881429818,-0.0755129691706166,0.1862430392758343,-2.900170756295689,-5.7764718617168285,11.243528294963005,0.0449773795537415,-0.0800762821409614,0.2138043978907565,-0.0274372446112631,0.0558305652990167,-0.0421320891114249,-500.64079485264097,1029.703689546562,-373.9489432503591,-0.000526212973257,-0.0005090286353894
10814,1724812251264057408,0.1457031071186065,-0.5452443957328796,0.1507903486490249,0.0278728157281875,-0.037256047129631,0.1078615188598632,0.9930765628814696,0.0,0.0,0.0,36.02408132422897,-72.90741735879237,33.01386222559904,50.900000238,0.1321461977373774,0.0006476106765605,0.034414395636751,-29648.97372196212,-22122.701916426504,6703.042279002731,0.0474927420685395,-0.0800946319884617,0.2144754742903739,-1.2575965294282696,2.5768511828662213,-1.1375546774975192,10197.821315067267,-20827.522163344896,9164.69163997528,-0.0003732695480054,-0.0003333158020115
10816,1724812251264325437,0.1453614383935928,-0.5445443391799927,0.1504813134670257,0.026895796880126,-0.0381774269044399,0.1080463901162147,0.9930484294891356,0.0,0.0,0.0,38.78432426465368,-78.54489015115755,35.49430963567224,50.900268267,-7.924248587607507,-6.010641978928102,1.8558225504387615,-29393.169180602763,-21931.463811950893,6645.051467061346,0.0453345841959495,-0.0817270047125881,0.2148989983957756,-1.2475740870453191,2.556561279672068,-1.1283757950666589,10089.52453949848,-20592.087889791925,9038.047450425262,-0.0003269370484453,-0.0003039597108704
10818,1724812251276433994,0.1451183408498764,-0.5438423156738281,0.1502836346626281,0.0257521960884332,-0.0388242304325103,0.1078935265541076,0.9930703043937684,0.0,0.0,0.0,46.74983527506844,-86.65929345326535,26.58324995528007,50.912376824,-0.2001824060350396,-0.0862235772943264,-0.0153789411589265,388.32130639788215,293.4361100462183,-91.71444422600132,0.0429297964593737,-0.0827618185896753,0.2146661219503997,-0.0169394165935692,0.0495051431579174,-0.015661927802868,-224.05975053176047,332.13614131885674,-139.6107275201225,-0.0002212143523673,-0.0001868915707831
10820,1724812251294354207,0.1448979824781417,-0.5431798696517944,0.150020569562912,0.0270113945007324,-0.0388840176165103,0.1080007404088974,0.9930227994918824,0.0,0.0,0.0,19.345516344279304,-54.12578465043498,39.896547272531734,50.930297037,0.1394411719795758,-0.0216867493029836,0.0071705184275427,-674.9629480025777,-2778.98447268413,4152.44465156084,0.0454193604483197,-0.0831557354112997,0.2147776906509158,-0.6347548697522143,1.68941874145753,-1.2714291643061983,5936.6615981282375,-15895.729201344397,12119.307666829496,-0.0002872555213257,-0.000250215087597
10822,1724812251294732072,0.144653171300888,-0.5425283312797546,0.1495301276445388,0.0269991662353277,-0.0390999391674995,0.1082961931824684,0.9929825067520142,0.0,0.0,0.0,21.64825866422107,-60.273340930209265,44.56665251651443,50.930674902,-0.1211325726270712,-1.0939383827631255,1.6093092101814268,-666.5736789808765,-2739.127557450614,4092.186517668184,0.0453243917206194,-0.0835962574775135,0.2153684834249893,-0.6270160460997473,1.667806111579544,-1.255477437142532,5895.961013242969,-15732.627583826628,11954.69241904471,-0.0005111018792169,-0.0004792514065648
10824,1724812251305568675,0.1443424969911575,-0.5420002937316895,0.1491179913282394,0.0260625891387462,-0.0400529578328132,0.1083671376109123,0.9929618239402772,0.0,0.0,0.0,23.967224139986406,-64.01100562229225,48.40620519369582,50.941511505,-0.1900744403216538,-0.1557307922688654,0.0249224342801695,17.716275958092535,45.48504895592511,-72.07401729249263,0.0432481165771942,-0.0852941553665546,0.215564285391131,-0.0294759741721133,0.0584959078132314,-0.0418139325825599,-1749.5032892162972,4725.788149408636,-3450.4132045004026,-0.0004192114378928,-0.0004139741575187
10826,1724812251313757777,0.1440961211919784,-0.5414608120918274,0.1487521678209304,0.0265195984393358,-0.0401480831205844,0.1079470217227935,0.99299156665802,0.0,0.0,0.0,-2.510570463726339,6.068544542906257,-3.3948053615495795,50.949700607,0.1040119606122973,-0.0375471188361763,-0.1065336674700947,29.656951557529567,12.336586421253868,-12.98764770654146,0.0441756650601804,-0.0855632032892037,0.2146759961350245,-0.0261215768649796,0.0571988096935238,-0.0389347689065608,-1539.026095669626,6906.175967561286,-5404.929022842005,-0.0003789850690069,-0.0003614475653582
10828,1724812251355570445,0.1438502371311187,-0.5409221053123474,0.1483490467071533,0.0266256816685199,-0.0394883342087268,0.1080700680613517,0.9930018782615662,0.0,0.0,0.0,294.85004271331536,-57.742703677502504,-32.83367971287453,50.991513275,0.0086683919383632,0.0309643415983605,0.0047505007376329,-22315.710730906405,7598.595210535879,-7109.285344735657,0.0445163428535764,-0.0842785932511748,0.2149327867644978,-0.754528885981756,1.640335733657139,-0.980701048272067,320736.13842405786,1668611.4719395493,-2813120.823454225,-0.0004165081625008,-0.0003981023434226
10830,1724812251355851884,0.1436364650726318,-0.5404573678970337,0.1480711996555328,0.0257213227450847,-0.0392716415226459,0.1077623069286346,0.993067741394043,0.0,0.0,0.0,385.71181578665767,415.033468841757,-829.8832984140636,50.991794714,-6.314112411784335,2.18389668902209,-2.0095521880152116,-11823.231562065506,1866.9115251221629,2285.015393562798,0.042784597893764,-0.0836398636217882,0.2143926721393705,-0.670955034047239,1.6239035747527168,-0.9899612574272396,107575.28017058276,1554758.8636010736,-2641219.79371084,-0.0002888086142741,-0.0002746733619235
10832,1724812251356180473,0.143449991941452,-0.5399342775344849,0.1477448642253875,0.0246979240328073,-0.0392954535782337,0.1081108748912811,0.9930549263954164,0.0,0.0,0.0,338.4733806565671,877.919216051846,-1624.5489189819227,50.992123303,-6.116162348726597,0.5788336488216315,2.3636554975051185,11580.275296597512,-1153.287601564854,10212.107721812925,0.0407092373880388,-0.0834822507035421,0.2151793635683198,-0.5101626947193836,1.9419008494837728,-1.568403780148003,-339387.46018364956,356069.02198225935,-649237.396747259,-0.0003414754914294,-0.0003192640314447
10834,1724812251356416277,0.1433393955230713,-0.5394171476364136,0.147277683019638,0.0244873985648155,-0.0392174310982227,0.1086038425564765,0.9930094480514526,0.0,0.0,0.0,225.34080971577887,783.7552282291344,-1478.262554865671,50.992359107,-1.5278253622409217,0.9383122124141264,4.247649509787023,18922.3511351674,1478.4563723862,7753.491233954571,0.0402645706373005,-0.0833017178364853,0.2161926387682798,-0.4558791353378387,2.1337139162259646,-1.9284931789206776,-467072.81222550565,-391311.48027610395,608499.0089564448,-0.0004867125152552,-0.0004536418906436
10836,1724812251364645027,0.1433610916137695,-0.5388979315757751,0.1465513259172439,0.0256795994937419,-0.0395687334239482,0.1095862388610839,0.9928573369979858,0.0,0.0,0.0,29.056695558120733,-133.23160525078444,119.33249740718163,51.000587857,0.2887354378991131,-0.1118598099219763,0.2318447101659653,117.00632711145852,-61.52694632296402,-265.5980580041183,0.0424835793350598,-0.0843002877739613,0.2180672535549117,0.0012520970607861,0.0581005436100916,-0.0772136074962164,-14066.468987011787,-51741.21400849828,95989.51386491816,-0.0007556861168833,-0.0006993245950794
10838,1724812251373774633,0.1433584988117218,-0.5384181141853333,0.1459583938121795,0.0270578656345605,-0.0394411720335483,0.1099127903580665,0.9927898049354552,0.0,0.0,0.0,-0.231418354983532,-0.9452987298495814,1.4236917958587094,51.009717463,0.3060495817009495,-0.0040911265325005,0.0599823614496457,-20.862462196854487,3.1710294694121357,-14.627951937153297,0.0452315930581499,-0.0843616277266832,0.2186146914638761,-0.0018543971317921,0.0471865563976159,-0.0578371396648105,-1688.2505545418055,7689.676008469729,-6882.985778392117,-0.0006199700868408,-0.0005688192872913
10840,1724812251384062347,0.1433212161064148,-0.537994921207428,0.1454457938671112,0.0262263100594282,-0.0398982055485248,0.1096540614962577,0.9928224682807922,0.0,0.0,0.0,0.0188171177192155,-0.6682937569167375,0.5409452235722036,51.020005177,-0.1724157759643632,-0.071551754012184,-0.0418537330531882,-9.235946858677494,2.5598520273156256,-1.8654749585467831,0.0434971310136522,-0.0850779113983172,0.2181502240766797,-0.0029733220084375,0.0403615292528307,-0.0512902773108763,14.64102289614696,66.48424500223261,-124.55466178873088,-0.0005332647702467,-0.0004950956024065
10842,1724812251394371968,0.1432972848415374,-0.5375868082046509,0.1449018865823745,0.026795158162713,-0.0395838171243667,0.1097969487309455,0.992803990840912,0.0,0.0,0.0,0.0697230089761162,0.4258345955892193,-1.14350184461626,51.030314798,0.1174484852360306,0.0490348916993357,0.0219108959515984,11.5812297959595,5.746735735300362,3.9417903441844144,0.0446868886326803,-0.0845828148408861,0.2183990403908888,-0.0014612188980249,0.0334212720368789,-0.0466992953684837,0.6415001813624492,66.40134038030602,-88.89168814853079,-0.00056494263513,-0.0005252774881587
10844,1724812251408679659,0.1432934552431106,-0.5372310280799866,0.1443540155887603,0.0264545008540153,-0.0395326018333435,0.1100265011191368,0.9927898049354552,0.0,0.0,0.0,-0.0064050053775661,0.5870848624256535,-0.9361630786555803,51.044622489,-0.0451667539600185,0.0131173141268823,0.0337678932294228,-86.85607931530797,20.668030648065503,-2.985766248517044,0.0439990739996027,-0.0844167463305652,0.2188918057882125,-0.0019915020709113,0.0613362999497724,-0.0946079603588962,8.641762662897865,-231.22610405383185,348.5073260179202,-0.0005668966559397,-0.0005301213721556
10846,1724812251413508982,0.143281027674675,-0.5368753671646118,0.1438053250312805,0.0250043701380491,-0.0393282361328601,0.1100113913416862,0.9928371906280518,0.0,0.0,0.0,0.0580885997379522,-0.9248635955993344,1.2913565362699762,51.049451812,-0.5876766748971869,0.1507120359764316,0.0131308395132399,-57.737335768640904,18.98946791676362,-3.2209797648668728,0.0411530455485829,-0.0836922701359393,0.2189864805804957,-0.0019724599297319,0.0619481797808987,-0.095196818806114,8.402216220936172,-201.33016118082563,252.0570230462241,-0.0005661413151356,-0.0005327648180998
10848,1724812251423896688,0.1432739645242691,-0.5364932417869568,0.1432280093431472,0.0250938385725021,-0.0386105142533779,0.1100520342588424,0.9928585290908812,0.0,0.0,0.0,0.0347146277599124,-0.5194029743535098,-0.7644463145946228,51.059839518,0.0325095899115284,0.1356591883080362,0.0031844386924267,29.34786328638609,-5.754760333362091,-0.3598786539160844,0.0414831489363046,-0.0822856396470901,0.2190780242941268,-0.0001592458545625,0.0288452365295341,-0.050204596818967,16.45093342173996,26.359500128903505,-37.80546850669093,-0.0005966532611311,-0.0005596542662301
10850,1724812251441450772,0.1432866156101226,-0.5362224578857422,0.1425060778856277,0.0221041589975357,-0.039765503257513,0.1100386008620262,0.9928855299949646,0.0,0.0,0.0,0.8782537679095603,-0.4326311089389847,3.321250412871038,51.077393602,-0.352810660059823,-0.0930854542400036,0.0145957153264391,-182.036275100536,-150.78957141422137,66.82511207280929,0.0352737677818357,-0.0839283035875392,0.2192720402271772,-0.0036981197466303,0.0988528222592606,-0.2147862607106958,38.597078332941805,-559.0176831661523,1336.602333059761,-0.000734135768117,-0.0007083663090433
10852,1724812251443896441,0.1432760655879974,-0.5359522700309753,0.1419216096401214,0.0211277343332767,-0.0405033752322196,0.1102268397808075,0.9928561449050904,0.0,0.0,0.0,0.9694272318289118,-1.991964704089304,6.966259125890941,51.079839271,-0.8525580296840805,-0.5088060998201182,0.200575998168349,-146.24395924695787,-126.45852626219065,55.744206465807025,0.0331507499697759,-0.0851887368642926,0.2197213642507683,-0.001182257958296,0.0962884476486376,-0.2023372848969984,15.780390930393246,-533.7645581410762,1200.9029835329045,-0.0005949773000552,-0.0005740036281872
10854,1724812251453961254,0.143393874168396,-0.5355708003044128,0.1414029151201248,0.0215411912649869,-0.0403436720371246,0.1098499074578285,0.9928954243659972,0.0,0.0,0.0,0.2377508592780412,-3.063727760933098,7.062333114192282,51.089904084,0.0818713505100892,0.0211857830653506,-0.0792244807434923,33.658760823391525,22.97648925898526,-6.61514417048654,0.0340421093913682,-0.0849488230127039,0.21892868173527,0.0061197118075924,0.0371625946705158,-0.0545167008699962,-47.92930094170226,102.44872908219357,-377.75135142944606,-0.0005451042879933,-0.0004935923051448
10856,1724812251463333019,0.143402487039566,-0.535228967666626,0.1408659815788269,0.0209902133792638,-0.0405140668153762,0.1100281700491905,0.9928805828094482,0.0,0.0,0.0,0.0046979071804841,-0.2803449304483494,0.1424135003155955,51.099275849,-0.1191386681062958,-0.0224969576633287,0.0436471534534817,-8.98540016800453,-1.6994235299566722,10.5528314014829,0.032891314595672,-0.0851732339807836,0.2193319215519796,0.0040915888853074,0.0329781857771678,-0.0548652185813534,-5.843479641874257,188.10963625870025,-398.93430103042584,-0.0005526465874222,-0.0005227645259725
10858,1724812251473801374,0.1434824168682098,-0.5349246263504028,0.1403200179338455,0.0206165052950382,-0.0405959486961364,0.1106587052345275,0.9928150177001952,0.0,0.0,0.0,0.1659797776099981,0.4156096624004344,-0.0645518730479794,51.109744204,-0.0674671509907886,-0.005655473851329,0.1242065833136635,2.825013698783136,9.441183828560757,0.2605847641689225,0.032074188340849,-0.0852746385487808,0.2206342895250437,0.0067262139429189,0.0319862244166131,-0.0512742563659038,3.8285077172825055,27.15501107169104,-2.8928001492433815,-0.0005649714519162,-0.000527167909086
10860,1724812251484420141,0.1435440480709076,-0.534553587436676,0.1397850215435028,0.0201838761568069,-0.03969307243824,0.1109124198555946,0.9928320646286012,0.0,0.0,0.0,0.0819221231226625,0.2803606817718052,0.0865263852245217,51.120362971,-0.0602068489108877,0.1789635337714527,0.0468894612959044,-18.56596012821818,-5.8722129786521355,10.538803647640606,0.0313876978271913,-0.0833910126448846,0.2211942105641673,0.0075656602723288,0.0418968312877297,-0.0563499231313251,73.06137504735294,211.26428733256165,-204.11347878475905,-0.0005555939332145,-0.0005161374554708
10862,1724812251493628016,0.1436277776956558,-0.534112274646759,0.1392185091972351,0.0184034146368503,-0.0401940606534481,0.1121444255113601,0.992708146572113,0.0,0.0,0.0,1.4012211565550443,4.014180114569969,-3.5362563814542236,51.129570846,-0.3848579320795577,-0.0608118392644538,0.2862121048631552,-17.698740615526415,-16.47820886001793,13.935579339271694,0.027624327758808,-0.084028473216104,0.2238211668141799,0.0083428965896752,0.0392649153314401,-0.0510458471629893,51.82871956992987,138.2867807464759,-115.83291584327326,-0.0005907376627414,-0.0005451243281422
10864,1724812251511815917,0.1437525600194931,-0.5337093472480774,0.1386665552854538,0.017696289345622,-0.0404427051544189,0.1130758002400398,0.992605209350586,0.0,0.0,0.0,-0.9415576755855426,-3.0706087271705087,4.33036865413311,51.147758747,-0.0759321268861725,-0.0169924227953642,0.1065681258037973,-38.610839838451945,-126.96223639843448,453.0396572983075,0.0260804333060194,-0.0843894524992421,0.2257572647149272,0.0811355879094151,0.2667555936930625,-0.2631001168902571,-530.7284879248895,-1726.8303178760316,1696.5022375573412,-0.0005771621298433,-0.000528814892751
10866,1724812251513412207,0.1438924819231033,-0.5332492589950562,0.138213962316513,0.0175737105309963,-0.0406568311154842,0.1137764602899551,0.9925185441970824,0.0,0.0,0.0,-1.8450634419050496,-6.014487278025293,7.215563337786429,51.149355037,-0.1453552862051244,-0.237786037785379,0.8946058685273383,-34.13604197758727,-117.86432682522504,426.42021542574696,0.0257281782297891,-0.0848058847943637,0.2271800811299455,0.0789399555088425,0.2596714618195719,-0.2539474555630554,-502.5635492780207,-1641.0408187983803,1599.1710038233912,-0.0004818565415338,-0.0004271717910382
10868,1724812251525169654,0.1440659463405609,-0.5326687693595886,0.1377898454666137,0.0189914144575595,-0.0396281741559505,0.1143479943275451,0.9924683570861816,0.0,0.0,0.0,-2.260071736017598,-7.715470604966285,7.981988642004509,51.161112484,0.2633655285208884,0.1475938268391345,0.0845849569250464,6.848887464238898,-4.619654068240936,-23.992148122242178,0.0287370550628925,-0.0830982818545776,0.2282251507814401,0.0165793664373996,0.0524227670970276,-0.0407832827782321,119.9018557164448,371.02952184454455,-425.99218291797746,-0.0004625135037548,-0.0003914591314969
10870,1724812251534290504,0.1442300826311111,-0.5321690440177917,0.1373845338821411,0.0196220614016056,-0.0402974188327789,0.115187682211399,0.9923321008682252,0.0,0.0,0.0,-0.06835080123354,-0.682510001670463,0.6212402848607994,51.170233334,0.1283286855840484,-0.159145277599917,0.183461584368346,-24.492564782437697,-17.925680273419445,2.974565855513373,0.0297705198927256,-0.084598157384618,0.2298610823426216,0.0175023809631058,0.0521803240357598,-0.0397840905724145,169.6644389822468,454.74288080532426,-486.14733437042514,-0.0004401683737546,-0.0003749923578965
10872,1724812251543684020,0.1443897187709808,-0.5317041277885437,0.1370558440685272,0.0187804400920867,-0.0412340015172958,0.1157649978995323,0.9922426342964172,0.0,0.0,0.0,0.8420633537769701,0.5287148417025029,-0.8411209491742211,51.17962685,-0.1954605240871994,-0.1755964014019111,0.1353033701253712,-22.386803358041135,0.4876619800674935,-5.430445924372129,0.0278297070226321,-0.0862835252161626,0.2310884676494411,0.0152200520909202,0.0394234814877432,-0.0289982009324281,53.036601371184815,65.01184870883206,-81.91494749880866,-0.0003614745721783,-0.0003006946772626
10874,1724812251559872333,0.1445866078138351,-0.53134685754776,0.1367536038160324,0.0170928407460451,-0.0422919243574142,0.1159876808524131,0.9922026991844176,0.0,0.0,0.0,0.4763880281201036,-0.2024024418051944,-0.1093425176987388,51.195815163,-0.220782282616093,-0.1052383669162206,0.0389210831854122,130.3103672060135,-17.562391037220966,134.21285775397456,0.024204460723445,-0.0880029871732654,0.2316762749258755,0.0591219919750969,0.1006196181629377,-0.0981136094640149,-217.57812528020244,-423.0659981916525,432.4742876822834,-0.0003323489172594,-0.0002750647697962
10876,1724812251563293431,0.14482282102108,-0.5309458374977112,0.1363605111837387,0.0176291354000568,-0.042553324252367,0.117022804915905,0.9920605421066284,0.0,0.0,0.0,-0.4089424332715234,-1.922970774680826,1.650185022579988,51.199236261,0.3203656209571409,-0.1811606332947822,0.5994148623573121,117.15575925628472,-17.455249281580272,119.87861472061113,0.0251202465754212,-0.0886731289302236,0.2337189712498103,0.0591354817887048,0.0970477687015183,-0.0954799749548009,-202.81716714202392,-395.3647245155207,407.00228202950655,-0.0004284147098434,-0.0003604732691772
10878,1724812251575471842,0.1451133489608764,-0.5306384563446045,0.1360397338867187,0.0175340920686721,-0.0437300503253936,0.1179230734705925,0.9919044971466064,0.0,0.0,0.0,-0.4525584167906435,-2.074701017888139,1.9544644579344,51.211414672,-0.0313558422506724,-0.1883711338410161,0.1537426848689349,-45.20283878639984,-14.379309145162116,-4.099830500565432,0.0245749001562203,-0.0910130122328332,0.2355411152710553,0.0362555260530044,0.0355261479154194,-0.0372172404568846,28.231021556210635,92.06595085949856,-118.1330799004966,-0.0003572178938661,-0.0002854260251587
10880,1724812251583535996,0.1454719305038452,-0.530297040939331,0.1356815248727798,0.0157299861311912,-0.0454919375479221,0.1189873665571212,0.9917283058166504,0.0,0.0,0.0,-0.0550262598285746,-0.7741223528053581,0.2375948473137334,51.219478826,-0.4830356671930049,-0.3779495245837144,0.2942009436252108,-13.863206905041595,-1.8936722405036504,3.113480107107481,0.0204658051454408,-0.0941134947331481,0.2378542256788567,0.0402215357431892,0.0346920666098,-0.0365658951230294,29.451003210197936,79.2053548760233,-121.9214368922742,-0.0004019103042877,-0.0003158956108148
10882,1724812251593559623,0.145822212100029,-0.5300445556640625,0.1354128569364547,0.0152910519391298,-0.0461956150829792,0.1196867376565933,0.9916184544563292,0.0,0.0,0.0,-0.0070761472641953,-1.002771276426116,0.1490394469865001,51.229502453,-0.0968688265645627,-0.1276235756989021,0.1471910007054207,32.64271654462237,14.741099072484978,-1.1899483100535644,0.0193570362431423,-0.0954218631512362,0.2393103732374172,0.0328568515963612,0.0185762559186351,-0.032230422735501,27.64333103509668,32.17877963261821,-4.769506380236075,-0.0003086539711084,-0.0002291569538607
10884,1724812251605579902,0.1461870521306991,-0.5299165844917297,0.1349472105503082,0.0165263768285512,-0.0466576181352138,0.1216856092214584,0.991333782672882,0.0,0.0,0.0,0.6547179317632001,0.176685190988872,0.1503065211001595,51.241522732,0.2107051511745232,-0.097929257347028,0.3271450335630114,25.92638225109115,2.7889084188825155,-3.741966730959639,0.0215133041755056,-0.0966791278601705,0.2432360146603933,0.0432607077783941,0.0152436903932979,-0.0345252774268658,-24.095144686703183,40.16626371753067,17.429737108057974,-0.0005012936276387,-0.0004254071588657
10886,1724812251613600403,0.1466031074523925,-0.5297697186470032,0.1346928477287292,0.0181970633566379,-0.0467590242624282,0.1225422918796539,0.991194188594818,0.0,0.0,0.0,0.0378703582115835,0.1886782215458431,0.3828156316235778,51.249543233,0.4204590426076373,-0.0738560083522205,0.1969878620680601,5.79832929345716,5.636115497716697,-10.862350329940847,0.0247332455234871,-0.0973078583250468,0.2448092227622799,0.0473837041556119,0.0190900752693821,-0.031493641151175,-51.912433976118024,-27.57070560332577,12.2896532601502,-0.0002967736689853,-0.0002090455772703
10888,1724812251623926712,0.1470327079296112,-0.52956223487854,0.1343705654144287,0.0192204173654317,-0.0465418137609958,0.1233937889337539,0.9910793900489808,0.0,0.0,0.0,-0.1658657152377864,-0.4824582582856335,0.2876997192836388,51.259869542,0.2097291853035561,0.0193719786868855,0.1561570509575754,-45.96477481037445,-4.433537270421554,-3.8226411577445862,0.026741242201221,-0.0971493688928793,0.2464340067372826,0.0414438552194864,0.0171710264352213,-0.0274763572868392,-9.206661349856397,-39.97344926799957,-17.033854775496003,-0.000368530121954,-0.0002734566291485
10890,1724812251633761040,0.1474387943744659,-0.5294207334518433,0.1341353207826614,0.0169368106871843,-0.0475777387619018,0.123852752149105,0.9910146594047546,0.0,0.0,0.0,-0.1578495146504543,-0.6412436930023855,0.0469162694002756,51.26970387,-0.4816713646750297,-0.1503086442926318,0.1197947537595096,-23.963389809111867,-13.938575186406382,-0.101338454273959,0.0218921792106289,-0.0986557719875416,0.2475813386175587,0.0436465564495742,0.0096483172120613,-0.0255960978396814,-22.48792095858707,15.24340176911257,-16.00633306539256,-0.0002770528527473,-0.0001909643699437
10892,1724812251643692429,0.147895872592926,-0.5293724536895752,0.1338643133640289,0.0158030167222023,-0.0490047000348567,0.124532863497734,0.9908785820007324,0.0,0.0,0.0,-0.6149015538469842,-0.1750380422991679,-0.0270231121144803,51.279635259,-0.2548841141158423,-0.2554871982136432,0.1548555601891931,-7.355034313807216,-1.69836425693103,2.5266252914476732,0.0192118677263297,-0.101224179474124,0.2490742350425115,0.038249358932501,0.0045205165022146,-0.0265771691758995,-1.747181816425054,45.537820016855335,-1.0090884811457166,-0.0003142620034119,-0.0002224592950915
10894,1724812251653663790,0.1481994390487671,-0.5293307900428772,0.133606418967247,0.0127605842426419,-0.0503152906894683,0.1252035051584243,0.9907722473144532,0.0,0.0,0.0,-0.1890766919987503,0.2649716211425451,0.0273481830871251,51.28960662,-0.6304751750606803,-0.1833984586001609,0.1700011458445855,-1.4882824264420282,8.110335438984674,0.3650107985515793,0.0127544085265882,-0.1030797747146017,0.2507486701968196,0.0314026008028855,0.0061919173751583,-0.0261281836143787,39.73057168789231,23.376875003802525,14.819562105366952,-0.0002873792307906,-0.0002247398869084
10896,1724812251664104914,0.1485377997159958,-0.5292441248893738,0.1333307176828384,0.0114809172227978,-0.0509504787623882,0.1259653866291046,0.9906588792800904,0.0,0.0,0.0,0.1932379681013971,0.2821872333466921,0.2844886427109909,51.300047744,-0.250472154570503,-0.0890881117911401,0.1611966836467391,30.658304425328396,4.136803846723376,0.3994985934263688,0.0099653900071943,-0.1040290175335524,0.2524300850167533,0.0348683212855815,0.0100228644933082,-0.0260359262496852,6.161563707612702,-7.029985115453757,23.831800055322105,-0.0003104595521772,-0.000238202346076
10898,1724812251673743875,0.1488958001136779,-0.5291321873664856,0.1330830454826355,0.0114653259515762,-0.0514068081974983,0.1267995238304138,0.9905290007591248,0.0,0.0,0.0,-0.0183696067139265,0.1371977094059164,0.5071205265970586,51.309686705,-0.0060040767236999,-0.0927783728816147,0.1761059280823172,21.375489859733264,0.9451959470011602,-1.929463579749912,0.0097304393982091,-0.1049399651765391,0.2541279028437572,0.0354967952823592,0.011988961809731,-0.0208408763308804,-17.017649914144926,-12.093552001807549,2.6581468778089032,-0.0002857176398049,-0.000207715232363
10900,1724812251684712647,0.1492646336555481,-0.5289959907531738,0.1329150348901748,0.0124503886327147,-0.0516471602022647,0.1274516731500625,0.990420937538147,0.0,0.0,0.0,-0.1434245737377064,0.041349312753117,0.2811573809152593,51.320655477,0.1786928433775227,-0.0658340224007121,0.1115515874824646,-10.647240952381429,-3.8743555130238416,2.2310987356573815,0.0115619708536972,-0.1056750764276004,0.2553505203291236,0.0342521657473788,0.0126603475887883,-0.0156758546536446,29.32638229781386,1.794702106068108,-30.44781746691056,-0.0002087770565066,-0.0001265923003372
10902,1724812251694365346,0.1496005803346634,-0.5288717150688171,0.1327606737613678,0.0117434421554207,-0.0525066889822483,0.1283685714006424,0.990265965461731,0.0,0.0,0.0,0.4856142666964194,0.1481459497625152,-0.0963938595369106,51.330308176,-0.1575597292622246,-0.1570093332144438,0.2020325964201733,-14.887464713107944,0.0935467821426952,2.4898834368071063,0.0098344684662087,-0.1072114203981079,0.2572953701557153,0.0326132836914032,0.0128907826692241,-0.0145735680417082,49.84628578859687,15.174359474314576,4.10187992042399,-0.0001919557631628,-0.0001163039110783
10904,1724812251707179854,0.1499812453985214,-0.5287062525749207,0.1325980424880981,0.0116417948156595,-0.0524818152189254,0.1291072964668274,0.9901725053787231,0.0,0.0,0.0,0.8637315877720395,0.4125247468947817,0.691350010189655,51.343122684,-0.0089865863301066,0.0064688961318226,0.1168326852453818,12.26920326940213,-1.076878857296817,9.062645600895722,0.0095581540151121,-0.1071430584700016,0.2588019331952594,0.0499858345804806,0.0169033369622439,-0.0193913375156515,-60.83535645888054,-24.90368634805369,66.33100176332964,-0.0002061672920027,-0.0001194112528375
10906,1724812251714391719,0.1504240483045578,-0.5285681486129761,0.1324310004711151,0.0119156138971447,-0.0526589415967464,0.129998579621315,0.9900431632995604,0.0,0.0,0.0,0.0583174939068129,0.0481075655590496,1.1894384514998202,51.350334549,0.082237188280531,-0.0574469106447922,0.2459598527564841,-4.633528280898306,0.9171805046592456,-0.5205224380958952,0.0099605101323725,-0.1075746370148546,0.2605818532556282,0.0542181936585484,0.020281845706183,-0.0100734521396761,-71.71420309039833,-66.77797322822134,-0.2042197178791926,-0.0002160163149244,-0.0001171580265951
10908,1724812251724444787,0.1508684754371643,-0.5283483862876892,0.1325131505727768,0.0108343670144677,-0.0523507893085479,0.1298621594905853,0.9900897741317748,0.0,0.0,0.0,-0.1025792399116056,-0.8509053113599627,0.2166725107295432,51.360387617,-0.2065361262129144,0.0888233467912302,-0.0174783791354779,-5.724650315815708,11.203487845211807,-6.649663429037568,0.0079022242645736,-0.1066801440932861,0.2604131279912909,0.0473976734956567,0.0148747495973537,0.0004464944625013,-8.690785166391308,-36.085393028924166,-63.08047244780914,2.915721349438098e-05,0.0001307289269244
10910,1724812251734291536,0.1513659507036209,-0.5282692909240723,0.1324430406093597,0.0105002177879214,-0.0515692569315433,0.130375400185585,0.9900670051574708,0.0,0.0,0.0,-0.1176145866018956,-0.6917699474986219,-0.0796075134038655,51.370234366,-0.0410756904914107,0.1668670987869383,0.105646393365051,-8.633698498278845,7.818367299513848,0.440643027764114,0.0073858923431618,-0.1050450591671554,0.2614718923714971,0.0519416971398412,0.003476836505925,-0.005422828126143,67.40584008160175,58.0126369866755,-0.9253640218702994,-0.0001218668673802,-1.697937333113352e-05
10912,1724812251744394733,0.1519054472446441,-0.5282813906669617,0.1324058473110199,0.0083823669701814,-0.0506024286150932,0.1302111148834228,0.99015873670578,0.0,0.0,0.0,1.2779793704475897,0.3281886161312027,0.2133643050545547,51.380337563,-0.3919945062963479,0.244743512374728,-0.0149554461517697,-12.301961766895484,1.699283190830282,-6.207541754240724,0.0034398365165151,-0.1025715918048518,0.2613334527549185,0.0447503886786919,0.0013159740408426,-0.0008733317145748,49.47776275531916,54.030081982734885,18.51080763108541,-8.952193793507868e-05,1.820103798823917e-05
10914,1724812251760052326,0.1523962765932083,-0.5281997919082642,0.1324603110551834,0.0079313404858112,-0.049672070890665,0.1304116696119308,0.990183174610138,0.0,0.0,0.0,-0.0986129233082273,0.0355312527380924,0.2487225501465833,51.395995156,-0.0403000880909607,0.1255426975421849,0.026878124302645,-37.29500061038563,93.662174188756,49.497431517299134,0.0027653110885676,-0.1006072117222857,0.2617626128110504,0.11304332239893,0.0196082200412632,-0.0032820133477464,-568.4115666881429,-111.32285311066988,5.5286675865247545,4.582327628035471e-06,0.0001037103483438
10916,1724812251763514810,0.1528502404689788,-0.5281208753585815,0.1324437707662582,0.0074232462793588,-0.0488197617232799,0.1308016628026962,0.9901780486106871,0.0,0.0,0.0,-2.4346355506229127,-0.4208491694011609,0.2703696104177862,51.39945764,-0.2151881986087942,0.52739141071461,0.2341159254981063,-38.24819672455082,77.65230220189281,39.497088562525384,0.0019387115858302,-0.0987830359367347,0.2625815877763169,0.1092867174109533,0.018863926999856,-0.0021125831324284,-523.5692557293082,-98.11298878386025,-15.786433913873172,-6.16355117833448e-05,2.8463661235399936e-05
10918,1724812251773987400,0.1533035188913345,-0.5280477404594421,0.1325060427188873,0.0061586028896272,-0.0483321025967597,0.1307637691497802,0.9902156591415404,0.0,0.0,0.0,-3.1317084806608553,-0.3810718619896469,-0.5930251829393538,51.40993023,-0.2273677572677999,0.1241033333207685,0.0029942147800077,5.3915622680572035,-17.37035503123157,-7.7660418573981485,-0.0004456013887035,-0.0974833781388891,0.2626140764216579,0.0410379574534207,0.0079349265893142,-0.001415188267396,107.60866377430855,25.90072350225792,-46.24618391906648,1.750283416951197e-05,0.0001060610209474
10920,1724812251785042445,0.1537310034036636,-0.5279489159584045,0.1324044913053512,0.0055073597468435,-0.0474224798381328,0.1312054544687271,0.9902050495147704,0.0,0.0,0.0,0.090459385095742,0.1631955660724728,-0.6818623986647551,51.420985275,-0.091272814690782,0.1787580396822114,0.0840566490796951,-20.80772788549901,-8.954405256988048,18.089227234032663,-0.0015443839440964,-0.0955062756643763,0.2635456932469593,0.045921538127077,0.0114535766979813,-0.0156687758817781,267.3164269511765,16.945479175524994,2.7763346574840355,-0.0001429259691138,-6.0475009923897736e-05
10922,1724812251793553981,0.1541693955659866,-0.527834951877594,0.1322286427021026,0.0033931164070963,-0.0476523041725158,0.13240747153759,0.9900435209274292,0.0,0.0,0.0,2.207476200756952,0.0958434148392822,-0.5873764851440022,51.429496811,-0.4854109554158351,0.0114637113877456,0.3085142776445526,-37.08327951166196,-16.193916158740127,20.81584077902907,-0.0059273627976392,-0.0953988955200946,0.2661832567778279,0.0443893898588372,0.0118262879054942,-0.0174916057716496,1569.0786035417498,56.31880420473058,792.6589627078547,-0.0002182206317478,-0.0001339596511866
10924,1724812251835981975,0.154547706246376,-0.5276637673377991,0.1321566104888916,0.0009460411965847,-0.0467728711664676,0.1326548010110855,0.990057647228241,0.0,0.0,0.0,348.02693182160056,16.06995652528446,198.33801078050593,51.471924805,-0.108161115020087,0.0563873163313583,0.0168106589577864,-10850.752419999371,526.4759765148187,3039.6560208469004,-0.0105819471473575,-0.0930006758341941,0.2668797807101851,0.6429856966143461,0.0269019139433339,-0.1213456948134137,-154445.09176889423,275421.7448542827,94016.93034565722,-0.0001091044145355,-3.838806461480096e-05
10926,1724812251836618603,0.1549631059169769,-0.5276464223861694,0.1320782154798507,-0.0013439983595162,-0.0469489954411983,0.133172869682312,0.9899792671203612,0.0,0.0,0.0,248.14965838709008,194.03853247032504,259.04513433742875,51.472561433,-7.119791135660314,0.3965757339599494,1.9810429113772952,-10345.24499266112,1839.0233449977875,-537.2895751539048,-0.0152317560079201,-0.0927319424526048,0.2681430319478448,0.8677391559205319,0.0372826129323584,0.0068398510191514,-458108.70739958296,241975.79782014168,-55353.96085392972,-0.0001169828985673,-3.9846542813304414e-05
10928,1724812251837073182,0.1554274260997772,-0.5276262164115906,0.13212351500988,-0.0040114922448992,-0.0469273179769516,0.1331742703914642,0.9899729490280152,0.0,0.0,0.0,-57.87071877404446,291.8398967340034,184.96326020644807,51.473016012,-11.605549403732446,1.656035783022768,0.5609294061069491,4772.974702071428,5413.268322573519,-957.8212040978206,-0.0205297693035277,-0.0919747151497171,0.2683855819407865,0.9464974523345971,0.1831784543933281,0.1433232468601488,-577919.8462388854,51529.94718222649,-215843.2974966696,1.3687469296610503e-06,8.73310471925476e-05
10930,1724812251837519820,0.1558172851800918,-0.5274835228919983,0.1322066932916641,-0.0048525198362767,-0.0458599515259265,0.1333770900964737,0.9899918437004088,0.0,0.0,0.0,-274.1814773730786,243.05406779832927,65.35591436626873,51.47346265,-3.048801203095478,5.233501026344677,1.083735099690781,17924.730017273945,7430.048466972525,1082.6600652453649,-0.0219310227471922,-0.0896274752984437,0.2688216553539377,0.8192237644556484,0.3007519330082395,0.1753467400845114,-450226.8171005131,-104824.9441832277,-250936.45919270025,4.654525102144687e-05,0.0001146032120618
10932,1724812251843833286,0.1562013775110244,-0.527256429195404,0.1323422938585281,-0.0048950808122754,-0.0445693768560886,0.1336168795824051,0.9900182485580444,0.0,0.0,0.0,-75.04478500499017,-25.71683059911553,-14.41128790949187,51.479776116,0.0447053771140502,0.4065539905375417,0.0766875803824149,294.72494965200707,-470.26252639697464,-99.22010131075795,-0.0216866914430364,-0.0870507630579275,0.2692514101883299,0.0500537363700157,0.0336898610066001,0.0218863995992286,22144.728480918515,-24898.982725259084,-7100.331496390354,0.0001001534475138,0.0001635427867806
10934,1724812251853666178,0.1565284132957458,-0.5269600749015808,0.1325637549161911,-0.0053219073452055,-0.0431920439004898,0.1337177753448486,0.9900635480880736,0.0,0.0,0.0,-1.2034488102147682,0.0880218107869215,0.522667667370852,51.489609008,-0.0475572229973694,0.2892620134035767,0.0243268029168963,-10.403206277737787,-1.8738859714549427,-9.45351407933477,-0.0221694945454953,-0.0842019321095145,0.2694288819747993,0.0286263613620523,0.034783204365425,0.031724194050672,3915.107689005407,1333.2277649081686,726.5535767725845,0.0001918865653213,0.0002415805234987
10936,1724812251864112741,0.1567760407924652,-0.5265451669692993,0.1329972892999649,-0.0064275679178535,-0.0413405671715736,0.1330471634864807,0.9902262687683104,0.0,0.0,0.0,-0.1979046744821186,-0.3137830801836878,-0.6798460803927333,51.500055571,-0.1675571176256535,0.3812781800931779,-0.1202496698012295,-1.0404232869600485,-0.547697003371308,-0.9381850965291908,-0.0238088474766531,-0.0802487960284657,0.2680768431654304,0.0268833416791611,0.0354455696405153,0.031881052544417,41.54568475300957,-23.649669804691957,-71.13160498142389,0.0004120365408603,0.0004420214329734
10938,1724812251873478820,0.157054528594017,-0.5262490510940552,0.1332151144742965,-0.0070243650116026,-0.0400169864296913,0.132924735546112,0.990293025970459,0.0,0.0,0.0,-0.2682059356736761,-0.4108960659271988,-0.9767604360298308,51.50942165,-0.0895780721140006,0.2975830706635988,-0.0206989250287719,8.884859914894818,-8.887985853445628,7.385852489248441,-0.0246271947536216,-0.0774671202234755,0.2678147231432435,0.0247689824803174,0.0293392717955356,0.0196785667244894,-0.7069721719694027,8.34939568787377,-2.203397119601064,0.0001954833031055,0.0002313882249783
10940,1724812251885989768,0.1572814434766769,-0.525920033454895,0.1334015130996704,-0.0069928201846778,-0.038830891251564,0.1330326199531555,0.9903259873390198,0.0,0.0,0.0,-0.1634279353163066,0.0063735001345384,-0.5113691642845527,51.521932598,0.0309247151424281,0.1871880357018789,0.0175086702087859,-7.202677235268309,-8.463624571590374,2.859631110704199,-0.0242526621869729,-0.0751205672645262,0.2679769530668777,0.0207038987304351,0.0282271594310685,0.012907707007475,-6.398242035275336,-5.172463892871839,14.843092488573788,0.0001691017042067,0.0001948919555678
10942,1724812251894574273,0.1574742943048477,-0.525666356086731,0.1335005909204483,-0.0076191294938325,-0.0384080596268177,0.1331813186407089,0.9903179407119752,0.0,0.0,0.0,-0.3053725212843726,-0.2649537826617247,-0.515630798771342,51.530517103,-0.1300674068404561,0.1166540024542757,0.0409126845726575,-15.328335262802751,-11.672014104082823,7.9512469518298206,-0.0253936189362149,-0.0741107520052937,0.2683041519435676,0.0202522063130921,0.028843013777859,0.008693538834307,242.14196378865623,193.8767517497747,-67.29598881387213,8.49449346934315e-05,0.0001066298291455
10944,1724812251903999349,0.1576422750949859,-0.5254018306732178,0.1335530579090118,-0.0087474239990115,-0.0386878512799739,0.133931964635849,0.9901964664459229,0.0,0.0,0.0,4.653610808093297,3.8956408729893655,-1.841139294275181,51.539942179,-0.2390915434996658,-0.0291137819285297,0.1699212044209499,-7.046026317954766,-11.496890212794751,8.811315799587614,-0.0277666696487944,-0.0743424883924044,0.2699168301324212,0.0147585465682071,0.0228617103101838,0.0035778080053765,90.1098485680276,64.04969537090321,-13.645919519872706,4.087925619534464e-05,5.745474847069792e-05
10946,1724812251930008107,0.1578062027692794,-0.5251807570457458,0.1335033625364303,-0.0099566141143441,-0.039409764111042,0.1345197409391403,0.9900768995285034,0.0,0.0,0.0,-24.29801315793111,-21.52443756543221,6.91829174192776,51.565950937,-0.0978385114383349,-0.0432664752620281,0.0490983798967053,16861.498709440304,-1124.0504905944863,5762.575715190926,-0.0304095528464457,-0.0754301808119086,0.2712296887384908,0.5116257947209419,0.4493275725842522,-0.1374937261085165,-3118.1466805929304,-2757.9433700215086,858.9642753056887,-6.074814844471365e-05,-4.388038187071433e-05
10948,1724812251930477480,0.1580506265163421,-0.5249661207199097,0.1334376782178878,-0.0081147952005267,-0.0392867177724838,0.135245680809021,0.9899996519088744,0.0,0.0,0.0,-25.778570647506665,-22.834024360698432,7.325889553860616,51.56642031,7.959275525251956,-0.5803822520146094,2.8027479270293627,16413.567386722225,-1094.262144113403,5609.522748851404,-0.0267738018636961,-0.0756648702444832,0.2725562326465153,0.4998533215734992,0.4389033635480719,-0.1341419195497311,-2960.28255331632,-2616.266620011295,813.9489338667794,-8.385482376491431e-05,-5.272576202389914e-05
10950,1724812251941185043,0.1582996547222137,-0.5247560739517212,0.1334177553653717,-0.0081349844112992,-0.0396542139351367,0.1355555206537246,0.98994243144989,0.0,0.0,0.0,-10.076691968414574,-8.391891427129805,2.743717253844544,51.577127873,-0.0108299754336555,-0.0683354112333182,0.0583309516954003,-372.6660664182364,-98.1360427233648,71.30009276402504,-0.0269388164565804,-0.0763795364171152,0.273202090373588,0.0535018994838907,0.0416844370617184,-0.0105445159496966,2399.615138809211,2186.0522643130744,-663.1028973192944,-3.883325158465252e-05,-6.4966214215694165e-06
10952,1724812251944573806,0.1585133969783783,-0.5245911478996277,0.1333727091550827,-0.0095185153186321,-0.0407811477780342,0.1365965753793716,0.9897412061691284,0.0,0.0,0.0,-0.9441353958286676,-0.085913970102226,0.2444074789501612,51.580516636,-0.8750879373518261,-0.5574321782520286,0.651303549657204,-153.56422495582086,-83.39003255746317,109.6532497106844,-0.0300793213459185,-0.078204864051963,0.2754689303852926,0.0532545229648002,0.044032187964035,-0.0106838190602331,1927.749044937164,1741.8624303480942,-521.1754387929352,-6.142846297541467e-05,-3.313451977651174e-05
10954,1724812251953563404,0.1587579697370529,-0.5243058800697327,0.1333388835191726,-0.0088919643312692,-0.0400266833603382,0.1369723677635193,0.9897258877754213,0.0,0.0,0.0,-1.9101917184451156,-1.3391322467222215,0.7186911019189821,51.589506234,0.1642698643584635,0.1461551709798834,0.079126910989195,49.98364800969701,38.03205669503795,-36.99531830911328,-0.0286548439273347,-0.0768706663327137,0.2761433849372833,0.0239928695464897,0.024689512802027,-0.0016779339390753,11.057478888249156,-8.369539340262332,31.016374208086567,-5.179230385128054e-05,-2.3078990014881813e-05
10956,1724812251965617283,0.1589952409267425,-0.5241221189498901,0.1333523541688919,-0.0106237065047025,-0.0405386202037334,0.1372853070497512,0.9896447062492372,0.0,0.0,0.0,0.1387152694277607,0.6779086169443673,0.7411370561887279,51.601560113,-0.29405757318434,-0.0457128187826471,0.0639806505826393,3.247425922755813,-1.1908641720890376,0.5594367295465061,-0.032260260673784,-0.0773979556860221,0.2769334200247808,0.0227042765039806,0.0216806109578833,0.0024090927163697,76.54620934839777,73.37707589337592,-15.194570238308245,-4.488236955714788e-06,2.5859900563239416e-05
10958,1724812251976227927,0.1592643558979034,-0.5238319635391235,0.1333899796009063,-0.010039173066616,-0.0400261841714382,0.1377639919519424,0.9896050691604614,0.0,0.0,0.0,0.0782373885195888,0.5788959755506786,0.4205996615303323,51.612170757,0.1258763357462751,0.0792015099793461,0.0868783007486677,9.996271987781178,10.191316042315428,-3.862688649318783,-0.0309936296167175,-0.0765288351180124,0.2778308344473684,0.0264702590043732,0.0375369801374034,0.0140284886925137,-12.986230138297724,-95.15823268766876,-81.90767394481449,1.7998898151659033e-05,4.9107034596904635e-05
10960,1724812251983972762,0.1594756245613098,-0.5234836339950562,0.1335578858852386,-0.0099840657785534,-0.0394343100488185,0.1378516256809234,0.9896172285079956,0.0,0.0,0.0,-0.0635297089346946,-0.6432716994555727,-0.5060165520047074,51.619915592,0.0360764579360904,0.1491927856881485,0.0229272423396196,-5.496943222315979,0.4451292606911693,-2.9384218477597153,-0.0307250186763978,-0.075368439411851,0.2779730996361914,0.0255120667698927,0.0368451410906445,0.013473152190488,-9.048461578731144,-91.87942457055335,-73.81518005967713,0.0001533757636095,0.0001725881485232
10962,1724812251994914091,0.1597274541854858,-0.5232061743736267,0.1335784494876861,-0.0096358517184853,-0.0392623096704483,0.1382607370615005,0.989570379257202,0.0,0.0,0.0,-0.0194568800676633,-0.6295485739349334,-0.6052857432641138,51.630856921,0.0701878983535879,0.0212552973526094,0.0729906938846196,-24.305424015478295,-14.628820902633064,1.4635939080413962,-0.0300167071377182,-0.0751117246941498,0.2787664933673767,0.025747337094172,0.0212445480788261,0.0012234482637891,-4.8078862884070155,50.124512777142854,18.233259202283403,2.535806111799706e-06,3.1090266791264796e-05
10964,1724812252004138542,0.1599861979484558,-0.5230422019958496,0.1335846334695816,-0.0112363938242197,-0.0401167832314968,0.1384843736886978,0.9894880652427672,0.0,0.0,0.0,-0.1325243234747586,0.2128856176661502,-0.2247347636484657,51.640081372,-0.3672851377424299,-0.1365189890084611,0.0622893172855819,-8.915228524009148,-4.170757394545778,1.226052223864841,-0.0334513279748311,-0.0763521894143471,0.2793825717405583,0.0252493146541894,0.0216300565814293,-0.0003603166133023,-8.656889744663786,38.62686743908604,21.96247201554973,-1.3360167997268588e-05,2.0430885977144425e-05
10966,1724812252013496903,0.1601959019899368,-0.5228031873703003,0.1335714757442474,-0.0116142835468053,-0.0404111221432685,0.1389175504446029,0.989410936832428,0.0,0.0,0.0,-0.1793549568322232,0.0740308576859299,-0.2023655737724761,51.649439733,-0.0850934682902579,-0.0527602017323966,0.0964178923774927,14.639241239451955,0.6214310113532182,6.397269267214977,-0.0343181408210554,-0.0768150764546198,0.2803037594132982,0.0232634766103583,0.0252467163726457,-0.0029670646117407,3.090649871211958,-10.135484771350557,0.7173876935795249,-2.774755567506211e-05,-5.195350204473365e-06
10968,1724812252023821268,0.16044582426548,-0.5225458741188049,0.1335230618715286,-0.012118668295443,-0.0412000566720962,0.1398926079273224,0.989234983921051,0.0,0.0,0.0,-0.0552455242702316,0.0229448549619774,-0.2140134899114021,51.659764098,-0.1106665715232879,-0.1412091893645133,0.1937930960891451,3.1659490800134913,0.0142245964850962,1.998983216675736,-0.0356199595863467,-0.0782021346932068,0.2823604906776896,0.0217858508559398,0.0224524103775678,-0.0041886422381542,6.77261696032499,1.340315298413175,15.66482147423719,-6.625126012740185e-05,-3.784629569127671e-05
10970,1724812252036647319,0.1606866717338562,-0.5222972631454468,0.1334773153066635,-0.0120155466720461,-0.0412016250193119,0.1405389010906219,0.989144504070282,0.0,0.0,0.0,-0.05200726996692,0.1403349193391838,0.2544828845587767,51.672590149,0.0198538017565336,-0.0042939801518639,0.101001570364227,-0.6031057767119821,2.0924120498582637,1.5463262845533414,-0.035466918521237,-0.0782111300566831,0.283661022085893,0.0224774576933342,0.0274248442030042,-0.0084583643003561,34.301559762682864,14.470744678279736,34.51224437565758,-6.299221457695464e-05,-3.554895294326854e-05
10972,1724812252044930652,0.1608926504850387,-0.5220270752906799,0.1333810836076736,-0.0121992109343409,-0.041353203356266,0.1411918848752975,0.9890429377555848,0.0,0.0,0.0,0.414271266422902,0.2886512871732176,0.5295815903154005,51.680873482,-0.04280632694649,-0.0328736173458947,0.1607843870568708,-3.787972031087203,-0.5478746480531631,-0.5118952031829213,-0.0359267215372637,-0.0784357284630995,0.2850058481053697,0.0214799899798219,0.0272640874406953,-0.0032081928379352,40.25973285800019,7.811835437085299,-9.037416503623716,-0.0001100677803763,-8.94094326277788e-05
10974,1724812252058012606,0.161103680729866,-0.5217810273170471,0.1335128545761108,-0.0123088238760828,-0.0412379950284957,0.1411501914262771,0.9890523552894592,0.0,0.0,0.0,0.6097302008468475,0.1823076677883293,-0.4615197810197878,51.693955436,-0.0143334392031903,0.0199237076014345,-0.005599774116414,30.2073427627175,11.687199998281486,8.189088293714901,-0.0361077510224327,-0.07817789659276,0.2849230081513146,0.0379464103518643,0.0374048433783826,0.0015660818571667,-118.49931608403548,-104.1145192408427,-21.511333979834035,0.0001164616407628,0.0001389087893222
10976,1724812252063602320,0.1613678932189941,-0.5215275287628174,0.1335012912750244,-0.0117478584870696,-0.0408613458275795,0.1414212137460708,0.9890361428260804,0.0,0.0,0.0,-0.3713558320980358,-0.6289141897685324,-0.4521923336897298,51.69954515,0.221465751832623,0.1035261810377115,0.090110755860283,22.173641791128944,6.593939903564468,11.18237428622961,-0.0349075031647742,-0.0775817058663632,0.2854073357277717,0.0398046000247731,0.0370078971301985,-0.0029876226987308,-126.42569733661598,-92.11340655904378,22.26031382476831,-3.079377818553156e-05,1.354104950169094e-07
10978,1724812252073741365,0.1616342216730117,-0.5213057398796082,0.1334540992975235,-0.0113868452608585,-0.0407164432108402,0.1419089287519455,0.9889764189720154,0.0,0.0,0.0,-0.7503677463288352,-0.5878737342102154,0.152205991997394,51.709684195,0.0782666408581218,0.0165871623195117,0.0942425637308807,-9.317828614074726,-5.3643344134743005,-1.9034006394788991,-0.034187638597714,-0.0773806140080668,0.2863593076004909,0.0230961026074556,0.0203709794982529,-0.0009063300127989,13.2055543708697,46.181100408032826,21.590865868819655,-6.690053376950716e-05,-3.3993444435710454e-05
10980,1724812252085328376,0.1618598401546478,-0.5210896134376526,0.1334932297468185,-0.0111996941268444,-0.040703322738409,0.1421554088592529,0.9889436960220336,0.0,0.0,0.0,0.0725058670781015,0.5051468177003384,-0.1010736134715121,51.721271206,0.0339368198813615,-0.0030588686036197,0.0415872505721664,21.812581857298905,1.934586082503198,4.7709022836518775,-0.033831850802677,-0.0773996512779345,0.2868435547546384,0.0262869689504707,0.0275028884353716,0.0001545550089119,10.040803429752197,33.14352483223206,12.847104621116916,2.2395260682400103e-05,4.914765854128043e-05
10982,1724812252093901947,0.1621284484863281,-0.5207976698875427,0.1334741115570068,-0.0096204532310366,-0.040307730436325,0.1428206115961074,0.9888807535171508,0.0,0.0,0.0,-0.2282310716185053,0.4011383522786766,0.2292413772704472,51.729844777,0.3835944062832483,0.0365562591911115,0.1415853047985881,-0.9890353805729636,-2.375792279004258,7.338830428181847,-0.0306361769973595,-0.0770472861408197,0.2880503541002142,0.0256215832322546,0.0311336810835207,-0.0019340313294309,-13.1586507698961,-6.575797764625467,31.496549201513247,-3.9010379013068835e-05,-7.293559818965655e-06
10984,1724812252104127146,0.1623208224773407,-0.5205149054527283,0.1334579437971115,-0.0102881072089076,-0.0407682582736015,0.1436246633529663,0.9887386560440063,0.0,0.0,0.0,-0.0954840907725405,0.4016487216877873,0.4655620642454445,51.740069976,-0.1359309636369303,-0.0730578122250195,0.1638866657273821,-28.85112371215837,1.425660239852987,-6.841531697172359,-0.0321578062110476,-0.0777413380171671,0.2897538326968188,0.0214510382222297,0.0349628633844041,0.0061763994238965,18.932434677473257,-12.569085848481611,-21.474169633692824,-2.974662890414185e-05,-1.0234299732944023e-05
10986,1724812252113328889,0.1625400483608245,-0.5201326608657837,0.1335790157318115,-0.0113187991082668,-0.0407272465527057,0.1437007486820221,0.988718032836914,0.0,0.0,0.0,0.127998436549833,0.1814967491434018,-0.1012402628760909,51.749271719,-0.2195899051257195,0.0406355849345412,0.0262193703315122,18.277548596301703,7.901752844285952,-3.980920025885665,-0.0341961903334268,-0.0773596232151668,0.2899832523108663,0.0231591947784872,0.0388836681326729,0.0077474614328014,10.07028120711536,-20.04062802106325,-28.585836807145057,0.0001063519189496,0.0001245519119124
10988,1724812252124107938,0.1627812832593917,-0.5197470784187317,0.1335942149162292,-0.0096782092005014,-0.0400988459587097,0.1444169878959655,0.988656759262085,0.0,0.0,0.0,0.057036144418938,0.0145251147328679,0.0074580667993843,51.760050768,0.3230079703506713,0.0695709852210351,0.1219513364575342,8.605415917274335,-4.370965615619278,6.505742626911086,-0.0308139048874683,-0.0765673861641275,0.29127652332538,0.0238111474000799,0.0377515715096841,0.0032220269491372,-5.925567455195083,-5.839143398074625,10.04775069241865,-1.7408641542566196e-06,2.1755526483985258e-05
10990,1724812252134113897,0.1630328297615051,-0.5193509459495544,0.1336432844400406,-0.0095763467252254,-0.0402716733515262,0.1452392190694809,0.9885303378105164,0.0,0.0,0.0,0.0038548860603919,0.0457426824013602,0.1076566855363069,51.770056727,0.0214861566220438,-0.0396972887003622,0.1649826039153045,-23.599730281272024,-7.508081087159836,-0.4779760977424505,-0.0307267321475862,-0.0769136301347459,0.2929437170085798,0.0243498303075204,0.0390073517476921,0.0072654959020974,-7.568135193689391,15.457921569623084,-9.779321352687507,3.1039616278947096e-05,5.609568394970213e-05
10992,1724812252144379065,0.1632744669914245,-0.5189566612243652,0.1337427347898483,-0.0103097381070256,-0.0407896600663661,0.1457685530185699,0.988423764705658,0.0,0.0,0.0,-0.097561702442759,0.3343537086834751,-0.201173867782197,51.780321895,-0.1519536813156554,-0.0808344010217416,0.1097528534977895,-0.0229607460438472,-0.8888145980643252,-0.6889842324131381,-0.0323758190707886,-0.0777074493018893,0.2940993937869468,0.0238630434460702,0.0386369423405987,0.0052486739507298,-0.9670737717944952,38.285168162826935,-23.94334746479447,8.223470784030431e-05,0.0001051318535662
10994,1724812252153893451,0.1635043621063232,-0.518587052822113,0.1337535232305526,-0.0103108212351799,-0.0410754419863224,0.1464506685733795,0.9883111119270324,0.0,0.0,0.0,-0.0281668496936904,0.7882943534626252,-0.3748173059978421,51.789836281,-0.0033773625742798,-0.0617892224382603,0.1445680889679621,4.919047674268668,9.1226471084335,-1.879286709226565,-0.0325168643435925,-0.0782504099080691,0.2954974840679344,0.0224926392004949,0.0450848241154417,0.0032931679461247,4.1556701306411155,-10.924151083183869,-18.29385125179235,-5.523820049055145e-06,1.6741158223300518e-05
10996,1724812252163663569,0.163707360625267,-0.5180839896202087,0.133807361125946,-0.0106980726122856,-0.0406397692859172,0.1467741429805755,0.988277018070221,0.0,0.0,0.0,-0.0190482120854265,0.0932940774704005,-0.5539841240930558,51.799606399,-0.0626369020855425,0.0987823661971281,0.0706409244976361,0.9013003663233954,10.967761109974926,1.1713109720879862,-0.0331801094414921,-0.0772631477941255,0.2961575783317893,0.0233799185302068,0.0538961341336303,-0.0020672390993627,316.8318463965926,587.236348167494,-45.847056668537874,4.134005898603904e-05,5.2677597886068024e-05
10998,1724812252173552606,0.1639646142721176,-0.5175269246101379,0.1337110698223114,-0.010764623992145,-0.0398738533258438,0.1475983709096908,0.988184690475464,0.0,0.0,0.0,6.27606944788666,12.49040349791117,-1.28271415762361,51.809495436,0.0160084677536213,0.1525194698881848,0.1696859422952954,5.431754961132878,3.1236491237706256,6.6818676842947164,-0.0331464843384006,-0.0757000600256027,0.2977894202943077,0.0220918786303094,0.0467254280177589,-0.0075989674162788,-405.8149172702769,5838.187823371615,-4523.294328260488,-0.0001117587784309,-9.491576800209014e-05
11000,1724812252207421354,0.1642578840255737,-0.5170586705207825,0.1337017267942428,-0.0122938537970185,-0.040265180170536,0.147692933678627,0.9881368279457092,0.0,0.0,0.0,-128.3818343522653,742.0154261312755,-670.618762351032,51.843364184,-0.0924548687965611,-0.0096795881024901,0.0092872467899308,26308.253149178527,10750.784627834752,17495.592200973955,-0.0363025723385895,-0.0760167741249928,0.2981160857098299,0.9777640133632984,2.002711724074743,-0.1349470184209167,-238101.0722399549,-569682.9892929327,89822.56037085224,-2.790443595915475e-05,-3.9839668724796345e-06
11002,1724812252207697482,0.1645300537347793,-0.5165011882781982,0.1336641609668731,-0.0113952727988362,-0.0397024378180503,0.1483936756849289,0.9880654215812684,0.0,0.0,0.0,-194.655279181728,583.3790174801161,-645.5695358287069,51.843640312,7.231223851888039,2.9831264447519046,4.879707564537577,4205.381733521823,8021.435587567972,12783.564753397986,-0.0344055967447901,-0.0751459428866383,0.2994373471127339,0.9419616528390408,2.209143400803896,-0.3216248948903057,-228427.61192207623,-624840.8339817219,139875.93269081856,-5.3727012253961886e-05,-3.61270427090809e-05
11004,1724812252207953072,0.1647604703903198,-0.5158915519714355,0.1335380524396896,-0.011131465435028,-0.0390834286808967,0.1492862850427627,0.9879586696624756,0.0,0.0,0.0,-250.29896715850907,411.767082694444,-598.1884086722356,51.843895902,3.026239489558444,4.366871482600114,6.998534634299811,-15992.931845261268,5245.810272611207,8031.117762109146,-0.0337628162410892,-0.0739695096008592,0.3011919197882723,0.8768328145051882,2.319399296325823,-0.4794136357304867,-210845.04497542817,-654074.7848077927,182144.1754896216,-0.0001379570109769,-0.0001291865958128
11006,1724812252216669503,0.1650681644678115,-0.5152379870414734,0.133517324924469,-0.0107575198635458,-0.0385015606880188,0.1495688259601593,0.98794287443161,0.0,0.0,0.0,-48.39565484803868,-129.1271717209683,27.755058666774577,51.852612333,0.1071939935273191,0.1182305365011975,0.0627226277797641,-154.18325125503836,-250.8217586372842,-397.9708191210953,-0.0328661419514494,-0.0729213153969057,0.3017053624013081,0.0383280941741528,0.0790455437993102,0.0027502799456309,14367.434988286326,-23994.26071497754,34580.62383770503,-3.86944963466044e-05,-1.9662905176853132e-05
11008,1724812252225508354,0.1654340773820877,-0.5145028829574585,0.1335875988006591,-0.0092012044042348,-0.0381597317755222,0.1501102894544601,0.9878897666931152,0.0,0.0,0.0,-0.2433538904661087,-0.0748086410398274,-0.2955248619405822,51.861451184,0.364063971561415,0.0219624987888011,0.1101127104111364,11.9155297230297,5.557728005840636,6.560406822606783,-0.0297187456606294,-0.0726968409602763,0.3026746699833922,0.039019603730388,0.0840701590409089,0.0010386735331486,2659.96760630123,7131.361686444011,-1547.2208043606845,4.640070075644958e-05,7.484914304886213e-05
11010,1724812252234072434,0.1657485067844391,-0.5137754082679749,0.1335391402244568,-0.0079925525933504,-0.0370729342103004,0.1509003937244415,0.9878213405609132,0.0,0.0,0.0,-0.5962035440838755,-0.9797265202256388,-0.0509656969962996,51.870015264,0.323835091860413,0.2060522756041855,0.176244361817406,-7.609865010915865,11.97660429605232,-2.768439284585825,-0.0270503000801929,-0.0708900727469175,0.3041371469227513,0.0342670030108669,0.078091667706964,-0.0023376022381791,10.67235629212705,13.527716521711003,45.91279076063742,-6.875966385590641e-05,-4.567451293424492e-05
11012,1724812252243864619,0.1660566478967666,-0.5130874514579773,0.1335534304380417,-0.0071103302761912,-0.0358632318675518,0.1510842889547348,0.9878445863723756,0.0,0.0,0.0,0.0890984202380762,0.4872616509973198,0.5929501504842315,51.879807449,0.2167087163824198,0.2167512343816141,0.0316803390628065,-9.675482441685231,-0.5368371448157614,-6.898399900048094,-0.0249460744029433,-0.0687602504620296,0.304392681748636,0.027966929942929,0.0653446790119751,0.0010067340405157,56.33773932623929,126.38087730232228,50.88662727924485,-6.034181317581709e-06,1.830368566454181e-05
11014,1724812252257348986,0.1663687527179718,-0.512297511100769,0.1335586011409759,-0.006582629866898,-0.034553475677967,0.1516661494970321,0.9878056645393372,0.0,0.0,0.0,0.5953730533882933,1.7563397118939736,1.002979484787187,51.893291816,0.1097211649029097,0.1792557614126254,0.0846989734342761,-134.1321317958112,-26.884708311031893,10.917198062467422,-0.023539815559057,-0.0663161108624535,0.3054782825115136,0.0427694949068069,0.1051347385157441,0.0136708155349083,-89.76341059479506,-215.32980427229265,-38.62416117696364,-1.477743678182184e-05,7.287855432824259e-06
11016,1724812252263376882,0.1666794419288635,-0.5115383267402649,0.1336768120527267,-0.0096713257953524,-0.0351670011878013,0.1520622819662094,0.9876977801322936,0.0,0.0,0.0,-0.2887627462409989,-0.3754880295625442,0.584140814952233,51.899319712,-1.0388715383752785,-0.0477542181137664,0.1693296891199835,-90.27715056299589,-20.00888806531897,8.955451776856734,-0.0298704499860805,-0.0665766222626849,0.3065086315064533,0.0450045959599805,0.1125030519889236,0.019888621509736,-13.03046875844008,-69.1231115962668,-15.93306249275426,0.0001017837923843,0.0001159421973195
11018,1724812252274398127,0.1670437157154083,-0.5105692744255066,0.1339016109704971,-0.0098491571843624,-0.0346935763955116,0.1529561579227447,0.9875747561454772,0.0,0.0,0.0,2.26067022013903,4.596385153600784,1.4876287653556963,51.910340957,-0.013321268539076,0.0874076772515881,0.1655745876676568,77.34690848630224,9.96879775291144,-0.6177928948425142,-0.0301360406325379,-0.0655589737720246,0.3083076866947033,0.0285313969456194,0.0761663656464948,0.0173117627304839,3105.2914633105192,6970.57174210786,3681.0072432596007,0.0002067215145783,0.0002189422065441
11020,1724812252329646413,0.1673680394887924,-0.5096180438995361,0.1340036243200302,-0.0123582100495696,-0.0349872708320617,0.1543612778186798,0.987317442893982,0.0,0.0,0.0,969.7793826763244,2195.2947110448085,1201.6212465456288,51.965589243,-0.0896529289012325,0.0025688945739834,0.054704826843114,2522.364814611512,18168.43427149081,8504.835267663528,-0.0352868677921499,-0.0653182639099689,0.3113301963507277,1.1934862962191914,2.5162009274781667,0.5762588419149779,-211684.7992667104,-2372919.8317574845,-930854.051856332,9.102672582487432e-05,8.941422733124914e-05
11022,1724812252330034469,0.1678344160318374,-0.5086348056793213,0.1342288106679916,-0.0124221984297037,-0.0335916951298713,0.154997318983078,0.9872655272483826,0.0,0.0,0.0,887.0091155567916,1267.8931080966358,837.8013567250282,51.965977299,0.8960447196144198,7.1024637922981295,3.378243850612476,-20380.55176376228,16657.728075884108,7021.766489010757,-0.035016812415803,-0.0625177471206789,0.3125459935550027,1.5724008104403993,3.3739614376418103,1.0458027992310122,-1426929.4611448194,-5079140.224044778,-2377967.846224889,0.000205757150606,0.0002193908862084
11024,1724812252330277359,0.1682726740837097,-0.5076875686645508,0.1345535963773727,-0.0135510163381695,-0.032419417053461,0.1555313020944595,0.9872058629989624,0.0,0.0,0.0,355.9151992223642,-374.62554520795584,41.231465783542944,51.966220189,-7.538777322268137,10.899386678752323,4.849208239352108,-24400.495788383232,6482.9605590837855,-771.6519557513147,-0.0369141710903855,-0.0598297507808987,0.3136298745306082,1.774249979527326,3.538631534478895,1.1927130778030062,-2077245.5617802157,-5629880.062105337,-2833938.74248636,0.0003098749992633,0.0003152929678591
11026,1724812252330579639,0.1687976717948913,-0.5067538022994995,0.1348597854375839,-0.0154281063005328,-0.0312693230807781,0.1557630747556686,0.9871788620948792,0.0,0.0,0.0,-230.8708520795168,-1650.3821638205463,-647.7763006498419,51.966522469,-11.029843577134718,9.417160580519209,2.047412467577171,-11305.746135252024,-4818.624707450028,-9087.924990155409,-0.0402780100368834,-0.0569613687940454,0.3141393289636601,1.703101335553939,3.0294151868601435,0.9931506108469694,-1902538.5357735064,-4135215.94805802,-2233609.247033595,0.0002898566323119,0.00029779385168
11028,1724812252345550920,0.1693132519721985,-0.5056389570236206,0.1350607722997665,-0.0144817307591438,-0.0295703914016485,0.1569879502058029,0.9870515465736388,0.0,0.0,0.0,-46.72593317593691,-361.6686809147268,-156.85998117402482,51.98149375,0.1650105346352557,0.2013001424211098,0.1637296081888314,-1180.5655510847605,44787.83014950413,10701.736951235913,-0.0379369060100618,-0.0538541147756955,0.3164744712217808,1.5852207222938546,3.682313446903663,0.5003849976921515,-416545.00416092994,-957202.875504768,-121751.56982270793,0.0001896307954761,0.0001860814312303
11030,1724812252345882342,0.169850006699562,-0.5043920874595642,0.1352301836013794,-0.0149396285414695,-0.0270521268248558,0.1575692296028137,0.9870243072509766,0.0,0.0,0.0,-187.9244391211014,-686.561070645248,-198.34496669935493,51.981825172,-0.2404024686588637,15.378085765480494,3.789959745963128,-24287.68343204633,10193.851205186293,8173.435685349686,-0.0380710660960683,-0.0487134258149697,0.3175373777683956,1.5694496715635182,3.559475060736304,0.4474887887916736,-415647.793817528,-929645.5524240144,-109282.748840352,0.0001640391135419,0.0001478226548921
11032,1724812252346205542,0.1703414618968963,-0.5033055543899536,0.1353547424077987,-0.017603550106287,-0.0262409932911396,0.1583701372146606,0.9868741035461426,0.0,0.0,0.0,-318.9868673401074,-971.0577120601264,-228.65692596272217,51.982148372,-15.359674408177458,7.452549449361574,5.559192701313641,-44900.4747688114,-23608.987338257542,5237.330644621428,-0.0431159714585091,-0.0462338297269785,0.3192367992921858,1.4644803499199988,3.238006025630793,0.3711731765618862,-388813.35287613224,-842672.3967152314,-89186.93810297186,0.0001248365999802,0.0001002414598947
11034,1724812252354261914,0.1708715856075287,-0.5020788908004761,0.1354895532131195,-0.0166777819395065,-0.0235570836812257,0.1591666936874389,0.9868296980857848,0.0,0.0,0.0,-97.39392392479812,-213.6919561929217,-23.39360418298613,51.990204744,0.3373201987663156,0.617369553816658,0.2025940994014636,1071.8032999953236,-470.9519564610656,-377.0010246292129,-0.0404606250153892,-0.0411962162900465,0.3206610936140803,0.0582467549620755,0.1514685277911276,0.0287765929909831,19577.021579288117,61625.17333220614,15172.65951247922,0.0001383027403376,0.0001068431651635
11036,1724812252364372210,0.1713646203279495,-0.500557541847229,0.1359332948923111,-0.0169450808316469,-0.0202934369444847,0.1593355387449264,0.9868704080581664,0.0,0.0,0.0,-0.0573163822308093,-1.5155242252335466,-0.7510424889292088,52.00031504,0.0515003368075465,0.6451545339410251,0.0436918595405532,-19.57840805594163,-5.917937748067956,-6.4143723468314455,-0.0399467393017431,-0.0346610174238814,0.3208404377137391,0.0525008471637402,0.1406270725039498,0.0346807410917833,4693.086040250045,10225.58897492756,1049.680800695785,0.0004617543746261,0.0003994867520837
11038,1724812252373998869,0.1719042658805847,-0.4992940425872803,0.1361827403306961,-0.0176139753311872,-0.0179152153432369,0.1596072316169738,0.9868609309196472,0.0,0.0,0.0,-0.1079497162413658,-1.710481921579599,-1.5526953890316728,52.009941699,-0.0573041958441661,0.5087495061643572,0.0672110700281479,-22.299248618937796,-28.374913755933775,12.126139557014492,-0.0405128769980663,-0.0297414009384693,0.3212902529124802,0.0566330435384143,0.1219751422339534,0.0152137417369884,44.62490485217577,127.72133320212028,10.118880755233178,0.0002637145943681,0.0002140266260772
11040,1724812252384387012,0.1724990308284759,-0.4981309175491333,0.1362208575010299,-0.019800366833806,-0.0179486665874719,0.1611098796129226,0.986574649810791,0.0,0.0,0.0,0.9148196876707106,1.2750645042047353,-0.4006548323076392,52.020329842,-0.4122249183655505,0.0547462191253478,0.3017243025204127,-14.939166751840126,-26.00892612685342,12.773757470058786,-0.0448864847232908,-0.029039410728428,0.3243988088431774,0.0494897667135694,0.1067515769244309,0.0043471662193468,61.072129474004456,198.07633400139915,74.50124660636786,5.191963379424241e-05,3.16285935884514e-06
11042,1724812252397190317,0.1730101406574249,-0.4968464374542236,0.1362872123718261,-0.0217323116958141,-0.0182125885039567,0.1630363464355468,0.9862125515937804,0.0,0.0,0.0,1.1068368221012292,2.4015800797873297,-0.0211571662744779,52.033133147,-0.300097579604215,0.0009736238968593,0.3106058966001553,-12.996728579741957,48.1466550695382,-0.1773056580712619,-0.0488437079366518,-0.0288406513907355,0.3283722738401035,0.086489214008278,0.1663222590009141,0.0094018676129863,-208.34736259836671,-315.8785384276361,30.209634363829288,9.169735626391884e-05,1.829912304702153e-05
11044,1724812252403385908,0.173685610294342,-0.4956181049346924,0.1363581120967865,-0.0233420692384243,-0.0170232988893985,0.1639176905155182,0.9860509634017944,0.0,0.0,0.0,-0.8536041518051367,-0.7662937567554877,0.1677153781388976,52.039328738,-0.4458414985201947,0.4562098273583647,0.3068960513061409,9.1698952330718,40.706846054919694,-5.363512334474461,-0.0516540925271732,-0.0259222274047158,0.3301300052108208,0.0880011470052526,0.1744522522188418,0.008023723277148,-199.50706222117873,-389.2932373124571,37.97470338204224,9.26244176101374e-05,2.489020570133994e-05
11046,1724812252413766267,0.174233466386795,-0.4942212700843811,0.1363819241523742,-0.0225042328238487,-0.0152369439601898,0.1647607386112213,0.9859590530395508,0.0,0.0,0.0,-0.8911544502067392,-2.685201112443212,0.6921652305351496,52.049709097,0.2179444198172403,0.3088250963629874,0.1683542162678885,-18.27458036941243,-28.256560682376048,-12.929319199137144,-0.049430185051392,-0.0226323097087772,0.331713799125282,0.0600506424787603,0.1303489210442556,0.0165501257454163,74.52767002275074,-6.869486676496017,-29.885905840684167,5.822657498360373e-05,-3.282494561018543e-05
11048,1724812252423597402,0.1748915463685989,-0.4929790496826172,0.1366773694753646,-0.0259513463824987,-0.0163048598915338,0.1649349629878997,0.985828161239624,0.0,0.0,0.0,0.5691439167039505,-1.0954767729394783,-0.3503347547366356,52.059540232,-0.7272719599727675,-0.0998638674680476,0.0451290270029828,-14.186090463610096,-8.001524737642436,2.8820358998596785,-0.0565915570476331,-0.0235891990241011,0.3322090196243049,0.0680631028019247,0.1185083072642214,0.0221516163551589,102.44136399762056,110.8450994559862,-36.01148342963017,0.000324980668488,0.0002401703054314
11050,1724812252434713706,0.1756622940301895,-0.4917603135108948,0.1368243098258972,-0.025393882766366,-0.0148551668971776,0.1663987040519714,0.9856196045875548,0.0,0.0,0.0,1.1285011243543122,-0.5025465113413183,0.1295806213426084,52.070656536,0.145214121360327,0.2331379925800837,0.2709403348998176,40.19039627858697,16.8585152838525,8.052113451893604,-0.0550409037441232,-0.0208335761410965,0.3350723221682269,0.0712994884247866,0.1076997556443792,0.0066919480003067,25.39306525015264,7.358810544781846,116.52066470890986,0.0001725841603482,9.571033224971304e-05
11052,1724812252445698208,0.1764668077230453,-0.4905982911586761,0.1368269771337509,-0.0247389767318964,-0.0131723871454596,0.1675987690687179,0.9854568243026732,0.0,0.0,0.0,1.1368826526824556,-0.9207924750846246,2.2056455278491223,52.081641038,0.1710034991603673,0.2761550335987913,0.2263002198966012,-55.43761522613011,-12.209406633445148,-16.358376553587497,-0.0532071423588095,-0.0176701130305299,0.3373907964641168,0.0927844636919843,0.1072785255202646,0.0246170709727628,-85.33787532488067,-77.58868238083983,35.77331037839626,2.6632837600111003e-05,-4.491084736130609e-05
11054,1724812252454041456,0.177364781498909,-0.4896937906742096,0.1371868252754211,-0.0274937953799963,-0.0133345592767,0.1676035076379776,0.9853808879852296,0.0,0.0,0.0,-0.1207416785453592,-1.818529514580125,1.533103119340475,52.089984286,-0.6577176789135567,0.0720997604434161,0.0119071263163932,-33.638819401983554,-18.62811822042531,-12.289702195677153,-0.0586957964624224,-0.0170639547315423,0.3374563951377904,0.0970793465374715,0.0940039926765088,0.0466554764380013,-81.44077524777845,-27.444790147025877,-147.96314683444962,0.0003722684827357,0.00032144621518
11056,1724812252463708730,0.1781851053237915,-0.4889464080333709,0.1376773416996002,-0.0286388993263244,-0.0137322898954153,0.1677992343902588,0.9853094220161438,0.0,0.0,0.0,-0.1318520683675466,-1.1859892467365647,-0.6517568854979545,52.09965156,-0.2470974818777043,-0.0426856527936793,0.0432754218539662,30.284093848160666,8.962370954622763,-1.2178002823655698,-0.0610921812026972,-0.0174508241849192,0.3378987182461971,0.088793434316063,0.0738756879380986,0.0490611719409859,33.05079699457795,61.82997996837092,-164.23550919743698,0.0004981788625866,0.0004582175042535
11058,1724812252473461183,0.1790897995233535,-0.4882597327232361,0.1381392925977707,-0.0291868261992931,-0.0125929256901144,0.1676993519067764,0.9853256344795228,0.0,0.0,0.0,0.5269477004458456,-0.618424363649992,-1.6457362098812498,52.109404013,-0.0716948602126456,0.2497117709795301,-0.0125058102980687,24.031924444520214,18.8333452621343,2.8572109453412646,-0.0617869849198738,-0.0150276069205681,0.3376274630816078,0.0946429130867283,0.0711257387645147,0.0338444342415522,-12.386384087484291,-12.60617841047091,-18.449927041993583,0.0004663052197015,0.0004322163970425
11060,1724812252484029493,0.1801115125417709,-0.487499862909317,0.1383420974016189,-0.0281693711876869,-0.0106804370880126,0.1682696789503097,0.9852805733680724,0.0,0.0,0.0,-0.5194457240440045,-1.5625196334595874,-0.8847755858091583,52.119972323,0.2515282952936253,0.3210700692421671,0.1159166058339361,9.971605293633155,-12.101408947216242,10.171721269244628,-0.0591422817332729,-0.0115666101714295,0.3386452978589635,0.0993775746462315,0.0607368808093049,0.0154733152578252,2528.09594964583,1358.093782296919,946.786926441239,0.0002106960013089,0.0001693429352953
11062,1724812252494001397,0.1811279058456421,-0.4869992434978485,0.1384614259004593,-0.0274278707802295,-0.010407792404294,0.1692508906126022,0.985136330127716,0.0,0.0,0.0,49.409354397230494,25.5993212996472,16.787461079448036,52.129944227,0.1570172171852118,0.023000377543304,0.1987185664462063,-16.3361853234236,-21.385572646064308,1.8060620569502115,-0.0575989083843814,-0.0112220412518054,0.3406102681746151,0.0850948125083017,0.0397029811090181,0.0146815627207881,615.724285321154,384.661422051752,243.00850016424656,0.0001141341251739,0.0001017115008057
11064,1724812252513627525,0.1821478605270385,-0.486625611782074,0.138854444026947,-0.0314552634954452,-0.0117830326780676,0.1690614074468612,0.9850330352783204,0.0,0.0,0.0,-108.12621473575564,-57.20663747117669,-37.51143827203941,52.149570355,-0.4285202643973472,-0.0681782269040746,-0.016813061697498,-34721.66686051138,23234.50044135693,-6537.640252107976,-0.0660061959528096,-0.0125779422965169,0.3403635659978246,3.018670564870831,1.612420539400091,0.9956708792992686,-26116.32333362219,-13873.266858075833,-8847.879009214535,0.0003792716929704,0.0003803177006184
11066,1724812252513919999,0.1830436736345291,-0.4861470758914947,0.1391499042510986,-0.0331670008599758,-0.0110737662762403,0.168729230761528,0.9850419759750366,0.0,0.0,0.0,-115.84340386618942,-61.30628498230032,-40.12571798759774,52.149862829,-10.734910401685882,6.828597539140595,-1.9573494841526533,-34305.40465444167,22957.209943453578,-6459.125638309549,-0.069137677597658,-0.0106239639958076,0.3396574374082757,2.9859237048975205,1.5950904827863204,0.9843184082106896,-25731.634392486805,-13669.343680400802,-8714.707627696665,0.0002946481887418,0.0002711979827044
11068,1724812252524969811,0.1839103400707245,-0.4856691360473633,0.1392174512147903,-0.034424141049385,-0.010349091142416,0.1689668446779251,0.9849660396575928,0.0,0.0,0.0,-127.03943469283485,-67.1584868721597,-42.99435374917104,52.160912641,-0.2019852061379098,0.1660172826252037,0.0515536256321516,522.5540170965,-275.83693754333683,94.30540464876763,-0.0713738424092829,-0.0087540414534778,0.3400969662668887,0.0867811162005285,0.0606232823070982,-0.006112765559048,5758.014963216157,3039.086772029248,2050.65782542786,7.036081119758382e-05,4.087700060549689e-05
