seq,stamp,px,py,pz,ox,oy,oz,ow,lx,ly,lz,ax,ay,az
18,1724914320996413331,-0.21486657857894897,0.11330895125865936,0.1856773942708969,0.017136674374341965,-0.04020867496728897,-0.2400021255016327,0.9697879552841187,0.0,0.0,0.0,0.0,0.0,0.0
20,1724914320997057010,-0.2157793641090393,0.11226700246334076,0.1855982393026352,0.021354196593165398,-0.04197477176785469,-0.24081502854824066,0.9694278240203857,0.0,0.0,0.0,0.0,0.0,0.0
22,1724914320997372237,-0.2169099748134613,0.11123805493116379,0.1854158341884613,0.023893026635050774,-0.043541595339775085,-0.24110880494117737,0.9692264795303345,0.0,0.0,0.0,0.0,0.0,0.0
24,1724914321001006907,-0.21825683116912842,0.10988330096006393,0.18507486581802368,0.026248762384057045,-0.04723861813545227,-0.24101106822490692,0.9690166115760803,0.0,0.0,0.0,0.0,0.0,0.0
26,1724914321012296805,-0.21961069107055664,0.10847107321023941,0.18456491827964783,0.029733195900917053,-0.049706727266311646,-0.24111056327819824,0.9687677621841431,0.0,0.0,0.0,0.0,0.0,0.0
28,1724914321022071615,-0.2211298644542694,0.10700525343418121,0.18395787477493286,0.0349215604364872,-0.05254528298974037,-0.24104084074497223,0.9684621691703796,0.0,0.0,0.0,0.0,0.0,0.0
30,1724914321031216030,-0.2228706181049347,0.10572269558906555,0.18347911536693573,0.03833645209670067,-0.05384134501218796,-0.24113892018795013,0.9682373404502869,0.0,0.0,0.0,0.0,0.0,0.0
32,1724914321041741978,-0.22471658885478973,0.10405724495649338,0.18269909918308258,0.04034806787967682,-0.05879051610827446,-0.23981650173664093,0.9681960940361023,0.0,0.0,0.0,0.0,0.0,0.0
34,1724914321050991350,-0.22653217613697052,0.10265000909566879,0.18227924406528473,0.043928470462560654,-0.060888178646564484,-0.23915842175483704,0.9680734276771545,0.0,0.0,0.0,0.0,0.0,0.0
36,1724914321061758332,-0.22868816554546356,0.10080216825008392,0.1815764307975769,0.04586295410990715,-0.0651509091258049,-0.2382063865661621,0.9679409265518188,0.0,0.0,0.0,0.0,0.0,0.0
38,1724914321073314900,-0.2305741161108017,0.09912578016519547,0.1811547428369522,0.0482775941491127,-0.06806139647960663,-0.23742292821407318,0.9678157567977905,0.0,0.0,0.0,0.0,0.0,0.0
40,1724914321081166930,-0.2323528230190277,0.09763294458389282,0.18104100227355957,0.05134434252977371,-0.0678166002035141,-0.23695698380470276,0.967789351940155,0.0,0.0,0.0,0.0,0.0,0.0
42,1724914321113683606,-0.23425838351249695,0.09574434906244278,0.1803601086139679,0.05107413977384567,-0.07140348851680756,-0.23587757349014282,0.9678093194961548,0.0,0.0,0.0,0.0,0.0,0.0
44,1724914321114224008,-0.23582644760608673,0.09389232099056244,0.17966316640377045,0.0547177754342556,-0.07503454387187958,-0.23419189453125,0.9677448272705078,0.0,0.0,0.0,0.0,0.0,0.0
46,1724914321114797726,-0.2374276965856552,0.09245419502258301,0.17882147431373596,0.05636775121092796,-0.07543715089559555,-0.23326817154884338,0.9678418636322021,0.0,0.0,0.0,0.0,0.0,0.0
48,1724914321122330043,-0.23905417323112488,0.09084683656692505,0.17745162546634674,0.058209870010614395,-0.0794868990778923,-0.23209872841835022,0.9676898717880249,0.0,0.0,0.0,0.0,0.0,0.0
50,1724914321131973090,-0.2403954714536667,0.0894395262002945,0.17671872675418854,0.06189614161849022,-0.0824732705950737,-0.23299255967140198,0.9669961333274841,0.0,0.0,0.0,0.0,0.0,0.0
52,1724914321141891993,-0.2417651265859604,0.08818105608224869,0.175527885556221,0.06285415589809418,-0.08593862503767014,-0.23223595321178436,0.9668145775794983,0.0,0.0,0.0,0.0,0.0,0.0
54,1724914321153494451,-0.24310943484306335,0.08707605302333832,0.17446838319301605,0.06484262645244598,-0.08832502365112305,-0.23305082321166992,0.9662719368934631,0.0,0.0,0.0,0.0,0.0,0.0
56,1724914321161673308,-0.244211807847023,0.08615750074386597,0.17351454496383667,0.06616010516881943,-0.09139736741781235,-0.23316605389118195,0.9658690094947815,0.0,0.0,0.0,0.0,0.0,0.0
58,1724914321172235420,-0.2450457066297531,0.08548915386199951,0.17273414134979248,0.06922382116317749,-0.09213358163833618,-0.2331164926290512,0.9655963182449341,0.0,0.0,0.0,0.0,0.0,0.0
60,1724914321182357500,-0.24591569602489471,0.08474057912826538,0.17177161574363708,0.0706043541431427,-0.0953572690486908,-0.23221278190612793,0.9654010534286499,0.0,0.0,0.0,0.0,0.0,0.0
62,1724914321192152733,-0.24690963327884674,0.08441825956106186,0.17149589955806732,0.07063139975070953,-0.0941389799118042,-0.23446054756641388,0.9649753570556641,0.0,0.0,0.0,0.0,0.0,0.0
64,1724914321203574379,-0.24780653417110443,0.08412564545869827,0.17126646637916565,0.0709175318479538,-0.09455043077468872,-0.23634719848632812,0.9644536972045898,0.0,0.0,0.0,0.0,0.0,0.0
66,1724914321214639104,-0.24853481352329254,0.08382078260183334,0.17079180479049683,0.07264214009046555,-0.09540334343910217,-0.237078458070755,0.9640617966651917,0.0,0.0,0.0,0.0,0.0,0.0
68,1724914321222435326,-0.24924388527870178,0.08359018713235855,0.17034083604812622,0.07253909856081009,-0.09638562053442001,-0.23741509020328522,0.9638890624046326,0.0,0.0,0.0,0.0,0.0,0.0
70,1724914321232243008,-0.24973033368587494,0.08347126096487045,0.1698763519525528,0.07441358268260956,-0.0971476286649704,-0.23770320415496826,0.9635985493659973,0.0,0.0,0.0,0.0,0.0,0.0
72,1724914321242266763,-0.2502250075340271,0.08331379294395447,0.16943196952342987,0.07587861269712448,-0.09867533296346664,-0.23767688870429993,0.9633355140686035,0.0,0.0,0.0,0.0,0.0,0.0
74,1724914321254060674,-0.25076544284820557,0.08322319388389587,0.16893446445465088,0.07580013573169708,-0.10042102634906769,-0.2379315048456192,0.963098406791687,0.0,0.0,0.0,0.0,0.0,0.0
76,1724914321262479191,-0.25120779871940613,0.08326329290866852,0.1686646193265915,0.07748617976903915,-0.10094497352838516,-0.23881074786186218,0.9626917839050293,0.0,0.0,0.0,0.0,0.0,0.0
78,1724914321271729715,-0.2516641914844513,0.08319036662578583,0.16823774576187134,0.07747575640678406,-0.10205254703760147,-0.2384992092847824,0.9626531004905701,0.0,0.0,0.0,0.0,0.0,0.0
80,1724914321281552969,-0.25209474563598633,0.08318614959716797,0.16814634203910828,0.0764966681599617,-0.10240510106086731,-0.23887816071510315,0.96260005235672,0.0,0.0,0.0,0.0,0.0,0.0
82,1724914321291869014,-0.2522779107093811,0.08317847549915314,0.16811968386173248,0.0774356797337532,-0.10266195237636566,-0.2388872653245926,0.9624952673912048,0.0,0.0,0.0,0.0,0.0,0.0
84,1724914321301334193,-0.25248193740844727,0.08319950103759766,0.16808092594146729,0.07753761112689972,-0.10274751484394073,-0.23906788229942322,0.9624331593513489,0.0,0.0,0.0,0.0,0.0,0.0
86,1724914321311144965,-0.252616286277771,0.08321116864681244,0.1680794209241867,0.07811566442251205,-0.10228683799505234,-0.23979994654655457,0.9622533321380615,0.0,0.0,0.0,0.0,0.0,0.0
88,1724914321323473440,-0.2527310252189636,0.08314055949449539,0.16813641786575317,0.07763394713401794,-0.10292450338602066,-0.24088247120380402,0.96195387840271,0.0,0.0,0.0,0.0,0.0,0.0
90,1724914321331250969,-0.2527020275592804,0.08311004191637039,0.16808553040027618,0.07865661382675171,-0.10340108722448349,-0.24121324717998505,0.961736798286438,0.0,0.0,0.0,0.0,0.0,0.0
92,1724914321342385155,-0.2527008056640625,0.08307984471321106,0.1679905652999878,0.07869463413953781,-0.103944331407547,-0.2417626529932022,0.9615370631217957,0.0,0.0,0.0,0.0,0.0,0.0
94,1724914321352647374,-0.2527026832103729,0.0831383615732193,0.1680402308702469,0.07895144075155258,-0.10404302924871445,-0.24254798889160156,0.9613075256347656,0.0,0.0,0.0,0.0,0.0,0.0
96,1724914321361724064,-0.2527409493923187,0.08312150835990906,0.167994886636734,0.07856230437755585,-0.1042797788977623,-0.24336399137973785,0.9611075520515442,0.0,0.0,0.0,0.0,0.0,0.0
98,1724914321373667951,-0.2527354061603546,0.08321352303028107,0.16804371774196625,0.07887887954711914,-0.1042972281575203,-0.24428407847881317,0.9608463048934937,0.0,0.0,0.0,0.0,0.0,0.0
100,1724914321381412924,-0.2527332901954651,0.08333808183670044,0.1682581752538681,0.07986775785684586,-0.10291191935539246,-0.2459423989057541,0.9604908227920532,0.0,0.0,0.0,0.0,0.0,0.0
102,1724914321392226445,-0.2526860535144806,0.08328718692064285,0.16822218894958496,0.07950355112552643,-0.10351165384054184,-0.2469826340675354,0.9601895809173584,0.0,0.0,0.0,0.0,0.0,0.0
104,1724914321402117537,-0.25253599882125854,0.08330833911895752,0.1681484431028366,0.08052170276641846,-0.10462670773267746,-0.2475425899028778,0.9598396420478821,0.0,0.0,0.0,0.0,0.0,0.0
106,1724914321411535522,-0.25243479013442993,0.0833611935377121,0.16820642352104187,0.08129779994487762,-0.10478773713111877,-0.24878229200839996,0.9594360589981079,0.0,0.0,0.0,0.0,0.0,0.0
108,1724914321422007070,-0.2523595988750458,0.08335798978805542,0.1682579666376114,0.08167024701833725,-0.10546427220106125,-0.2500632405281067,0.9589971899986267,0.0,0.0,0.0,0.0,0.0,0.0
110,1724914321431081612,-0.2522878050804138,0.08328894525766373,0.16819822788238525,0.08175761997699738,-0.1065448597073555,-0.25125348567962646,0.9585591554641724,0.0,0.0,0.0,0.0,0.0,0.0
112,1724914321441670381,-0.2521609961986542,0.0832439512014389,0.1681743711233139,0.08261232823133469,-0.10676581412553787,-0.25281479954719543,0.958050549030304,0.0,0.0,0.0,0.0,0.0,0.0
114,1724914321451085646,-0.251991331577301,0.08315158635377884,0.1681121587753296,0.08266115933656693,-0.10862220823764801,-0.2540665864944458,0.9575064778327942,0.0,0.0,0.0,0.0,0.0,0.0
116,1724914321461265093,-0.2518896162509918,0.08313937485218048,0.16820985078811646,0.0810355469584465,-0.10900416225194931,-0.2558281123638153,0.9571328163146973,0.0,0.0,0.0,0.0,0.0,0.0
118,1724914321471791037,-0.2517271339893341,0.08313296735286713,0.16828346252441406,0.08117212355136871,-0.10916841775178909,-0.25727108120918274,0.9567157626152039,0.0,0.0,0.0,0.0,0.0,0.0
120,1724914321481923391,-0.2515408396720886,0.08313460648059845,0.16840988397598267,0.08217878639698029,-0.10902896523475647,-0.258715957403183,0.9562559127807617,0.0,0.0,0.0,0.0,0.0,0.0
122,1724914321491679834,-0.25134825706481934,0.08329752832651138,0.16884391009807587,0.08218173682689667,-0.10780414938926697,-0.26125484704971313,0.9557042121887207,0.0,0.0,0.0,0.0,0.0,0.0
124,1724914321501213232,-0.2511962354183197,0.08345924317836761,0.16903065145015717,0.0816853940486908,-0.10776380449533463,-0.2627260982990265,0.9553478956222534,0.0,0.0,0.0,0.0,0.0,0.0
126,1724914321512996931,-0.25105178356170654,0.08364810049533844,0.1691470891237259,0.08133982121944427,-0.1079140454530716,-0.2639992833137512,0.9550093412399292,0.0,0.0,0.0,0.0,0.0,0.0
128,1724914321521764372,-0.2508777379989624,0.08385666459798813,0.16917778551578522,0.08232931792736053,-0.10898501425981522,-0.26488566398620605,0.9545574188232422,0.0,0.0,0.0,0.0,0.0,0.0
130,1724914321531299255,-0.2507283091545105,0.08404412120580673,0.1691940277814865,0.08325817435979843,-0.10931707173585892,-0.26621145009994507,0.9540698528289795,0.0,0.0,0.0,0.0,0.0,0.0
132,1724914321545764214,-0.25061601400375366,0.08430824428796768,0.16935995221138,0.08311453461647034,-0.10970231145620346,-0.26761043071746826,0.953646719455719,0.0,0.0,0.0,0.0,0.0,0.0
134,1724914321551213007,-0.2505093216896057,0.08463503420352936,0.16964438557624817,0.08297755569219589,-0.10984526574611664,-0.26878470182418823,0.9533119201660156,0.0,0.0,0.0,0.0,0.0,0.0
136,1724914321561343531,-0.25030142068862915,0.08493027836084366,0.16995026171207428,0.08362032473087311,-0.11025336384773254,-0.26948103308677673,0.9530119895935059,0.0,0.0,0.0,0.0,0.0,0.0
138,1724914321572845475,-0.25008824467658997,0.08543423563241959,0.17042282223701477,0.08477047830820084,-0.1085505411028862,-0.27140286564826965,0.9525604248046875,0.0,0.0,0.0,0.0,0.0,0.0
140,1724914321581214834,-0.24982950091362,0.08585353195667267,0.17075476050376892,0.08570276200771332,-0.10867945849895477,-0.2726708948612213,0.9520999789237976,0.0,0.0,0.0,0.0,0.0,0.0
142,1724914321594630969,-0.2496349960565567,0.0862703025341034,0.1709071397781372,0.08531796932220459,-0.10982205718755722,-0.27349674701690674,0.9517665505409241,0.0,0.0,0.0,0.0,0.0,0.0
144,1724914321603010831,-0.2494901567697525,0.08680432289838791,0.17109741270542145,0.08434563875198364,-0.11046450585126877,-0.2740023136138916,0.9516334533691406,0.0,0.0,0.0,0.0,0.0,0.0
146,1724914321612776375,-0.2493734061717987,0.08757484704256058,0.17179258167743683,0.08447027206420898,-0.10874822735786438,-0.274954229593277,0.9515455365180969,0.0,0.0,0.0,0.0,0.0,0.0
148,1724914321622172382,-0.249223530292511,0.08823680877685547,0.17229221761226654,0.0859033465385437,-0.10823685675859451,-0.2751103937625885,0.9514303803443909,0.0,0.0,0.0,0.0,0.0,0.0
150,1724914321631209473,-0.24912026524543762,0.0889107957482338,0.17273075878620148,0.08487235754728317,-0.10862074792385101,-0.2754824161529541,0.9513714909553528,0.0,0.0,0.0,0.0,0.0,0.0
152,1724914321643489392,-0.24884235858917236,0.08985039591789246,0.17383892834186554,0.08466071635484695,-0.10567297041416168,-0.27823227643966675,0.9509220123291016,0.0,0.0,0.0,0.0,0.0,0.0
154,1724914321652498981,-0.2486497014760971,0.09054073691368103,0.17451460659503937,0.08233477175235748,-0.10561717301607132,-0.2796438932418823,0.950718343257904,0.0,0.0,0.0,0.0,0.0,0.0
156,1724914321661075181,-0.24843241274356842,0.09132911264896393,0.17538660764694214,0.08094532787799835,-0.10448602586984634,-0.2814716398715973,0.9504233002662659,0.0,0.0,0.0,0.0,0.0,0.0
158,1724914321672113852,-0.24813024699687958,0.09206738322973251,0.17632214725017548,0.08062667399644852,-0.10270318388938904,-0.28333258628845215,0.9500916600227356,0.0,0.0,0.0,0.0,0.0,0.0
160,1724914321680991861,-0.24782180786132812,0.09252788871526718,0.17666488885879517,0.0790330171585083,-0.10346204787492752,-0.28334060311317444,0.9501408338546753,0.0,0.0,0.0,0.0,0.0,0.0
162,1724914321700443186,-0.24747759103775024,0.09308946877717972,0.17710112035274506,0.0795893594622612,-0.10382209718227386,-0.28381049633026123,0.9499148726463318,0.0,0.0,0.0,0.0,0.0,0.0
164,1724914321701315704,-0.2472056895494461,0.09385325759649277,0.17800568044185638,0.07854228466749191,-0.10221640020608902,-0.28574657440185547,0.94959557056427,0.0,0.0,0.0,0.0,0.0,0.0
166,1724914321711295425,-0.2468627691268921,0.0945201963186264,0.17860110104084015,0.07628431916236877,-0.10226660966873169,-0.2864929437637329,0.9495494961738586,0.0,0.0,0.0,0.0,0.0,0.0
168,1724914321721609400,-0.24639756977558136,0.09537874162197113,0.17953099310398102,0.0747830867767334,-0.09969084709882736,-0.28955069184303284,0.9490151405334473,0.0,0.0,0.0,0.0,0.0,0.0
170,1724914321731379209,-0.24577799439430237,0.0961141586303711,0.18004044890403748,0.07196163386106491,-0.09828261286020279,-0.29117351770401,0.948883593082428,0.0,0.0,0.0,0.0,0.0,0.0
172,1724914321742815087,-0.2450549155473709,0.09692911803722382,0.18082161247730255,0.0696275383234024,-0.09440293908119202,-0.29374027252197266,0.9486606121063232,0.0,0.0,0.0,0.0,0.0,0.0
174,1724914321751254993,-0.2441760003566742,0.09779525548219681,0.18125000596046448,0.06690710037946701,-0.09283938258886337,-0.29439619183540344,0.9488072395324707,0.0,0.0,0.0,0.0,0.0,0.0
176,1724914321762021608,-0.2433059811592102,0.09897631406784058,0.18225695192813873,0.06448741257190704,-0.08815256506204605,-0.2976601719856262,0.9484034180641174,0.0,0.0,0.0,0.0,0.0,0.0
178,1724914321771705940,-0.24237728118896484,0.09996655583381653,0.18264015018939972,0.06114819645881653,-0.08484155684709549,-0.29899340867996216,0.9485071897506714,0.0,0.0,0.0,0.0,0.0,0.0
180,1724914321781576245,-0.24138402938842773,0.10089737176895142,0.1829773634672165,0.05934959277510643,-0.08107871562242508,-0.30105629563331604,0.948297917842865,0.0,0.0,0.0,0.0,0.0,0.0
182,1724914321791652211,-0.2403198778629303,0.10185819119215012,0.18330201506614685,0.05690901353955269,-0.07812248915433884,-0.3025336265563965,0.9482255578041077,0.0,0.0,0.0,0.0,0.0,0.0
184,1724914321801049516,-0.23905375599861145,0.10310736298561096,0.1841670274734497,0.055459100753068924,-0.07309474050998688,-0.30534687638282776,0.9478105306625366,0.0,0.0,0.0,0.0,0.0,0.0
186,1724914321811576085,-0.2377396821975708,0.10417699813842773,0.18429721891880035,0.04935981705784798,-0.0721716433763504,-0.30486464500427246,0.9483736157417297,0.0,0.0,0.0,0.0,0.0,0.0
188,1724914321823483431,-0.23636281490325928,0.10520359128713608,0.1843368411064148,0.04620683938264847,-0.06930585950613022,-0.3052486181259155,0.9486226439476013,0.0,0.0,0.0,0.0,0.0,0.0
190,1724914321831250312,-0.2347109615802765,0.1063910573720932,0.1848810762166977,0.04354172572493553,-0.06311880052089691,-0.30815136432647705,0.9482420682907104,0.0,0.0,0.0,0.0,0.0,0.0
192,1724914321842980871,-0.23305660486221313,0.10760819911956787,0.185379758477211,0.039877910166978836,-0.05723145976662636,-0.3119606077671051,0.94753098487854,0.0,0.0,0.0,0.0,0.0,0.0
194,1724914321851525097,-0.2310190349817276,0.10869786888360977,0.18497751653194427,0.03531130775809288,-0.05487554892897606,-0.31075215339660645,0.9482483863830566,0.0,0.0,0.0,0.0,0.0,0.0
196,1724914321863740015,-0.22883936762809753,0.110157810151577,0.18539848923683167,0.03264980390667915,-0.047420524060726166,-0.3126196265220642,0.9481319785118103,0.0,0.0,0.0,0.0,0.0,0.0
198,1724914321872889165,-0.22675840556621552,0.11129194498062134,0.18543700873851776,0.026657093316316605,-0.04184199869632721,-0.313611775636673,0.948254406452179,0.0,0.0,0.0,0.0,0.0,0.0
200,1724914321881224524,-0.2241479456424713,0.1123909130692482,0.1857810914516449,0.023870129138231277,-0.035754330456256866,-0.31355854868888855,0.9485952854156494,0.0,0.0,0.0,0.0,0.0,0.0
202,1724914321894206245,-0.2214985340833664,0.1135668084025383,0.18646909296512604,0.019308844581246376,-0.030206328257918358,-0.3151986598968506,0.948348343372345,0.0,0.0,0.0,0.0,0.0,0.0
204,1724914321902193802,-0.21872669458389282,0.11469011008739471,0.18710952997207642,0.012860327027738094,-0.02215774916112423,-0.3162952959537506,0.9483147859573364,0.0,0.0,0.0,0.0,0.0,0.0
206,1724914321911333078,-0.2155897468328476,0.11601828038692474,0.18751108646392822,0.005494353827089071,-0.013482602313160896,-0.31687110662460327,0.9483568668365479,0.0,0.0,0.0,0.0,0.0,0.0
208,1724914321922927080,-0.21291601657867432,0.11696784943342209,0.18727155029773712,0.005722797010093927,-0.010071512311697006,-0.31522029638290405,0.9489478468894958,0.0,0.0,0.0,0.0,0.0,0.0
210,1724914321932828473,-0.2102736085653305,0.1177295669913292,0.1874249279499054,0.006816444918513298,-0.011598956771194935,-0.31456172466278076,0.949141800403595,0.0,0.0,0.0,0.0,0.0,0.0
212,1724914321942827222,-0.20796804130077362,0.11868845671415329,0.18794842064380646,0.007613895460963249,-0.009160693734884262,-0.31555625796318054,0.948832094669342,0.0,0.0,0.0,0.0,0.0,0.0
214,1724914321951287465,-0.20617786049842834,0.11929908394813538,0.1890074908733368,0.005994381848722696,-0.012074210681021214,-0.31631389260292053,0.9485588073730469,0.0,0.0,0.0,0.0,0.0,0.0
216,1724914321961329179,-0.20477554202079773,0.12000975757837296,0.1901414692401886,0.008796779438853264,-0.012163219973444939,-0.3173893392086029,0.9481765031814575,0.0,0.0,0.0,0.0,0.0,0.0
218,1724914321972444468,-0.2040846049785614,0.12082993239164352,0.1909259855747223,0.0055004809983074665,-0.01324042771011591,-0.3180520832538605,0.9479649066925049,0.0,0.0,0.0,0.0,0.0,0.0
220,1724914321981884513,-0.20359168946743011,0.12151743471622467,0.19129709899425507,0.004314163699746132,-0.014965564012527466,-0.3171048164367676,0.9482625722885132,0.0,0.0,0.0,0.0,0.0,0.0
222,1724914321992430222,-0.20329535007476807,0.1221994161605835,0.19176889955997467,0.004065029788762331,-0.015021908096969128,-0.31712380051612854,0.9482564926147461,0.0,0.0,0.0,0.0,0.0,0.0
224,1724914322001121300,-0.20344890654087067,0.12269879877567291,0.19197799265384674,0.00549080828204751,-0.016405902802944183,-0.3172011971473694,0.948200523853302,0.0,0.0,0.0,0.0,0.0,0.0
226,1724914322012530476,-0.20417454838752747,0.12310457974672318,0.1918976753950119,0.00542980432510376,-0.01957416720688343,-0.317870557308197,0.9479165077209473,0.0,0.0,0.0,0.0,0.0,0.0
228,1724914322022536149,-0.2055666446685791,0.12359213829040527,0.19155097007751465,0.004174293950200081,-0.02226623333990574,-0.3174686133861542,0.9479981064796448,0.0,0.0,0.0,0.0,0.0,0.0
230,1724914322031174078,-0.20692116022109985,0.1240292638540268,0.1912079155445099,0.0017004837282001972,-0.02622510865330696,-0.3169440031051636,0.9480801224708557,0.0,0.0,0.0,0.0,0.0,0.0
232,1724914322048031564,-0.2083519846200943,0.12428861111402512,0.1906350702047348,-0.00040148597327061,-0.03137503191828728,-0.31678879261016846,0.9479770064353943,0.0,0.0,0.0,0.0,0.0,0.0
234,1724914322050850494,-0.2100849747657776,0.1247844472527504,0.1896706223487854,0.0026218292769044638,-0.03468332812190056,-0.31648653745651245,0.9479590654373169,0.0,0.0,0.0,0.0,0.0,0.0
236,1724914322063993536,-0.21216219663619995,0.1252075433731079,0.18881674110889435,-0.0010029117111116648,-0.037803564220666885,-0.3161037564277649,0.9479706287384033,0.0,0.0,0.0,0.0,0.0,0.0
238,1724914322073174659,-0.21437057852745056,0.12521570920944214,0.18760184943675995,-0.0003282418183516711,-0.0434819720685482,-0.3151218891143799,0.9480545520782471,0.0,0.0,0.0,0.0,0.0,0.0
240,1724914322082034911,-0.21674805879592896,0.1255694031715393,0.18661504983901978,-0.0012334866914898157,-0.04728051275014877,-0.31604933738708496,0.947563111782074,0.0,0.0,0.0,0.0,0.0,0.0
242,1724914322091449520,-0.21915677189826965,0.12555627524852753,0.18520808219909668,-0.0025860960595309734,-0.05361629277467728,-0.3148161470890045,0.9476336240768433,0.0,0.0,0.0,0.0,0.0,0.0
244,1724914322101158454,-0.22150330245494843,0.12573125958442688,0.18418192863464355,-0.0014357608743011951,-0.05647379904985428,-0.3161120116710663,0.947038471698761,0.0,0.0,0.0,0.0,0.0,0.0
246,1724914322119025160,-0.2237963229417801,0.12586504220962524,0.18296845257282257,0.00020240340381860733,-0.06130247935652733,-0.3166472613811493,0.9465603828430176,0.0,0.0,0.0,0.0,0.0,0.0
248,1724914322124682170,-0.2263115793466568,0.1257987767457962,0.18130482733249664,-0.002081210957840085,-0.06620410084724426,-0.3156871795654297,0.9465487003326416,0.0,0.0,0.0,0.0,0.0,0.0
250,1724914322131061982,-0.22868642210960388,0.1259613037109375,0.18010859191417694,-0.003889151383191347,-0.07069456577301025,-0.31665486097335815,0.9458947777748108,0.0,0.0,0.0,0.0,0.0,0.0
252,1724914322143831357,-0.23105797171592712,0.12604230642318726,0.17879121005535126,-0.004101821221411228,-0.07484228163957596,-0.31753939390182495,0.9452781081199646,0.0,0.0,0.0,0.0,0.0,0.0
254,1724914322151784193,-0.23329618573188782,0.12619741261005402,0.17752955853939056,-0.0017517250962555408,-0.07745660096406937,-0.3183945119380951,0.9447869658470154,0.0,0.0,0.0,0.0,0.0,0.0
256,1724914322161029474,-0.23542295396327972,0.12627124786376953,0.17614762485027313,-0.0015125090721994638,-0.08250010013580322,-0.3172304332256317,0.944752037525177,0.0,0.0,0.0,0.0,0.0,0.0
258,1724914322173231643,-0.23759357631206512,0.12645378708839417,0.17519253492355347,-0.0015651884023100138,-0.08562999963760376,-0.3188149333000183,0.9439396262168884,0.0,0.0,0.0,0.0,0.0,0.0
260,1724914322181325006,-0.23954588174819946,0.126595601439476,0.17430520057678223,-0.001150707365013659,-0.08821213245391846,-0.31952404975891113,0.9434626698493958,0.0,0.0,0.0,0.0,0.0,0.0
262,1724914322192079776,-0.2414265275001526,0.1270367056131363,0.17369577288627625,-0.0013721646973863244,-0.08950973302125931,-0.32099854946136475,0.9428393840789795,0.0,0.0,0.0,0.0,0.0,0.0
264,1724914322203961473,-0.24318106472492218,0.12699994444847107,0.172532856464386,-0.0020905849523842335,-0.09399749338626862,-0.31941017508506775,0.9429408311843872,0.0,0.0,0.0,0.0,0.0,0.0
266,1724914322211276191,-0.24464057385921478,0.12704074382781982,0.17145638167858124,-0.0005036035436205566,-0.09766923636198044,-0.3189365565776825,0.9427300095558167,0.0,0.0,0.0,0.0,0.0,0.0
268,1724914322223108254,-0.246275395154953,0.12725472450256348,0.1706247329711914,-0.0027411230839788914,-0.09930408000946045,-0.3200795352458954,0.9421678781509399,0.0,0.0,0.0,0.0,0.0,0.0
270,1724914322231457218,-0.2475721836090088,0.1275671273469925,0.1700882911682129,-0.003096013329923153,-0.1003401130437851,-0.3210446536540985,0.9417285919189453,0.0,0.0,0.0,0.0,0.0,0.0
272,1724914322245363393,-0.24859708547592163,0.12767614424228668,0.16937270760536194,-0.0009972223779186606,-0.10235529392957687,-0.31951045989990234,0.9420379996299744,0.0,0.0,0.0,0.0,0.0,0.0
274,1724914322251233565,-0.24952301383018494,0.12755659222602844,0.16850510239601135,0.0003839479177258909,-0.10659091174602509,-0.31699660420417786,0.9424178600311279,0.0,0.0,0.0,0.0,0.0,0.0
276,1724914322264080505,-0.25051450729370117,0.12767170369625092,0.16805031895637512,0.0002035089273704216,-0.10875198990106583,-0.317125529050827,0.9421275854110718,0.0,0.0,0.0,0.0,0.0,0.0
278,1724914322272858217,-0.25118735432624817,0.12794433534145355,0.16786575317382812,0.0016432052943855524,-0.1093035638332367,-0.31728416681289673,0.942008912563324,0.0,0.0,0.0,0.0,0.0,0.0
280,1724914322281468144,-0.2519526481628418,0.12795870006084442,0.16731426119804382,0.0004860731423832476,-0.11117976903915405,-0.3153474032878876,0.9424408674240112,0.0,0.0,0.0,0.0,0.0,0.0
282,1724914322291765997,-0.25256189703941345,0.12814177572727203,0.16706803441047668,0.0008841158705763519,-0.11113624274730682,-0.31423458456993103,0.9428173303604126,0.0,0.0,0.0,0.0,0.0,0.0
284,1724914322301378570,-0.25307536125183105,0.12828099727630615,0.16675488650798798,0.001733333570882678,-0.11152681708335876,-0.3128591477870941,0.9432274699211121,0.0,0.0,0.0,0.0,0.0,0.0
286,1724914322315236831,-0.2535490393638611,0.12842412292957306,0.16658301651477814,0.0018206057138741016,-0.11164506524801254,-0.31196680665016174,0.9435087442398071,0.0,0.0,0.0,0.0,0.0,0.0
288,1724914322336289241,-0.25400400161743164,0.12860912084579468,0.1667153686285019,0.0017600018763914704,-0.11135868728160858,-0.31213197112083435,0.9434880614280701,0.0,0.0,0.0,0.0,0.0,0.0
290,1724914322336776978,-0.25443607568740845,0.12860290706157684,0.1667318046092987,0.0023517333902418613,-0.11204272508621216,-0.31146275997161865,0.9436269998550415,0.0,0.0,0.0,0.0,0.0,0.0
292,1724914322341953623,-0.25487083196640015,0.12856419384479523,0.1666843742132187,0.0017450826708227396,-0.11292196065187454,-0.3108968734741211,0.9437100887298584,0.0,0.0,0.0,0.0,0.0,0.0
294,1724914322352225579,-0.2551442086696625,0.12854038178920746,0.16663628816604614,0.002086030784994364,-0.11341080069541931,-0.31046268343925476,0.943793773651123,0.0,0.0,0.0,0.0,0.0,0.0
296,1724914322361049322,-0.25546687841415405,0.12853828072547913,0.16653135418891907,0.0008829496218822896,-0.11340048909187317,-0.31017395853996277,0.9438917636871338,0.0,0.0,0.0,0.0,0.0,0.0
298,1724914322372816997,-0.2556420564651489,0.1284695714712143,0.16651423275470734,0.00046511992695741355,-0.11362007260322571,-0.30930855870246887,0.9441496133804321,0.0,0.0,0.0,0.0,0.0,0.0
300,1724914322381203773,-0.2557787001132965,0.12843646109104156,0.16653387248516083,-0.00028426488279365003,-0.11369013786315918,-0.3085223138332367,0.9443984627723694,0.0,0.0,0.0,0.0,0.0,0.0
302,1724914322391629149,-0.25586608052253723,0.12837722897529602,0.166610985994339,-0.0008016819483600557,-0.11446741968393326,-0.3079976439476013,0.944475531578064,0.0,0.0,0.0,0.0,0.0,0.0
304,1724914322402096494,-0.2558233141899109,0.12842893600463867,0.16679808497428894,0.0006744652055203915,-0.11327231675386429,-0.3077983260154724,0.9446846842765808,0.0,0.0,0.0,0.0,0.0,0.0
306,1724914322411306442,-0.2557215094566345,0.12838833034038544,0.16679483652114868,0.0008275730651803315,-0.11387716233730316,-0.3067876696586609,0.9449405670166016,0.0,0.0,0.0,0.0,0.0,0.0
308,1724914322422686970,-0.2554584741592407,0.1283293515443802,0.16666430234909058,0.002539539709687233,-0.11505234986543655,-0.3045206367969513,0.9455283284187317,0.0,0.0,0.0,0.0,0.0,0.0
310,1724914322432087593,-0.255184143781662,0.12837280333042145,0.16667531430721283,0.002614240162074566,-0.11589402705430984,-0.30271676182746887,0.9460045099258423,0.0,0.0,0.0,0.0,0.0,0.0
312,1724914322441902386,-0.2549223303794861,0.12841875851154327,0.16671189665794373,0.003234074218198657,-0.11600225418806076,-0.30149248242378235,0.9463801383972168,0.0,0.0,0.0,0.0,0.0,0.0
314,1724914322451307460,-0.25470882654190063,0.12842629849910736,0.16680742800235748,0.003213544376194477,-0.11627339571714401,-0.30066177248954773,0.9466111660003662,0.0,0.0,0.0,0.0,0.0,0.0
316,1724914322463618385,-0.2544320523738861,0.1284918338060379,0.16680586338043213,0.0032561158295720816,-0.11670984327793121,-0.29908818006515503,0.9470556974411011,0.0,0.0,0.0,0.0,0.0,0.0
318,1724914322472345959,-0.25412896275520325,0.1284855306148529,0.166793555021286,0.0031641838140785694,-0.1172046959400177,-0.2972375750541687,0.9475773572921753,0.0,0.0,0.0,0.0,0.0,0.0
320,1724914322497427699,-0.2538430094718933,0.12843197584152222,0.16662856936454773,0.002555347979068756,-0.11876313388347626,-0.2950213551521301,0.9480776190757751,0.0,0.0,0.0,0.0,0.0,0.0
322,1724914322497712292,-0.2535538077354431,0.1284574419260025,0.16663771867752075,0.0031227527651935816,-0.1194787248969078,-0.2937362790107727,0.9483850002288818,0.0,0.0,0.0,0.0,0.0,0.0
324,1724914322500994027,-0.25336843729019165,0.12851227819919586,0.16663692891597748,0.0010693881195038557,-0.1207786425948143,-0.29240649938583374,0.9486358165740967,0.0,0.0,0.0,0.0,0.0,0.0
326,1724914322513089772,-0.25305649638175964,0.12858164310455322,0.16671031713485718,0.0016359982546418905,-0.12161699682474136,-0.2912662923336029,0.9488785862922668,0.0,0.0,0.0,0.0,0.0,0.0
328,1724914322522558317,-0.2526334822177887,0.12857545912265778,0.16682586073875427,0.0029252185486257076,-0.12170270830392838,-0.2896895408630371,0.9493471384048462,0.0,0.0,0.0,0.0,0.0,0.0
330,1724914322531646070,-0.2523444592952728,0.12862528860569,0.16688121855258942,0.003465192625299096,-0.121583953499794,-0.2881690263748169,0.9498231410980225,0.0,0.0,0.0,0.0,0.0,0.0
332,1724914322541428063,-0.2520938515663147,0.12862637639045715,0.16699527204036713,0.003081395523622632,-0.12185416370630264,-0.28662651777267456,0.9502565264701843,0.0,0.0,0.0,0.0,0.0,0.0
334,1724914322552223284,-0.251828670501709,0.12864626944065094,0.16718460619449615,0.0033691986463963985,-0.12163777649402618,-0.28507769107818604,0.9507490396499634,0.0,0.0,0.0,0.0,0.0,0.0
336,1724914322561381545,-0.2515347898006439,0.12864679098129272,0.16730330884456635,0.003223128616809845,-0.12103091180324554,-0.2834653854370117,0.9513089060783386,0.0,0.0,0.0,0.0,0.0,0.0
338,1724914322574979406,-0.2512787878513336,0.12881460785865784,0.1676831841468811,0.0017528351163491607,-0.11997988820075989,-0.2831454575061798,0.9515411257743835,0.0,0.0,0.0,0.0,0.0,0.0
340,1724914322581617869,-0.2509608566761017,0.12881648540496826,0.16778254508972168,0.0017503881826996803,-0.12017692625522614,-0.2815302908420563,0.9519953727722168,0.0,0.0,0.0,0.0,0.0,0.0
342,1724914322594232595,-0.25070181488990784,0.12885533273220062,0.16796432435512543,0.00083542539505288,-0.12052265554666519,-0.2803266942501068,0.9523079991340637,0.0,0.0,0.0,0.0,0.0,0.0
344,1724914322601797139,-0.2503827214241028,0.1288384348154068,0.16817383468151093,0.0016052224673330784,-0.12088518589735031,-0.2790699005126953,0.9526302218437195,0.0,0.0,0.0,0.0,0.0,0.0
346,1724914322611745433,-0.2499343752861023,0.12877678871154785,0.16863247752189636,0.0028950925916433334,-0.12099754810333252,-0.27770480513572693,0.9530117511749268,0.0,0.0,0.0,0.0,0.0,0.0
348,1724914322622619187,-0.24940063059329987,0.12877625226974487,0.1692136824131012,0.003954445943236351,-0.12043336033821106,-0.2761118412017822,0.9535420536994934,0.0,0.0,0.0,0.0,0.0,0.0
350,1724914322632147739,-0.24893084168434143,0.12873393297195435,0.16971032321453094,0.004083783365786076,-0.11913243681192398,-0.2743222713470459,0.9542211890220642,0.0,0.0,0.0,0.0,0.0,0.0
352,1724914322643266788,-0.24857963621616364,0.12864631414413452,0.1702343076467514,0.0030463857110589743,-0.11771663278341293,-0.2734157145023346,0.9546608924865723,0.0,0.0,0.0,0.0,0.0,0.0
354,1724914322652726951,-0.24816498160362244,0.1284233182668686,0.17053186893463135,0.002112451707944274,-0.11740481108427048,-0.272170752286911,0.9550575017929077,0.0,0.0,0.0,0.0,0.0,0.0
356,1724914322661890053,-0.24762645363807678,0.1282861977815628,0.17105205357074738,0.002721179276704788,-0.11665310710668564,-0.27134954929351807,0.9553816318511963,0.0,0.0,0.0,0.0,0.0,0.0
358,1724914322673253752,-0.24701723456382751,0.12806929647922516,0.17130568623542786,0.002481382340192795,-0.11650160700082779,-0.26942023634910583,0.955946683883667,0.0,0.0,0.0,0.0,0.0,0.0
360,1724914322681587163,-0.24646387994289398,0.12783117592334747,0.17151249945163727,0.002706685569137335,-0.11637677997350693,-0.26706817746162415,0.9566210508346558,0.0,0.0,0.0,0.0,0.0,0.0
362,1724914322693595555,-0.24595458805561066,0.12771514058113098,0.17188555002212524,0.003213808871805668,-0.1149468794465065,-0.26620811223983765,0.9570319056510925,0.0,0.0,0.0,0.0,0.0,0.0
364,1724914322701210511,-0.24539369344711304,0.12754331529140472,0.17246979475021362,0.0032401669304817915,-0.11305442452430725,-0.2658364176750183,0.9573606252670288,0.0,0.0,0.0,0.0,0.0,0.0
366,1724914322711163312,-0.24480067193508148,0.1274184137582779,0.17346780002117157,0.002687749220058322,-0.10994744300842285,-0.2667195796966553,0.9574785232543945,0.0,0.0,0.0,0.0,0.0,0.0
368,1724914322771800887,-0.24413801729679108,0.12706463038921356,0.17435431480407715,0.002008930779993534,-0.1078304797410965,-0.2662810683250427,0.9578428864479065,0.0,0.0,0.0,0.0,0.0,0.0
370,1724914322772166187,-0.24327543377876282,0.12670716643333435,0.17529615759849548,0.002206603065133095,-0.10445716232061386,-0.2652759552001953,0.9584949016571045,0.0,0.0,0.0,0.0,0.0,0.0
372,1724914322772612484,-0.24243445694446564,0.12628565728664398,0.17619004845619202,0.0030693798325955868,-0.1011580303311348,-0.2642747759819031,0.9591227769851685,0.0,0.0,0.0,0.0,0.0,0.0
374,1724914322772923891,-0.24143938720226288,0.1258077472448349,0.1767284870147705,0.003978225402534008,-0.09753803163766861,-0.2629788815975189,0.9598503708839417,0.0,0.0,0.0,0.0,0.0,0.0
376,1724914322773232651,-0.24021893739700317,0.1251223087310791,0.1770879328250885,0.004305962007492781,-0.09492667764425278,-0.2621610760688782,0.960334300994873,0.0,0.0,0.0,0.0,0.0,0.0
378,1724914322773543278,-0.23889844119548798,0.12451427429914474,0.1775505691766739,0.0036755285691469908,-0.0917130634188652,-0.26035529375076294,0.9611402153968811,0.0,0.0,0.0,0.0,0.0,0.0
380,1724914322781854314,-0.23751908540725708,0.12376509606838226,0.17810510098934174,0.004625740926712751,-0.08617608994245529,-0.2589879333972931,0.9620175361633301,0.0,0.0,0.0,0.0,0.0,0.0
382,1724914322792025594,-0.2361561357975006,0.12259650975465775,0.1780918836593628,0.004657686222344637,-0.08291567116975784,-0.25600528717041016,0.9631015658378601,0.0,0.0,0.0,0.0,0.0,0.0
384,1724914322801337223,-0.23453639447689056,0.1216561570763588,0.17844440042972565,0.006865265779197216,-0.07784049957990646,-0.2552204132080078,0.9637200236320496,0.0,0.0,0.0,0.0,0.0,0.0
386,1724914322817771357,-0.23264777660369873,0.12056100368499756,0.17894455790519714,0.008658679202198982,-0.07306069135665894,-0.2544611096382141,0.9642804861068726,0.0,0.0,0.0,0.0,0.0,0.0
388,1724914322822845326,-0.23099003732204437,0.11955468356609344,0.1793292611837387,0.005784677807241678,-0.0680975690484047,-0.2533009350299835,0.9649704098701477,0.0,0.0,0.0,0.0,0.0,0.0
390,1724914322841790842,-0.22892600297927856,0.11866426467895508,0.1797558069229126,0.0032170184422284365,-0.061191316694021225,-0.25165674090385437,0.9658748507499695,0.0,0.0,0.0,0.0,0.0,0.0
392,1724914322842768474,-0.22661274671554565,0.11761084198951721,0.1802479326725006,0.0025334658566862345,-0.053307145833969116,-0.25052833557128906,0.9666372537612915,0.0,0.0,0.0,0.0,0.0,0.0
394,1724914322859104937,-0.22410635650157928,0.11651278287172318,0.1805058717727661,0.006536233238875866,-0.04522809758782387,-0.24932193756103516,0.9673418402671814,0.0,0.0,0.0,0.0,0.0,0.0
396,1724914322862037085,-0.22141359746456146,0.11542844772338867,0.18080388009548187,0.004152215085923672,-0.03800251707434654,-0.24755080044269562,0.9681204557418823,0.0,0.0,0.0,0.0,0.0,0.0
398,1724914322872436871,-0.21923021972179413,0.11457455158233643,0.18101148307323456,0.0027246286626905203,-0.034227002412080765,-0.24727538228034973,0.9683367609977722,0.0,0.0,0.0,0.0,0.0,0.0
400,1724914322881257631,-0.21668165922164917,0.11371483653783798,0.18148568272590637,0.004946376662701368,-0.028379999101161957,-0.24709127843379974,0.9685638546943665,0.0,0.0,0.0,0.0,0.0,0.0
402,1724914322891621019,-0.214229017496109,0.11247638612985611,0.18184269964694977,0.003760086838155985,-0.025478290393948555,-0.24624572694301605,0.9688652753829956,0.0,0.0,0.0,0.0,0.0,0.0
404,1724914322901470577,-0.21180236339569092,0.11156334728002548,0.1822274774312973,0.0061503262259066105,-0.023868778720498085,-0.24541696906089783,0.9691042304039001,0.0,0.0,0.0,0.0,0.0,0.0
406,1724914322911417950,-0.21023736894130707,0.11063320189714432,0.1825794279575348,0.006520634517073631,-0.02685418538749218,-0.2444579005241394,0.9692661166191101,0.0,0.0,0.0,0.0,0.0,0.0
408,1724914322922355703,-0.20926450192928314,0.10983453691005707,0.1832543909549713,0.006173968780785799,-0.02718902751803398,-0.2441374510526657,0.9693397283554077,0.0,0.0,0.0,0.0,0.0,0.0
410,1724914322945469847,-0.20847253501415253,0.10915825515985489,0.18427465856075287,0.005033770110458136,-0.025182947516441345,-0.24350465834140778,0.9695596694946289,0.0,0.0,0.0,0.0,0.0,0.0
412,1724914322945751674,-0.20846492052078247,0.1082698330283165,0.1849745810031891,0.004943326581269503,-0.027673868462443352,-0.2423378825187683,0.9697846174240112,0.0,0.0,0.0,0.0,0.0,0.0
414,1724914322951170916,-0.20880912244319916,0.10730751603841782,0.18553419411182404,0.00874940212816,-0.029048597440123558,-0.24233269691467285,0.9697187542915344,0.0,0.0,0.0,0.0,0.0,0.0
416,1724914322961354121,-0.2096671313047409,0.10623230040073395,0.1857699751853943,0.011214730329811573,-0.030286656692624092,-0.24233223497867584,0.9696556925773621,0.0,0.0,0.0,0.0,0.0,0.0
418,1724914322972038829,-0.21075484156608582,0.10504356026649475,0.1854402869939804,0.014248735271394253,-0.03367568552494049,-0.24049988389015198,0.9699602127075195,0.0,0.0,0.0,0.0,0.0,0.0
420,1724914322981318431,-0.21243664622306824,0.10340728610754013,0.18492993712425232,0.016313279047608376,-0.03849119320511818,-0.2395327240228653,0.9699878096580505,0.0,0.0,0.0,0.0,0.0,0.0
422,1724914322991511205,-0.214125394821167,0.101972296833992,0.18440234661102295,0.02088659442961216,-0.04169396683573723,-0.23960994184017181,0.9697487354278564,0.0,0.0,0.0,0.0,0.0,0.0
424,1724914323001179871,-0.21618327498435974,0.10044177621603012,0.1835762858390808,0.024003539234399796,-0.04646798595786095,-0.23916248977184296,0.969569981098175,0.0,0.0,0.0,0.0,0.0,0.0
426,1724914323011908050,-0.21833045780658722,0.09900575131177902,0.18292896449565887,0.029618609696626663,-0.04893006384372711,-0.2395038604736328,0.9692091941833496,0.0,0.0,0.0,0.0,0.0,0.0
428,1724914323022614198,-0.22070512175559998,0.09726667404174805,0.18211373686790466,0.03313465788960457,-0.05425286293029785,-0.23932236433029175,0.9688568711280823,0.0,0.0,0.0,0.0,0.0,0.0
430,1724914323031116973,-0.22308003902435303,0.09584011882543564,0.18122847378253937,0.0383915975689888,-0.0571385882794857,-0.23746947944164276,0.9689527750015259,0.0,0.0,0.0,0.0,0.0,0.0
432,1724914323043258409,-0.22546306252479553,0.09429602324962616,0.18080741167068481,0.041558317840099335,-0.060446348041296005,-0.23799863457679749,0.9684914946556091,0.0,0.0,0.0,0.0,0.0,0.0
434,1724914323051728759,-0.22787225246429443,0.092605821788311,0.17983955144882202,0.0443534255027771,-0.06497570872306824,-0.2361614853143692,0.9685239791870117,0.0,0.0,0.0,0.0,0.0,0.0
436,1724914323061980898,-0.23024223744869232,0.09116443991661072,0.17932075262069702,0.046323470771312714,-0.06715796142816544,-0.2358776032924652,0.9683521389961243,0.0,0.0,0.0,0.0,0.0,0.0
438,1724914323072920792,-0.23222653567790985,0.08991445600986481,0.17894257605075836,0.05126403272151947,-0.06724308431148529,-0.2350752204656601,0.9682922959327698,0.0,0.0,0.0,0.0,0.0,0.0
440,1724914323081254697,-0.23439908027648926,0.08854782581329346,0.17805787920951843,0.05058148130774498,-0.07162545621395111,-0.2331104278564453,0.9684889912605286,0.0,0.0,0.0,0.0,0.0,0.0
442,1724914323094890502,-0.23620763421058655,0.08748786896467209,0.17777353525161743,0.05283639580011368,-0.07371924817562103,-0.2333473116159439,0.9681544303894043,0.0,0.0,0.0,0.0,0.0,0.0
444,1724914323102923648,-0.2378229945898056,0.08647693693637848,0.17690488696098328,0.05635550618171692,-0.07573600113391876,-0.23145978152751923,0.9682533144950867,0.0,0.0,0.0,0.0,0.0,0.0
446,1724914323111434989,-0.23939259350299835,0.08559928834438324,0.17618262767791748,0.057695597410202026,-0.07755397260189056,-0.2320011854171753,0.9679008722305298,0.0,0.0,0.0,0.0,0.0,0.0
448,1724914323122444693,-0.2406885176897049,0.08469114452600479,0.17530976235866547,0.06054804474115372,-0.08096753060817719,-0.23145025968551636,0.9675790071487427,0.0,0.0,0.0,0.0,0.0,0.0
450,1724914323132265176,-0.24198618531227112,0.08401895314455032,0.1742660105228424,0.06098645552992821,-0.08419596403837204,-0.22986982762813568,0.9676526188850403,0.0,0.0,0.0,0.0,0.0,0.0
452,1724914323143834375,-0.24324774742126465,0.0836130753159523,0.1737605631351471,0.062206901609897614,-0.08366627991199493,-0.23186184465885162,0.9671455025672913,0.0,0.0,0.0,0.0,0.0,0.0
454,1724914323151673619,-0.24425235390663147,0.08313989639282227,0.17291948199272156,0.06348434835672379,-0.0864039957523346,-0.232279434800148,0.9667214751243591,0.0,0.0,0.0,0.0,0.0,0.0
456,1724914323161065768,-0.2450973093509674,0.08288004994392395,0.17196595668792725,0.06599263101816177,-0.08830373734235764,-0.2318626046180725,0.9664818048477173,0.0,0.0,0.0,0.0,0.0,0.0
458,1724914323172317598,-0.2457682341337204,0.08270590752363205,0.1712753176689148,0.06851013004779816,-0.08984895050525665,-0.23161974549293518,0.9662224650382996,0.0,0.0,0.0,0.0,0.0,0.0
460,1724914323182399156,-0.24628786742687225,0.08259376138448715,0.1708662509918213,0.07081874459981918,-0.0908573791384697,-0.23262439668178558,0.9657201766967773,0.0,0.0,0.0,0.0,0.0,0.0
462,1724914323194993650,-0.24703152477741241,0.08249073475599289,0.1703130453824997,0.06993938982486725,-0.09222348034381866,-0.2339726686477661,0.9653289914131165,0.0,0.0,0.0,0.0,0.0,0.0
464,1724914323201375934,-0.24755018949508667,0.08244017511606216,0.17013850808143616,0.0712680071592331,-0.09282872825860977,-0.23522749543190002,0.9648688435554504,0.0,0.0,0.0,0.0,0.0,0.0
466,1724914323211259397,-0.2480798065662384,0.08227593451738358,0.16959281265735626,0.07110174000263214,-0.09426364302635193,-0.23505111038684845,0.9647849202156067,0.0,0.0,0.0,0.0,0.0,0.0
468,1724914323222195142,-0.24844488501548767,0.08226817101240158,0.16916583478450775,0.071700818836689,-0.09491436928510666,-0.235036239027977,0.9646803736686707,0.0,0.0,0.0,0.0,0.0,0.0
470,1724914323231121824,-0.24873512983322144,0.08220633119344711,0.1686861664056778,0.07222680002450943,-0.09636475145816803,-0.23471125960350037,0.9645764827728271,0.0,0.0,0.0,0.0,0.0,0.0
472,1724914323244443459,-0.2489306926727295,0.08217162638902664,0.16826777160167694,0.07298550009727478,-0.09755437076091766,-0.2343311607837677,0.96449214220047,0.0,0.0,0.0,0.0,0.0,0.0
474,1724914323251203363,-0.24911387264728546,0.08210896700620651,0.16795356571674347,0.07428283244371414,-0.09814751148223877,-0.23447923362255096,0.9642969965934753,0.0,0.0,0.0,0.0,0.0,0.0
476,1724914323262868015,-0.24928197264671326,0.0820619985461235,0.167708620429039,0.07473811507225037,-0.09858757257461548,-0.23430222272872925,0.964259922504425,0.0,0.0,0.0,0.0,0.0,0.0
478,1724914323271960207,-0.24942722916603088,0.08213137090206146,0.16771534085273743,0.07567433267831802,-0.09760788828134537,-0.23484225571155548,0.9641552567481995,0.0,0.0,0.0,0.0,0.0,0.0
480,1724914323282061425,-0.2494654655456543,0.08208281546831131,0.1677166372537613,0.07624503970146179,-0.09769037365913391,-0.2349180281162262,0.9640833735466003,0.0,0.0,0.0,0.0,0.0,0.0
482,1724914323292570642,-0.249436616897583,0.08192065358161926,0.1675432026386261,0.07582902908325195,-0.09885421395301819,-0.23466971516609192,0.9640581011772156,0.0,0.0,0.0,0.0,0.0,0.0
484,1724914323301448925,-0.2494935542345047,0.08182179927825928,0.16753466427326202,0.07484707981348038,-0.09902951121330261,-0.23531268537044525,0.9639600515365601,0.0,0.0,0.0,0.0,0.0,0.0
486,1724914323313276314,-0.24948866665363312,0.08181869238615036,0.16759327054023743,0.07435011118650436,-0.0989198312163353,-0.2358061671257019,0.9638891816139221,0.0,0.0,0.0,0.0,0.0,0.0
488,1724914323322186910,-0.2494465708732605,0.08182835578918457,0.16763520240783691,0.0746421068906784,-0.09884975105524063,-0.23665466904640198,0.9636658430099487,0.0,0.0,0.0,0.0,0.0,0.0
490,1724914323331377581,-0.24944844841957092,0.08182952553033829,0.16762810945510864,0.0743495374917984,-0.09900257736444473,-0.23767809569835663,0.9634209275245667,0.0,0.0,0.0,0.0,0.0,0.0
492,1724914323344999130,-0.24943406879901886,0.08191359043121338,0.16770361363887787,0.07464910298585892,-0.09820027649402618,-0.23861676454544067,0.9632477760314941,0.0,0.0,0.0,0.0,0.0,0.0
494,1724914323354234530,-0.24944600462913513,0.08188020437955856,0.16766181588172913,0.07374238222837448,-0.09879528731107712,-0.2389651983976364,0.9631703495979309,0.0,0.0,0.0,0.0,0.0,0.0
496,1724914323361612897,-0.24943967163562775,0.0819532498717308,0.16775141656398773,0.07396507263183594,-0.09868747740983963,-0.2391945868730545,0.9631074666976929,0.0,0.0,0.0,0.0,0.0,0.0
498,1724914323373700245,-0.24943028390407562,0.08193741738796234,0.1676621437072754,0.0743398666381836,-0.09910684823989868,-0.2392418086528778,0.963023841381073,0.0,0.0,0.0,0.0,0.0,0.0
500,1724914323381896878,-0.2494276612997055,0.08194348216056824,0.16772329807281494,0.07430978864431381,-0.09918045997619629,-0.23993822932243347,0.9628452062606812,0.0,0.0,0.0,0.0,0.0,0.0
502,1724914323392237279,-0.24942930042743683,0.08197596669197083,0.1677982211112976,0.07441767305135727,-0.0993165522813797,-0.24063028395175934,0.9626501202583313,0.0,0.0,0.0,0.0,0.0,0.0
504,1724914323401903275,-0.2493657022714615,0.08211562037467957,0.16785737872123718,0.07482104748487473,-0.09933843463659286,-0.24128857254981995,0.9624518156051636,0.0,0.0,0.0,0.0,0.0,0.0
506,1724914323414633857,-0.24929338693618774,0.0821465402841568,0.1678963154554367,0.0747140496969223,-0.10002580285072327,-0.24228604137897491,0.9621383547782898,0.0,0.0,0.0,0.0,0.0,0.0
508,1724914323422086585,-0.24914604425430298,0.08224882930517197,0.16790960729122162,0.0757177323102951,-0.10054940730333328,-0.24294784665107727,0.9618383646011353,0.0,0.0,0.0,0.0,0.0,0.0
510,1724914323435619168,-0.24901002645492554,0.0823802500963211,0.1680033951997757,0.07647615671157837,-0.10081176459789276,-0.24427497386932373,0.961414635181427,0.0,0.0,0.0,0.0,0.0,0.0
512,1724914323441670947,-0.24888791143894196,0.08254362642765045,0.16820590198040009,0.07672424614429474,-0.10088159888982773,-0.24598410725593567,0.9609517455101013,0.0,0.0,0.0,0.0,0.0,0.0
514,1724914323451397803,-0.24879197776317596,0.08268214017152786,0.16838914155960083,0.07677151262760162,-0.10113614797592163,-0.24760299921035767,0.9605053067207336,0.0,0.0,0.0,0.0,0.0,0.0
516,1724914323461632631,-0.24863867461681366,0.08284129947423935,0.1685173213481903,0.07784611731767654,-0.10178308188915253,-0.2489495724439621,0.9600023031234741,0.0,0.0,0.0,0.0,0.0,0.0
518,1724914323471728395,-0.24848581850528717,0.08301199972629547,0.16878816485404968,0.07966441661119461,-0.10094332695007324,-0.25114694237709045,0.9593691825866699,0.0,0.0,0.0,0.0,0.0,0.0
520,1724914323481482373,-0.24826844036579132,0.08296039700508118,0.1685689091682434,0.08007972687482834,-0.10338983684778214,-0.2521076500415802,0.9588220119476318,0.0,0.0,0.0,0.0,0.0,0.0
522,1724914323494382860,-0.2481154352426529,0.08307210355997086,0.16870556771755219,0.08074142038822174,-0.10396531969308853,-0.25390318036079407,0.9582303166389465,0.0,0.0,0.0,0.0,0.0,0.0
524,1724914323501105950,-0.2478800117969513,0.08316072076559067,0.16887617111206055,0.08250749856233597,-0.10462066531181335,-0.2553989887237549,0.9576107859611511,0.0,0.0,0.0,0.0,0.0,0.0
526,1724914323511726055,-0.2477668821811676,0.08336865901947021,0.1692577451467514,0.08342283964157104,-0.10369794815778732,-0.2575548589229584,0.9570542573928833,0.0,0.0,0.0,0.0,0.0,0.0
528,1724914323522272456,-0.2476869821548462,0.08355387300252914,0.16944041848182678,0.08359184116125107,-0.10383486747741699,-0.25933149456977844,0.9565447568893433,0.0,0.0,0.0,0.0,0.0,0.0
530,1724914323531358357,-0.24766139686107635,0.08374819904565811,0.16959302127361298,0.0825536847114563,-0.10381129384040833,-0.2614804208278656,0.9560523629188538,0.0,0.0,0.0,0.0,0.0,0.0
532,1724914323542515202,-0.24761100113391876,0.08388043940067291,0.16956758499145508,0.08170534670352936,-0.10532990097999573,-0.26292020082473755,0.9555642008781433,0.0,0.0,0.0,0.0,0.0,0.0
534,1724914323551415082,-0.24752438068389893,0.08420708775520325,0.16961383819580078,0.08200937509536743,-0.10593939572572708,-0.26394733786582947,0.9551875591278076,0.0,0.0,0.0,0.0,0.0,0.0
536,1724914323562764852,-0.24740123748779297,0.0847356989979744,0.17026735842227936,0.08461424708366394,-0.1040838286280632,-0.26685571670532227,0.9543558955192566,0.0,0.0,0.0,0.0,0.0,0.0
538,1724914323572957718,-0.24736788868904114,0.08503278344869614,0.17033231258392334,0.08406183123588562,-0.10530412197113037,-0.2679623067378998,0.953960657119751,0.0,0.0,0.0,0.0,0.0,0.0
540,1724914323581552430,-0.2473410665988922,0.08542796969413757,0.17058970034122467,0.08410754799842834,-0.10514770448207855,-0.2697913348674774,0.9534582495689392,0.0,0.0,0.0,0.0,0.0,0.0
542,1724914323592212360,-0.24732807278633118,0.08588720113039017,0.1709105670452118,0.08409574627876282,-0.10501345247030258,-0.27155011892318726,0.9529746174812317,0.0,0.0,0.0,0.0,0.0,0.0
544,1724914323601385336,-0.24730753898620605,0.08640602976083755,0.1713310033082962,0.08412357419729233,-0.10484836995601654,-0.27305954694747925,0.9525589346885681,0.0,0.0,0.0,0.0,0.0,0.0
546,1724914323611251417,-0.24725472927093506,0.08696359395980835,0.1716529279947281,0.08345529437065125,-0.10540200769901276,-0.27362939715385437,0.952393114566803,0.0,0.0,0.0,0.0,0.0,0.0
548,1724914323622642283,-0.24729403853416443,0.08758022636175156,0.17230072617530823,0.08267689496278763,-0.10471739619970322,-0.2755875587463379,0.9519718289375305,0.0,0.0,0.0,0.0,0.0,0.0
550,1724914323633006192,-0.24725253880023956,0.0881899744272232,0.17280878126621246,0.0826934427022934,-0.10426026582717896,-0.27680307626724243,0.9516679048538208,0.0,0.0,0.0,0.0,0.0,0.0
552,1724914323641575727,-0.2471880167722702,0.08889223635196686,0.17328880727291107,0.0825909972190857,-0.10455305129289627,-0.2775318920612335,0.9514322876930237,0.0,0.0,0.0,0.0,0.0,0.0
554,1724914323651834840,-0.24688974022865295,0.08965981751680374,0.1738581657409668,0.08333662152290344,-0.1045440137386322,-0.27839481830596924,0.9511162042617798,0.0,0.0,0.0,0.0,0.0,0.0
556,1724914323662416367,-0.24683579802513123,0.0903838574886322,0.17458391189575195,0.08073663711547852,-0.10364062339067459,-0.2804185450077057,0.9508447647094727,0.0,0.0,0.0,0.0,0.0,0.0
558,1724914323672483044,-0.2468232363462448,0.09106487035751343,0.17532587051391602,0.07761779427528381,-0.10225283354520798,-0.2828647792339325,0.9505301117897034,0.0,0.0,0.0,0.0,0.0,0.0
560,1724914323682208703,-0.24669702351093292,0.09184269607067108,0.1762446016073227,0.07682806998491287,-0.10100050270557404,-0.2851136326789856,0.9500561356544495,0.0,0.0,0.0,0.0,0.0,0.0
562,1724914323691430940,-0.2465049773454666,0.09248971194028854,0.1770152747631073,0.07667563855648041,-0.09959778934717178,-0.2869226038455963,0.9496718645095825,0.0,0.0,0.0,0.0,0.0,0.0
564,1724914323701539957,-0.2461956888437271,0.09309066087007523,0.17732137441635132,0.07620736956596375,-0.10038741677999496,-0.28625643253326416,0.9498274326324463,0.0,0.0,0.0,0.0,0.0,0.0
566,1724914323711793875,-0.24580340087413788,0.09373985975980759,0.1779216080904007,0.07599295675754547,-0.09990853816270828,-0.28694528341293335,0.9496871829032898,0.0,0.0,0.0,0.0,0.0,0.0
568,1724914323721483633,-0.24536433815956116,0.0945693626999855,0.17863374948501587,0.07467733323574066,-0.09691893309354782,-0.28858688473701477,0.9496039748191833,0.0,0.0,0.0,0.0,0.0,0.0
570,1724914323731581337,-0.24492290616035461,0.095257468521595,0.17912213504314423,0.07213035970926285,-0.09491954743862152,-0.29048582911491394,0.9494237899780273,0.0,0.0,0.0,0.0,0.0,0.0
572,1724914323741523185,-0.2444266825914383,0.096071258187294,0.17978015542030334,0.07006758451461792,-0.09300047159194946,-0.2923382520675659,0.9491996169090271,0.0,0.0,0.0,0.0,0.0,0.0
574,1724914323751096079,-0.24385856091976166,0.09708824753761292,0.18045634031295776,0.06751612573862076,-0.0913548618555069,-0.2937883138656616,0.9490966200828552,0.0,0.0,0.0,0.0,0.0,0.0
576,1724914323763287146,-0.2431384027004242,0.09829021990299225,0.1809931844472885,0.06513959169387817,-0.08911862969398499,-0.2949303388595581,0.9491211175918579,0.0,0.0,0.0,0.0,0.0,0.0
578,1724914323771988089,-0.2423216700553894,0.09940783679485321,0.1815904825925827,0.061779435724020004,-0.08542254567146301,-0.2973879277706146,0.9489187002182007,0.0,0.0,0.0,0.0,0.0,0.0
580,1724914323782730658,-0.24148710072040558,0.10043744742870331,0.18188446760177612,0.06007836014032364,-0.0821089819073677,-0.29891031980514526,0.9488421678543091,0.0,0.0,0.0,0.0,0.0,0.0
582,1724914323792282811,-0.2404785007238388,0.10160405188798904,0.1823531985282898,0.05816800519824028,-0.07748746126890182,-0.3016805946826935,0.9484729766845703,0.0,0.0,0.0,0.0,0.0,0.0
584,1724914323801532216,-0.23934517800807953,0.10277169197797775,0.18265435099601746,0.05468497797846794,-0.07419499009847641,-0.3028159737586975,0.9485816955566406,0.0,0.0,0.0,0.0,0.0,0.0
586,1724914323811507674,-0.2381126880645752,0.10409332066774368,0.18308578431606293,0.05066129192709923,-0.07088081538677216,-0.3040224015712738,0.9486727118492126,0.0,0.0,0.0,0.0,0.0,0.0
588,1724914323824064094,-0.2366470992565155,0.10517509281635284,0.1831064075231552,0.04839066416025162,-0.06830587983131409,-0.3040824830532074,0.9489607810974121,0.0,0.0,0.0,0.0,0.0,0.0
590,1724914323832974582,-0.23517408967018127,0.10633401572704315,0.18344350159168243,0.045607808977365494,-0.06324823945760727,-0.30617132782936096,0.9487775564193726,0.0,0.0,0.0,0.0,0.0,0.0
592,1724914323847081317,-0.2336220145225525,0.10749762505292892,0.18379758298397064,0.040784016251564026,-0.058164406567811966,-0.30873534083366394,0.9484915137290955,0.0,0.0,0.0,0.0,0.0,0.0
594,1724914323851906149,-0.23191380500793457,0.10859338194131851,0.18327319622039795,0.03655873239040375,-0.05445282906293869,-0.30855458974838257,0.9489428400993347,0.0,0.0,0.0,0.0,0.0,0.0
596,1724914323861654558,-0.2299160212278366,0.10955110937356949,0.18315985798835754,0.033471040427684784,-0.050312258303165436,-0.3088110089302063,0.9492018818855286,0.0,0.0,0.0,0.0,0.0,0.0
598,1724914323872793862,-0.22774821519851685,0.11057183146476746,0.18302051723003387,0.031027531251311302,-0.04479556530714035,-0.3086773753166199,0.9496046304702759,0.0,0.0,0.0,0.0,0.0,0.0
600,1724914323882139021,-0.22545680403709412,0.11150854080915451,0.18297627568244934,0.027163006365299225,-0.03864516317844391,-0.3098002076148987,0.9496275782585144,0.0,0.0,0.0,0.0,0.0,0.0
602,1724914323891223622,-0.2229798287153244,0.11233292520046234,0.18343494832515717,0.022334275767207146,-0.03405294567346573,-0.3112325668334961,0.9494608044624329,0.0,0.0,0.0,0.0,0.0,0.0
604,1724914323902137146,-0.22033090889453888,0.11373327672481537,0.18384622037410736,0.015620700083673,-0.028411980718374252,-0.31021472811698914,0.9501134753227234,0.0,0.0,0.0,0.0,0.0,0.0
606,1724914323914775509,-0.21751461923122406,0.1151900589466095,0.18458212912082672,0.010342326015233994,-0.02137237787246704,-0.3122759461402893,0.9496947526931763,0.0,0.0,0.0,0.0,0.0,0.0
608,1724914323922284539,-0.21482644975185394,0.11601503193378448,0.18445639312267303,0.013180949725210667,-0.01878185011446476,-0.3097401261329651,0.9505443572998047,0.0,0.0,0.0,0.0,0.0,0.0
610,1724914323931472660,-0.2126908004283905,0.11734892427921295,0.18506626784801483,0.008535802364349365,-0.015248161740601063,-0.31080305576324463,0.9503137469291687,0.0,0.0,0.0,0.0,0.0,0.0
612,1724914323941262035,-0.2102726548910141,0.11854754388332367,0.1855916827917099,0.010395889170467854,-0.014843854121863842,-0.3110921084880829,0.9502070546150208,0.0,0.0,0.0,0.0,0.0,0.0
614,1724914323951413615,-0.20861218869686127,0.11950257420539856,0.18616077303886414,0.011953039094805717,-0.013865969143807888,-0.3118334412574768,0.9499604105949402,0.0,0.0,0.0,0.0,0.0,0.0
616,1724914323961407419,-0.20737791061401367,0.12059474736452103,0.18725712597370148,0.008263719268143177,-0.015204960480332375,-0.3137627840042114,0.9493438005447388,0.0,0.0,0.0,0.0,0.0,0.0
618,1724914323972179152,-0.20640572905540466,0.12151623517274857,0.18785947561264038,0.008898846805095673,-0.01626388542354107,-0.31376272439956665,0.9493204951286316,0.0,0.0,0.0,0.0,0.0,0.0
620,1724914323981496784,-0.20583651959896088,0.12229418009519577,0.1885462999343872,0.00948132760822773,-0.016271373257040977,-0.3143104016780853,0.9491335153579712,0.0,0.0,0.0,0.0,0.0,0.0
622,1724914324055656330,-0.20583248138427734,0.12301439791917801,0.18908265233039856,0.008735759183764458,-0.016668148338794708,-0.31548601388931274,0.9487435817718506,0.0,0.0,0.0,0.0,0.0,0.0
624,1724914324056063741,-0.20609413087368011,0.12386151403188705,0.18943291902542114,0.007748848292976618,-0.017554879188537598,-0.31631502509117126,0.9484601020812988,0.0,0.0,0.0,0.0,0.0,0.0
626,1724914324056396649,-0.20677439868450165,0.12452217936515808,0.1892462521791458,0.008180675096809864,-0.020405404269695282,-0.31638696789741516,0.9483755230903625,0.0,0.0,0.0,0.0,0.0,0.0
628,1724914324056732784,-0.20771805942058563,0.1251470297574997,0.18910039961338043,0.008074969984591007,-0.022917212918400764,-0.317883163690567,0.9478185176849365,0.0,0.0,0.0,0.0,0.0,0.0
630,1724914324057059957,-0.2089245319366455,0.1259348839521408,0.1884436011314392,0.0096940528601408,-0.023914650082588196,-0.3168948292732239,0.9481096267700195,0.0,0.0,0.0,0.0,0.0,0.0
632,1724914324057387745,-0.21057312190532684,0.12642396986484528,0.18752162158489227,0.006163511425256729,-0.02957317605614662,-0.31619682908058167,0.9482125639915466,0.0,0.0,0.0,0.0,0.0,0.0
634,1724914324057799858,-0.21227900683879852,0.12699435651302338,0.18676897883415222,0.004831766244024038,-0.03293630853295326,-0.3163694143295288,0.948051929473877,0.0,0.0,0.0,0.0,0.0,0.0
636,1724914324073491671,-0.21421228349208832,0.1275860220193863,0.18563984334468842,0.004839297384023666,-0.03656233474612236,-0.31604111194610596,0.9480284452438354,0.0,0.0,0.0,0.0,0.0,0.0
638,1724914324073780472,-0.2162894308567047,0.1277734786272049,0.18436475098133087,0.005210358649492264,-0.04227586090564728,-0.3153517246246338,0.948018491268158,0.0,0.0,0.0,0.0,0.0,0.0
640,1724914324081472246,-0.21849392354488373,0.1281171292066574,0.18304868042469025,0.004347455222159624,-0.04823729395866394,-0.3142828047275543,0.9480931758880615,0.0,0.0,0.0,0.0,0.0,0.0
642,1724914324091543776,-0.22058595716953278,0.1284763664007187,0.18245987594127655,0.003284376347437501,-0.05199446901679039,-0.3159998059272766,0.9473277926445007,0.0,0.0,0.0,0.0,0.0,0.0
644,1724914324101688545,-0.2228194922208786,0.1283777356147766,0.18103748559951782,0.0018247119151055813,-0.0581788569688797,-0.3140585720539093,0.9476175904273987,0.0,0.0,0.0,0.0,0.0,0.0
646,1724914324111944220,-0.2249971330165863,0.12866906821727753,0.1800289899110794,0.0030513510573655367,-0.06061476841568947,-0.3144052028656006,0.9473468661308289,0.0,0.0,0.0,0.0,0.0,0.0
648,1724914324123264917,-0.22718101739883423,0.12862654030323029,0.17886996269226074,0.0011469896417111158,-0.06573288142681122,-0.314474493265152,0.9469866752624512,0.0,0.0,0.0,0.0,0.0,0.0
650,1724914324131240132,-0.22939817607402802,0.1284647285938263,0.17765332758426666,0.0013720886781811714,-0.0707724466919899,-0.31478968262672424,0.9465182423591614,0.0,0.0,0.0,0.0,0.0,0.0
652,1724914324141567627,-0.23145869374275208,0.12847939133644104,0.17678208649158478,0.001043136464431882,-0.07343996316194534,-0.31626006960868835,0.9458250999450684,0.0,0.0,0.0,0.0,0.0,0.0
654,1724914324152169846,-0.23358187079429626,0.12820762395858765,0.1756352335214615,-0.0011895699426531792,-0.07945706695318222,-0.3162042200565338,0.9453571438789368,0.0,0.0,0.0,0.0,0.0,0.0
656,1724914324163099769,-0.23537836968898773,0.12805788218975067,0.17473027110099792,-0.00014934205682948232,-0.08272398263216019,-0.31618067622184753,0.9450854659080505,0.0,0.0,0.0,0.0,0.0,0.0
658,1724914324173630049,-0.23713885247707367,0.12797971069812775,0.17376966774463654,0.0031420630402863026,-0.08604952692985535,-0.3168752193450928,0.9445505142211914,0.0,0.0,0.0,0.0,0.0,0.0
660,1724914324184659619,-0.23883546888828278,0.1278853416442871,0.17317244410514832,0.0023422676604241133,-0.08843562752008438,-0.3175416588783264,0.9441085457801819,0.0,0.0,0.0,0.0,0.0,0.0
662,1724914324191898179,-0.2404480278491974,0.1278257817029953,0.17258404195308685,0.0023007493000477552,-0.08938073366880417,-0.3181203603744507,0.9438247680664062,0.0,0.0,0.0,0.0,0.0,0.0
664,1724914324201179878,-0.24210329353809357,0.1278434693813324,0.1719764769077301,-0.0002467394806444645,-0.09011344611644745,-0.3190596103668213,0.9434407949447632,0.0,0.0,0.0,0.0,0.0,0.0
666,1724914324212131346,-0.24340353906154633,0.12766948342323303,0.17118121683597565,-0.00022056671150494367,-0.09315155446529388,-0.31853222846984863,0.9433239698410034,0.0,0.0,0.0,0.0,0.0,0.0
668,1724914324221945180,-0.2445811927318573,0.12768495082855225,0.17032787203788757,0.00016401040193159133,-0.0959179624915123,-0.31753963232040405,0.9433813095092773,0.0,0.0,0.0,0.0,0.0,0.0
670,1724914324232149289,-0.24578364193439484,0.12783963978290558,0.16982071101665497,-0.0016894509317353368,-0.09672565758228302,-0.3185540735721588,0.9429552555084229,0.0,0.0,0.0,0.0,0.0,0.0
672,1724914324241306178,-0.24669405817985535,0.12803839147090912,0.169321671128273,-0.0016094811726361513,-0.0979829654097557,-0.3191615343093872,0.9426201581954956,0.0,0.0,0.0,0.0,0.0,0.0
674,1724914324251321999,-0.24746808409690857,0.12820574641227722,0.16888150572776794,-0.0014336101012304425,-0.09966438263654709,-0.3189343810081482,0.9425210356712341,0.0,0.0,0.0,0.0,0.0,0.0
676,1724914324263111113,-0.2481115609407425,0.1283593773841858,0.16830363869667053,0.00021428019681479782,-0.10058457404375076,-0.3175504803657532,0.942891538143158,0.0,0.0,0.0,0.0,0.0,0.0
678,1724914324271743768,-0.2486414909362793,0.12838375568389893,0.16768407821655273,0.0013335739495232701,-0.10228772461414337,-0.3160519003868103,0.943210780620575,0.0,0.0,0.0,0.0,0.0,0.0
680,1724914324281670072,-0.24922209978103638,0.12846282124519348,0.1672459840774536,0.0004331187519710511,-0.10407138615846634,-0.31488892436027527,0.9434055089950562,0.0,0.0,0.0,0.0,0.0,0.0
682,1724914324296632813,-0.24989275634288788,0.12864398956298828,0.16704954206943512,-0.0008066075388342142,-0.10422152280807495,-0.31576597690582275,0.9430954456329346,0.0,0.0,0.0,0.0,0.0,0.0
684,1724914324301182128,-0.25015944242477417,0.1287221908569336,0.1668812781572342,0.0024041051510721445,-0.1058143600821495,-0.31528282165527344,0.943077027797699,0.0,0.0,0.0,0.0,0.0,0.0
686,1724914324311345727,-0.25047633051872253,0.12885026633739471,0.16677707433700562,0.0025614278856664896,-0.10669060051441193,-0.31507477164268494,0.9430474638938904,0.0,0.0,0.0,0.0,0.0,0.0
688,1724914324324406631,-0.25074753165245056,0.12899959087371826,0.1666921228170395,0.002468265825882554,-0.10656903684139252,-0.31468451023101807,0.9431917667388916,0.0,0.0,0.0,0.0,0.0,0.0
690,1724914324335536485,-0.25099295377731323,0.1291419118642807,0.16657377779483795,0.0013797261053696275,-0.10623684525489807,-0.313513845205307,0.9436212182044983,0.0,0.0,0.0,0.0,0.0,0.0
692,1724914324341393555,-0.2511005997657776,0.12925155460834503,0.16656668484210968,0.001957019092515111,-0.10613778978586197,-0.31250613927841187,0.943965494632721,0.0,0.0,0.0,0.0,0.0,0.0
694,1724914324351435618,-0.25123661756515503,0.12925483286380768,0.16639180481433868,0.002625398337841034,-0.10685098171234131,-0.3112581968307495,0.9442957043647766,0.0,0.0,0.0,0.0,0.0,0.0
696,1724914324361486699,-0.25134631991386414,0.12928637862205505,0.16639524698257446,0.0029761961195617914,-0.10694712400436401,-0.3107024133205414,0.9444668292999268,0.0,0.0,0.0,0.0,0.0,0.0
698,1724914324371677373,-0.25141653418540955,0.12928535044193268,0.16633008420467377,0.002869485644623637,-0.1071578711271286,-0.3099292814731598,0.9446972012519836,0.0,0.0,0.0,0.0,0.0,0.0
700,1724914324381266368,-0.25144630670547485,0.12927654385566711,0.16636541485786438,0.0027531359810382128,-0.10710082203149796,-0.30946677923202515,0.9448556303977966,0.0,0.0,0.0,0.0,0.0,0.0
702,1724914324391649308,-0.25146639347076416,0.12921300530433655,0.1663023978471756,0.0025762272998690605,-0.1072295755147934,-0.3088420033454895,0.9450459480285645,0.0,0.0,0.0,0.0,0.0,0.0
704,1724914324401112337,-0.25142985582351685,0.12910020351409912,0.16632702946662903,0.0026789791882038116,-0.107608363032341,-0.30866876244544983,0.9450591802597046,0.0,0.0,0.0,0.0,0.0,0.0
706,1724914324411214549,-0.25133034586906433,0.1289767622947693,0.16632497310638428,0.0028385696932673454,-0.10838539898395538,-0.30840370059013367,0.9450564384460449,0.0,0.0,0.0,0.0,0.0,0.0
708,1724914324422055612,-0.2511153221130371,0.1289878785610199,0.16664916276931763,0.0035295591223984957,-0.10730689764022827,-0.308967649936676,0.9449930787086487,0.0,0.0,0.0,0.0,0.0,0.0
710,1724914324431077314,-0.25094306468963623,0.1288495659828186,0.16671043634414673,0.0031773170921951532,-0.10781383514404297,-0.30800095200538635,0.9452520608901978,0.0,0.0,0.0,0.0,0.0,0.0
712,1724914324441387731,-0.2507992386817932,0.12863105535507202,0.1666940301656723,0.001146877184510231,-0.10945552587509155,-0.30622628331184387,0.9456446170806885,0.0,0.0,0.0,0.0,0.0,0.0
714,1724914324451604869,-0.25051915645599365,0.128585547208786,0.1668308973312378,0.0004620029067154974,-0.1100391075015068,-0.30409136414527893,0.9462661743164062,0.0,0.0,0.0,0.0,0.0,0.0
716,1724914324461271580,-0.25030896067619324,0.1286117136478424,0.1669328212738037,-0.00021265803661663085,-0.11020998656749725,-0.3022281527519226,0.946843147277832,0.0,0.0,0.0,0.0,0.0,0.0
718,1724914324471831059,-0.25010424852371216,0.128728985786438,0.1669667512178421,0.0007715079700574279,-0.11034887284040451,-0.30061063170433044,0.9473415017127991,0.0,0.0,0.0,0.0,0.0,0.0
720,1724914324481496186,-0.2499510943889618,0.12886586785316467,0.16696783900260925,0.0013308280613273382,-0.11050312221050262,-0.2994168698787689,0.9477008581161499,0.0,0.0,0.0,0.0,0.0,0.0
722,1724914324493234986,-0.24977228045463562,0.1289929449558258,0.1669408529996872,0.0022415132261812687,-0.11072148382663727,-0.29855138063430786,0.9479466080665588,0.0,0.0,0.0,0.0,0.0,0.0
724,1724914324501184103,-0.24962833523750305,0.12909051775932312,0.16691471636295319,0.0028071205597370863,-0.1114925667643547,-0.29791608452796936,0.9480546116828918,0.0,0.0,0.0,0.0,0.0,0.0
726,1724914324511447903,-0.2494877427816391,0.12914779782295227,0.1668677181005478,0.002658682642504573,-0.11210993677377701,-0.29691842198371887,0.9482951760292053,0.0,0.0,0.0,0.0,0.0,0.0
728,1724914324523059783,-0.24926911294460297,0.129155695438385,0.16690592467784882,0.0030513759702444077,-0.11231552064418793,-0.29567283391952515,0.9486587643623352,0.0,0.0,0.0,0.0,0.0,0.0
730,1724914324531212468,-0.249029740691185,0.12912656366825104,0.167030930519104,0.002529869554564357,-0.11256954818964005,-0.2941557466983795,0.9491018056869507,0.0,0.0,0.0,0.0,0.0,0.0
732,1724914324544785155,-0.24893465638160706,0.12919561564922333,0.16736553609371185,-0.00014920170360710472,-0.11134016513824463,-0.29330378770828247,0.9495137333869934,0.0,0.0,0.0,0.0,0.0,0.0
734,1724914324551082768,-0.24870966374874115,0.12921789288520813,0.16752862930297852,-0.0004236926033627242,-0.11104366928339005,-0.29167744517326355,0.9500491619110107,0.0,0.0,0.0,0.0,0.0,0.0
736,1724914324561199191,-0.24827781319618225,0.12928014993667603,0.1677197366952896,8.693124982528389e-05,-0.11098361015319824,-0.28992268443107605,0.9505932927131653,0.0,0.0,0.0,0.0,0.0,0.0
738,1724914324572425766,-0.24775999784469604,0.12932442128658295,0.16795291006565094,4.623210406862199e-05,-0.11162558943033218,-0.28759992122650146,0.9512234926223755,0.0,0.0,0.0,0.0,0.0,0.0
740,1724914324582461615,-0.24717968702316284,0.129342719912529,0.16800926625728607,0.00298305437900126,-0.11242422461509705,-0.2845970690250397,0.9520275592803955,0.0,0.0,0.0,0.0,0.0,0.0
742,1724914324591766789,-0.2468411773443222,0.12937109172344208,0.168029323220253,0.004016561433672905,-0.11272845417261124,-0.28288140892982483,0.9524990320205688,0.0,0.0,0.0,0.0,0.0,0.0
744,1724914324601278489,-0.24657446146011353,0.12942513823509216,0.1682979315519333,0.004168061073869467,-0.11236567050218582,-0.28202757239341736,0.9527943134307861,0.0,0.0,0.0,0.0,0.0,0.0
746,1724914324611174215,-0.24626223742961884,0.12941303849220276,0.168922558426857,0.003957204520702362,-0.11165191233158112,-0.2818656861782074,0.9529269933700562,0.0,0.0,0.0,0.0,0.0,0.0
748,1724914324622208202,-0.2459070384502411,0.12935954332351685,0.1693512499332428,0.004411169793456793,-0.11189833283424377,-0.280155211687088,0.9534004926681519,0.0,0.0,0.0,0.0,0.0,0.0
750,1724914324631323244,-0.24554505944252014,0.12923811376094818,0.16973598301410675,0.0039648148231208324,-0.11240959167480469,-0.27809661626815796,0.9539448022842407,0.0,0.0,0.0,0.0,0.0,0.0
752,1724914324644180618,-0.2449742704629898,0.1291302591562271,0.17023199796676636,0.004712882451713085,-0.11160828173160553,-0.2756020128726959,0.9547591805458069,0.0,0.0,0.0,0.0,0.0,0.0
754,1724914324651656559,-0.24438951909542084,0.1290494203567505,0.17078427970409393,0.004485369194298983,-0.1104065328836441,-0.273523211479187,0.9554975032806396,0.0,0.0,0.0,0.0,0.0,0.0
756,1724914324661253482,-0.24387089908123016,0.12884661555290222,0.1712505966424942,0.0037299685645848513,-0.10951504111289978,-0.2713469862937927,0.9562235474586487,0.0,0.0,0.0,0.0,0.0,0.0
758,1724914324671348119,-0.24329113960266113,0.1287125051021576,0.17207664251327515,0.003991537261754274,-0.10675029456615448,-0.2704905569553375,0.9567775726318359,0.0,0.0,0.0,0.0,0.0,0.0
760,1724914324681268806,-0.24272333085536957,0.12846285104751587,0.17262838780879974,0.0027772262692451477,-0.10538875311613083,-0.26835253834724426,0.9575346112251282,0.0,0.0,0.0,0.0,0.0,0.0
762,1724914324692746612,-0.2419501543045044,0.12831968069076538,0.17327241599559784,0.004156176932156086,-0.1035897508263588,-0.2672617733478546,0.9580307602882385,0.0,0.0,0.0,0.0,0.0,0.0
764,1724914324701236112,-0.2410793900489807,0.12806442379951477,0.17399396002292633,0.005133775528520346,-0.10132493078708649,-0.2656198740005493,0.9587247371673584,0.0,0.0,0.0,0.0,0.0,0.0
766,1724914324711164033,-0.24024474620819092,0.12799862027168274,0.1750176101922989,0.004688628017902374,-0.09643528610467911,-0.2657586336135864,0.9591927528381348,0.0,0.0,0.0,0.0,0.0,0.0
768,1724914324729021851,-0.23944032192230225,0.1275487095117569,0.17567232251167297,0.0035848813131451607,-0.09474685043096542,-0.26398131251335144,0.9598563313484192,0.0,0.0,0.0,0.0,0.0,0.0
770,1724914324731651045,-0.23836025595664978,0.12697352468967438,0.17642557621002197,0.005835830233991146,-0.09360131621360779,-0.26202625036239624,0.9604931473731995,0.0,0.0,0.0,0.0,0.0,0.0
772,1724914324744908365,-0.23721620440483093,0.12643921375274658,0.17727814614772797,0.006216070614755154,-0.09078946709632874,-0.26032283902168274,0.9612236022949219,0.0,0.0,0.0,0.0,0.0,0.0
774,1724914324751584586,-0.23598642647266388,0.12571603059768677,0.17794112861156464,0.008090084418654442,-0.0872887596487999,-0.25916123390197754,0.9618475437164307,0.0,0.0,0.0,0.0,0.0,0.0
776,1724914324761884395,-0.2348216027021408,0.12502709031105042,0.17875109612941742,0.006330431438982487,-0.08437778055667877,-0.25827011466026306,0.962360143661499,0.0,0.0,0.0,0.0,0.0,0.0
778,1724914324771645046,-0.23344939947128296,0.1243835911154747,0.17977933585643768,0.0031218817457556725,-0.07915351539850235,-0.25844624638557434,0.9627723693847656,0.0,0.0,0.0,0.0,0.0,0.0
780,1724914324781710335,-0.23191624879837036,0.12367089837789536,0.1804407835006714,0.0018656147876754403,-0.07413221895694733,-0.25701412558555603,0.9635584354400635,0.0,0.0,0.0,0.0,0.0,0.0
782,1724914324793430819,-0.2300179898738861,0.12261457741260529,0.18104973435401917,0.0034006116911768913,-0.06931598484516144,-0.2559567987918854,0.9641939401626587,0.0,0.0,0.0,0.0,0.0,0.0
784,1724914324801402937,-0.228007510304451,0.12152452021837234,0.18149569630622864,0.006978909019380808,-0.06377579271793365,-0.2538636326789856,0.9651100039482117,0.0,0.0,0.0,0.0,0.0,0.0
786,1724914324811353422,-0.22607646882534027,0.12038465589284897,0.18195541203022003,0.005649310536682606,-0.05663565173745155,-0.25369513034820557,0.9656082987785339,0.0,0.0,0.0,0.0,0.0,0.0
788,1724914324822846399,-0.2237367480993271,0.11923714727163315,0.1823553889989853,0.005547803360968828,-0.05109406262636185,-0.25248634815216064,0.966234564781189,0.0,0.0,0.0,0.0,0.0,0.0
790,1724914324831739221,-0.22130995988845825,0.1180979460477829,0.18287989497184753,0.0035506202839314938,-0.04420894384384155,-0.2521476745605469,0.9666719436645508,0.0,0.0,0.0,0.0,0.0,0.0
792,1724914324847785861,-0.21863511204719543,0.11681895703077316,0.18324029445648193,0.002318871207535267,-0.03699846938252449,-0.24966022372245789,0.9676236510276794,0.0,0.0,0.0,0.0,0.0,0.0
794,1724914324856600517,-0.2156180441379547,0.11548645794391632,0.18336795270442963,0.005951495375484228,-0.02862992323935032,-0.24905888736248016,0.9680468440055847,0.0,0.0,0.0,0.0,0.0,0.0
796,1724914324861360265,-0.21330051124095917,0.11420023441314697,0.18361559510231018,0.0018764282576739788,-0.02505512349307537,-0.24969784915447235,0.9679977893829346,0.0,0.0,0.0,0.0,0.0,0.0
798,1724914324871743942,-0.21054469048976898,0.11288967728614807,0.1837669163942337,0.0049399095587432384,-0.02139575593173504,-0.24816396832466125,0.9684692025184631,0.0,0.0,0.0,0.0,0.0,0.0
800,1724914324883972089,-0.20792905986309052,0.11165067553520203,0.184273362159729,0.004920354578644037,-0.019514884799718857,-0.2462286353111267,0.9690027832984924,0.0,0.0,0.0,0.0,0.0,0.0
802,1724914324898372761,-0.20602872967720032,0.11071250587701797,0.18482166528701782,0.003804174019023776,-0.019930846989154816,-0.24593499302864075,0.969074010848999,0.0,0.0,0.0,0.0,0.0,0.0
804,1724914324901834094,-0.2047642469406128,0.10968286544084549,0.18547841906547546,0.004742328077554703,-0.020943177863955498,-0.24436821043491364,0.969444751739502,0.0,0.0,0.0,0.0,0.0,0.0
806,1724914324911243101,-0.2038908749818802,0.10865513235330582,0.18643708527088165,0.0033611133694648743,-0.022931456565856934,-0.2420424371957779,0.9699888229370117,0.0,0.0,0.0,0.0,0.0,0.0
808,1724914324923534371,-0.20363643765449524,0.10768245905637741,0.18757332861423492,0.004435665439814329,-0.02124721184372902,-0.242445170879364,0.9699223041534424,0.0,0.0,0.0,0.0,0.0,0.0
810,1724914324931786389,-0.20386792719364166,0.10662379115819931,0.1882166862487793,0.0056778183206915855,-0.022655028849840164,-0.24208270013332367,0.9699745178222656,0.0,0.0,0.0,0.0,0.0,0.0
812,1724914324943143214,-0.20441091060638428,0.1055946946144104,0.18857342004776,0.00874385703355074,-0.024034783244132996,-0.24186289310455322,0.9699733257293701,0.0,0.0,0.0,0.0,0.0,0.0
814,1724914324951559415,-0.205509215593338,0.10421448200941086,0.1884373128414154,0.010097166523337364,-0.027226390317082405,-0.24051833152770996,0.9702101945877075,0.0,0.0,0.0,0.0,0.0,0.0
816,1724914324964412417,-0.20706848800182343,0.10266919434070587,0.1884942352771759,0.011376181617379189,-0.030323881655931473,-0.24018512666225433,0.970186710357666,0.0,0.0,0.0,0.0,0.0,0.0
818,1724914324971799646,-0.2088630348443985,0.10090820491313934,0.18774256110191345,0.0167533028870821,-0.03465220332145691,-0.2386169731616974,0.9703506827354431,0.0,0.0,0.0,0.0,0.0,0.0
820,1724914324983244846,-0.21101437509059906,0.09914825111627579,0.18693219125270844,0.022360241040587425,-0.0389881357550621,-0.2386770248413086,0.9700583815574646,0.0,0.0,0.0,0.0,0.0,0.0
822,1724914324992096440,-0.21319468319416046,0.09735171496868134,0.18598797917366028,0.026879696175456047,-0.04324132576584816,-0.2374146431684494,0.9700732231140137,0.0,0.0,0.0,0.0,0.0,0.0
824,1724914325001404631,-0.21577605605125427,0.09569093585014343,0.18506589531898499,0.030141647905111313,-0.04724429175257683,-0.23792991042137146,0.9696643948554993,0.0,0.0,0.0,0.0,0.0,0.0
826,1724914325011758952,-0.21824894845485687,0.0941620022058487,0.184291809797287,0.03653901070356369,-0.04967114329338074,-0.237625852227211,0.9693976044654846,0.0,0.0,0.0,0.0,0.0,0.0
828,1724914325022308809,-0.2209223359823227,0.09253043681383133,0.18347254395484924,0.03785724565386772,-0.055150702595710754,-0.23744362592697144,0.9690952897071838,0.0,0.0,0.0,0.0,0.0,0.0
830,1724914325031133009,-0.22332333028316498,0.09109244495630264,0.18264225125312805,0.04113724082708359,-0.06091350317001343,-0.23571301996707916,0.9690390825271606,0.0,0.0,0.0,0.0,0.0,0.0
832,1724914325042874250,-0.22578269243240356,0.08982767164707184,0.1821545660495758,0.045720264315605164,-0.060894276946783066,-0.23646584153175354,0.9686513543128967,0.0,0.0,0.0,0.0,0.0,0.0
834,1724914325051369303,-0.2280609905719757,0.0884905457496643,0.18123163282871246,0.04727447032928467,-0.0648188367486,-0.2344285547733307,0.9688173532485962,0.0,0.0,0.0,0.0,0.0,0.0
836,1724914325061436394,-0.2303960919380188,0.08733604103326797,0.18034350872039795,0.049487531185150146,-0.06699380278587341,-0.23351888358592987,0.9687785506248474,0.0,0.0,0.0,0.0,0.0,0.0
838,1724914325071994307,-0.23243793845176697,0.08643896132707596,0.17975914478302002,0.04911494627594948,-0.06940187513828278,-0.23322124779224396,0.9686996340751648,0.0,0.0,0.0,0.0,0.0,0.0
840,1724914325081535685,-0.2344789355993271,0.08562718331813812,0.17877303063869476,0.05115028843283653,-0.07187175005674362,-0.23140403628349304,0.9688500165939331,0.0,0.0,0.0,0.0,0.0,0.0
842,1724914325091960279,-0.23617306351661682,0.08491357415914536,0.17803749442100525,0.054163433611392975,-0.07329605519771576,-0.23074355721473694,0.9687370657920837,0.0,0.0,0.0,0.0,0.0,0.0
844,1724914325101182367,-0.2377244383096695,0.08435346931219101,0.1771509051322937,0.055271297693252563,-0.07593443989753723,-0.23012635111808777,0.9686180949211121,0.0,0.0,0.0,0.0,0.0,0.0
846,1724914325111383302,-0.23932990431785583,0.08392360806465149,0.17599183320999146,0.05668060481548309,-0.07829251140356064,-0.22943828999996185,0.9685121774673462,0.0,0.0,0.0,0.0,0.0,0.0
848,1724914325127917787,-0.24063946306705475,0.08356806635856628,0.17497922480106354,0.05783838778734207,-0.07996400445699692,-0.22913971543312073,0.9683778285980225,0.0,0.0,0.0,0.0,0.0,0.0
850,1724914325131163553,-0.2418212890625,0.08320771902799606,0.1736651510000229,0.060251716524362564,-0.0835847482085228,-0.2276289165019989,0.9682812094688416,0.0,0.0,0.0,0.0,0.0,0.0
852,1724914325141126175,-0.24299108982086182,0.08300299197435379,0.1727982610464096,0.061381611973047256,-0.0844624936580658,-0.22891153395175934,0.967831552028656,0.0,0.0,0.0,0.0,0.0,0.0
854,1724914325151737585,-0.24399439990520477,0.08291175961494446,0.17220094799995422,0.06301593035459518,-0.08612712472677231,-0.23068764805793762,0.9671579003334045,0.0,0.0,0.0,0.0,0.0,0.0
856,1724914325161186911,-0.24483142793178558,0.08275220543146133,0.1711513102054596,0.06535187363624573,-0.08890099078416824,-0.22979068756103516,0.96696537733078,0.0,0.0,0.0,0.0,0.0,0.0
858,1724914325171963288,-0.24543750286102295,0.08272676169872284,0.1705264151096344,0.06904369592666626,-0.0903506875038147,-0.22978246212005615,0.966576337814331,0.0,0.0,0.0,0.0,0.0,0.0
860,1724914325183467219,-0.24604342877864838,0.0827145129442215,0.17019487917423248,0.06986276060342789,-0.09074181318283081,-0.2307431995868683,0.9662518501281738,0.0,0.0,0.0,0.0,0.0,0.0
862,1724914325191347195,-0.24660688638687134,0.08267499506473541,0.16998164355754852,0.06954816728830338,-0.09077746421098709,-0.23195739090442657,0.9659804701805115,0.0,0.0,0.0,0.0,0.0,0.0
864,1724914325202268984,-0.24700669944286346,0.08261474967002869,0.16970819234848022,0.07123121619224548,-0.0903378427028656,-0.2328951358795166,0.9656733870506287,0.0,0.0,0.0,0.0,0.0,0.0
866,1724914325211112858,-0.2473410665988922,0.08245692402124405,0.16940347850322723,0.071824811398983,-0.09189000725746155,-0.23339328169822693,0.9653626680374146,0.0,0.0,0.0,0.0,0.0,0.0
868,1724914325222245537,-0.24772942066192627,0.0822010189294815,0.16879183053970337,0.07171493023633957,-0.0935182273387909,-0.23314981162548065,0.9652733206748962,0.0,0.0,0.0,0.0,0.0,0.0
870,1724914325232403069,-0.24801549315452576,0.08204375207424164,0.1683904379606247,0.07179814577102661,-0.09490371495485306,-0.23291896283626556,0.965187668800354,0.0,0.0,0.0,0.0,0.0,0.0
872,1724914325241283687,-0.24817439913749695,0.08192629367113113,0.16810396313667297,0.07231079787015915,-0.09588582068681717,-0.23270249366760254,0.9651044607162476,0.0,0.0,0.0,0.0,0.0,0.0
874,1724914325251327340,-0.24828337132930756,0.08197882771492004,0.16804420948028564,0.07417835295200348,-0.0951152890920639,-0.2329826056957245,0.9649713635444641,0.0,0.0,0.0,0.0,0.0,0.0
876,1724914325273456702,-0.24836362898349762,0.08190511912107468,0.16785867512226105,0.07555721700191498,-0.09534969180822372,-0.23279955983161926,0.9648854732513428,0.0,0.0,0.0,0.0,0.0,0.0
878,1724914325273860416,-0.24846714735031128,0.08183178305625916,0.16773979365825653,0.07477998733520508,-0.0956900417804718,-0.2329789400100708,0.9648690223693848,0.0,0.0,0.0,0.0,0.0,0.0
880,1724914325281498626,-0.24853456020355225,0.08181220293045044,0.16774307191371918,0.07442709058523178,-0.09543164819478989,-0.23363067209720612,0.9647642970085144,0.0,0.0,0.0,0.0,0.0,0.0
882,1724914325291958209,-0.24852587282657623,0.08181777596473694,0.16785122454166412,0.07457206398248672,-0.09509384632110596,-0.23442330956459045,0.9645941853523254,0.0,0.0,0.0,0.0,0.0,0.0
884,1724914325301180920,-0.24850523471832275,0.08172792196273804,0.16767066717147827,0.0741049200296402,-0.09668031334877014,-0.23413066565990448,0.9645435810089111,0.0,0.0,0.0,0.0,0.0,0.0
886,1724914325311555834,-0.24849289655685425,0.08175942301750183,0.16765551269054413,0.07383277267217636,-0.0970139354467392,-0.23467391729354858,0.9643989205360413,0.0,0.0,0.0,0.0,0.0,0.0
888,1724914325322523562,-0.248447984457016,0.08180776238441467,0.16758279502391815,0.07429401576519012,-0.09711316227912903,-0.2349855899810791,0.9642776250839233,0.0,0.0,0.0,0.0,0.0,0.0
890,1724914325332818118,-0.24843904376029968,0.08185546845197678,0.16759803891181946,0.07361547648906708,-0.096947580575943,-0.23598434031009674,0.9641023278236389,0.0,0.0,0.0,0.0,0.0,0.0
892,1724914325341658596,-0.24838851392269135,0.08188619464635849,0.16757534444332123,0.07357172667980194,-0.09726959466934204,-0.23664571344852448,0.9639111161231995,0.0,0.0,0.0,0.0,0.0,0.0
894,1724914325351520547,-0.24834664165973663,0.08197125792503357,0.16761836409568787,0.07374084740877151,-0.09734084457159042,-0.2373436987400055,0.9637194275856018,0.0,0.0,0.0,0.0,0.0,0.0
896,1724914325361526748,-0.24832022190093994,0.08200458437204361,0.1677037626504898,0.073164202272892,-0.09741749614477158,-0.23815566301345825,0.9635552763938904,0.0,0.0,0.0,0.0,0.0,0.0
898,1724914325373742624,-0.24823889136314392,0.08204928040504456,0.16780345141887665,0.07324578613042831,-0.0976916030049324,-0.2390836924314499,0.9632914662361145,0.0,0.0,0.0,0.0,0.0,0.0
900,1724914325384115577,-0.2481107860803604,0.08210979402065277,0.16792741417884827,0.07461784034967422,-0.0971476137638092,-0.24051091074943542,0.9628857374191284,0.0,0.0,0.0,0.0,0.0,0.0
902,1724914325399163013,-0.2480209618806839,0.08220546692609787,0.1680845469236374,0.07464096695184708,-0.09672514349222183,-0.24200530350208282,0.9625521302223206,0.0,0.0,0.0,0.0,0.0,0.0
904,1724914325401836873,-0.24791619181632996,0.08228446543216705,0.16814465820789337,0.07446981221437454,-0.09707272797822952,-0.2431062012910843,0.9622529149055481,0.0,0.0,0.0,0.0,0.0,0.0
906,1724914325411602510,-0.2478056401014328,0.08234104514122009,0.16818057000637054,0.07391295582056046,-0.09735167771577835,-0.24420426785945892,0.9619894623756409,0.0,0.0,0.0,0.0,0.0,0.0
908,1724914325422077455,-0.24751904606819153,0.08236520737409592,0.16825564205646515,0.07631652802228928,-0.09828207641839981,-0.2447746992111206,0.9615621566772461,0.0,0.0,0.0,0.0,0.0,0.0
910,1724914325440316398,-0.247367724776268,0.08236899226903915,0.16827091574668884,0.07580352574586868,-0.09870971739292145,-0.24602364003658295,0.9612401723861694,0.0,0.0,0.0,0.0,0.0,0.0
912,1724914325441505784,-0.24724896252155304,0.08235163986682892,0.16834455728530884,0.07582605630159378,-0.09944438934326172,-0.24732667207717896,0.9608281850814819,0.0,0.0,0.0,0.0,0.0,0.0
914,1724914325452288469,-0.2470984011888504,0.08248990774154663,0.1686296910047531,0.07781441509723663,-0.09894879162311554,-0.24880971014499664,0.9603373408317566,0.0,0.0,0.0,0.0,0.0,0.0
916,1724914325462069871,-0.24699175357818604,0.08246225118637085,0.168541818857193,0.07737506926059723,-0.10072869062423706,-0.24937178194522858,0.9600419402122498,0.0,0.0,0.0,0.0,0.0,0.0
918,1724914325471998065,-0.2468523532152176,0.08256401121616364,0.16858026385307312,0.07731943577528,-0.10130051523447037,-0.25068652629852295,0.9596438407897949,0.0,0.0,0.0,0.0,0.0,0.0
920,1724914325484500518,-0.24673983454704285,0.08273550868034363,0.16897709667682648,0.0770370215177536,-0.10046308487653732,-0.25362226366996765,0.9589828848838806,0.0,0.0,0.0,0.0,0.0,0.0
922,1724914325494207438,-0.24660931527614594,0.08283808082342148,0.16919641196727753,0.07700489461421967,-0.10044261068105698,-0.2558029294013977,0.9584083557128906,0.0,0.0,0.0,0.0,0.0,0.0
924,1724914325501651003,-0.24649354815483093,0.08291483670473099,0.16931867599487305,0.07688497006893158,-0.10092270374298096,-0.25720417499542236,0.9579923748970032,0.0,0.0,0.0,0.0,0.0,0.0
926,1724914325512139703,-0.2464020550251007,0.08307711035013199,0.16954569518566132,0.07684650272130966,-0.10063425451517105,-0.25878340005874634,0.957600474357605,0.0,0.0,0.0,0.0,0.0,0.0
928,1724914325522869881,-0.24622401595115662,0.08315588533878326,0.16947567462921143,0.07772700488567352,-0.10164551436901093,-0.25904712080955505,0.9573512077331543,0.0,0.0,0.0,0.0,0.0,0.0
930,1724914325531436169,-0.24607886373996735,0.08332431316375732,0.16952741146087646,0.07950572669506073,-0.10223077237606049,-0.26015162467956543,0.9568431973457336,0.0,0.0,0.0,0.0,0.0,0.0
932,1724914325542251082,-0.24602006375789642,0.08358830958604813,0.1697119176387787,0.07998337596654892,-0.10226742923259735,-0.2617996633052826,0.9563499093055725,0.0,0.0,0.0,0.0,0.0,0.0
934,1724914325551592780,-0.24597297608852386,0.08394525945186615,0.16993442177772522,0.08030179142951965,-0.10223698616027832,-0.2632245123386383,0.9559352993965149,0.0,0.0,0.0,0.0,0.0,0.0
936,1724914325565007438,-0.245919331908226,0.08431410789489746,0.17018526792526245,0.08086790144443512,-0.10210385918617249,-0.26476573944091797,0.9554759860038757,0.0,0.0,0.0,0.0,0.0,0.0
938,1724914325573146975,-0.2458209991455078,0.08466702699661255,0.17029625177383423,0.0809008926153183,-0.10292170941829681,-0.26585108041763306,0.9550840258598328,0.0,0.0,0.0,0.0,0.0,0.0
940,1724914325581252332,-0.24572689831256866,0.08502521365880966,0.1704074889421463,0.08114095032215118,-0.10336712002754211,-0.26694950461387634,0.954708993434906,0.0,0.0,0.0,0.0,0.0,0.0
942,1724914325591199735,-0.24561400711536407,0.08545298129320145,0.17053920030593872,0.08224454522132874,-0.10389832407236099,-0.2676377296447754,0.9543641805648804,0.0,0.0,0.0,0.0,0.0,0.0
944,1724914325601039691,-0.24553118646144867,0.08598078042268753,0.1708160638809204,0.08251837641000748,-0.10373660176992416,-0.26849398016929626,0.9541176557540894,0.0,0.0,0.0,0.0,0.0,0.0
946,1724914325611952416,-0.24547673761844635,0.086543008685112,0.1712835431098938,0.08160154521465302,-0.10369818657636642,-0.2693048119544983,0.9539721608161926,0.0,0.0,0.0,0.0,0.0,0.0
948,1724914325621633565,-0.24540333449840546,0.08719979226589203,0.1719374656677246,0.08173708617687225,-0.10319280624389648,-0.27049529552459717,0.9536784291267395,0.0,0.0,0.0,0.0,0.0,0.0
950,1724914325631184868,-0.24529990553855896,0.08782932907342911,0.17249919474124908,0.08259785175323486,-0.1032898873090744,-0.272024005651474,0.9531587958335876,0.0,0.0,0.0,0.0,0.0,0.0
952,1724914325643393249,-0.24516378343105316,0.08855408430099487,0.17309021949768066,0.08443329483270645,-0.10313153266906738,-0.27371931076049805,0.9525296688079834,0.0,0.0,0.0,0.0,0.0,0.0
954,1724914325651766324,-0.24515078961849213,0.08924958854913712,0.17362479865550995,0.08185936510562897,-0.10326262563467026,-0.27480778098106384,0.9524267315864563,0.0,0.0,0.0,0.0,0.0,0.0
956,1724914325661992553,-0.24513590335845947,0.08995315432548523,0.17432744801044464,0.07932410389184952,-0.10211946815252304,-0.2765175700187683,0.9522695541381836,0.0,0.0,0.0,0.0,0.0,0.0
958,1724914325671346132,-0.2450604885816574,0.09091506153345108,0.1755426526069641,0.07785174995660782,-0.09958649426698685,-0.27951493859291077,0.9517841935157776,0.0,0.0,0.0,0.0,0.0,0.0
960,1724914325682376872,-0.2448073923587799,0.09168024361133575,0.17645880579948425,0.07766302675008774,-0.09829918295145035,-0.2814718782901764,0.9513565897941589,0.0,0.0,0.0,0.0,0.0,0.0
962,1724914325691424558,-0.24457570910453796,0.09234704077243805,0.17697511613368988,0.07782162725925446,-0.09776203334331512,-0.28219127655029297,0.9511858820915222,0.0,0.0,0.0,0.0,0.0,0.0
964,1724914325702112586,-0.24421721696853638,0.09312471002340317,0.17730924487113953,0.07755374908447266,-0.09819934517145157,-0.2821648418903351,0.9511705636978149,0.0,0.0,0.0,0.0,0.0,0.0
966,1724914325712557529,-0.24390095472335815,0.09400488436222076,0.17784593999385834,0.0757133737206459,-0.09711585193872452,-0.28393152356147766,0.9509042501449585,0.0,0.0,0.0,0.0,0.0,0.0
968,1724914325722140471,-0.2435656487941742,0.09490304440259933,0.1785561591386795,0.07437708973884583,-0.09501830488443375,-0.286657452583313,0.9504036903381348,0.0,0.0,0.0,0.0,0.0,0.0
970,1724914325731568864,-0.24314090609550476,0.0957534909248352,0.17901943624019623,0.07339660823345184,-0.0932173877954483,-0.2881298065185547,0.9502129554748535,0.0,0.0,0.0,0.0,0.0,0.0
972,1724914325741327093,-0.2426004707813263,0.09653560072183609,0.1793828308582306,0.07146427035331726,-0.091910719871521,-0.28854867815971375,0.9503604173660278,0.0,0.0,0.0,0.0,0.0,0.0
974,1724914325751339570,-0.24203558266162872,0.09771168231964111,0.18030811846256256,0.06931274384260178,-0.08736193180084229,-0.29073983430862427,0.9502809643745422,0.0,0.0,0.0,0.0,0.0,0.0
976,1724914325762060851,-0.2413465678691864,0.09875623881816864,0.18090558052062988,0.0663541853427887,-0.08456990867853165,-0.29241082072257996,0.9502320885658264,0.0,0.0,0.0,0.0,0.0,0.0
978,1724914325775859794,-0.2404657006263733,0.09978362172842026,0.18164408206939697,0.06683690845966339,-0.07965021580457687,-0.2939404249191284,0.9501515030860901,0.0,0.0,0.0,0.0,0.0,0.0
980,1724914325781344302,-0.2395102083683014,0.10054527223110199,0.18200671672821045,0.06568214297294617,-0.07719340920448303,-0.2942264974117279,0.9503462314605713,0.0,0.0,0.0,0.0,0.0,0.0
982,1724914325794663222,-0.23847533762454987,0.10155700892210007,0.18276113271713257,0.061281103640794754,-0.07452865689992905,-0.2958204448223114,0.9503580927848816,0.0,0.0,0.0,0.0,0.0,0.0
984,1724914325802351464,-0.2373763620853424,0.10273119062185287,0.18328145146369934,0.057196419686079025,-0.07231651246547699,-0.29757481813430786,0.950235903263092,0.0,0.0,0.0,0.0,0.0,0.0
986,1724914325811320218,-0.23614269495010376,0.1039503887295723,0.1831788569688797,0.05319942161440849,-0.07084532827138901,-0.2980833351612091,0.9504194855690002,0.0,0.0,0.0,0.0,0.0,0.0
988,1724914325824984746,-0.23471972346305847,0.10526283085346222,0.18300080299377441,0.05100524052977562,-0.06773581355810165,-0.29948946833610535,0.9503243565559387,0.0,0.0,0.0,0.0,0.0,0.0
990,1724914325831443211,-0.23333880305290222,0.1064094826579094,0.18328577280044556,0.04801259934902191,-0.062307506799697876,-0.30224737524986267,0.9499785304069519,0.0,0.0,0.0,0.0,0.0,0.0
992,1724914325841907003,-0.2317422479391098,0.1076405718922615,0.18304486572742462,0.044011250138282776,-0.05847010016441345,-0.3028033971786499,0.9502391219139099,0.0,0.0,0.0,0.0,0.0,0.0
994,1724914325851189214,-0.229780912399292,0.10894013941287994,0.18331116437911987,0.041675783693790436,-0.05237323418259621,-0.30403706431388855,0.9503061175346375,0.0,0.0,0.0,0.0,0.0,0.0
996,1724914325861259317,-0.22781771421432495,0.11006227135658264,0.18347421288490295,0.038618024438619614,-0.04759954661130905,-0.3041006326675415,0.9506660103797913,0.0,0.0,0.0,0.0,0.0,0.0
998,1724914325872686834,-0.22572530806064606,0.11100282520055771,0.18379105627536774,0.03486654907464981,-0.04172603413462639,-0.3053429126739502,0.9506887197494507,0.0,0.0,0.0,0.0,0.0,0.0
1000,1724914325881394285,-0.223416268825531,0.11193718016147614,0.184324249625206,0.028799770399928093,-0.036908384412527084,-0.30629491806030273,0.9507848024368286,0.0,0.0,0.0,0.0,0.0,0.0
1002,1724914325895045593,-0.22080913186073303,0.11319682002067566,0.18473397195339203,0.024294130504131317,-0.030205562710762024,-0.3064497411251068,0.9510973691940308,0.0,0.0,0.0,0.0,0.0,0.0
1004,1724914325901467350,-0.21811053156852722,0.11441756784915924,0.18526554107666016,0.018263662233948708,-0.02577262744307518,-0.3069157898426056,0.9512123465538025,0.0,0.0,0.0,0.0,0.0,0.0
1006,1724914325913809533,-0.2151375561952591,0.11571469157934189,0.1855117678642273,0.014580604620277882,-0.01944340206682682,-0.30780723690986633,0.9511383771896362,0.0,0.0,0.0,0.0,0.0,0.0
1008,1724914325922291975,-0.21245621144771576,0.11696921288967133,0.1854695826768875,0.008766097016632557,-0.016073476523160934,-0.30853262543678284,0.9510376453399658,0.0,0.0,0.0,0.0,0.0,0.0
1010,1724914325932369352,-0.20975014567375183,0.11783389002084732,0.18508732318878174,0.012815252877771854,-0.015241679735481739,-0.3059659004211426,0.9518342614173889,0.0,0.0,0.0,0.0,0.0,0.0
1012,1724914325941268144,-0.20748738944530487,0.11893854290246964,0.18536685407161713,0.008028104901313782,-0.013462385162711143,-0.30851462483406067,0.9510904550552368,0.0,0.0,0.0,0.0,0.0,0.0
1014,1724914325951223746,-0.20529413223266602,0.1197236105799675,0.185795396566391,0.009353685192763805,-0.014463696628808975,-0.30870866775512695,0.9510006308555603,0.0,0.0,0.0,0.0,0.0,0.0
1016,1724914325962684775,-0.20386534929275513,0.12053091078996658,0.18636956810951233,0.010640035383403301,-0.015930553898215294,-0.30946364998817444,0.950718343257904,0.0,0.0,0.0,0.0,0.0,0.0
1018,1724914325972995482,-0.2029881775379181,0.12153534591197968,0.18746636807918549,0.008054010570049286,-0.013958760537207127,-0.312098890542984,0.949912965297699,0.0,0.0,0.0,0.0,0.0,0.0
1020,1724914325981656832,-0.20264403522014618,0.12233299016952515,0.18836811184883118,0.008048580959439278,-0.014116293750703335,-0.3138546347618103,0.9493319988250732,0.0,0.0,0.0,0.0,0.0,0.0
1022,1724914325993015291,-0.2024904191493988,0.12300141155719757,0.18897131085395813,0.008539277128875256,-0.014902294613420963,-0.31393593549728394,0.9492887854576111,0.0,0.0,0.0,0.0,0.0,0.0
1024,1724914326002166005,-0.2028093785047531,0.12365718185901642,0.18894891440868378,0.009747994132339954,-0.01609780825674534,-0.31338292360305786,0.9494404196739197,0.0,0.0,0.0,0.0,0.0,0.0
1026,1724914326011923698,-0.20357435941696167,0.12439147382974625,0.18862155079841614,0.009669436141848564,-0.017509061843156815,-0.31300315260887146,0.9495415091514587,0.0,0.0,0.0,0.0,0.0,0.0
1028,1724914326022246456,-0.20458205044269562,0.12515683472156525,0.18839024007320404,0.009161772206425667,-0.020852303132414818,-0.3140602111816406,0.9491298198699951,0.0,0.0,0.0,0.0,0.0,0.0
1030,1724914326031319651,-0.20605570077896118,0.12591738998889923,0.18776097893714905,0.00900098867714405,-0.02318941429257393,-0.31461820006370544,0.94889235496521,0.0,0.0,0.0,0.0,0.0,0.0
1032,1724914326041976513,-0.20791256427764893,0.12667033076286316,0.18670177459716797,0.009943626821041107,-0.024953041225671768,-0.3144089877605438,0.9489076137542725,0.0,0.0,0.0,0.0,0.0,0.0
1034,1724914326051276482,-0.20989346504211426,0.1271888017654419,0.18564805388450623,0.007023169193416834,-0.030664877966046333,-0.3136568069458008,0.949015200138092,0.0,0.0,0.0,0.0,0.0,0.0
1036,1724914326061857288,-0.21184691786766052,0.12750396132469177,0.18437838554382324,0.006948621943593025,-0.03679995238780975,-0.3135625720024109,0.9488288164138794,0.0,0.0,0.0,0.0,0.0,0.0
1038,1724914326072002695,-0.21411582827568054,0.12802958488464355,0.1830354779958725,0.0070905862376093864,-0.04079781472682953,-0.3136671781539917,0.94862961769104,0.0,0.0,0.0,0.0,0.0,0.0
1040,1724914326081258272,-0.2165253907442093,0.12850065529346466,0.18191196024417877,0.005870669614523649,-0.04479280486702919,-0.3146508038043976,0.9481319189071655,0.0,0.0,0.0,0.0,0.0,0.0
1042,1724914326092772985,-0.21885545551776886,0.12888438999652863,0.18067854642868042,0.006590436678379774,-0.048041462898254395,-0.3146185576915741,0.9479788541793823,0.0,0.0,0.0,0.0,0.0,0.0
1044,1724914326101624249,-0.22124949097633362,0.12911227345466614,0.17942693829536438,0.006768782157450914,-0.053495220839977264,-0.31461629271507263,0.9476861953735352,0.0,0.0,0.0,0.0,0.0,0.0
1046,1724914326112489801,-0.22379662096500397,0.1293887495994568,0.17801032960414886,0.004954100586473942,-0.05880821496248245,-0.3149107098579407,0.9472847580909729,0.0,0.0,0.0,0.0,0.0,0.0
1048,1724914326121729463,-0.22623354196548462,0.1296588033437729,0.17680980265140533,0.005270461086183786,-0.06337419152259827,-0.3164495825767517,0.9464753866195679,0.0,0.0,0.0,0.0,0.0,0.0
1050,1724914326131732482,-0.22849877178668976,0.12979541718959808,0.17537613213062286,0.006379772908985615,-0.06743337213993073,-0.31675517559051514,0.9460858106613159,0.0,0.0,0.0,0.0,0.0,0.0
1052,1724914326141600032,-0.23085209727287292,0.1298518031835556,0.17390604317188263,0.005907219834625721,-0.07036111503839493,-0.3164753019809723,0.9459692239761353,0.0,0.0,0.0,0.0,0.0,0.0
1054,1724914326151287431,-0.23304106295108795,0.12992645800113678,0.17266511917114258,0.004600149113684893,-0.07561223953962326,-0.3172806203365326,0.9453014731407166,0.0,0.0,0.0,0.0,0.0,0.0
1056,1724914326164550683,-0.23512844741344452,0.13009029626846313,0.17167378962039948,0.005529514979571104,-0.07735069841146469,-0.31904271245002747,0.9445623159408569,0.0,0.0,0.0,0.0,0.0,0.0
1058,1724914326172390972,-0.23703059554100037,0.1302468180656433,0.17066967487335205,0.007545307744294405,-0.08069224655628204,-0.31984958052635193,0.9439958333969116,0.0,0.0,0.0,0.0,0.0,0.0
1060,1724914326184227572,-0.23886126279830933,0.1302451640367508,0.16957293450832367,0.007863509468734264,-0.08576377481222153,-0.32032954692840576,0.9433831572532654,0.0,0.0,0.0,0.0,0.0,0.0
1062,1724914326191216716,-0.24067255854606628,0.13025890290737152,0.16862846910953522,0.0055925012566149235,-0.08844318240880966,-0.32082483172416687,0.9429835677146912,0.0,0.0,0.0,0.0,0.0,0.0
1064,1724914326201324784,-0.24228796362876892,0.13028262555599213,0.1679115742444992,0.006063386332243681,-0.09024979174137115,-0.32215169072151184,0.9423569440841675,0.0,0.0,0.0,0.0,0.0,0.0
1066,1724914326213448914,-0.24378898739814758,0.13027602434158325,0.16690365970134735,0.006109179463237524,-0.09285147488117218,-0.3212552070617676,0.9424099326133728,0.0,0.0,0.0,0.0,0.0,0.0
1068,1724914326223181187,-0.2450316846370697,0.13038618862628937,0.1662101149559021,0.005993106868118048,-0.09477165341377258,-0.32097765803337097,0.942314088344574,0.0,0.0,0.0,0.0,0.0,0.0
1070,1724914326231872903,-0.24620160460472107,0.13039495050907135,0.1653987169265747,0.007165260147303343,-0.09680934250354767,-0.3201972544193268,0.9423642754554749,0.0,0.0,0.0,0.0,0.0,0.0
1072,1724914326244272158,-0.24727272987365723,0.13048094511032104,0.1647954136133194,0.007061047479510307,-0.09750194102525711,-0.3195882737636566,0.9425002932548523,0.0,0.0,0.0,0.0,0.0,0.0
1074,1724914326251625270,-0.24812531471252441,0.13048402965068817,0.16428056359291077,0.007924810983240604,-0.09953189641237259,-0.31900259852409363,0.94247967004776,0.0,0.0,0.0,0.0,0.0,0.0
1076,1724914326261717689,-0.24884669482707977,0.13046416640281677,0.16364987194538116,0.007839870639145374,-0.10279607027769089,-0.31774279475212097,0.9425556659698486,0.0,0.0,0.0,0.0,0.0,0.0
1078,1724914326271750972,-0.2496059089899063,0.1305527240037918,0.16322414577007294,0.006015667226165533,-0.10443106293678284,-0.3172987401485443,0.942538857460022,0.0,0.0,0.0,0.0,0.0,0.0
1080,1724914326281394746,-0.25019344687461853,0.13088171184062958,0.16336700320243835,0.007276569493114948,-0.1037251204252243,-0.3184090554714203,0.9422334432601929,0.0,0.0,0.0,0.0,0.0,0.0
1082,1724914326293392965,-0.2507011890411377,0.1309620589017868,0.1631789654493332,0.0065566012635827065,-0.10551153868436813,-0.3177242875099182,0.9422715306282043,0.0,0.0,0.0,0.0,0.0,0.0
1084,1724914326301237797,-0.25107136368751526,0.13111138343811035,0.16301706433296204,0.00640565250068903,-0.1063254103064537,-0.3167816698551178,0.9424983859062195,0.0,0.0,0.0,0.0,0.0,0.0
1086,1724914326312351070,-0.2512778639793396,0.13119813799858093,0.16276519000530243,0.007383438758552074,-0.10720757395029068,-0.3149358332157135,0.9430097937583923,0.0,0.0,0.0,0.0,0.0,0.0
1088,1724914326324331900,-0.2514016330242157,0.1313248723745346,0.16260366141796112,0.008407444693148136,-0.10735052078962326,-0.3136935830116272,0.9433988928794861,0.0,0.0,0.0,0.0,0.0,0.0
1090,1724914326331261135,-0.2515631914138794,0.13139376044273376,0.16245156526565552,0.008802421391010284,-0.1074136272072792,-0.3127857446670532,0.9436895251274109,0.0,0.0,0.0,0.0,0.0,0.0
1092,1724914326341904766,-0.25181326270103455,0.13141882419586182,0.1623566597700119,0.008491705171763897,-0.1069674864411354,-0.31269580125808716,0.9437728524208069,0.0,0.0,0.0,0.0,0.0,0.0
1094,1724914326351163787,-0.2519233822822571,0.1313806027173996,0.16226565837860107,0.008961975574493408,-0.10743655264377594,-0.31222447752952576,0.9438713192939758,0.0,0.0,0.0,0.0,0.0,0.0
1096,1724914326362289864,-0.25200483202934265,0.1313200443983078,0.16229897737503052,0.008827876299619675,-0.10775872319936752,-0.3118816018104553,0.9439491629600525,0.0,0.0,0.0,0.0,0.0,0.0
1098,1724914326372028172,-0.25190478563308716,0.13119512796401978,0.16230766475200653,0.008645420894026756,-0.10928501188755035,-0.31033170223236084,0.9442862272262573,0.0,0.0,0.0,0.0,0.0,0.0
1100,1724914326382667619,-0.2518318295478821,0.13113754987716675,0.16234514117240906,0.008125610649585724,-0.10935065895318985,-0.30910536646842957,0.9446853399276733,0.0,0.0,0.0,0.0,0.0,0.0
1102,1724914326391268085,-0.25175029039382935,0.1310824602842331,0.16242286562919617,0.00855470634996891,-0.10921876132488251,-0.30816787481307983,0.9450029730796814,0.0,0.0,0.0,0.0,0.0,0.0
1104,1724914326408813424,-0.25160762667655945,0.1310444474220276,0.16250349581241608,0.009115897119045258,-0.10928096622228622,-0.30756133794784546,0.9451882243156433,0.0,0.0,0.0,0.0,0.0,0.0
1106,1724914326411158880,-0.2514517307281494,0.13101555407047272,0.16257235407829285,0.009990180842578411,-0.10929878801107407,-0.3066803812980652,0.9454634189605713,0.0,0.0,0.0,0.0,0.0,0.0
1108,1724914326424397421,-0.2513176500797272,0.13097645342350006,0.16259843111038208,0.008845861069858074,-0.109905906021595,-0.3052661716938019,0.9458621144294739,0.0,0.0,0.0,0.0,0.0,0.0
1110,1724914326432495542,-0.25111284852027893,0.13097023963928223,0.16262677311897278,0.008753188885748386,-0.10989733785390854,-0.30392125248908997,0.9462969303131104,0.0,0.0,0.0,0.0,0.0,0.0
1112,1724914326442675083,-0.25094714760780334,0.13100968301296234,0.16271671652793884,0.00867735780775547,-0.11003532260656357,-0.30305740237236023,0.9465586543083191,0.0,0.0,0.0,0.0,0.0,0.0
1114,1724914326451876991,-0.2507384121417999,0.13101491332054138,0.16280610859394073,0.009749184362590313,-0.11040736734867096,-0.3022429049015045,0.9467652440071106,0.0,0.0,0.0,0.0,0.0,0.0
1116,1724914326461203470,-0.2505110204219818,0.1310490220785141,0.1629219353199005,0.010230116546154022,-0.11082834750413895,-0.3011583089828491,0.9470565319061279,0.0,0.0,0.0,0.0,0.0,0.0
1118,1724914326471982493,-0.25040313601493835,0.13113898038864136,0.16298983991146088,0.007880396209657192,-0.11084030568599701,-0.2995634973049164,0.9475832581520081,0.0,0.0,0.0,0.0,0.0,0.0
1120,1724914326482909955,-0.2502048909664154,0.13122622668743134,0.1630512773990631,0.007481888402253389,-0.11055202037096024,-0.29824844002723694,0.948034942150116,0.0,0.0,0.0,0.0,0.0,0.0
1122,1724914326491280956,-0.24997487664222717,0.13125930726528168,0.1630835235118866,0.007230476010590792,-0.11073899269104004,-0.29688751697540283,0.9484421014785767,0.0,0.0,0.0,0.0,0.0,0.0
1124,1724914326501446483,-0.2497408092021942,0.13129684329032898,0.1630355715751648,0.007191125303506851,-0.11114582419395447,-0.29563748836517334,0.9487852454185486,0.0,0.0,0.0,0.0,0.0,0.0
1126,1724914326511712366,-0.24944549798965454,0.13131803274154663,0.16308818757534027,0.007161112502217293,-0.11198768019676208,-0.29431575536727905,0.9490973353385925,0.0,0.0,0.0,0.0,0.0,0.0
1128,1724914326523470147,-0.2491597980260849,0.1313193142414093,0.16322533786296844,0.006994881201535463,-0.11246242374181747,-0.2930607199668884,0.9494307637214661,0.0,0.0,0.0,0.0,0.0,0.0
1130,1724914326531103652,-0.24888484179973602,0.13138502836227417,0.1636231243610382,0.00593700772151351,-0.11272944509983063,-0.2920425534248352,0.9497199654579163,0.0,0.0,0.0,0.0,0.0,0.0
1132,1724914326542645982,-0.24862337112426758,0.1313338577747345,0.16392259299755096,0.005870794411748648,-0.11271858215332031,-0.29076725244522095,0.9501129388809204,0.0,0.0,0.0,0.0,0.0,0.0
1134,1724914326551336003,-0.2483755201101303,0.13122299313545227,0.16416698694229126,0.005765633657574654,-0.11298216879367828,-0.2894519865512848,0.9504837989807129,0.0,0.0,0.0,0.0,0.0,0.0
1136,1724914326561702194,-0.24805058538913727,0.13104809820652008,0.16442759335041046,0.005838064011186361,-0.11339495331048965,-0.28781428933143616,0.9509314298629761,0.0,0.0,0.0,0.0,0.0,0.0
1138,1724914326574281131,-0.24777734279632568,0.13090333342552185,0.16475024819374084,0.004269559867680073,-0.11355695873498917,-0.2863628566265106,0.9513585567474365,0.0,0.0,0.0,0.0,0.0,0.0
1140,1724914326581209234,-0.24741685390472412,0.13072146475315094,0.1650649756193161,0.003763879183679819,-0.11392996460199356,-0.284635454416275,0.9518343210220337,0.0,0.0,0.0,0.0,0.0,0.0
1142,1724914326592152659,-0.2469475418329239,0.1305970549583435,0.16563214361667633,0.0041678487323224545,-0.1137324646115303,-0.2831663191318512,0.9522942900657654,0.0,0.0,0.0,0.0,0.0,0.0
1144,1724914326601274002,-0.24652230739593506,0.1302807480096817,0.16618303954601288,0.004102371167391539,-0.11351393163204193,-0.28189998865127563,0.9526962637901306,0.0,0.0,0.0,0.0,0.0,0.0
1146,1724914326611321637,-0.24612030386924744,0.12993058562278748,0.1668335348367691,0.0036798797082155943,-0.11252284049987793,-0.28116485476493835,0.9530327916145325,0.0,0.0,0.0,0.0,0.0,0.0
1148,1724914326622165705,-0.24563337862491608,0.1295854151248932,0.16774238646030426,0.0037890055682510138,-0.11108669638633728,-0.2810238003730774,0.9532424211502075,0.0,0.0,0.0,0.0,0.0,0.0
1150,1724914326631069151,-0.24510633945465088,0.1290975660085678,0.16829195618629456,0.004552875179797411,-0.1100262999534607,-0.27879858016967773,0.9540151357650757,0.0,0.0,0.0,0.0,0.0,0.0
1152,1724914326641176056,-0.24442380666732788,0.128639817237854,0.16903702914714813,0.004458067938685417,-0.10980510711669922,-0.2761949300765991,0.95479816198349,0.0,0.0,0.0,0.0,0.0,0.0
1154,1724914326651629513,-0.24366432428359985,0.12820270657539368,0.16970384120941162,0.006665928289294243,-0.10976266860961914,-0.27393069863319397,0.9554421901702881,0.0,0.0,0.0,0.0,0.0,0.0
1156,1724914326661172905,-0.24287298321723938,0.1279313862323761,0.17069879174232483,0.007836202159523964,-0.10690873116254807,-0.27396729588508606,0.9557464122772217,0.0,0.0,0.0,0.0,0.0,0.0
1158,1724914326671541198,-0.24214191734790802,0.12757594883441925,0.17136313021183014,0.007067966740578413,-0.1049407571554184,-0.2723067104816437,0.9564448595046997,0.0,0.0,0.0,0.0,0.0,0.0
1160,1724914326683308912,-0.24126414954662323,0.12719860672950745,0.17202907800674438,0.007656874600797892,-0.10280303657054901,-0.269933819770813,0.957344651222229,0.0,0.0,0.0,0.0,0.0,0.0
1162,1724914326691370353,-0.2404222935438156,0.12681393325328827,0.17270685732364655,0.008153951726853848,-0.10072477161884308,-0.2686011791229248,0.9579361081123352,0.0,0.0,0.0,0.0,0.0,0.0
1164,1724914326702143722,-0.23959879577159882,0.12659166753292084,0.17363059520721436,0.007823813706636429,-0.09812292456626892,-0.2688834071159363,0.9581296443939209,0.0,0.0,0.0,0.0,0.0,0.0
1166,1724914326714301819,-0.23881742358207703,0.12613455951213837,0.17434586584568024,0.004841524641960859,-0.09721209853887558,-0.2678534984588623,0.9585306644439697,0.0,0.0,0.0,0.0,0.0,0.0
1168,1724914326722027551,-0.237757608294487,0.12563177943229675,0.17512011528015137,0.004001191351562738,-0.09413792192935944,-0.2655945122241974,0.9594695568084717,0.0,0.0,0.0,0.0,0.0,0.0
1170,1724914326739877536,-0.2364974319934845,0.12514039874076843,0.17597608268260956,0.005813964176923037,-0.09016955643892288,-0.2633548378944397,0.9604581594467163,0.0,0.0,0.0,0.0,0.0,0.0
1172,1724914326741155748,-0.23535022139549255,0.12460517138242722,0.176852285861969,0.005457460414618254,-0.08659384399652481,-0.26279306411743164,0.9609430432319641,0.0,0.0,0.0,0.0,0.0,0.0
1174,1724914326751181144,-0.23406673967838287,0.12420069426298141,0.17810896039009094,0.004399568773806095,-0.08155660331249237,-0.26254111528396606,0.9614579677581787,0.0,0.0,0.0,0.0,0.0,0.0
1176,1724914326791574947,-0.23249828815460205,0.12354888021945953,0.17916573584079742,0.004166313912719488,-0.07810207456350327,-0.2613704800605774,0.9620646238327026,0.0,0.0,0.0,0.0,0.0,0.0
1178,1724914326791863878,-0.23089595139026642,0.1229081079363823,0.18023401498794556,0.0028388909995555878,-0.07296782732009888,-0.2610761523246765,0.9625522494316101,0.0,0.0,0.0,0.0,0.0,0.0
1180,1724914326792108120,-0.22909775376319885,0.12236703932285309,0.18131288886070251,0.0023764551151543856,-0.06729055196046829,-0.25962379574775696,0.9633596539497375,0.0,0.0,0.0,0.0,0.0,0.0
1182,1724914326792342071,-0.22718213498592377,0.1217913031578064,0.18228046596050262,0.0037530858535319567,-0.059625864028930664,-0.25890904664993286,0.9640523195266724,0.0,0.0,0.0,0.0,0.0,0.0
1184,1724914326814266989,-0.22512388229370117,0.12078509479761124,0.18290714919567108,0.0045107086189091206,-0.05463104322552681,-0.2581496834754944,0.9645485281944275,0.0,0.0,0.0,0.0,0.0,0.0
1186,1724914326814515819,-0.2228950411081314,0.1197843849658966,0.18321432173252106,0.002278797095641494,-0.05095021426677704,-0.256172776222229,0.9652847051620483,0.0,0.0,0.0,0.0,0.0,0.0
1188,1724914326822167828,-0.22046951949596405,0.11889752000570297,0.18389065563678741,0.002869033720344305,-0.04333580285310745,-0.25629451870918274,0.9656226634979248,0.0,0.0,0.0,0.0,0.0,0.0
1190,1724914326831448168,-0.21790766716003418,0.11795368790626526,0.1843457967042923,0.002577331382781267,-0.03625630959868431,-0.25473639369010925,0.9663272500038147,0.0,0.0,0.0,0.0,0.0,0.0
1192,1724914326841428475,-0.21498681604862213,0.11681132018566132,0.18478402495384216,0.0027882936410605907,-0.0284564271569252,-0.2529427111148834,0.9670587182044983,0.0,0.0,0.0,0.0,0.0,0.0
1194,1724914326851304169,-0.21237389743328094,0.11571986228227615,0.18529902398586273,0.0007565596606582403,-0.02416973188519478,-0.2526269555091858,0.967261552810669,0.0,0.0,0.0,0.0,0.0,0.0
1196,1724914326861795384,-0.20979231595993042,0.11455986648797989,0.18573468923568726,0.000211517428397201,-0.019942855462431908,-0.2504143714904785,0.9679332971572876,0.0,0.0,0.0,0.0,0.0,0.0
1198,1724914326872229200,-0.2069309502840042,0.1131797805428505,0.1864227056503296,0.001570917316712439,-0.01565195992588997,-0.24937158823013306,0.9682801961898804,0.0,0.0,0.0,0.0,0.0,0.0
1200,1724914326884162152,-0.20472833514213562,0.11205675452947617,0.18748953938484192,-0.0007947530248202384,-0.01549465861171484,-0.24936413764953613,0.9682855010032654,0.0,0.0,0.0,0.0,0.0,0.0
1202,1724914326894701093,-0.20286382734775543,0.11111583560705185,0.18846626579761505,-0.0003556159499567002,-0.015418067574501038,-0.2481437623500824,0.9686004519462585,0.0,0.0,0.0,0.0,0.0,0.0
1204,1724914326901615648,-0.2016407996416092,0.10986244678497314,0.18906569480895996,-0.0005147449555806816,-0.01628868840634823,-0.24585407972335815,0.9691698551177979,0.0,0.0,0.0,0.0,0.0,0.0
1206,1724914326911334078,-0.2008647620677948,0.1083500012755394,0.18984736502170563,0.0002581893641036004,-0.01754126511514187,-0.2440296709537506,0.9696090817451477,0.0,0.0,0.0,0.0,0.0,0.0
1208,1724914326921905470,-0.20060715079307556,0.10710585117340088,0.19079287350177765,0.001295691472478211,-0.018454071134328842,-0.244400292634964,0.9694979190826416,0.0,0.0,0.0,0.0,0.0,0.0
1210,1724914326932608994,-0.20107513666152954,0.1057940125465393,0.19105976819992065,0.0025192543398588896,-0.020722951740026474,-0.24260388314723969,0.9699008464813232,0.0,0.0,0.0,0.0,0.0,0.0
1212,1724914326943738407,-0.20205122232437134,0.10427848994731903,0.191112220287323,0.004694735631346703,-0.02245522476732731,-0.24193882942199707,0.9700203537940979,0.0,0.0,0.0,0.0,0.0,0.0
1214,1724914326951312640,-0.203367680311203,0.10268907994031906,0.1913452297449112,0.00792000349611044,-0.024303628131747246,-0.24247358739376068,0.9698212742805481,0.0,0.0,0.0,0.0,0.0,0.0
1216,1724914326962081305,-0.2052597850561142,0.10085001587867737,0.1909441500902176,0.01137071568518877,-0.028256818652153015,-0.24155303835868835,0.9699095487594604,0.0,0.0,0.0,0.0,0.0,0.0
1218,1724914326971842967,-0.20732234418392181,0.09913685917854309,0.1904381364583969,0.013210129924118519,-0.032442789524793625,-0.24051479995250702,0.9700132608413696,0.0,0.0,0.0,0.0,0.0,0.0
1220,1724914326983415723,-0.20964351296424866,0.09698235243558884,0.18915855884552002,0.02050168439745903,-0.03846872225403786,-0.2382088303565979,0.970235288143158,0.0,0.0,0.0,0.0,0.0,0.0
1222,1724914327000510941,-0.21228986978530884,0.0952693521976471,0.1881658136844635,0.02363484352827072,-0.042540132999420166,-0.23775067925453186,0.9701063632965088,0.0,0.0,0.0,0.0,0.0,0.0
1224,1724914327001118353,-0.21502883732318878,0.09348293393850327,0.18713535368442535,0.027429696172475815,-0.047482509166002274,-0.23812393844127655,0.9696854948997498,0.0,0.0,0.0,0.0,0.0,0.0
1226,1724914327011661121,-0.21785405278205872,0.09175300598144531,0.18584591150283813,0.031744785606861115,-0.05248256400227547,-0.23715318739414215,0.9695340991020203,0.0,0.0,0.0,0.0,0.0,0.0
1228,1724914327022282652,-0.22081881761550903,0.09015817940235138,0.18478870391845703,0.033846355974674225,-0.0558786541223526,-0.23750825226306915,0.9691862463951111,0.0,0.0,0.0,0.0,0.0,0.0
1230,1724914327032171428,-0.2233724594116211,0.08879959583282471,0.18385158479213715,0.040748123079538345,-0.05847397446632385,-0.2369828224182129,0.9688960313796997,0.0,0.0,0.0,0.0,0.0,0.0
1232,1724914327041899137,-0.22624120116233826,0.08735743165016174,0.18252204358577728,0.04114903509616852,-0.06482335925102234,-0.23608499765396118,0.968694269657135,0.0,0.0,0.0,0.0,0.0,0.0
1234,1724914327052233449,-0.22893360257148743,0.08616571873426437,0.18139122426509857,0.04342671111226082,-0.0673113688826561,-0.23516207933425903,0.9686496257781982,0.0,0.0,0.0,0.0,0.0,0.0
1236,1724914327061731291,-0.23150533437728882,0.08514654636383057,0.18016159534454346,0.04582357779145241,-0.06983485817909241,-0.23396889865398407,0.9686495065689087,0.0,0.0,0.0,0.0,0.0,0.0
1238,1724914327073565818,-0.23406203091144562,0.08440453559160233,0.17894907295703888,0.04911138862371445,-0.07256316393613815,-0.23228199779987335,0.9686939120292664,0.0,0.0,0.0,0.0,0.0,0.0
1240,1724914327081374257,-0.23649299144744873,0.08392444998025894,0.17815424501895905,0.05101698264479637,-0.07380715757608414,-0.23247134685516357,0.968455970287323,0.0,0.0,0.0,0.0,0.0,0.0
1242,1724914327096739799,-0.23879919946193695,0.08323967456817627,0.17668111622333527,0.0508011169731617,-0.07916624844074249,-0.23031914234161377,0.9685582518577576,0.0,0.0,0.0,0.0,0.0,0.0
1244,1724914327101253252,-0.24083071947097778,0.08297140151262283,0.17554810643196106,0.05221271142363548,-0.08123364299535751,-0.22976171970367432,0.9684443473815918,0.0,0.0,0.0,0.0,0.0,0.0
1246,1724914327111345487,-0.24266503751277924,0.08262528479099274,0.17401130497455597,0.054968491196632385,-0.08462885022163391,-0.22820284962654114,0.9683697819709778,0.0,0.0,0.0,0.0,0.0,0.0
1248,1724914327123247657,-0.2443888634443283,0.08252181857824326,0.17301256954669952,0.05955158919095993,-0.08453908562660217,-0.2295299470424652,0.9677927494049072,0.0,0.0,0.0,0.0,0.0,0.0
1250,1724914327134318911,-0.2458551973104477,0.08237342536449432,0.1716001033782959,0.061557039618492126,-0.08912821114063263,-0.22788271307945251,0.9676447510719299,0.0,0.0,0.0,0.0,0.0,0.0
1252,1724914327147679445,-0.24720939993858337,0.08239801228046417,0.1705102175474167,0.06355541199445724,-0.09124287217855453,-0.2279672920703888,0.9672985076904297,0.0,0.0,0.0,0.0,0.0,0.0
1254,1724914327151765649,-0.2485390603542328,0.08230104297399521,0.16976071894168854,0.0655718594789505,-0.0922829732298851,-0.22944362461566925,0.9667159914970398,0.0,0.0,0.0,0.0,0.0,0.0
1256,1724914327161471587,-0.2496052384376526,0.08199743926525116,0.16879211366176605,0.06586668640375137,-0.09677670150995255,-0.2292725145816803,0.9662970900535583,0.0,0.0,0.0,0.0,0.0,0.0
1258,1724914327171887835,-0.25051531195640564,0.08190890401601791,0.1682661920785904,0.06779266148805618,-0.09850233048200607,-0.23064042627811432,0.965663731098175,0.0,0.0,0.0,0.0,0.0,0.0
1260,1724914327181393111,-0.25147274136543274,0.08178837597370148,0.16764229536056519,0.06772643327713013,-0.09979042410850525,-0.23132357001304626,0.9653727412223816,0.0,0.0,0.0,0.0,0.0,0.0
1262,1724914327192852277,-0.25218161940574646,0.08171138912439346,0.1672569364309311,0.06945251673460007,-0.10055989027023315,-0.23212265968322754,0.9649783372879028,0.0,0.0,0.0,0.0,0.0,0.0
1264,1724914327201652338,-0.2527488172054291,0.08156649768352509,0.16693015396595,0.06997544318437576,-0.10167466104030609,-0.23225578665733337,0.9647916555404663,0.0,0.0,0.0,0.0,0.0,0.0
1266,1724914327211277827,-0.25323987007141113,0.08144360780715942,0.16657134890556335,0.07089421153068542,-0.10175564885139465,-0.23273929953575134,0.9645995497703552,0.0,0.0,0.0,0.0,0.0,0.0
1268,1724914327222168227,-0.2536334693431854,0.08142174780368805,0.16630901396274567,0.07195832580327988,-0.10182198137044907,-0.23368145525455475,0.9642859101295471,0.0,0.0,0.0,0.0,0.0,0.0
1270,1724914327292697630,-0.253944456577301,0.08142043650150299,0.16605915129184723,0.07259944826364517,-0.10200703889131546,-0.23489373922348022,0.9639237523078918,0.0,0.0,0.0,0.0,0.0,0.0
1272,1724914327293140951,-0.25418782234191895,0.08140859752893448,0.165815532207489,0.07226795703172684,-0.10244977474212646,-0.23556223511695862,0.9637384414672852,0.0,0.0,0.0,0.0,0.0,0.0
1274,1724914327293867797,-0.2543819546699524,0.08131488412618637,0.16552774608135223,0.0732475146651268,-0.10275056958198547,-0.23596684634685516,0.9635334610939026,0.0,0.0,0.0,0.0,0.0,0.0
1276,1724914327294121174,-0.2544667720794678,0.08120335638523102,0.1653507798910141,0.07442431896924973,-0.10326103121042252,-0.2362843155860901,0.963310956954956,0.0,0.0,0.0,0.0,0.0,0.0
