seq,stamp,px,py,pz,ox,oy,oz,ow,lx,ly,lz,ax,ay,az,timestamp,wx,wy,wz,aa_x,aa_y,aa_z,roll,pitch,yaw,vx,vy,vz,jx,jy,jz,fw
1232,1724822194062755075,-2.145718812942505,0.055983405560255,0.1757381409406662,0.0274516753852367,0.0457001999020576,-0.3075287342071533,0.9500442147254944,0.0,0.0,0.0,-0.4236021569628892,-0.1462253779940994,-0.4641816526597643,0.0,0.0,0.0,0.0,1.617694239033325,28.28603620145015,8.866897682250709,0.0241851450836303,0.103905645648763,-0.6248525289482824,0.0141379379711563,0.0114171502528371,-0.0106827706500584,55.56218536312732,40.34871755329512,-53.95595926884272,0.0
1234,1724822194073463553,-2.1455674171447754,0.0561056658625602,0.175623744726181,0.0280617382377386,0.047198437154293,-0.3070050179958343,0.9501225352287292,0.0,0.0,0.0,0.1713842826300816,0.2858479762535752,-1.0419678554590628,0.010708478,0.0173230431694151,0.3029003963704325,0.0949509787586327,-3.4718237358684045,10.2672445309859,7.649104591099405,0.0244866620601644,0.1071235508346032,-0.6237510137133547,0.0096018035925666,0.0098512990095456,-0.0156534496655691,30.84874542648495,33.64071888640322,-32.46561932357152,-0.0001127990438412
1236,1724822194088333218,-2.1455183029174805,0.056219819933176,0.1752883493900299,0.0273320935666561,0.0480682216584682,-0.3056415915489197,0.9505396485328674,0.0,0.0,0.0,0.119815646458862,0.6475685152484334,-1.0809916444548788,0.025578143,-0.1393893640357394,0.0835217609571572,0.1835458050401472,-37.13342500686589,34.342804889156625,57.96243431134992,0.0227121889063102,0.1083007368599902,-0.6209770889793002,0.0244354150920003,0.0230231440160144,-0.0430771995152952,-120.81364641022132,-50.57096159022627,157.91284853935724,-0.0003389625026606
1238,1724822194093593112,-2.145350456237793,0.0563694722950458,0.1750235855579376,0.0267313569784164,0.0492236018180847,-0.3041039407253265,0.9509906768798828,0.0,0.0,0.0,-0.7339844483326761,0.2422172669578245,0.0483086356607691,0.030838037,-0.3841886798019394,0.3555096926049015,0.5851812972392451,-36.97303494547916,16.57448396025277,45.856461802247395,0.021033262095691,0.1101029165811532,-0.6178402496936194,0.0234324737734681,0.0259859954783547,-0.0473429368736786,-109.53755712493128,-72.11461897304702,192.4222294401143,-0.0002622061344549
1240,1724822194103269841,-2.1452746391296387,0.0565770380198955,0.1746187508106231,0.0240554008632898,0.0494972243905067,-0.3017441034317016,0.9517992734909058,0.0,0.0,0.0,-0.8542443340532524,-0.3674957710944879,1.513723636158106,0.040514766,-0.5716381218752107,-0.1095983299659222,0.485917540959452,8.291364470020353,-3.1000509953636186,-12.33264944490153,0.0160164898197342,0.1089554408121384,-0.6131303797924518,0.006657694523156,0.0226139603812125,-0.0315777786525988,59.24032912252824,-40.46044472127849,63.215101728219985,-0.0004120445042195
1242,1724822194112593630,-2.1452231407165527,0.0567983426153659,0.1744164824485778,0.0234192851930856,0.0509812086820602,-0.3000935912132263,0.9522585272789,0.0,0.0,0.0,0.3419460029403011,-0.542177880846848,1.3105667378686658,0.049838555,-0.2458187867450466,0.2654463680455566,0.3522923257624164,18.771059882369833,14.982416480151096,-10.260450477898372,0.0140919431468223,0.1113806851507794,-0.6097885426497663,0.0065920462840267,0.0190165715107211,-0.0185013898059533,66.18528796542064,0.7931281959427796,-34.27675749996443,-0.0002133609659786
1244,1724822194123663903,-2.1451361179351807,0.0569468364119529,0.1742536276578903,0.022346094250679,0.0518840700387954,-0.2984690070152282,0.952746033668518,0.0,0.0,0.0,0.258278697003054,-0.2767206825064076,0.7669770589743958,0.060908828,-0.2506060059055651,0.0995264773700779,0.2922176824424083,15.101622481110088,2.6050315189694597,-10.17450748707435,0.0116827700061637,0.1124406968822563,-0.6065192562245281,0.0149645311450115,0.0109594813646967,-0.0052011022739542,-50.258578175666294,47.487667261479984,-99.18684949455768,-0.0001652946872893
1246,1724822194134399325,-2.1449015140533447,0.0570389404892921,0.1742967963218689,0.0232554767280817,0.0533392988145351,-0.2977685928344726,0.9528630971908568,0.0,0.0,0.0,-0.7258129455491724,0.4778181996433412,-0.8192378312922355,0.07164425,0.0732367316057187,0.3106470744232271,0.1335616710141232,-12.603357256365609,1.2904948404655592,-0.3570392601685643,0.0126379485500398,0.1157579511726583,-0.605035352265867,0.0125524766606019,0.0126849560744188,-0.0014903606241905,-28.457933081605656,36.76271712055455,-85.19175277378396,5.646703913399294e-05
1248,1724822194143438319,-2.1448588371276855,0.0571848452091217,0.1742413789033889,0.0219818912446498,0.0545925162732601,-0.2966265082359314,0.9531785249710084,0.0,0.0,0.0,-0.5019772253063197,0.5549903926617525,-1.1131374833887249,0.080683244,-0.3661856225491798,0.1824640965800832,0.2400927421665309,-30.52957062054258,-17.76519459931508,12.382539857958925,0.0095842579920075,0.1173830316591381,-0.6028320205415398,0.0021779303589255,0.0194172165048476,-0.0177610167769728,105.48598953971126,-22.04303019098117,-2.080958028046844,-6.198819832522537e-05
1250,1724822194153596943,-2.1448657512664795,0.0574194937944412,0.1739281713962555,0.0197516903281211,0.0550700984895229,-0.2946947515010834,0.953798770904541,0.0,0.0,0.0,1.4912207828944797,-0.0180747558946268,-0.786817647648923,0.090841868,-0.4698543434328206,-0.0389250980935954,0.3726961408297073,-1.893486722210696,-7.089775385891465,4.976438104884583,0.0052564740473461,0.1169594995135014,-0.5990227472634075,0.0044513324446029,0.0228880881959043,-0.0212265047979869,77.50485546435432,-69.79149960014281,-2.0089797621107266,-0.0003281665529156
1252,1724822194163488572,-2.1447722911834717,0.0576438680291175,0.1738107204437255,0.0179656483232975,0.0557853430509567,-0.2929559350013733,0.9543281197547911,0.0,0.0,0.0,1.114567775117075,-0.8372960375002318,-1.1354317078191836,0.100733497,-0.4085304488752656,0.0325639893147715,0.3441278620408172,8.581507877365777,-30.53062932414371,19.18005731745787,0.0016160522385118,0.1172699322485298,-0.5955942851997021,0.0314093831280928,0.0192443874177508,-0.0333020484381219,-143.7240634462947,-44.70040608073428,25.58572702676816,-0.0001227043257582
1254,1724822194172661554,-2.144297361373902,0.0577911436557769,0.1733229607343673,0.016027558594942,0.0536532774567604,-0.2898227572441101,0.9554409384727478,0.0,0.0,0.0,-1.1024939675851837,-0.9230689238460844,-0.3832890133772491,0.109906479,-0.3095504084731637,-0.5686819057103895,0.7077902096091048,15.005604916636363,-21.04648347356788,6.283002885037932,-0.0004760959808964,0.1120496973413926,-0.5890618441777284,0.0279311862547473,0.007574877358349,-0.0429912887903869,-120.78160056057268,35.975442955148964,91.36396539561464,-0.0004495117707607
1256,1724822194185154455,-2.1443541049957275,0.0577414855360984,0.1729591190814972,0.0156653597950935,0.0532779246568679,-0.2885080873966217,0.955865740776062,0.0,0.0,0.0,-0.554144337364156,0.2975631148535071,0.9175115871667434,0.12239938,-0.0503675916003457,-0.0744938223813067,0.218650512637151,11.954910167232672,-4.176608444782985,-11.511515168262484,-0.0007991919484457,0.111120794140697,-0.5863125716060513,0.0018510748312507,0.0019826531178299,-0.0363291525937565,73.09050281749944,18.42703960320293,37.99924972433366,-0.0003638503577425
1258,1724822194193424300,-2.144303798675537,0.057790495455265,0.1726192384958267,0.0153116434812545,0.0518823750317096,-0.2874442338943481,0.9562686681747437,0.0,0.0,0.0,0.2101402874892252,0.0159519314965226,0.869774878555422,0.130669225,0.0003700522700168,-0.3484489929702744,0.2747730930997472,0.7665769921957013,-1.248945935445257,-6.818481080825567,-0.0005456827782484,0.108240701730291,-0.5840245595651257,0.0056630083186348,0.0085229031859137,-0.0266380270136075,-2.6017109447391107,-75.77325478875923,-138.21852161419775,-0.0003362395352958
1260,1724822194203208434,-2.1442532539367676,0.0579039417207241,0.1725260019302368,0.0150822987779974,0.0519939288496971,-0.2871932089328766,0.9563416242599488,0.0,0.0,0.0,-0.9152381773246508,-1.2083676559797674,-2.0157309650003565,0.140453359,-0.0542759337608905,0.008342093060609,0.0505739376441083,11.827255132308668,-1.2494835820282226,-7.359496489610237,-0.0010229421345815,0.1083226996676392,-0.5835268343288922,0.0048158222278118,-0.0002910720754716,-0.0216249160305501,-55.31758431728976,-52.686945688278705,-168.47767790294003,-9.476203273051144e-05
1262,1724822194213093465,-2.144209146499634,0.0577823594212532,0.1721914410591125,0.0156941637396812,0.0498487651348114,-0.286652147769928,0.9566083550453186,0.0,0.0,0.0,-0.8658005445237167,-1.0056617066879054,-2.418394145909101,0.15033839,0.2365341238162855,-0.3806753514435128,0.1331730461803943,34.849105860241124,-48.480017252468386,3.562697088735789,0.0014557761653911,0.1045594368746647,-0.5822038067695926,-0.0125070412859429,-0.0153070560865975,-0.0667985583020449,98.84712723340144,67.1751141040994,263.9459778229208,-0.0003217983152561
1264,1724822194225105364,-2.1446070671081543,0.0575545951724052,0.1709080636501312,0.0180574841797351,0.0422747135162353,-0.2863572537899017,0.957019567489624,0.0,0.0,0.0,1.6913515336287612,0.4824341598805209,5.199333864181627,0.162350289,0.7343945376509318,-1.0962164263973078,0.1060032201943883,10.746446808918831,43.653085959412145,-16.72593525998998,0.0103949505430728,0.0913843795727878,-0.5810027638250996,-0.0099653080985717,-0.019893161264088,-0.0644437991428112,61.26564074096329,90.39391055322012,288.8224255180102,-0.0012926493661643
1266,1724822194233315551,-2.144558906555176,0.057386040687561,0.1706168949604034,0.02040646225214,0.0408954545855522,-0.2869226634502411,0.9568628668785096,0.0,0.0,0.0,1.343512066928808,1.0366423092754835,5.632566741989404,0.170560476,0.650341077192877,-0.1585630821383108,-0.1124876068890862,-68.94684667147902,78.01213174544468,-2.247484754376827,0.0156488106746877,0.0900946712005532,-0.5819469943968969,0.0122249184062326,-0.0110824816679473,0.0063207120712744,-121.36491355383976,6.255584655000273,-251.082686761686,-0.0002762090279401
1268,1724822194243634370,-2.144350290298462,0.0573942065238952,0.1712240278720855,0.0166457723826169,0.042967639863491,-0.2858375012874603,0.9571695923805236,0.0,0.0,0.0,-0.9333579220565852,0.306880484495822,-0.898950111912182,0.180879295,-0.8225086206911846,0.1770300717267068,0.1803068323359965,-33.745418448430975,5.706628704202232,5.079874172938659,0.0073331387162568,0.0918999122453042,-0.5800577468141441,0.0084601744067214,-0.0008588955924957,0.0257096191168759,-100.04360174601436,-58.64265032007626,-359.2346611040468,0.0006192683377706
1270,1724822194254130062,-2.1443870067596436,0.0573675744235515,0.1711402088403701,0.0165022034198045,0.0427408218383789,-0.2859145104885101,0.9571592807769777,0.0,0.0,0.0,-0.6958161223411993,-0.1796663345276926,-1.7470639016409404,0.191374987,-0.013168488527719,-0.0493496803447175,-0.0150636216919312,39.6778026794753,-10.233538648575916,-11.142178602525323,0.0071800524404854,0.091383122484024,-0.580220336565981,-0.0074053039716659,-0.004938911346866,-0.0133816003867401,48.672586388754695,-10.857996448664228,40.590206176499265,-8.463257317245896e-05
1272,1724822194262737071,-2.1444783210754395,0.0573081150650978,0.1709869503974914,0.0166849698871374,0.0424295179545879,-0.2861701846122741,0.9570935368537904,0.0,0.0,0.0,-0.0930935061746155,-0.022563771186104,-0.5408667011652085,0.199981996,0.0641234509540579,-0.0574232125382709,-0.058224457066777,5.177536045957722,-0.2479606189952223,-2.4122246504899287,0.0076858293298844,0.0908926160193768,-0.5807272211204464,-0.0076361127701147,-0.0050096726379669,-0.0144614626242889,34.694196764514246,8.037935851052783,64.84479237027303,-0.0001558227250342
1274,1724822194273767805,-2.1445205211639404,0.0572796948254108,0.1708747148513794,0.0169503707438707,0.0420613624155521,-0.2864441573619842,0.9570230841636658,0.0,0.0,0.0,-0.209889432636401,-0.0783076460437283,-0.890045701860585,0.21101273,0.0674784861901117,-0.0504030698589377,-0.0480431334601079,7.884546415682461,-11.676472959445729,4.19750253026548,0.00838160677424,0.0903408946179701,-0.581263738979962,-0.009599960757356,-0.0054613259868627,-0.0263001703580858,3.869052566647442,-0.3440443121130621,26.39841874087312,-0.000113154667605
1276,1724822194283514140,-2.1446638107299805,0.0572016239166259,0.1704795211553573,0.0175549741834402,0.0405066683888435,-0.2864108383655548,0.957089364528656,0.0,0.0,0.0,-0.0476816358537519,-0.0411053434015635,-0.1328306137378962,0.220759065,0.2096023889442046,-0.2702382018874678,0.0210655095600073,5.668870877222965,-3.94929844725312,2.583013670868877,0.0104405792623863,0.0877052708164982,-0.5810826574082993,-0.0119199344046734,-0.006546286601254,-0.0333972136052995,4.714769224368052,29.98461220227878,155.52533981908078,-0.0003988876672141
1278,1724822194293816296,-2.144756317138672,0.05715012550354,0.1702133268117904,0.0182376205921173,0.0397206209599971,-0.2864630818367004,0.9570938348770142,0.0,0.0,0.0,-0.1290033912160904,0.5527569897017592,2.316992293908964,0.231061221,0.1709397242054336,-0.1083071379725345,-0.001411459961388,-3.444523251248458,6.5541529378453225,-0.3699611371418932,0.0121992519849958,0.0865896973405876,-0.5811098528347729,-0.0103382664724591,-0.0062051470494801,-0.0282825421391139,33.77757493147206,6.9309880368219945,52.037811123822664,-0.0002682744632683
1280,1724822194306500074,-2.1449086666107178,0.0570525825023651,0.1698164343833923,0.0187390819191932,0.0384566634893417,-0.2863808572292328,0.9571603536605836,0.0,0.0,0.0,0.9501609479242992,-0.1512724473123855,0.0762155456455679,0.243744999,0.1320653105288128,-0.1682808279567021,0.0221892519274638,-123.10216665523596,90.14618038892463,-49.164902637717525,0.0138960783386881,0.0844517665670411,-0.5808553306058438,-0.0163865181340838,0.0089206416870526,0.0295349673291394,92.75807607119472,-105.18673655086307,-380.9205689950252,-0.0003993726455311
1282,1724822194313623411,-2.145042896270752,0.0571825802326202,0.1702701598405838,0.0153600750491023,0.0426504574716091,-0.287965714931488,0.9565671682357788,0.0,0.0,0.0,1.6416154235526523,-1.099301518275535,-3.454343020882072,0.250868336,-1.225046529984319,0.8534100243080618,-0.5321587588404013,-11.686689522137172,19.69089195801187,-7.240053990404039,0.0048420109473762,0.0905661612837453,-0.5846032924334693,-0.0039093931178086,0.0024671439985626,0.01214679988606,112.4669644345287,-37.031341420814435,77.00797707601919,0.0004350821544912
1284,1724822194323314818,-2.144883871078491,0.0569983944296836,0.1697081923484802,0.0193343386054039,0.0384803302586078,-0.2866933047771454,0.9570540189743042,0.0,0.0,0.0,2.9346067439605283,-0.191653965372672,4.842414163296258,0.260559743,1.0196159878675133,-0.5872780338833423,0.3283114051248371,87.08892348092743,-54.156420346085376,34.95797362942276,0.0149984169605733,0.0848433128593671,-0.581466053181842,0.0105501973711028,-0.0107358285381882,-0.0346916923784563,53.638721020125566,81.2107644163036,589.4776087389077,-0.000539052729852
1286,1724822194334558110,-2.1448416709899902,0.0569855496287345,0.1696219891309738,0.0200086887925863,0.0384911820292472,-0.2866104245185852,0.9570645689964294,0.0,0.0,0.0,2.497089770101364,0.5591053156936827,7.992421641057612,0.271803035,0.1136473533606201,0.036450868854234,0.0192265595097838,-93.8987847675396,158.43107908868683,-9.892138909902256,0.016295161505442,0.085249712044652,-0.5812427149283658,0.062361723995238,0.0023793789809767,0.1459558889258811,-256.23421933432337,8.134095905243473,-613.3303597194545,-8.247823953561222e-05
1288,1724822194343777766,-2.1438236236572266,0.0570341125130653,0.1721290796995163,0.019262371584773,0.0496491156518459,-0.285961776971817,0.956760048866272,0.0,0.0,0.0,-1.5082989918973937,0.1907669647805653,-4.417338837577907,0.281022691,-0.8527710820086462,2.27549933930445,0.061073143743965,-36.99804679239253,88.45586234070922,1.251455566600115,0.0085115106445464,0.1062208178008203,-0.5804156684689811,0.0694233926648379,0.0029421465095105,0.1585963841362492,-271.2544268710608,-19.860028570025413,-779.3736209933983,0.0025752047735947
1290,1724822194358130884,-2.1437432765960693,0.057024385780096,0.1718730330467224,0.0203637182712554,0.0500307902693748,-0.2859570682048797,0.9567188024520874,0.0,0.0,0.0,-1.7552822820525642,0.3546531250295182,-2.942337891557735,0.295375809,0.131698335562533,0.0950668184087979,0.0055791630632101,25.480279398414957,-52.03377707073276,-8.710130548252424,0.0104117721805268,0.1075845119638616,-0.5803221882403207,-0.0030428868477088,0.0085789798328788,-0.0341467093001561,201.2596384143529,-30.4240964203061,621.9089170166296,-0.0002471392312195
1292,1724822194363591877,-2.143777847290039,0.0570904687047004,0.1716526746749878,0.0208445508033037,0.0499403029680252,-0.286116749048233,0.9566654562950134,0.0,0.0,0.0,-0.2022805570215453,0.1015688652504705,1.532562396157846,0.300836802,0.1812755638186348,0.0184376040279255,-0.0520510780464029,0.1163890770638269,-7.508159814706138,-6.498570312004889,0.0113711232201576,0.1076882943958963,-0.5806069986547868,-0.005785269212879,0.0104366328231093,-0.0284266618407107,195.35694934320844,-43.82855256471596,509.43547477598867,-0.0002264827119359
1294,1724822194373293587,-2.143824577331543,0.0571630373597145,0.1715824156999588,0.0210438035428524,0.0501754321157932,-0.286327451467514,0.956585705280304,0.0,0.0,0.0,0.1586410240562066,-0.2802879396934936,1.1320376301392132,0.310538512,0.0279391452363023,0.0580393089609722,-0.0452168218657556,-7.232211576399163,3.4841472513490803,1.2836126885128334,0.0115953334913511,0.1082563663223363,-0.5810416707229908,-0.0025788672021462,0.0073096455261918,-0.0051967907465702,6.807446385914509,-18.89638707185844,-89.15981985390604,-7.877243392095492e-05
1296,1724822194383888532,-2.1438260078430176,0.0572385117411613,0.1715510189533233,0.0214266516268253,0.05054771900177,-0.2864572703838348,0.9565187096595764,0.0,0.0,0.0,-0.1209104967241461,-0.2437245071619324,-0.3665498525390669,0.321133457,0.0505060879598593,0.0880370554109666,-0.0249157251900604,-3.787449798439158,-6.22554244551667,2.325219338273374,0.0121028357953339,0.10919217064259,-0.5812960535537299,-0.0028865391362842,0.0048262578695488,-0.0078090924367533,-7.97650597624429,10.546841264191324,-41.292190348770106,-3.660764168913651e-05
1298,1724822194393740394,-2.143879652023315,0.0572650134563446,0.171429693698883,0.0211544316262006,0.0503403022885322,-0.2864447832107544,0.9565394520759584,0.0,0.0,0.0,-0.0308522717335664,-0.0748144613851994,0.1441220696618012,0.330985319,-0.0410162336583054,-0.056265158557476,0.0017398084175409,1.2334787109438683,-9.149199885480396,0.9940250142687556,0.0116999023872504,0.1086376904456019,-0.5812854542024787,-0.0049193532476721,0.0023396385008198,-0.012519495090526,4.038935355680093,8.704257655349608,37.15750970583272,-0.0001269546546972
1300,1724822194403681614,-2.143923282623291,0.0572847574949264,0.1713031828403473,0.0213871542364358,0.0497937798500061,-0.2865000367164612,0.956546425819397,0.0,0.0,0.0,-0.0418835167065431,-0.0729557561643846,0.3662767737014736,0.340926539,0.0768096495409054,-0.0920667711044072,-0.0055481857438102,1.539614185688904,8.143494725174893,-2.9365517634220297,0.0124562959527469,0.1077231861415025,-0.5813521452992776,-0.0034656963323413,0.003377330580577,-0.0048447630043231,-18.371045940262704,-9.372378332050216,-31.76403612514884,-0.0001307605198892
1302,1724822194413769110,-2.143948793411255,0.0573330670595169,0.1713349819183349,0.0214682631194591,0.0503512471914291,-0.2867632508277893,0.9564365148544312,0.0,0.0,0.0,-0.4038877422982379,-0.2653483463356687,-0.5080174933468526,0.351014035,-0.0132189184223491,0.1102998350650838,-0.0577249170779383,-0.7945362655450183,0.3983247281898308,-1.7740176296112165,0.0122611481716674,0.1088429398411035,-0.5819239644491168,-0.0058136627609286,0.0008261659506345,-0.0053030132676381,-1.0279247804598934,-4.522594927689115,-76.04831324585582,2.6086592270351876e-05
1304,1724822194425250452,-2.1440584659576416,0.0572907663881778,0.1711636036634445,0.0216853041201829,0.0494371689856052,-0.2869898080825805,0.9564113020896912,0.0,0.0,0.0,0.0398337106866234,-0.1271403206243019,-1.242338047704743,0.362495377,0.0839028557344766,-0.1420761940825047,-0.03368347864809,1.6793364833106588,-6.6890957646644615,0.7162279822571933,0.0131802759822698,0.1072167559902726,-0.5823337546659695,-0.0126870952391584,-0.0023830136671239,-0.0171807610505076,48.98118790844127,27.402369922921206,77.13861171300438,-0.0001764304533948
1306,1724822194433955393,-2.1441895961761475,0.0572786107659339,0.1709991693496704,0.0217771604657173,0.0489597618579864,-0.2871628403663635,0.956381857395172,0.0,0.0,0.0,0.5344157620315241,0.2128018959082601,0.36037430027055,0.371200318,0.0537754754177082,-0.0993762813405579,-0.0365416658510346,11.98974282765961,-12.642834628124628,23.08731697799636,0.0136130520519888,0.1063560346973264,-0.5826653197137102,-0.0081263273819729,-0.0024841170964369,-0.0293667838607998,6.672795538599862,21.152478734257187,148.8389027956875,-0.0001732819659334
1308,1724822194443560164,-2.1441941261291504,0.0572432242333889,0.1706060767173767,0.0228459127247333,0.0465871132910251,-0.2852917015552521,0.9570352435112,0.0,0.0,0.0,0.0671054013228953,0.2262781711543814,1.416092729261753,0.380805089,0.3326747441168006,-0.406775684202834,0.4333568867404798,-19.51701971831882,23.627950623180745,-0.1201488503585652,0.0172379746569487,0.1023853034507599,-0.5785413695559534,-0.0028822478204801,0.0019380751402895,-0.0072507886809951,-45.70946107536896,-27.355632300167866,-89.05134815193627,-0.0003888328343179
1310,1724822194453250593,-2.1442456245422363,0.0573169738054275,0.1708650588989257,0.0218056086450815,0.0487476140260696,-0.2853949069976806,0.9569210410118104,0.0,0.0,0.0,-0.34705073828375,-0.3199792976462874,-1.3921275658013526,0.390495518,-0.3311645944952088,0.3661030421454906,-0.0472993809354226,-8.365705470740465,5.019174648847352,-17.188208826943104,0.0139867180205695,0.105939707387025,-0.5789463865083732,-0.0069139211406508,0.0018416750166783,-0.0021955424192832,-56.35848262369138,-26.333199442271937,-117.99972521500196,0.0002482116488694
1312,1724822194462940381,-2.1443281173706055,0.057278923690319,0.1705635637044906,0.0221917442977428,0.0470667779445648,-0.2850028574466705,0.9571132063865662,0.0,0.0,0.0,-1.0251167617049075,-0.2841034553023463,-0.870987783278104,0.400185306,0.1704684611731519,-0.3094071797325142,0.1002041178372239,23.48667705664768,-35.30416434603654,9.544022279720474,0.0157356151973277,0.1029275313634406,-0.5780150863199576,-0.0096082548886329,-0.0042627956365901,-0.0342280695852608,3.132012195516541,6.867239877485245,93.47654840662364,-0.0003036140791822
1314,1724822194473012811,-2.1444363594055176,0.0572324693202972,0.1701862066984176,0.0223213862627744,0.0454233288764953,-0.2844029664993286,0.957368016242981,0.0,0.0,0.0,-0.2281010791199771,-0.1817976132579674,0.4861534678507935,0.410257736,0.1109126810737695,-0.3047326075264918,0.13688016026755,-37.76120517571327,24.874246060789844,-39.30432900680351,0.0169879074551439,0.0998359867665163,-0.5766799260952646,-0.0277555015462382,-0.0035029114492521,-0.0175080773753961,145.22408937320284,-2.0341923726689117,-6.754684699286621,-0.00038027801438
1316,1724822194483246002,-2.144897222518921,0.0572081543505191,0.1702145189046859,0.0194804482161998,0.0473840981721878,-0.287722110748291,0.9563426971435548,0.0,0.0,0.0,1.9451693521555888,-0.3293600171779032,-1.0540019773560263,0.420490927,-0.6066179555847313,0.2035908659682556,-0.7118128237354773,42.33600427439645,-9.72143490164541,7.446475544523978,0.0100454606104872,0.1020176516296982,-0.5839723537339397,-0.0137300127574064,-0.0080376772945709,-0.0247368431161429,144.4057343572643,85.15191161433658,17.605902773542415,-6.869640545271289e-06
1318,1724822194493516248,-2.1447155475616455,0.0570672489702701,0.1696769744157791,0.0236494913697242,0.0433978773653507,-0.2865532338619232,0.9567887187004088,0.0,0.0,0.0,2.7276665008766043,1.571501875198234,0.859616307591905,0.430761173,0.9872953308859154,-0.5084652004379403,0.2962688247178454,102.416750111286,-45.26085413136222,68.00855903484259,0.020480734302216,0.0967497426586281,-0.5809949489600764,0.0121698150404014,-0.0102474760957869,-0.0391445476517637,-414.6422306691726,-468.90877679657694,-504.5506264171014,-0.0005124122926255
1320,1724822194520500485,-2.1447784900665283,0.0570369102060794,0.1695562303066253,0.0236707329750061,0.0430662706494331,-0.2866427302360534,0.9567763209342957,0.0,0.0,0.0,-43.260647348424584,-57.44903136949944,-61.737714226587286,0.45774541,0.0088587910526557,-0.0231816242307338,-0.0059603367964361,3790.981059244774,6339.247763048888,-4001.85557623432,0.0207029784302708,0.0961276395899358,-0.5811693901980614,0.100367301886763,0.1588310111962414,0.1444585143510721,-2540.433524450549,-4511.669141222897,-4074.539197507576,-0.0001223706011833
1322,1724822194520805761,-2.144747495651245,0.0570859499275684,0.1696008443832397,0.0239194203168153,0.0433015786111354,-0.2868247926235199,0.9567050337791444,0.0,0.0,0.0,-44.03906854260904,-58.834363444968595,-62.9876335557552,0.458050686,1.1793721788701008,1.933869850721999,-1.2414130269194634,3312.9829097841234,5555.3460009049,-3508.8355282043285,0.0210275583125703,0.0967257972832299,-0.5815377623063969,0.0870001703421081,0.1410731534759812,0.1253747542272574,-1883.1262602620163,-3640.1062441408976,-3126.334594391743,4.307585943033976e-05
1324,1724822194523091767,-2.1447973251342773,0.0570734813809394,0.1695319265127182,0.0237268600612878,0.0433481633663177,-0.2868713736534118,0.956693708896637,0.0,0.0,0.0,-36.92995235422842,-51.78578653313693,-53.562917180349,0.460336692,-0.1708631663793976,-0.0098748573026958,-0.0501004863806978,-475.6660353771313,-692.4149636443449,425.26469601236937,0.0206258076150121,0.0967056051653068,-0.5816532311282229,-0.0179877683040032,-0.0047980114601238,-0.0267379713512099,3241.2033794604736,3484.9680241446536,4383.101538778409,-7.115972906394898e-05
1326,1724822194533036125,-2.1448113918304443,0.0570541583001613,0.169413536787033,0.0239868741482496,0.0429240986704826,-0.2867439985275268,0.9567445516586304,0.0,0.0,0.0,0.98431613384041,0.2431792378554369,1.2851409426318787,0.47028105,0.0731425892286603,-0.06642784922674,0.0317319974585888,5.4568291502135295,8.254072709045296,2.7143723573171292,0.0213823218304438,0.0960385451044466,-0.5813502370585951,0.0039429359443801,0.0004018640223897,0.0020240862107652,1860.6952178926456,2622.080484554177,2703.959590306604,-0.0001174165214109
1328,1724822194543143511,-2.144716501235962,0.0570823103189468,0.1695770919322967,0.0238921679556369,0.043796569108963,-0.2866976261138916,0.956721305847168,0.0,0.0,0.0,-0.2614287998737989,-0.0664581181209737,-0.2680440678991173,0.480388436,-0.0677164591560883,0.1602165071956209,0.0025145849980701,0.8403722261519739,0.1973811411395987,-0.4453755178450513,0.0207036653474087,0.0976570273852812,-0.5812905031376364,0.0013481008024882,-1.3794905539654678e-05,-0.0014969731477076,-48.798112931409456,-6.171208779427386,-38.63587650307787,0.0001673990695156
1330,1724822194554355146,-2.144801378250122,0.0570473447442054,0.1693404465913772,0.0243887640535831,0.0429798029363155,-0.2865937352180481,0.9567768573760986,0.0,0.0,0.0,0.1173991527842127,0.168594123893097,0.729388434871819,0.491600071,0.1254753082551934,-0.1139879178178517,0.0279325263280069,-8.517787083605997,1.815579080787016,-0.3471162157138042,0.0221382523752419,0.0963726059225265,-0.5810033402033364,-0.0016414221386185,-0.0010739640357324,-0.0035032723187882,2.319209785059524,5.759551870968705,-0.6885879133652075,-0.0002387904345602
1332,1724822194562798603,-2.144777536392212,0.0570512786507606,0.1694228053092956,0.0240280125290155,0.0433885380625724,-0.2865328192710876,0.9567857980728148,0.0,0.0,0.0,-0.0631260529741228,0.1205368552796943,0.153495778484398,0.500043528,-0.1101766360524938,0.0684033987411569,0.0083784975691142,-13.11163968923189,11.854206757731315,-3.1391905325820795,0.0212160530331656,0.0969485010406449,-0.580919721332501,0.0017918707315658,0.0020228823196746,0.0084311701414199,-11.661030756893435,-8.876088232282692,-55.33272106731379,8.33260610160816e-05
1334,1724822194574876952,-2.1447737216949463,0.0571026131510734,0.169501781463623,0.0240168962627649,0.043666586279869,-0.2867760360240936,0.956700563430786,0.0,0.0,0.0,-0.0360387869795848,-0.0416923988720188,-0.2924105416445135,0.512121877,-0.0128668225896825,0.0431684167598934,-0.0437629550197203,7.99900152869961,-12.478447916695533,2.110181481999853,0.0210101796648151,0.0974809487004189,-0.581439642947595,-0.0070869153498449,-0.0007757423949308,-0.0114844907272306,32.06538353582621,13.890490373291303,93.05967644341978,7.520534490400317e-05
1336,1724822194584024306,-2.1448898315429688,0.0570606999099254,0.1692718714475631,0.0240955222398042,0.0429603084921836,-0.2867158353328705,0.9567486047744752,0.0,0.0,0.0,0.4638750189389498,0.2746442882750052,1.4592726036003136,0.521269231,0.059904207965051,-0.1429485027291112,0.0200641780541726,0.7373755667480709,1.1575550923479905,1.4329413108249227,0.0215732632829405,0.0961697369910213,-0.581283257032895,-0.0025737565384815,0.0001592218015513,-0.0047622327988481,379.5011913263928,-8.227604366841044,-285.83167113958615,-0.0002337698409769
1338,1724822194592917854,-2.144825220108032,0.0571031123399734,0.1694056689739227,0.0241777971386909,0.0431834757328033,-0.2867752909660339,0.956718683242798,0.0,0.0,0.0,6.647894915387971,-0.168696449592453,-5.210135812733366,0.530162779,0.0040492321352236,0.0532874587635309,-0.0151358821465972,-11.335782786465604,17.131996839494715,-4.536700477362494,0.0215972504044598,0.0966464503972961,-0.5814082105625079,0.0012965797504662,0.0040927736165872,0.0144794970032302,395.0789644593119,-35.21272501852502,-459.6420452930924,0.0001345722952808
1340,1724822194612953821,-2.145068645477295,0.0571545958518981,0.169670283794403,0.0202947426587343,0.0461778938770294,-0.2878009974956512,0.9563610553741456,0.0,0.0,0.0,1.0105003074158958,-0.2135285318192288,-1.3170528945698834,0.550198746,-0.4512660333807107,0.1738769080310645,-0.1321577001841963,29140.10598709736,-12233.850332552973,7405.294577706485,0.0123000875895107,0.1001746303090484,-0.5840093203472342,0.4149249937095192,-0.0268662598126354,-0.4227470102771917,-1876.315488325895,168.14184537407218,2164.9962677535073,0.0002412443396492
1342,1724822194613497172,-2.144836902618408,0.0571395643055439,0.1694341599941253,0.0239326599985361,0.0431902296841144,-0.2869932651519775,0.9566591382026672,0.0,0.0,0.0,-0.0324992301981071,-0.1196579483055361,-0.1116618345096661,0.550742097,15.8117544961415,-6.653752578381216,4.000719714648785,29117.313216760467,-12224.145876646931,7399.519523426854,0.0210999596198696,0.0965234919138525,-0.5818858585015907,0.4151847457680944,-0.0269626589517237,-0.4231604903428786,-1873.077136881284,167.0142768053928,2154.661890626691,-0.0002179444359895
1344,1724822194633468621,-2.144856214523315,0.05711629986763,0.1693581044673919,0.0243718195706605,0.0430253408849239,-0.2869563400745392,0.9566665291786194,0.0,0.0,0.0,-3.3124547392040427,-1.0036242575184815,-3.89694916198718,0.570713546,0.0466342030944743,-0.0031186560005079,0.0060445792829577,-2204.575694575729,-1296.1369686151995,4154.3630602204485,0.022042862922257,0.0964586131824946,-0.5817659232405878,0.0397515701279189,0.0130461394491874,0.0512568793012633,591.0417800717787,-199.3177541170048,-1597.9693031598708,-7.534394226893874e-05
1346,1724822194633734882,-2.144845485687256,0.0571198239922523,0.169371947646141,0.0242952946573495,0.0429974310100078,-0.2868107557296753,0.9567134380340576,0.0,0.0,0.0,-3.152402281908405,-1.0572452228346796,-4.327425746002356,0.570979807,-0.5453819964724183,-0.3540125390084582,1.1276466875108204,-2160.2833715182683,-1280.7238665042198,4092.7984379924783,0.0219264801368567,0.0963577853581143,-0.5814664828032604,0.0389245651705234,0.0127682394312625,0.050121115239151,587.2472962745667,-195.0135889837496,-1567.6603291607432,1.4258070977940354e-05
1348,1724822194643113964,-2.144932985305786,0.057085171341896,0.1692242622375488,0.0244309231638908,0.0424775853753089,-0.2868557870388031,0.956719696521759,0.0,0.0,0.0,-2.2248966790323954,-0.7813176589861436,-2.8135205511149435,0.580358889,0.0598436207176807,-0.0980494120378542,-0.0048673370726775,31.62612992766181,16.222699138064414,-61.848242747283074,0.0224814037597879,0.0954394104489522,-0.5815328356052283,-0.0059745576213572,-0.0016185803882904,-0.010890710295591,183.18106725069632,50.758322097662266,259.58434079152426,-0.0001503971657944
1350,1724822194653225633,-2.1449568271636963,0.057091437280178,0.1691670715808868,0.0244554821401834,0.0421813055872917,-0.2868097126483917,0.956745982170105,0.0,0.0,0.0,0.5462572880324187,-0.0354412271296411,0.8815236885596982,0.590470558,0.0209433905745015,-0.0546700520722871,0.0118481057685232,-5.429262958938642,8.01335847080544,0.1564035402999835,0.0227034164168564,0.0948840380152082,-0.5814250533594879,-0.0005395712855431,-0.0013144607367028,0.0009035235028722,118.26862112831328,43.28523890589777,134.07489714428897,-5.895346682080478e-05
1352,1724822194663770448,-2.14494252204895,0.0570563077926635,0.1692487299442291,0.0242909304797649,0.0426198989152908,-0.2868035435676574,0.9567325711250304,0.0,0.0,0.0,0.0802701466635934,0.0858342283961675,-0.2487127923024765,0.601015373,-0.0537058663701717,0.0707729729091627,-0.0029609224914116,0.7963204633078703,2.2318285970413396,0.6298803554400979,0.0221357133597693,0.0956308356037937,-0.5814395881001183,0.005316949291668,-0.0024086443045954,0.0070663993889574,-47.17960628351684,10.333206109099812,-72.48223518164023,8.47242540297879e-05
1354,1724822194672960717,-2.144861936569214,0.0570415630936622,0.1693082451820373,0.0243863519281148,0.0426567643880844,-0.2867211997509002,0.9567531943321228,0.0,0.0,0.0,-0.3772601060562268,0.1714458176799274,-0.6368917349226884,0.610205642,0.0166935738989862,0.0138752972339266,0.0191217854977876,4.877164212865154,-7.346610182183424,0.5722412902179769,0.0223062681414602,0.0957544195302727,-0.5812602568656835,0.0022490480739918,-0.0001011667710799,-0.0018927096977474,-12.75619703733743,-1.0604401499084182,17.184420281157102,6.572736223378014e-05
1356,1724822194683423113,-2.14491605758667,0.0570584088563919,0.169188767671585,0.024445004761219,0.0422203503549099,-0.2867221534252167,0.9567708373069764,0.0,0.0,0.0,-0.0696942257838639,0.036767742190763,0.2506563463029581,0.620668038,0.0345725536436918,-0.0767509389768053,0.0033052983753163,-1.4519795842363596,2.010335263830417,-0.0492647029328608,0.0226695625168777,0.0949508586284173,-0.5812437366613326,-0.0022153875240178,0.0007440951109725,-0.0045308653467515,18.26645522844778,-4.673084678118579,46.64388588153969,-0.0001237184075514
1358,1724822194693092004,-2.144911050796509,0.0570578649640083,0.1692065149545669,0.0244653262197971,0.0424051582813262,-0.2866425216197967,0.9567859172821044,0.0,0.0,0.0,0.0074619838935624,0.0648513848731311,0.3604166991862261,0.630336929,-0.0077105555292933,0.0380509750067371,0.0158970662819391,-1.7434667526003624,5.227298170454016,-1.0302514435834935,0.0226104640345907,0.0953151793869273,-0.5810809116247013,0.0003009081274143,0.0007062303220286,0.002385617328402,-5.225149005461381,0.2674462918292826,-16.349874912356572,1.803695081260237e-05
1360,1724822194703416875,-2.1449103355407715,0.057073563337326,0.1692372113466262,0.0245047956705093,0.0424954853951931,-0.2867419123649597,0.9567511081695556,0.0,0.0,0.0,-0.1920767119577378,0.0385378808638523,-0.1138156471014562,0.6406618,0.0032811101444484,0.0187473126394126,-0.0204573231140666,-2.4048303753238547,-1.3293737187375068,-2.379655578910754,0.0226245500722355,0.095513468610941,-0.5812886343449577,-0.0024090877175098,0.0021339989841702,0.0021937881495865,11.177037942620444,-4.0678353068668915,-13.199501339043984,2.947809584917888e-05
1362,1724822194712887588,-2.1449546813964844,0.0570991039276123,0.1692512184381485,0.0242880024015903,0.0426158756017684,-0.2868805229663849,0.9567097425460817,0.0,0.0,0.0,0.1787645464786606,-0.013185737000835,0.045521912747281,0.650132513,-0.0496338844616819,0.0108504977013889,-0.0330788140459071,-1.2272249227484346,-3.3559301483647115,0.5861955944236589,0.0221246791752212,0.0956232163885761,-0.5816009770756756,-0.0036166466163081,0.0016324603819337,0.0002885341715037,24.197772695348743,-5.128458553524575,7.875629973376459,9.1301663638446e-06
1364,1724822194723534114,-2.1449804306030273,0.0571037456393241,0.1692400425672531,0.0241494700312614,0.0423520095646381,-0.2869049906730652,0.9567177295684814,0.0,0.0,0.0,0.2573543163018423,-0.0638009188316448,0.0222701768140026,0.660779039,-0.0105177064709621,-0.0550639885665885,-0.0038720746115772,2.173488407901519,-1.3573997334980163,1.8820339576983296,0.0220075286179122,0.0950380468060798,-0.5816554788431552,0.0019521009446066,0.0019680707998164,0.0037257106706398,-10.119779884099268,-5.644153946120973,-12.465990833330707,-1.3179880395894967e-05
1366,1724822194733295728,-2.1449222564697266,0.0571366697549819,0.1693191528320312,0.0241030361503362,0.0422380529344081,-0.2868756353855133,0.9567326307296752,0.0,0.0,0.0,0.001925987957604,-0.1268627318435196,-0.1914446722590583,0.670540653,-0.0027316183093053,-0.0250509024841777,0.0067909601072768,1.9468267510738448,1.2504643706273946,0.5012387135951145,0.0219866563210789,0.094792090550477,-0.5815941910369392,0.0020861816363293,0.0004920976254592,0.0012528836388998,-17.61125511049041,23.88796900487536,99.39468630881969,8.031690908282555e-05
1368,1724822194743257954,-2.1449408531188965,0.0571122840046882,0.1692619770765304,0.0241948440670967,0.0420484542846679,-0.2868578135967254,0.9567440152168274,0.0,0.0,0.0,-0.0865393767302988,0.4196630860309242,2.031878801044597,0.680502879,0.0283470189238721,-0.0311394380826522,0.0057746751806974,-1.6657127937914813,1.7790121901325016,1.3011702011595114,0.022273863695943,0.0944806765592051,-0.5815433203964336,0.0019853018732476,-0.0005242836796495,-2.5231826041860472e-05,-11.811725234320305,16.838389402921408,61.63020995027573,-5.642751160046591e-05
1370,1724822194753393438,-2.144881010055542,0.0571268051862716,0.1693206429481506,0.0240350719541311,0.0421553663909435,-0.2866862118244171,0.9567947387695312,0.0,0.0,0.0,-0.2364873360314358,0.1982607381958887,0.9907166614977044,0.690638363,-0.0378812543452085,0.0115386043665946,0.0334319552879471,-61.26769278595812,40.87152117083715,-18.470046116328845,0.0219222836172729,0.0945901040644094,-0.5812004041201005,0.0003202297109794,0.0091087093343462,0.042844038801439,-0.3271220569929411,-54.10351605120674,-238.55203068018608,6.137344368457896e-05
1372,1724822194762780149,-2.1449265480041504,0.057279035449028,0.1700449436903,0.0200416836887598,0.0468618795275688,-0.2878405749797821,0.9563211798667908,0.0,0.0,0.0,-0.1137905868537051,-0.5900310870459982,-2.429285953034684,0.700025074,-1.0887947184370983,0.713889135498413,-0.3242276296659966,-14.702200069750386,9.95017236929858,-7.002946878338817,0.0114138791615378,0.1013410083286587,-0.5841459495587614,-0.0025273125895566,0.0044309910205366,0.0239869770187075,21.277411128961617,-24.474063322439555,-97.0235922294212,0.0007070393654582
1374,1724822194776664049,-2.144913911819458,0.0570985078811645,0.1692859828472137,0.0238280463963747,0.0422356314957141,-0.2866891920566559,0.956795573234558,0.0,0.0,0.0,0.350140584954532,0.2921604062151866,1.7132834274525512,0.713908974,0.7042887280639566,-0.4801915124477837,0.2172005571978139,-36.45478093247553,39.77219710073108,-11.665397895048514,0.0214778685950725,0.0946253659834541,-0.5812263924915967,-0.0002142517983259,-0.0056440030906887,-0.0183736914378442,2.9051792307517346,42.33297741598436,167.596554787237,-0.0007419392482476
1376,1724822194782740019,-2.144918203353882,0.0570837818086147,0.1692708432674408,0.024036455899477,0.042476586997509,-0.2866539359092712,0.9567902684211732,0.0,0.0,0.0,0.286666361613665,0.4929830231534252,2.383861560849952,0.719984944,0.0424502719887246,0.095905031388935,0.0116106238775754,-72.8666671676316,62.22513785558939,-22.200008280297673,0.0217437089786675,0.0952064237021937,-0.581142907608479,0.0024012273267572,-0.0011624512517973,0.0047046089063611,-24.06791863862357,2.9745082217670102,-33.897030011123476,-1.4321194328490952e-05
1378,1724822194793361809,-2.1448349952697754,0.0570948533713817,0.1694544404745102,0.0239508543163537,0.0433426760137081,-0.2866617441177368,0.9567512273788452,0.0,0.0,0.0,-0.2219041646879042,-0.0339190622642231,-0.6549447723529026,0.730606734,-0.0619293947059222,0.151687834185366,-0.0081183792665105,0.959852439990544,-8.55050976204014,-0.6063152241484107,0.0210809268672529,0.0968190961008492,-0.58119485611473,0.0027760345370211,-0.0004680350070853,0.0037614781781307,-45.573425787400865,-53.47517338729092,-210.63256695469687,0.0001876726230877
1380,1724822194803099677,-2.144853115081787,0.0570768117904663,0.1693703383207321,0.0240774173289537,0.0430267304182052,-0.2866906225681305,0.9567536115646362,0.0,0.0,0.0,-0.6451008733573922,-0.5891973448710759,-2.032394875164354,0.740344602,0.0437166326616141,-0.0547954773879027,-0.0028534565105094,8.102605440752262,-15.913498180055605,0.4839915269283479,0.0215028408493705,0.0962862088051998,-0.5812341303446485,-0.0016809108179174,-0.0016847965564583,-0.0076706180965191,6.801362942469577,25.102236335113773,56.64639643007948,-8.365861518390893e-05
1382,1724822194834048563,-2.1448874473571777,0.0570411868393421,0.1692279577255249,0.0243228487670421,0.0425179935991764,-0.2866198122501373,0.956791341304779,0.0,0.0,0.0,4.509076892622886,8.26562717833147,19.206141920254822,0.771293488,0.0243441601737148,-0.0269018636043122,0.0065510578437031,-770.1192052412136,-5443.778839424325,2551.293245082255,0.0222740044813048,0.0954493842248692,-0.5810487806386289,-0.0400799143872063,-0.0655838191462123,-0.1550058042868158,800.9573378094719,884.5467560839134,2318.8728963475587,-0.000141485581259
1384,1724822194834337422,-2.1448991298675537,0.0570220686495304,0.1691827774047851,0.0242329780012369,0.0423006005585193,-0.2865205705165863,0.9568330645561218,0.0,0.0,0.0,4.742151048903769,8.522749877490837,19.880370859324636,0.771582347,-0.2001862900972051,-1.6140654661236635,0.7503926499062675,-740.4554086136849,-5231.183513582299,2451.49338490595,0.0222358874072405,0.0949784541292219,-0.5808416015381702,-0.0387619252375905,-0.0631683674402035,-0.1493933219824181,755.3867909810887,815.9091783669307,2151.663970791884,-4.4399024381219746e-05
1386,1724822194840363308,-2.14492130279541,0.0570206567645072,0.1691645383834839,0.0241227615624666,0.0422587022185325,-0.2865634560585022,0.956824779510498,0.0,0.0,0.0,2.821193022250164,4.109047438576524,9.91138423524637,0.777608233,-0.0303487789479163,-0.0240156471444805,-0.0156176338203624,13.137263133568108,149.33515540417872,-55.90925218299684,0.0220437443745121,0.0948358431532878,-0.5809392492786517,0.012366500358496,0.0083904240346264,0.02703875144757,-811.98115635008,-1156.5846238565084,-2868.360022518195,-1.9539818929356697e-05
1388,1724822194843478757,-2.1448569297790527,0.0570606887340545,0.1692972034215927,0.0242120679467916,0.0426502898335456,-0.2866648137569427,0.9567747712135316,0.0,0.0,0.0,-0.5028954561732547,-0.1773843212824638,-0.980260232873076,0.780723682,-0.0136574572701352,0.2567469007980458,-0.0750994868724671,5.742682167928077,57.47893192242197,-12.351928959078364,0.021980531476185,0.0956406782566263,-0.581156524334671,0.0120332945675869,0.0086827942113769,0.0267212917585304,-802.571653523197,-1043.7634062476411,-2642.948501049874,0.00013355334742
1390,1724822194853054730,-2.14499568939209,0.0570211932063102,0.169086217880249,0.0242435839027166,0.0418739058077335,-0.2866702973842621,0.9568066596984864,0.0,0.0,0.0,-0.4060928160897119,-0.397500384131953,-1.1802548471782737,0.790299655,0.0526687879786359,-0.1535683018566419,0.0050202183667433,1.7163699596230708,-14.857445010552404,4.068379569315512,0.0224863509998022,0.0941694134894213,-0.5811411244008142,-0.0044364866180757,-0.0009991298000908,-0.0085191075478565,74.43897530711877,28.249436854713164,94.21993264998991,-0.000216407251118
1392,1724822194863263803,-2.1449315547943115,0.0570450089871883,0.169146329164505,0.0243085324764251,0.0418512970209121,-0.2866743803024292,0.9568048119544984,0.0,0.0,0.0,1.0540304483736107,0.4485513019625129,1.0344492679151762,0.800508728,0.0134860940206732,-0.0005945737032456,-0.000228911701141,-4.133047028207196,9.41842054095088,0.0460278713856836,0.0226237994117713,0.0941634038813833,-0.5811436448172903,0.0057172723055032,0.0016208069656242,0.0066398147507058,48.837264614857474,35.461797299275666,93.37766317059024,6.239285136756238e-05
1394,1724822194877250327,-2.144862413406372,0.0570540353655815,0.1692536026239395,0.0240265019237995,0.0421134419739246,-0.2865809500217438,0.9568283557891846,0.0,0.0,0.0,-0.0676447815404626,0.036069967450055,-0.0270841727318731,0.814495252,-0.0499739501140425,0.0244887767061375,0.0111490535932884,-19.741902469241055,-14.213645486397429,102.48766559606813,0.021940306795705,0.0945023454887055,-0.5809793158942674,0.0215986282943276,0.0115720456321728,0.0124777726381388,-133.61601064044234,-75.81238641313885,-69.74382401980063,0.0001107562027239
1396,1724822194883347323,-2.144686460494995,0.0571536310017108,0.1693424582481384,0.0234365314245224,0.0419255755841732,-0.2839170098304748,0.9576451778411864,0.0,0.0,0.0,-1.02427840834368,-0.5492698494103931,-0.4359584245272614,0.820592248,-0.2107512098109146,-0.104715246308545,0.906245382670784,-15.663628258801856,-5.997457788222642,60.09751623384231,0.0211755485052756,0.0937449570389503,-0.5754446035138197,0.0179885471238918,0.009996840167076,0.0111312945245076,-89.12571918022488,-58.21777640836546,-33.65836602397578,9.339132978816196e-05
1398,1724822194893356585,-2.1446850299835205,0.0571495406329631,0.1693973094224929,0.0226562693715095,0.0425950698554515,-0.2834691703319549,0.9577670097351074,0.0,0.0,0.0,-0.8026594935702411,-0.5110765006073893,-0.223974844247817,0.83060151,-0.1916077828466054,0.0849205912902278,0.0829347706198556,6.047605494845715,6.065142692896047,-47.90869795294464,0.0193376996092012,0.0945779498648722,-0.5745936071409775,0.0006348912148439,-0.0002811907243032,0.0032329117721694,3.930603885083407,39.12309432660389,113.049784361005,5.497046500273425e-05
1400,1724822194905792685,-2.144669532775879,0.0571480132639408,0.1694027930498123,0.0222801081836223,0.0424547493457794,-0.2833544909954071,0.9578160047531128,0.0,0.0,0.0,-1.0351592004155037,0.5210074684212284,2.601454955550921,0.84303761,-0.0525073063614548,-0.0386798425662328,0.0178321482681339,21.292628426181818,15.643797358784138,-15.553331748026402,0.0187048265782003,0.0940927938161259,-0.5743800920476568,0.005039691408001,0.0013324374582026,0.0091795976526878,-57.459695912618386,9.76631759168672,-6.915731147329097,6.625031187570219e-06
1402,1724822194912979538,-2.1446175575256348,0.0571636334061622,0.1695050597190857,0.0229329671710729,0.0429401285946369,-0.2838325500488281,0.9576374292373656,0.0,0.0,0.0,-1.6091127290655218,0.2870726082062497,1.5794171168586906,0.850224463,0.142498797769374,0.1800022096858149,-0.1368026101151299,-30.820553156587156,42.03724031587603,-45.41640213144084,0.0196378849680789,0.0954050594363486,-0.5753426434833393,-0.0081702491931991,0.0067018364854098,0.0366944730151601,42.89586867893645,-40.495007567429155,-201.5219982161309,0.0001043130677667
1404,1724822194922755173,-2.144902229309082,0.0572893619537353,0.170162484049797,0.0194274242967367,0.0478177033364772,-0.2877523899078369,0.9563130736351012,0.0,0.0,0.0,0.4425182892839377,-0.2144307972165143,-1.1792639019226123,0.860000098,-0.929405345458416,0.7453092109974372,-0.8985741216018386,-39.22045472407888,12.228050272424976,-27.6938578386747,0.0096894055602863,0.1028190324193893,-0.5840617892923124,-0.0208559172681788,0.0033910170115651,0.0222283776143421,119.63597991034273,-21.103579327423414,-105.63769994683372,0.0006229373758844
1406,1724822194940169021,-2.1450090408325195,0.0570546388626098,0.169152945280075,0.0231235567480325,0.0425534099340438,-0.2865848243236542,0.9568299651145936,0.0,0.0,0.0,-0.273294530932942,0.3548158308967351,2.4581641080785666,0.877413946,0.5723721279718988,-0.456277719817828,0.1773654183299781,23.20753312761849,102.77588903502782,15.479298533867464,0.0199512567633108,0.0948285359915416,-0.5810766140797025,0.0408313888773363,0.0035112096986242,0.0110158949497076,-367.1260208457531,-42.360484365700934,-102.08891772545724,-0.0009959737319592
1408,1724822194943414625,-2.144848108291626,0.0570763126015663,0.169230431318283,0.0240750852972269,0.042233221232891,-0.2863175570964813,0.956900715827942,0.0,0.0,0.0,-1.6620555305145135,0.171931524136948,1.938712483689055,0.88065955,0.6095648829534508,-0.0187965117482738,0.1995930855561896,-7.893977936419397,104.00840437006208,-0.9088978007853656,0.0219911195151634,0.0947539633055038,-0.5804273444260446,0.0376361847417143,0.0048732605417307,0.0208706055611695,-324.7516987745301,-53.503429609957465,-192.15955262398091,8.638589999844855e-05
1410,1724822194952951943,-2.1448240280151367,0.057072214782238,0.1693453043699264,0.0241834949702024,0.0427512601017952,-0.2864240407943725,0.956843078136444,0.0,0.0,0.0,-1.86879343191992,-0.2586177813152883,-0.7939310588890371,0.890196868,-0.0081158136580657,0.1104339770321166,-0.0264834096998968,-32.77434020751397,1.3140189626493255,-11.593454305580291,0.0218917895857911,0.0958124896868639,-0.5806577692338951,0.0027948384169604,-0.0004297519991394,0.0085993088550502,79.47454536092839,-8.042125242417688,-117.51056178159328,0.0001162452596896
1412,1724822194962589228,-2.144794464111328,0.0570680722594261,0.1693946272134781,0.0241273995488882,0.0427889637649059,-0.2865145206451416,0.9568158388137816,0.0,0.0,0.0,-0.1178331063846458,0.0251836964923004,-0.2805378263456329,0.899834153,-0.01244061610376,0.0039400740306311,-0.020272716243011,-2.6528000451884903,-3.8749575256970568,1.3936431621022227,0.0217532040150801,0.0958547373673948,-0.5808532902165197,0.0021614377891694,-2.5858766221631413e-05,0.0057463224919027,191.04217049542208,66.27998543475452,327.3905485604032,5.138966414778274e-05
1414,1724822194973588397,-2.144782066345215,0.0570728592574596,0.1694657206535339,0.0238448288291692,0.0431679785251617,-0.2864678800106048,0.9568198323249816,0.0,0.0,0.0,2.1009240255909103,1.216575492682642,6.761640582401098,0.910833322,-0.0692876761918583,0.0513931826062447,0.0044612730219127,-2.6942491596866165,2.1716332400950376,1.6628877613633868,0.0209969919313717,0.0964188360779681,-0.5807918330800936,0.0002112191592544,4.117421966032264e-05,0.0028551999379193,-2476.971155578236,-1187.617343300139,-8460.197419507336,7.126558873183178e-05
1416,1724822195002894015,-2.1448473930358887,0.0570432990789413,0.1692676544189453,0.0242600943893194,0.0422440394759178,-0.2864099442958832,0.9568679928779602,0.0,0.0,0.0,-279.6414916914024,-134.77428806607975,-951.735744762948,0.94013894,0.0449308959461717,-0.0522616849803008,0.0074516657944658,-7420.187779027397,9655.56646836158,-2161.6686331649803,0.0223314845302674,0.0948829071252005,-0.580605855234479,0.2396651519047736,0.1302084916828931,0.7494840546726209,-16191.647514186916,-9076.80597456175,-49213.24390681205,-0.0001994119054147
1418,1724822195003449431,-2.14471173286438,0.0571170002222061,0.1696918904781341,0.023572290316224,0.0440207980573177,-0.2866473197937011,0.9567340016365052,0.0,0.0,0.0,-288.7038323406513,-139.86239097867195,-979.2433221002008,0.940694356,-4.154510093971481,5.412271416962478,-1.2159296580006227,4714.95581721734,-5260.384629187014,696.9165668538297,0.0199648599989701,0.0979025792903232,-0.5812203335535322,0.0813181225666994,0.0538872320147589,0.2105881159885996,-1778.1916252654628,-2127.9229528915894,-190.33107171673328,0.0004265298298433
1420,1724822195003856434,-2.1447272300720215,0.0571154281497001,0.1696126013994217,0.0237774048000574,0.0436980910599231,-0.2866791188716888,0.9567341804504396,0.0,0.0,0.0,-285.09160343831377,-138.63089811322084,-964.6065228322692,0.941101359,1.4257325008899175,-1.2319648187452468,-0.0674970764115838,13417.04999022764,-15975.817826753351,2761.674923766819,0.0205414515478734,0.0974018229343534,-0.581258121896492,-0.0372611501130224,-0.0037677694501295,-0.1906471756422,9010.574243983669,3118.82380511083,36295.1992495076,-7.987022737039723e-05
1422,1724822195022566808,-2.1447231769561768,0.0571264624595642,0.1696278601884842,0.0237884260714054,0.0438262075185775,-0.2867541909217834,0.9567055106163024,0.0,0.0,0.0,-0.0513606383769063,-0.2278480421012396,0.7544307048684566,0.959811733,-0.002375333270883,0.013383031459483,-0.0088301503209598,-22.70449374907881,16.024960892645367,10.300052147117082,0.0204813480460935,0.0976555533394552,-0.5814188914905425,0.0094211091361557,0.0056317671112005,0.0152836131857441,1876.5694991932385,944.0171004003746,6388.356203632894,1.4687898401355547e-05
1424,1724822195025487256,-2.144691467285156,0.057145208120346,0.1696790903806686,0.0237437486648559,0.0438957773149013,-0.2867158353328705,0.9567149877548218,0.0,0.0,0.0,-0.6600010231172939,-0.4125091827202947,-1.1958767972717896,0.962732181,-0.0442390879150102,0.0371473458864537,0.0245165229559469,-9.79029501218229,2.724145968140547,8.447507369258718,0.0203593864073967,0.0977625671164146,-0.5813448029587622,0.008110372209245,0.0046334829064511,0.0128136623433112,-165.6277678350307,-46.74906237811111,-513.7898846658171,5.188310192976175e-05
1426,1724822195033404089,-2.144686222076416,0.0571435764431953,0.1696790605783462,0.0235916189849376,0.0437030680477619,-0.286612331867218,0.9567584991455078,0.0,0.0,0.0,-1.053166272641501,-0.4289045027456947,-1.9579899561657503,0.970649014,-0.0242188852436411,-0.0574568740934746,0.027636432763701,4.160340674447364,-6.776661963422432,-0.9237312471563522,0.0201881469511052,0.0973033324370202,-0.5811341843219365,-0.0016470747780203,-0.000149233807841,-0.0041681595832798,12.40870639135952,12.020240738415804,20.069573658002447,4.525859468145974e-07
1428,1724822195043611280,-2.144733428955078,0.0571428015828132,0.1695817112922668,0.0237001068890094,0.0433589778840541,-0.286624014377594,0.956768035888672,0.0,0.0,0.0,-0.1096489787026376,-0.1207694329486618,-0.2221562618644273,0.980856205,0.0397176427487028,-0.0585488430075298,0.0008650578588804,10.572625148476614,-6.665839240063623,-1.1343976437581116,0.0205932283022117,0.096705668989373,-0.5811376228813903,-0.0100369670496149,-0.0022212816416917,-0.0216922982787757,89.69755294598163,25.185669641834043,180.1743394729881,-0.0001000948425934
1430,1724822195052996641,-2.144874334335327,0.0571034401655197,0.1692732274532318,0.0242524687200784,0.0423238165676593,-0.2866656482219696,0.9567880034446716,0.0,0.0,0.0,0.7085584044775384,0.0724382280179474,1.5561296978549055,0.990241566,0.1761288039897961,-0.1777111383325427,0.0030627543919494,-8.709858006976804,6.4861922391735725,0.4679840266963621,0.0222455870391807,0.0950375399410172,-0.5811445666965425,-0.0049190403625232,-0.0026451312974895,-0.0108786209672402,14.991458253432372,9.87187170323429,34.49819327332615,-0.0003136865804199
1432,1724822195062631752,-2.144821882247925,0.0570932738482952,0.1693859249353408,0.0237226374447345,0.0428563803434371,-0.2865832448005676,0.9568023681640624,0.0,0.0,0.0,0.1389581443564642,0.0615752798377982,0.3555750539702129,0.999876677,-0.1377129864516089,0.0745308948470031,0.0098846829295301,-9.572552599732802,15.169860593222737,-1.720838456817126,0.0209293054239647,0.0957534489785274,-0.5810334500525006,0.0035227760129856,-0.0007839501176269,0.0081104777810576,-48.79208952410536,-3.754677753266571,-105.21241320742372,0.0001164563059505
1434,1724822195073441996,-2.1448071002960205,0.0570880882441997,0.1694301068782806,0.0240717362612485,0.0433457233011722,-0.2867758870124817,0.9567137956619264,0.0,0.0,0.0,-0.2632667358316366,-0.0108787598434151,-0.5466256305270565,1.010686921,0.0377675477030056,0.1049886178124564,-0.0381769946255537,9.989206355539046,-9.93938089538496,-0.0467603779079521,0.0213000255975644,0.0968968461967816,-0.5814238176866136,-0.0039162492118833,-0.0017143374554855,-0.007636528132429,-8.344132658675099,18.019961554873497,83.77168329624304,4.5354397352894017e-05
1436,1724822195084183985,-2.1449055671691895,0.0570564940571785,0.1692229360342025,0.024264171719551,0.0425149910151958,-0.2867693603038788,0.9567482471466064,0.0,0.0,0.0,-0.0448042806277561,0.4465815014000545,2.1382854441256303,1.02142891,0.0784263387264915,-0.1379490156920006,0.0082782564493941,-3.6242163494925737,0.2150296275783545,0.782592064257152,0.0221479543474603,0.095413431960114,-0.5813669237654514,-0.0022090271708066,-0.0010286430025918,-0.0037943637406936,7.493499126854774,3.199335388925838,13.427501713378623,-0.0002105808723966
1438,1724822195093317536,-2.144871711730957,0.0570619516074657,0.1693085879087448,0.024262560531497,0.0427128486335277,-0.2868151664733886,0.9567256569862366,0.0,0.0,0.0,-0.0761059127313715,0.1699265237907569,0.4241397030405379,1.030562461,-0.0122154950623775,0.0413173062390376,-0.0120812790333814,-51.21206672672959,32.94060777228239,-13.720732015205524,0.0220266000100686,0.0957931346300283,-0.5814692829569034,-0.0042004380313329,0.0060226370242726,0.0295638908507189,23.94116884253415,-30.568744151355784,-159.9184054459529,8.71472013095444e-05
1440,1724822195103369612,-2.1450014114379883,0.0571825094521045,0.1698290854692459,0.0202213674783706,0.0466632023453712,-0.287868469953537,0.956318736076355,0.0,0.0,0.0,0.467327014468491,-0.1404368965697659,-0.8762938522901726,1.040614537,-0.983771292801893,0.5197243243669042,-0.2771348158910696,42.33759047847389,-28.71826932875666,11.807050996060088,0.0118712677456584,0.1010639328983123,-0.5841793253776666,-0.0033953305066916,0.0010698120989296,-0.0018854172941047,22.673690604875254,23.61291048358555,153.4255273872702,0.0004998379036647
1442,1724822195113380436,-2.1449406147003174,0.0570843145251274,0.1692751795053482,0.0234639663249254,0.0429201945662498,-0.2870501577854156,0.9566658735275269,0.0,0.0,0.0,0.3813784021174177,0.6391836936319054,3.4790168578524616,1.050625361,0.8257556606112298,-0.5285714050880465,0.2216592694355262,11.79845205045661,3.589038988953636,1.6000394433204177,0.0203484343615934,0.0957374236708236,-0.5820354622701258,0.0051436143814811,0.0031760607635007,0.0117974488122083,-40.73194522890454,51.84638102824713,279.22134656549326,-0.0005402536417691
1444,1724822195123762092,-2.144897222518921,0.0572570860385894,0.1701203733682632,0.0200820192694664,0.0476018041372299,-0.2881640493869781,0.956186294555664,0.0,0.0,0.0,-0.3875817618744501,0.897175264821125,4.700001112250831,1.061007017,-0.8708030454800931,0.6747276121648819,-0.280935576466904,-141.52227765018688,100.33697858131193,-41.88361493926737,0.0110284759933658,0.1027871160777502,-0.5848556074736017,0.0040256793442163,0.0144282584853887,0.0706559292143929,-222.02499016277136,-143.40174392128412,-1214.4718416787218,0.0008327546998179
1446,1724822195197276741,-2.144681453704834,0.0571653619408607,0.1697151809930801,0.0239357333630323,0.0443621501326561,-0.2870671153068542,0.9565832614898682,0.0,0.0,0.0,-93.73141194272466,-97.23254039785274,-778.0264004862136,1.134521666,0.1240088210750735,-0.0539777749822567,0.0384077864619222,-2854.6426678465677,-565.3130139482954,913.3518881008991,0.0204241812446316,0.098775042644662,-0.5820807516575756,-0.1701744693409637,-0.0167959314536858,-0.0885035448719691,-672363.2944968215,713174.0097415433,3381710.9739248883,-0.0003812491251204
1448,1724822195197614213,-2.144739151000977,0.0571596696972847,0.1696851849555969,0.0237902458757162,0.044361975044012,-0.2870056331157684,0.9566054344177246,0.0,0.0,0.0,-321.67484172202865,144.55062111430107,368.4617353922936,1.134859138,-0.8437964655515087,-0.2456155034215615,0.3480466908686867,3783.337787901976,-5384.8153285079325,1615.5253462603443,0.0201508925524792,0.0986898051269851,-0.581964526901563,-0.2019477321964586,-0.0497591639476127,-0.3522676184837507,233125.77042715007,247418.56944330063,1659789.4140901254,-3.354906706509956e-05
1450,1724822195198000807,-2.1448309421539307,0.0571258664131164,0.1694323569536209,0.0242128446698188,0.043333500623703,-0.2868195176124573,0.9566977620124816,0.0,0.0,0.0,170.82495617061147,32.48125015360166,240.64896792301124,1.135245732,3.56438696755448,-4.460618043948426,1.2817199344926131,-42146.422971215114,19559.479586340574,-13566.527694569457,0.0215739486612571,0.0969553900048304,-0.5815028664819539,-0.4270679839369222,0.1133976232898561,0.2994955714076184,1715589.4161506244,-762694.7331394766,-2431772.7081991276,-0.0002555115555607
1452,1724822195198353905,-2.145042896270752,0.0572306774556636,0.1698456108570099,0.0199390072375535,0.046889878809452,-0.2880068719387054,0.9562718868255616,0.0,0.0,0.0,919.0280830553776,-389.3065612467119,-1295.6381867350444,1.13559883,-28.587222318741947,12.270046827275038,-8.662744688151482,28355.09039605415,-11771.102990269628,7461.71767621853,0.0111826109100168,0.1013374426533681,-0.584505046414409,-0.1238585776159197,-0.0007665325662458,-0.0816349621327106,322453.82728041837,-32870.321897288355,36740.59757896589,0.0003877068528509
1454,1724822195198717430,-2.144909620285034,0.0571190193295478,0.1693473607301712,0.0238516479730606,0.0430206842720508,-0.2869954705238342,0.9566681981086732,0.0,0.0,0.0,363.88512853094664,33.50865810793783,359.82856413253523,1.135962355,26.4112587081464,-14.147864325297885,7.382855430011015,37639.47708132698,-16268.743551585034,12602.6799166732,0.0210414795894813,0.0961517588127337,-0.5818916828542424,0.2328050865362456,-0.1669847836114115,-0.633564772510141,-1417636.7402068302,1005642.4496749776,3565730.6035696333,-0.0004788403114079
1456,1724822195199080486,-2.14487361907959,0.0571092180907726,0.1693845838308334,0.0236797183752059,0.0431462973356246,-0.2868939638137817,0.9566972851753236,0.0,0.0,0.0,-111.1024577111888,341.5217335627366,1296.0802523513214,1.136325411,-1.132555977394334,0.3966152007352229,0.5236849976963087,-40367.94122825803,24196.4713175209,-11068.14773957454,0.0206489361578006,0.0962917631494742,-0.5816977273305591,0.1411120409902651,0.023120196244065,0.178049113939295,-562919.3003661782,232804.72706643175,255710.1631861684,4.0212453903111265e-05
1458,1724822195199531963,-2.1447863578796387,0.0571477934718132,0.1695073693990707,0.02395885810256,0.0436309352517128,-0.2869039177894592,0.956665337085724,0.0,0.0,0.0,53.235663036460394,101.0180670787977,107.2646479991818,1.136776888,0.5723371314236266,2.4137575818286914,-0.0802738534241123,3385.6480551576137,3935.441918057182,-1195.6857311748788,0.0209060114696844,0.097382030824049,-0.5817113495802763,0.170370131115952,0.0750710271803007,0.2357752475022625,324375.39927722723,-481001.27365011966,-2366743.444545944,0.0001255279658718
1460,1724822195203475653,-2.1449036598205566,0.0570865646004676,0.1691905409097671,0.0246203001588583,0.0425924807786941,-0.2867786288261413,0.9567328691482544,0.0,0.0,0.0,-32.572691070303,-14.817368939303927,-48.45793243565971,1.140720578,0.4684094737448994,-0.4075511958037444,0.0978648628761933,-37.09249419570932,-483.3213918979885,28.35572091749378,0.0227872514585866,0.0957667210699538,-0.5813589242377737,-0.0182402425536309,-0.0105647123143275,-0.0507062452277855,-14131.913771325588,-20062.23256636156,-25951.084725079098,-0.0003188181725488
1462,1724822195212684225,-2.144824266433716,0.0570959523320198,0.1693607568740844,0.0243354514241218,0.0433112159371376,-0.2867545187473297,0.9567151069641112,0.0,0.0,0.0,1.2782183665444615,0.625584700223791,3.610466981826366,1.14992915,-0.1040838097912555,0.1318986599852147,-0.0025747313549754,-33.467051748868286,34.75785394702481,-6.96738675942841,0.0218291152654533,0.096981544380951,-0.5813555090165052,0.0097876950262332,0.0012942316164545,0.0230963588674386,1872.96819047862,859.3233710891755,2784.1432105233357,0.0001741769405218
1464,1724822195223172635,-2.144707679748535,0.0571128092706203,0.1696580946445465,0.0240845195949077,0.0445465072989463,-0.2868452072143554,0.9566376209259032,0.0,0.0,0.0,-0.6168230264579124,-0.1297774117268667,-1.4760278336928423,1.16041756,-0.1122157059646292,0.2118557800789416,-0.0285862268155864,7.143814741611017,-9.745614537387226,-1.5620516868364087,0.020627295349203,0.0992094525769427,-0.5816093971283711,0.0021037609487422,-5.547372922798388e-05,0.0083526381091623,-63.10965569607701,-30.109269642832334,-192.53220180990144,0.0003029309506037
1466,1724822195233074849,-2.144771099090576,0.0570967160165309,0.1695538610219955,0.0241641141474246,0.0442817546427249,-0.2870259582996368,0.9565935730934144,0.0,0.0,0.0,-0.1426130432303644,-0.0361233721053504,-0.6486479779173061,1.170319774,0.0325581479691855,-0.0470262834625461,-0.0354720869473657,8.102325540292012,-13.625883023650871,2.507636060650525,0.0209138545278292,0.0987511617228056,-0.5819718966834809,-0.0029216678163095,-0.0013507663127958,-0.0069206397152568,-53.884935788787566,-21.178782094040656,-99.28623162737637,-0.0001070431526197
1468,1724822195243682011,-2.1447625160217285,0.0570855066180229,0.1695214211940765,0.0243209563195705,0.0439603291451931,-0.2869030833244324,0.9566413164138794,0.0,0.0,0.0,-1.8705681397410636,-0.6088730661712464,-3.7792897194298254,1.180926936,0.0444410825000224,-0.0493253112342879,0.0275204984858796,0.6735304174253677,-0.158099318011203,4.210085194547381,0.0214129921950642,0.0982219061774141,-0.581689787636462,-0.0002883705969587,-0.0006580936806134,-0.0036457608164064,13416.646522532325,4111.788151077365,26709.613557011937,-3.086958299490833e-05
1470,1724822195275884448,-2.144879102706909,0.0571032911539077,0.1693465858697891,0.0244377553462982,0.0431090183556079,-0.2870287895202636,0.9566393494606018,0.0,0.0,0.0,1757.7672828717032,539.0638541941314,3496.4243222497307,1.213129373,0.0224549706603308,-0.0486832658356302,-0.0058989851876628,586.1799412968505,-10420.698881741797,1371.5909737704812,0.0221141970136329,0.0966586870302763,-0.5819148640034637,-0.2676696711705517,-0.0861752718209913,-0.525009824950871,-134543.01536353026,-39534.88207303593,-268492.94709290005,-0.000183228791141
1472,1724822195276274379,-2.144984722137451,0.0570692792534828,0.169139415025711,0.0242567174136638,0.0423161312937736,-0.2869507968425751,0.9567027688026428,0.0,0.0,0.0,1704.4115345905695,523.3821835308662,3389.9496840511647,1.213519304,0.2537956168778185,-4.16123899507258,0.5354078229132017,-16080.801857179416,30730.03604129263,-1845.904641006507,0.0222297683942784,0.0950318638197938,-0.5817413357483951,0.4260769151442218,0.1265802043798061,0.8549394763814462,-323244.4282258628,-97412.68525025982,-643837.933731161,-0.0002108619868209
1474,1724822195276552851,-2.1447274684906006,0.0571470484137535,0.1696531772613525,0.0237522032111883,0.0442984960973262,-0.286946028470993,0.9566271305084229,0.0,0.0,0.0,1577.325019741066,484.880720340127,3136.921255830543,1.213797776,-7.540279358284794,12.605070017439028,-0.621802598358724,-26786.607024714544,57645.70672291176,-3980.383647266154,0.0201204165429839,0.0985449062957407,-0.5818406064389506,0.8858439266685405,0.2679043165627849,1.7693119161032749,-448135.23473688634,-135808.3774445343,-892213.3514041565,0.0005239516108278
1476,1724822195283027226,-2.1447062492370605,0.0571705661714077,0.1697253286838531,0.0237863678485155,0.044608823955059,-0.2870037257671356,0.9565945267677308,0.0,0.0,0.0,-84.38254444054549,-25.39928540462865,-168.23080873454504,1.220272151,-0.0163828055084223,0.0947567336868917,-0.0217496950786791,717.2017009943696,-1192.5656933893438,57.621493596011746,0.0200016048793622,0.0991610934181198,-0.5819696910242332,0.002705299715302,0.0026247523160778,0.0096657828303072,-155222.192291345,-47686.86059312443,-308732.649286564,7.163143081083807e-05
1478,1724822195293449545,-2.14468765258789,0.0571810156106948,0.169801265001297,0.0238687042146921,0.0449983403086662,-0.2870398759841919,0.9565634727478028,0.0,0.0,0.0,-0.2850356517834669,-0.1446941441760959,-0.8034086691117686,1.23069447,-0.0058871440193367,0.0761376535785063,-0.0094193950507398,3.313116448356745,-8.947552088317236,1.3976663042902775,0.0199320287682627,0.0999564429866888,-0.5820525024527133,-0.0039385620215171,-0.0007915745801847,-0.0062733718842569,4434.698065940711,1329.4828411899614,8823.13788769284,7.614129396387463e-05
1480,1724822195305944810,-2.144822597503662,0.057144246995449,0.1695197522640228,0.0240341983735561,0.0440167486667633,-0.287013441324234,0.9566128849983216,0.0,0.0,0.0,0.6842610605601118,0.084215960607514,0.9675379077353596,1.243189735,0.0700573678532474,-0.142941153332423,0.0112596250549411,-11.749698309273551,4.61652545453757,2.5018812356725566,0.0208177762218873,0.0981678506066963,-0.581947665382407,-0.0022205895235458,0.0001432956710649,-0.0054375197608749,10.842306531571786,1.2683667047662297,31.91426275040498,-0.0002869794224277
1482,1724822195312882803,-2.1448049545288086,0.0571571290493011,0.1695478707551956,0.0237476509064435,0.0440089777112007,-0.2868975400924682,0.956655204296112,0.0,0.0,0.0,0.5024165197490854,0.0273285200252335,0.7659158476764862,1.250127728,-0.0801394110060577,-0.0255849020191421,0.0318803146195449,-8.103401491406725,12.131676039726512,0.922153955011801,0.0202831705887398,0.0979858424860486,-0.5817291656778465,0.0046331459327575,0.0007637895082188,0.0047448210063123,-50.44705058629894,-8.29751618724493,-65.56449354810226,2.8312420874657543e-05
1484,1724822195322956708,-2.1447277069091797,0.0571488365530967,0.1696057915687561,0.0239638350903987,0.0440835766494274,-0.2868485152721405,0.9566611051559448,0.0,0.0,0.0,-0.360303527440418,-0.0576949088697178,-0.4285255545647831,1.260201633,0.0363540869230047,0.0266614995045537,0.0111843991117313,4.950323837616024,1.098601305560157,-3.0705078743383,0.0206610288262647,0.0982520699515344,-0.5816104763668793,0.0025938167008803,0.0001306609058575,0.0021965949333235,-35.32636980314257,-5.49778117282101,-52.63251780783475,6.367264082496146e-05
1486,1724822195333036707,-2.144752740859986,0.057159774005413,0.1695920974016189,0.024046367034316,0.0440420918166637,-0.2869979739189148,0.9566160440444946,0.0,0.0,0.0,-0.2089343490352315,-0.0834373637339662,-0.2940310004297481,1.270281632,0.0195483098992272,-0.0034936328440783,-0.0300147942767445,-0.8190730484853164,-2.929754293515712,0.2079069640754181,0.0208281895698181,0.0982231235714615,-0.5819150816853278,-0.0026303014316084,-0.0003989253169347,-0.0038937824055516,17.792184964843692,-2.3062965109345437,13.314167413598632,-1.616879306528628e-05
1488,1724822195343571433,-2.144782066345215,0.0571392327547073,0.1695231646299362,0.0241020489484071,0.0438393093645572,-0.2869088649749756,0.956650733947754,0.0,0.0,0.0,0.0090585046294755,-0.1050083928416112,-0.1540842030843253,1.280816358,0.0202578889753204,-0.0336770828477461,0.0194646745696888,-0.9590400191785492,0.7512303974014203,1.7868054650992038,0.0210610365560487,0.0978641370077816,-0.581716598615321,-0.0014256392900335,-0.0016181125095924,-0.0035763223052871,-6.187409887834516,1.7635878726149985,-17.735674549000628,-6.917792315949383e-05
1490,1724822195353073262,-2.1447839736938477,0.0571267008781433,0.1695146113634109,0.0241211913526058,0.043855033814907,-0.2868565618991852,0.9566652178764344,0.0,0.0,0.0,-0.280101995869784,-0.0555883226555257,-0.588453343888388,1.290318187,0.0023488294191947,0.0044540010754181,0.0115033730218302,2.219234668366549,-3.4399331481198288,-0.1613442729448332,0.0210941733745592,0.0979041455480382,-0.5816059005344104,-0.0022419497553443,-0.0025239952104123,-0.0066191971194342,-1.877008198729781,10.758290174405856,14.22309239966684,-7.75038853191774e-06
1492,1724822195362736335,-2.1448256969451904,0.0570904687047004,0.1693944483995437,0.0242796875536441,0.0432926304638385,-0.2868052721023559,0.9567021131515504,0.0,0.0,0.0,-0.0176273682511086,0.10298051351487,0.1379930529712636,1.29998126,0.0641240360331743,-0.1020269476624083,0.0165925501200525,3.6692714562382056,-7.473354234578917,-0.6729697596880179,0.0217274066536538,0.096915028423665,-0.5814659528358677,-0.0068569222568442,-0.0026705297970597,-0.0149412021517791,37.12302762297401,11.24661980125369,75.52715685212482,-0.0001198629858469
1494,1724822195373552327,-2.144930601119995,0.0570746473968029,0.1692025065422058,0.0244279261678457,0.0424594618380069,-0.2868671119213104,0.9567172527313232,0.0,0.0,0.0,0.5044800462255203,0.1621163127242827,0.9591263766381108,1.310797252,0.0708371407929074,-0.1399289963560586,-0.0052095934824384,-7.156606613346569,12.449197091274574,-0.1766770679764984,0.0224849250987552,0.0954031937546457,-0.5815562776227339,-0.0014790751085627,-0.0001263759327718,-0.0013517631060242,7.659113709208157,-1.602926277203495,1.2452906121758025,-0.0001969483206248
1496,1724822195383417151,-2.144871234893799,0.0570854246616363,0.1693366765975952,0.0242797248065471,0.0431535243988037,-0.2867919206619262,0.9567124843597412,0.0,0.0,0.0,0.2146312186200824,0.0826894925757718,0.2995539610723213,1.320662076,-0.0697359872858456,0.1264182227507679,0.0095940540019316,-1.9632772750753948,4.085244544026301,0.4951830661540539,0.0218087645880996,0.0966478802631959,-0.5814334436977843,0.0035629194673418,0.0008151234691702,0.0054350004813894,-31.015269220387765,-5.385057509800039,-50.67975083218846,0.0001368198819432
1498,1724822195393253369,-2.14486026763916,0.0570907220244407,0.1693100482225418,0.0243467092514038,0.0428350567817688,-0.2867838442325592,0.9567274451255798,0.0,0.0,0.0,-0.1064597715046019,0.0558727361306379,-0.0402419448440695,1.330498294,0.0314566075174781,-0.0581363413819917,0.0046034702668777,1.0547299320942969,-2.4718009544326893,-1.0857715092064055,0.0221213375162456,0.0960751690715214,-0.5814005074077324,0.0027663210041737,0.0015034216612486,0.0045719522520659,-14.712062454923425,-5.136343194574432,-14.30108161749587,-2.6130266840008693e-05
1500,1724822195403079560,-2.1448168754577637,0.0571149662137031,0.1694264262914657,0.0242239776998758,0.0432694777846336,-0.2868194878101349,0.9567003846168518,0.0,0.0,0.0,-0.0750027892714094,-0.0182550822693238,0.0179544728983683,1.340324485,-0.0488123912794003,0.0774901291114535,-0.011743236103817,-2.1815906654229247,2.133391678685511,0.2887539029104302,0.0216321493873212,0.0968389546634821,-0.5814997371831624,0.0014701744834866,0.0019139987395822,0.0046427948247913,7.799497303347541,-7.610288435114761,9.00505026393881,0.0001170697704596
1502,1724822195414064806,-2.144836902618408,0.0571291968226432,0.1693889945745468,0.0241648200899362,0.0430435240268707,-0.2867443263530731,0.956734538078308,0.0,0.0,0.0,0.0671466555031281,-0.1026712702933334,0.1547330191336446,1.351309731,0.0007523369440828,-0.0423831556111422,0.0154055090075057,-0.1128176372611715,5.26620557949974,-1.2381731200595618,0.021655830699571,0.0963697996284544,-0.5813398057176902,0.0013450959654903,0.0009761217210244,0.0049719875224241,-7.481970436538138,-4.5336936991871575,-20.607114444449508,-3.963052922899847e-05
1504,1724822195422740727,-2.144803524017334,0.0571354776620864,0.1694895476102829,0.0241704881191253,0.0435591973364353,-0.2868125140666961,0.9566906690597534,0.0,0.0,0.0,-0.1376991964608414,-0.1204156726009903,-0.2505697619587081,1.359985652,-0.0319155672465787,0.1141615453066743,-0.0207548947642859,-1.4210722879446582,7.146433986924294,-1.4794797586720143,0.021363512619913,0.0973639099289815,-0.5814993330785078,0.002465766117254,-3.3153993306944685e-05,0.0071693450345424,-12.238694004450725,3.5203325342526277,-31.337660931537545,0.0001019257221027
1506,1724822195435228354,-2.1447975635528564,0.057121455669403,0.1694996207952499,0.0241415090858936,0.0436163321137428,-0.2867550253868103,0.9567060470581056,0.0,0.0,0.0,-0.0861285769427703,0.023580542557286,-0.3654960276372659,1.372473279,-0.0075253359648829,0.0075384114438701,0.0090915923591824,-1.421773431705751,-7.730220134088761,-0.0029370496812562,0.0212808275828004,0.0974556078852351,-0.581383286480521,-0.0040504745863358,-0.0016102837277056,-0.0050156968558585,5.590889477033081,2.933510410317216,-3.725678971528364,1.1436493767283574e-05
1508,1724822195443367014,-2.1448545455932617,0.0571057647466659,0.1694279164075851,0.0239372085779905,0.0434609614312648,-0.2867675721645355,0.9567144513130188,0.0,0.0,0.0,-0.0328758781134516,0.0018513621696323,-0.3667637353237812,1.380611939,-0.0369981924055604,-0.0510889334889175,-0.0036255530642201,2.852572819555793,0.547440181613106,-0.1124311234361358,0.0209759753506005,0.0970405212991867,-0.5814217118237129,-0.0024404418387433,-0.000623386795203,-0.0047532890213233,-5.327692550699764,-6.843192034241534,-5.763333991925393,-7.419784040221934e-05
1510,1724822195453013909,-2.1448259353637695,0.0571146681904792,0.1694284528493881,0.0242967922240495,0.043567918241024,-0.2867213785648346,0.9567144513130188,0.0,0.0,0.0,-0.2200106034307092,-0.1118845722966385,-0.4864825167838212,1.390258834,0.0645470916236546,0.0428220273081417,0.0118715271391907,5.815096973873976,-6.133277491895918,-0.0706038046537279,0.0216106855009553,0.0974511045607266,-0.5812979223502996,-0.0053955749344538,-0.0019709249899246,-0.0128539056955805,13.506179885922108,-2.557703051864272,45.46323567260524,1.8838534232558512e-06
1512,1724822195462761392,-2.144960880279541,0.0570669546723365,0.1691760122776031,0.0244024600833654,0.0426561385393142,-0.2867825031280517,0.9567344188690186,0.0,0.0,0.0,0.2357222113089276,-0.045886718029489,0.5266708646907386,1.400006317,0.0748292915169825,-0.1732489625077863,-0.0053340082060652,-1.884597397148832,-7.541748248273425,0.1142800010342385,0.0223314456296251,0.0957638925927086,-0.5813873052351769,-0.0066899547256866,-0.0027876963013824,-0.0141168830036253,38.750844926280536,14.38377912109241,93.19010124963272,-0.0002569516267821
1514,1724822195474504413,-2.1449382305145264,0.0570640303194522,0.1691769063472747,0.024378091096878,0.042325735092163,-0.2866662144660949,0.9567846059799194,0.0,0.0,0.0,0.577554282363181,0.2307244067641499,1.46892437249769,1.411749338,0.0111136930173708,-0.0549092108189182,0.0225961140279057,-4.478534543213192,8.068466696930619,-0.3669017920295974,0.0224859678151045,0.0951133166589008,-0.5811353713133246,0.0012915291632964,-0.0027902806431705,0.0013517182401532,-7.166995043203055,19.399422970718227,-0.6865829875590137,2.6150940361948457e-06
1516,1724822195483273420,-2.1449310779571533,0.0570229217410087,0.1691971123218536,0.0242896247655153,0.0423644557595253,-0.2866559624671936,0.956788182258606,0.0,0.0,0.0,0.2771624016677252,0.3736242136111305,0.9329850401333184,1.420518345,-0.021955561756758,0.0026880091861942,0.0014017127686441,-4.940592688742534,14.65658646099232,-3.003856213477295,0.0222946608188596,0.095136600966597,-0.5811224635178044,0.0056873755702611,0.0007452106768672,0.0152258587507141,-28.490376359486213,-2.785207975498283,-84.28395119677099,2.349901649069035e-05
1518,1724822195493222742,-2.144819498062134,0.0570916682481765,0.1694944649934768,0.0242228861898183,0.0436303466558456,-0.2867760956287384,0.9566969871520996,0.0,0.0,0.0,0.0587887637811133,0.1305148195778088,-0.167098389361018,1.430467667,-0.0843123547244342,0.2398161162372992,-0.0351097227719702,-1.814826906352912,8.597470538176566,-1.7726878658557803,0.0214271022688841,0.0975296759801309,-0.5814209312909125,0.0059148475351804,0.0041288735831794,0.0171799936380976,-26.215734861812383,-20.26568191568061,-90.28615225733222,0.0002987297821994
1520,1724822195508961587,-2.1448583602905273,0.057087417691946,0.1694484949111938,0.0241927839815616,0.0436062291264534,-0.2868950068950653,0.9566632509231568,0.0,0.0,0.0,-0.4600568826490245,-0.0846445772041572,-1.0831179205825552,1.446206512,-0.0020175600465245,-0.0042079596270269,-0.0157782820610434,5.143757659408613,10.19511043458261,9.506987364021272,0.0213709282306888,0.0974687866460383,-0.5816718729826388,0.0077345677072457,0.0009651752631594,0.0054997096738347,-13.62347042400222,13.624049869177066,66.10139329122495,-4.814126236577814e-05
1522,1724822195512656667,-2.1448209285736084,0.0570920556783676,0.1694761216640472,0.0242543723434209,0.0436946265399456,-0.2868469655513763,0.9566720128059388,0.0,0.0,0.0,-0.4936169062763563,-0.0106242257888519,-0.731034163819466,1.449901592,0.0169152872165889,0.0557585392721204,0.026532678666239,4.620574108265342,8.896613445626949,8.651787108029069,0.0214434552867333,0.0976726635053589,-0.5815689012636736,0.0055352151549072,0.0007533568501603,0.0012016924659215,7.709426868588308,20.29353404145311,114.91236727365944,2.9765812124829643e-05
1524,1724822195525036972,-2.1449429988861084,0.0570805668830871,0.1692307144403457,0.0243289731442928,0.0427788086235523,-0.2867780923843384,0.956732213497162,0.0,0.0,0.0,0.2983513612408653,0.2514586373046993,1.5057811532952088,1.462281897,0.0532456302731566,-0.1382354194609171,0.0175487857232211,-7.117317820406624,14.204890257094055,-3.2897203688508823,0.0221201299816767,0.095956951487083,-0.5813881826694464,0.0036382144911897,0.0025589512417636,0.0100763884857251,-5.906349360156259,-8.370926253625548,-42.341187600304025,-0.0002516905655256
1526,1724822195534471326,-2.144811630249023,0.0571297779679298,0.1695407330989837,0.0242184717208147,0.0438492782413959,-0.2868804335594177,0.9566558599472046,0.0,0.0,0.0,-0.2597407451875241,-0.039892589798328,-0.4970366059252168,1.471716251,-0.0861684582600897,0.2105581023844277,-0.0319216705671702,-17.420311143015653,17.958109176116373,-3.5043364439083535,0.0212820943840421,0.0979494971308319,-0.5816473746271359,0.0096995490270188,0.005690606827855,0.0299544800156983,-61.61962773904135,-34.143894257131464,-219.59158742648415,0.0003141404146047
1528,1724822195543471042,-2.1447606086730957,0.0571850650012493,0.1697853654623031,0.0233350917696952,0.0450969338417053,-0.287013828754425,0.956579864025116,0.0,0.0,0.0,-0.8354563396218421,-0.3751820837469566,-2.535984537795376,1.480715967,-0.2656370041534606,0.2089520061370727,-0.0485275142488878,8.92982816762441,-18.528781994393977,1.600809226391741,0.0188518584432578,0.0998384030953561,-0.5820483135606254,-0.000383655929113,0.002139349601097,0.003125456796865,-3.162659635652455,-14.349764666846292,-39.301819509485824,0.0002431900688908
1530,1724822195553587803,-2.1448333263397217,0.0571611747145652,0.1695434004068374,0.0238054059445858,0.0439681410789489,-0.2870374023914337,0.9566136002540588,0.0,0.0,0.0,-0.1759187972878422,-0.2598600837667668,-0.8040417079148114,1.490832728,0.1530426710535495,-0.1871874306262425,0.0068565240772194,16.420142393694668,-13.23309684963592,2.1647112062690184,0.0204033429943052,0.0979436470271203,-0.5820158105550515,-0.0055953565821766,-0.0014354873215336,-0.0174684758033834,54.47306000642454,15.757265611397582,168.01497142706447,-0.0002441874999758
1532,1724822195563054328,-2.1448721885681152,0.0571557879447937,0.1694351583719253,0.0240879580378532,0.0434746630489826,-0.2870737910270691,0.9566181898117064,0.0,0.0,0.0,0.2447975856563732,-0.0720885738089139,0.7583038250622621,1.500299253,0.0873457813592615,-0.0828250739446232,-0.0019694141009964,-2.2899373487246475,3.374520137101717,1.8513450648654024,0.021226784074672,0.0971601444744775,-0.5820509656536522,-0.0042557137116858,-0.0030672484421718,-0.0141704904322956,48.92478453227459,27.504588436993497,146.80076155292977,-0.0001100195357971
1534,1724822195572784822,-2.1449151039123535,0.0571009553968906,0.1692699044942855,0.024439824745059,0.0427249111235141,-0.2869078516960144,0.9566928148269652,0.0,0.0,0.0,0.7656905621956049,0.2722513743841186,2.004332412890577,1.510029747,0.1115718275631249,-0.1265016509800776,0.043886928655691,-7.594818521503207,6.346537249725991,0.0547321107414138,0.0223511812362148,0.0959202071680034,-0.5816489620577584,-0.000840684950063,-0.0027656916156804,-0.0026918733163423,11.69166615634805,12.724796822465336,11.68732839514132,-0.0001634511913484
1536,1724822195585388858,-2.144867420196533,0.057112943381071,0.1694692969322204,0.023769985884428,0.0437848791480064,-0.2870372235774994,0.9566230177879332,0.0,0.0,0.0,0.2299599476834177,0.0626364607420303,0.2518177200587397,1.522633783,-0.1487951866038949,0.1303871253098384,-0.0314690796697506,5.260702205572599,29.8178906252068,-5.036617023051544,0.0204406905874689,0.097571732039899,-0.5820121096819635,0.0155810446821362,0.0046046345280759,0.0360346450033688,-115.06310700996218,-42.05111422476959,-265.7426693177705,0.0002008999325777
1538,1724822195592872946,-2.14469838142395,0.0571636408567428,0.1698288172483444,0.0242047030478715,0.0452001430094242,-0.2872352600097656,0.9564868211746216,0.0,0.0,0.0,-0.953627694731634,-0.3650442182369995,-2.300065334512131,1.530117871,0.0057549906404619,0.3954817267692895,-0.0649769138887183,13.799763308886824,2.87413584262765,1.1436418609000158,0.0204414545345505,0.1005408706366777,-0.5824398785930067,0.0125340287915776,0.002753129409899,0.02538411184248,-86.57915179263367,-25.60513533114931,-166.74272744198282,0.0003662319105001
1540,1724822195603026302,-2.144709587097168,0.0571362078189849,0.1697745025157928,0.0244258064776659,0.0450071990489959,-0.287133127450943,0.9565209150314332,0.0,0.0,0.0,-0.8468722045025645,-0.1905673598714949,-1.59308339531569,1.540271227,0.0515024170158528,-0.0236588992200552,0.0240601161362517,2.1104159136456397,-22.978629079365103,3.114542071737335,0.0209884824339415,0.1002956355099225,-0.5821993532609866,-0.0046762679271239,-0.002573908780477,-0.0100492878430449,53.394989335953696,24.05891598230842,120.84585642212014,-5.2846594555115314e-05
1542,1724822195613533127,-2.1447975635528564,0.0571105554699897,0.1696178168058395,0.0245643518865108,0.0446038097143173,-0.2871764600276947,0.956523299217224,0.0,0.0,0.0,0.1803640947738044,0.1369619654919825,0.2334683286610872,1.550778052,0.0476338122572301,-0.0660970555126718,-0.0046970015443247,-6.333179000396827,2.427126458447517,-1.4916768468866248,0.0214825377231674,0.0996023784697526,-0.5822638083286756,-0.0043524686014535,-0.0009437343646463,-0.0061650632608589,51.512842444457064,13.635210112831604,97.77831482620157,-0.0001602762545481
1544,1724822195622741634,-2.1448051929473877,0.0571139529347419,0.1696316450834274,0.0243147127330303,0.0447197072207927,-0.2872003316879272,0.9565171003341676,0.0,0.0,0.0,0.2814087591392725,0.1209809866161141,0.5199608308654967,1.559986559,-0.0588264012399265,0.0084396479955506,-0.0083826350843841,-1.188797714840701,0.7132742155311877,1.2872493698829943,0.0209332838675335,0.0996817147852302,-0.5823397125102542,-0.0014846547324935,0.0001706609999181,-0.005114528532661,-5.719616452272836,-6.264655493541458,9.749029898890452,1.2965172290704548e-05
1546,1724822195633611574,-2.144829750061035,0.0571132637560367,0.1694911569356918,0.024517660960555,0.0442121811211109,-0.2870838344097137,0.9565704464912416,0.0,0.0,0.0,0.0050520520963538,-0.0052301843596691,0.3518246272214881,1.570856499,0.0613394910405,-0.0785144392007184,0.0272621209305049,-3.3673317410338828,13.105924264372426,-3.2807109028666916,0.0216277329706353,0.0988221478883001,-0.5820601874381284,0.0011890231120759,0.0014852417733854,0.0057452868349079,-31.53017204334896,-13.97065984042876,-86.1701600497554,-0.0001414516435276
1548,1724822195644439588,-2.144779682159424,0.0571460500359535,0.1697547435760498,0.0242742765694856,0.0459330044686794,-0.2874226868152618,0.9563937783241272,0.0,0.0,0.0,-0.4022204311813558,-0.1819562696288695,-1.3438382536454705,1.581684513,-0.130683611315009,0.291045070739729,-0.0790183481277055,2.6286360841465393,-2.889847066468457,-0.3061582918232596,0.0201331349630916,0.1019907629824338,-0.582853790015467,-0.001354873055817,6.773569024831616e-05,0.0025735140771061,6.446387852331021,1.1465390037587122,-21.650413466017113,0.0002634760628685
1550,1724822195655212570,-2.1448583602905273,0.05711505189538,0.1695491373538971,0.0246642045676708,0.0450458899140358,-0.2873681485652923,0.9564424753189088,0.0,0.0,0.0,0.1394634372484282,0.0176185174368164,-0.1306611725910968,1.592457495,0.1158851597948093,-0.1368738220363821,0.0196048396930057,9.00975188614838,-22.348550523216502,6.110572534429323,0.0213999102715753,0.1005121737144662,-0.582672419266571,-0.0074809736671852,-0.0024395909089127,-0.0231675838879326,44.5844583220202,19.67602478177974,161.13623797973634,-0.0002079208664589
1552,1724822195663014008,-2.1449177265167236,0.0570984929800033,0.1693453341722488,0.0248362179845571,0.0441253036260604,-0.2872206270694732,0.9565252661705016,0.0,0.0,0.0,0.4550994974026254,0.1776197928434616,1.4005677498077749,1.600258933,0.107770107983741,-0.2130754709868953,0.0500782815511451,-6.20508255010453,7.273912785362089,0.4573493976097708,0.0222761053245009,0.0988417474214062,-0.5823163812346565,-0.0023924170674831,-0.0008877177593782,-0.0114260140566182,11.704064898801924,8.633823250942285,83.8993358530279,-0.0002057160014268
1554,1724822195672745868,-2.1448776721954346,0.0571048445999622,0.1694125682115554,0.0248579159379005,0.0444458350539207,-0.2871505618095398,0.9565308094024658,0.0,0.0,0.0,0.2199218368124601,0.1174763875318844,0.852826325591692,1.609990793,-0.0153183298760896,0.0645969153668178,0.0126610868495869,-5.861473748341266,11.477699052572945,-3.283785988540635,0.0221406690281077,0.0994674873491614,-0.5821784642103626,-0.0003569573701724,0.0005822523841683,0.0009356812579257,-9.351141835959895,-8.972898798858264,-46.44511781128187,6.925505126486071e-05
1556,1724822195683999935,-2.14493989944458,0.0571104809641838,0.1693453639745712,0.0248460061848163,0.0442851260304451,-0.287247747182846,0.9565094709396362,0.0,0.0,0.0,0.3074862007929837,-0.0198523515708677,0.4581679035090527,1.62124486,0.0070384431527466,-0.0281872223851773,-0.0169934305359057,-3.3275510038087925,2.4304867121218745,0.3997185432684914,0.022200132022668,0.0991545989907811,-0.5823777591966522,0.0022581913152919,0.0014674366358917,0.0051012070986171,-7.04502971394363,-5.140049724085039,-25.01295144307735,-7.165252381050782e-05
1558,1724822195694015481,-2.144847869873047,0.0571337938308715,0.1694951504468917,0.0246276520192623,0.0448266677558422,-0.2871526479721069,0.9565184116363524,0.0,0.0,0.0,0.1047799506789564,-0.0083820569769353,0.2972740918478229,1.631260406,-0.0736551135876643,0.0913050457369508,0.0140594431779134,-0.2015280377327586,1.4582894837509293,-0.1020645652549472,0.0214784997248912,0.1000657692040824,-0.5822161725605999,0.0060073360664461,0.0003905798883505,0.010474673342891,-34.387832186612975,4.409342161230857,-47.47614358761202,0.0001538946348426
1560,1724822195703156798,-2.144819498062134,0.0571212023496627,0.169553518295288,0.0246039889752864,0.0449167303740978,-0.2872081100940704,0.9564982056617736,0.0,0.0,0.0,-0.3276181033135826,0.0591587621233969,-0.3988009719171428,1.640401723,-0.0099574380209711,0.017260425711976,-0.0135935568462234,2.2897298049448627,-0.3361382589234711,-1.8480316056101571,0.0213753345182691,0.1002261902809622,-0.5823377005509857,0.0047161785633136,0.0011410917708714,0.0111960885171509,-36.38698243397944,-2.810699383053702,-76.42822484804094,6.1016071452083914e-05
1562,1724822195712930223,-2.144756555557251,0.0571586713194847,0.1697132140398025,0.0245627723634243,0.0454147458076477,-0.2872790992259979,0.9564543962478638,0.0,0.0,0.0,-0.5691950537524331,-0.0748855299045931,-1.148715143115869,1.650175148,-0.036464433035905,0.0951016216317372,-0.0193561372726699,1.8060398578088923,-2.9033414148056664,-0.2288730129262314,0.021001831380173,0.1011594519489452,-0.5825079689976141,-0.0004332390468135,0.0014795457896403,0.0023066350194316,7.008922588775755,-5.184382936305667,-3.8061152084207217,0.000160685870703
1564,1724822195725329075,-2.1448700428009033,0.0571399852633476,0.169521078467369,0.0246968865394592,0.0446525588631629,-0.287410020828247,0.956447422504425,0.0,0.0,0.0,0.0167534709051674,-0.0049803537126331,-0.0488482290029399,1.662574,0.0569974603907886,-0.1118438934279352,-0.0165195563490321,1.5584269942978408,-8.355894888419353,3.1801627710350893,0.0216849050235704,0.0997773887109932,-0.5827434502595279,-0.0081562081598463,-0.0011715787978499,-0.0156980169842757,41.71230240573909,9.930684574035096,94.17911645847776,-0.0001978551084222
1566,1724822195733014576,-2.144927978515625,0.0571325793862342,0.1693994700908661,0.024698868393898,0.0441045835614204,-0.2873490750789642,0.9564911127090454,0.0,0.0,0.0,0.3109128742228549,0.0917916921577834,0.7010333464400931,1.670259501,0.0404888989730756,-0.1363569321767357,0.0219816993478096,-2.830008265246729,2.4071976538924176,1.350082334160994,0.0220106218543159,0.0987259776158579,-0.5825967269307555,-0.004980308355897,-0.0002149627491747,-0.0093883778685412,9.780144797159526,-0.615485214713571,25.537441149154983,-0.0001245150135879
1568,1724822195743321310,-2.144943952560425,0.0571407116949558,0.1693916469812393,0.0246542394161224,0.0439351238310337,-0.287426233291626,0.956476867198944,0.0,0.0,0.0,0.0178648463739223,-0.0970986141783528,-0.0314039479445507,1.680566235,0.0018942479732353,-0.0341889583668105,-0.0146850511007468,1.3414986812475165,4.554922676706452,-1.0997631180503613,0.0220144168621929,0.098377015510362,-0.582756563427957,-0.0031900727018125,0.0002794280804558,-0.0038209064259939,-5.310772109353957,-10.595816949812903,-32.59170583934824,-9.488487595092464e-06
1570,1724822195753963859,-2.144995927810669,0.0571380853652954,0.1693173348903656,0.0249529629945755,0.043597862124443,-0.2874457538127899,0.956478714942932,0.0,0.0,0.0,0.215438360248348,-0.1249060700701901,0.0445205412323027,1.691208784,0.0720639644183113,-0.0445916616515623,0.0006200678871862,-1.7428964710371215,-1.508241446963396,3.877575921629642,0.0227809655174844,0.0979024230938172,-0.5827606435646121,-0.0047124183601567,-0.0023481272698484,-0.0104364136733732,-4.50678268253865,3.569942071791558,7.163742079443451,-7.733504000439853e-05
1572,1724822195762779651,-2.145036220550537,0.0571020394563674,0.1692001074552536,0.0248672068119049,0.0433369651436805,-0.2872298955917358,0.9565576910972596,0.0,0.0,0.0,0.0072274068756268,-0.0482837488404609,0.1078914219095676,1.700024576,-0.0041770223509744,-0.0617640590316832,0.0526184194399519,-2.6456201121637983,3.0727197281298126,1.1288194862028416,0.0227883469408304,0.0973475050989349,-0.5823071822212328,-0.0001953132123162,-0.0025584631128312,-0.0051794558086273,-36.47363234283761,3.9199007608931553,-26.504136694484867,-0.0001167949329002
1574,1724822195774324812,-2.144972324371338,0.0570956394076347,0.1692630499601364,0.0252572800964117,0.0435189753770828,-0.2872724533081054,0.9565264582633972,0.0,0.0,0.0,-0.6082385552658535,-0.0751720298937022,-0.7075178886400232,1.711569737,0.056035566010671,0.0496206578841849,-0.0064618255735011,-2.4895021139121223,-5.308379171471457,-1.4559446651719987,0.0234292794302933,0.0979219602785282,-0.5823688541191296,-0.0077496672183769,-0.0034851980342338,-0.0113185196482312,31.303508291058183,12.584774738187615,35.30226933103094,6.748544373518726e-05
1576,1724822195783118259,-2.145129442214966,0.0570453628897666,0.1690512001514434,0.0250620488077402,0.0431315377354621,-0.2872577607631683,0.9565535187721252,0.0,0.0,0.0,0.2337296332118902,0.135377579134455,0.3123865017462053,1.720363184,-0.017459958678936,-0.0972281923770633,0.0052577566206725,-1.9454360923120009,-7.507670936190859,0.6978018259681087,0.0232783125639015,0.0970661361501335,-0.582342435074903,-0.0127894741864196,-0.0041120723887435,-0.0187173050879341,77.42279446712577,18.405259180409608,101.424371832116,-0.0002178413941757
1578,1724822195794157762,-2.145200252532959,0.0570222176611423,0.1689190566539764,0.0252431165426969,0.0427734553813934,-0.2872549295425415,0.9565656185150146,0.0,0.0,0.0,0.8344442600699391,0.2618007514007196,1.2302673072361248,1.731402687,0.0499365877180069,-0.0527130158000764,0.0041610507971268,1.0041773314023523,6.886195735148983,-0.089509156284031,0.0238327121615448,0.0964832774458076,-0.5823099944759331,0.0009732878624149,0.0002466710122999,0.0007218753783817,149.1361842021069,49.008246123571304,261.3101438098194,-0.0001345726062354
1580,1724822195809046782,-2.1450374126434326,0.0570729449391365,0.1691846698522567,0.025205809623003,0.0436159968376159,-0.2872011959552765,0.9565446972846984,0.0,0.0,0.0,4.957020335206155,1.7456501290867934,8.698629423369894,1.746291707,-0.0375418875786357,0.1071233525275597,0.0030258348179123,-1.4297298093911943,2.273264028989392,-0.0243522779223362,0.0232818119758983,0.0980767368285146,-0.5822270002193469,0.0051192267404758,0.0014732535915134,0.0083842893671777,9.186741615226085,7.498780913317171,26.702195104414795,0.0002717780469682
1582,1724822195825851802,-2.145061731338501,0.0570610240101814,0.1691462248563766,0.025353392586112,0.0434383451938629,-0.2871838212013244,0.9565541744232178,0.0,0.0,0.0,0.0337773062614132,0.1235795909545913,0.1396598111105049,1.763096727,0.0227544827864577,-0.0151765537192618,0.0036008770998693,-6750.607644165603,14159.231824622775,-4818.749271838825,0.0236695612486743,0.0978203588319413,-0.5821723096438635,0.1771630995172017,0.0623571183164983,0.3097955062612527,-1447.7615358236403,-514.2180079050371,-2572.369027741967,-3.904166168879521e-05
1584,1724822195826093233,-2.1450183391571045,0.0570762977004051,0.1692221015691757,0.0252786353230476,0.0438971221446991,-0.2873005270957947,0.9565001726150512,0.0,0.0,0.0,-0.3197626782576013,-0.0020173699246934,-0.4885456227437218,1.763338158,-1.6304786866634045,3.452438086299028,-1.1765087341653335,-6747.049984040445,14151.772028420051,-4816.192085972592,0.023249853458397,0.098660320044992,-0.582438016691305,0.1771358618472109,0.0623748165211305,0.3097674978525847,-1441.3050771445528,-512.157324008618,-2560.821955150742,7.737704987765268e-05
1586,1724822195842525048,-2.145007848739624,0.0571077391505241,0.1692666113376617,0.0253620166331529,0.0441940650343894,-0.2875488996505737,0.9564095735549928,0.0,0.0,0.0,1.771600656391442,0.5979391740256546,3.493133805455443,1.779769973,0.0009293495280428,0.0372058641553402,-0.0325519318096063,-13.632181193840562,-769.6480615251716,231.1517240580508,0.0232134328817143,0.0992839252345173,-0.5829610347804097,-0.0595555879119729,-0.0218956499569173,-0.1148857007321453,1231.0827438495928,448.23686275756734,2296.909119777195,4.2688012926188205e-05
1588,1724822195843815728,-2.1450908184051514,0.0570770651102066,0.1691064089536667,0.0251647066324949,0.0435693487524986,-0.2873904705047607,0.9564911127090454,0.0,0.0,0.0,3.4724383653397153,1.2182101425665552,6.666002876381452,1.781060653,-0.0281128079627766,-1.0131192400612554,0.28216719797815,-19.315028458550778,-701.6263991505741,210.57321045817596,0.0232101730173538,0.0979682210880071,-0.5826257160312189,-0.0556290916782522,-0.0205433569032253,-0.107403054279489,1154.900792974911,421.8845207364067,2156.1580336406096,-0.0001628616768052
1590,1724822195853223032,-2.1450207233428955,0.0571047589182853,0.1692424267530441,0.0253030434250831,0.0439026020467281,-0.2874636352062225,0.9564502239227296,0.0,0.0,0.0,3.168601468437437,1.1626782691058313,6.233338152425161,1.790467957,0.008665773818295,0.0762069174472277,-0.0178778982101294,-2.3349813944118085,58.49590046070423,-15.217114239031002,0.023276751398984,0.0986888352376466,-0.5827779119779727,0.00653767243314,0.0026054647724693,0.0148599993912661,-208.38955275742012,-71.97261386019798,-406.2263632315872,0.0001381468163806
1592,1724822195862837968,-2.1449668407440186,0.057126484811306,0.1693892478942871,0.0250618271529674,0.0443538576364517,-0.2874398827552795,0.9564428329467772,0.0,0.0,0.0,-0.5655291909541129,-0.1786092775299707,-1.2125755370005993,1.800082893,-0.0751511419158385,0.0755466486220785,-0.0002942841380099,-3.0658293109883163,-3.992998014772484,0.5471380238916086,0.022555548188161,0.0994150740217102,-0.5827639641970521,0.0032006384774234,0.0010284060142202,0.008329462888013,-210.7667457365237,-73.82289112132007,-420.2425860325223,0.0001482588079588
1594,1724822195874405393,-2.144963264465332,0.0571212470531463,0.169389009475708,0.024839986115694,0.0442690066993236,-0.2875006198883056,0.9564343094825744,0.0,0.0,0.0,-0.531991203690571,-0.118555186979591,-1.1449477151269702,1.811650318,-0.0319658328445194,-0.0252545691787074,-0.0118011684351144,10.28652762661094,-10.512597165259272,1.4363965036334894,0.0221715431315761,0.0991260718864222,-0.5829076935933126,-0.006381275766131,-0.0012406491278658,-0.013119478275879,66.46919933831896,16.998545138875294,140.00682109034722,3.9677328596138105e-07
1596,1724822195883414117,-2.1450676918029785,0.057104542851448,0.1691789180040359,0.0251315105706453,0.0435576513409614,-0.2874582707881927,0.9564721584320068,0.0,0.0,0.0,0.5128178450811411,0.1174172047277024,1.0576052212387164,1.820659042,0.106679742277293,-0.1325769984290685,0.0181959807009279,4.908277747151022,-4.275803184547028,1.195219219492521,0.0231461192951347,0.0979283291173389,-0.5827702864527424,-0.0090945600909151,-0.0017642109926723,-0.0184575017773349,82.08759598650599,17.35569939810781,169.39927601513375,-0.0002149999388058
1598,1724822195893605929,-2.1451315879821777,0.0570876002311706,0.1690468788146972,0.0251784529536962,0.0430750176310539,-0.2874493598937988,0.9564954042434692,0.0,0.0,0.0,0.9586797089056188,0.1923979457626571,1.9182615690101676,1.830850854,0.0358452047830358,-0.0880943091773962,0.0057652628005501,-15.75248581444978,19.96984366686296,-2.2146203035557512,0.0235151406113781,0.0970293518135513,-0.5827322511047264,0.0055176461122385,0.0014564424580214,0.011348026457556,-36.2332279071364,-10.974568290400336,-75.37101915200607,-0.0001344864446936
1600,1724822195902846045,-2.144981861114502,0.0571271851658821,0.1693553328514099,0.0246648471802473,0.044325117021799,-0.2874879539012909,0.9564400911331176,0.0,0.0,0.0,-0.0461374642151032,-0.062576819041309,-0.1170074195505945,1.84009097,-0.1834493626422412,0.2271593878434599,-0.0230330128768812,-3.648390758057954,11.002308366974145,-0.2728515796914418,0.021803790273771,0.0991326183302766,-0.5828982852713073,0.0103964072956017,0.0021987382131301,0.0206437869293099,-76.38596289969439,-17.169741813638133,-152.0206431324774,0.0003145619358642
1602,1724822195913188942,-2.144941568374634,0.0571257844567298,0.169421374797821,0.0248315874487161,0.0446700975298881,-0.2874462008476257,0.9564322233200072,0.0,0.0,0.0,-0.4615586482103727,-0.1194732485677087,-0.8992629143177535,1.850433867,0.0113397023255246,0.073338752505361,0.0070684805929823,6.768708667093126,-6.650973915639288,0.5663422189417368,0.0219300268219975,0.0998893635818522,-0.5828081071269461,0.0032722804911173,-0.0001030079674149,0.006431951435319,-142.0281452450895,-104.63754590576772,-276.5609008136611,6.866717279856136e-05
1604,1724822195922625065,-2.14491605758667,0.0571250915527343,0.1694824695587158,0.0248109940439462,0.0450769700109958,-0.2874656617641449,0.9564078450202942,0.0,0.0,0.0,-2.6786789836680853,-1.9602972253448268,-5.238690490012392,1.85986999,-0.028650637960856,0.0813537914512916,-0.0077666847463918,-1.7647134291717057,-1.370877722338855,-0.8676579331772529,0.0216539881443532,0.1006584476781011,-0.5828649625134715,0.0008731918517668,-0.0003430548166212,0.0020339133699214,-80.53027127240296,-72.53180542561847,-155.63660470309512,6.265784260459152e-05
1606,1724822195944050478,-2.144986391067505,0.0571046248078346,0.1693100184202194,0.0251941010355949,0.0443349219858646,-0.2874253690242767,0.9564446806907654,0.0,0.0,0.0,3.1086667944651367,2.4475304097474577,6.2272654011784425,1.881295403,0.0538603064195488,-0.0560298357115277,0.0079163500279981,3575.654581607401,-4894.385191602918,208.19592804222688,0.0228223136102186,0.0994545212363008,-0.5827214280560182,-0.1744624194443531,-0.1364701697800399,-0.3423847961979049,987.9553764779812,782.6147588048198,1857.3285583335764,-0.0001749924987476
1608,1724822195944512189,-2.145068645477295,0.0570402666926384,0.1691486090421676,0.0254225544631481,0.0436967462301254,-0.2874334454536438,0.9564656019210817,0.0,0.0,0.0,3.571958966871432,2.814612110001687,7.097969677319773,1.881757114,1.7403178349228396,-2.364455322461844,0.1061069101386232,3542.3314338173664,-4848.870577608202,206.2247293951184,0.0236281830877411,0.0983619875286287,-0.5826977131618656,-0.1729147594479965,-0.1352525498519014,-0.3392876953584255,970.2530167470754,769.2007861606577,1823.2765290206548,-0.0001615112834938
1610,1724822195959832384,-2.145055770874023,0.0570716634392738,0.1691875904798507,0.0250670984387397,0.0440693199634552,-0.2874751985073089,0.956445336341858,0.0,0.0,0.0,1.573826722784755,1.4604002901656337,3.236792527714881,1.897077309,-0.0580582605922301,0.0331599018025622,-0.0092380563808559,72.60313451477427,-30.439146179447675,19.17499968487833,0.0227258848688755,0.0988731462338779,-0.5828280587738198,-0.006381861342561,-0.0019408666738964,-0.0322441075227075,-460.6338221817456,-385.8647378595714,-751.1351549996291,3.737979616328146e-05
1612,1724822195963135770,-2.1450819969177246,0.0570624098181724,0.1690562963485717,0.0254781395196914,0.0435989014804363,-0.2873910069465637,0.9564813375473022,0.0,0.0,0.0,-0.1830278832895761,-0.0261441681326888,0.3999989227363964,1.900380695,0.3171044868017537,-0.2005466865646769,0.0731252155524522,77.33234650526829,-49.59888035434608,17.38300812830762,0.0237957544144313,0.0982052243350598,-0.5826008720315332,-0.0078045480215465,-0.0022744738871254,-0.0335216700984926,-382.8805693632663,-335.0764723732353,-611.2174480240247,-0.0001317448954737
1614,1724822195973126992,-2.145155906677246,0.0570556037127971,0.1689094454050064,0.0253750961273908,0.0433317050337791,-0.2873079776763916,0.9565211534500122,0.0,0.0,0.0,0.492743105802898,0.0990788336687119,1.77343760060918,1.910371917,-0.0052853686826917,-0.0570105753328193,0.018651125838281,-13.94788277748421,14.591305792716463,-3.017783433914126,0.0237599165886412,0.0976313478761667,-0.5824272792265073,-0.0021496014795872,-0.0002739472192012,-0.0057507473988085,15.98308322639221,3.065705633877846,-5.7715846572136495,-0.0001506596103754
1616,1724822195983430955,-2.1451222896575928,0.0570571087300777,0.1689452677965164,0.0257448349148035,0.0437340959906578,-0.2872394323348999,0.9565134644508362,0.0,0.0,0.0,0.1085378340719573,0.0300604027958661,0.1918697509261797,1.92067588,0.0456674314396078,0.0957295532923159,0.01342525417993,0.4131477812424367,5.3567332412983495,-0.2187593244136458,0.0242464123291041,0.0986141220416932,-0.5822644421898662,0.0021492318783344,-0.0003279080606977,0.0018314311175187,-26.570131888495737,-2.434180489738172,-86.84341146342392,3.784129733956e-05
1618,1724822195995385786,-2.1451120376586914,0.0570466145873069,0.1689443439245224,0.0257275328040123,0.0439155884087085,-0.2871471643447876,0.9565333127975464,0.0,0.0,0.0,-0.060456654270667,0.0601035451974242,0.0780895941738283,1.932630711,-0.0122507345549259,0.0284633831716154,0.0148103504276853,5.251051730280398,-7.969437334385298,-2.737330374594426,0.0241183139163371,0.0989500153515894,-0.5820782981912503,-0.0008344482475024,0.0005210394989845,-0.0034199208816545,2.0148167043533847,-2.9104984419188797,14.095280379312833,5.719182806108358e-07
1620,1724822196003463059,-2.145128011703491,0.0570584572851657,0.1688984781503677,0.0259963739663362,0.0436309799551963,-0.2872556746006012,0.9565064907073976,0.0,0.0,0.0,0.0439595526661927,0.0069961364842424,0.3208055212445138,1.940707984,0.0852603089991437,-0.0486932366313544,-0.0228708303997912,-0.4340836210785168,-1.8872346459306495,-2.2050347010430453,0.0247877344918529,0.0985613418031428,-0.5822735481052619,-0.0002906537097544,0.000946975332547,3.424898092330153e-05,12.058601787440676,5.771807458030157,22.853219208977013,-4.7609687851068006e-05
1622,1724822196013251446,-2.145110845565796,0.057061567902565,0.1689665764570236,0.0257112756371498,0.0438388064503669,-0.2873097658157348,0.9564884901046752,0.0,0.0,0.0,0.1516909764955877,0.2099495395012627,0.4591425407923049,1.950496371,-0.067338927098714,0.023756822686589,-0.0152734517788027,-5.827875962870169,1.8076452946099075,1.1723707098540923,0.0241143633640635,0.0987974763819243,-0.5824180679983464,-0.0001375097121325,0.0004729304822728,0.0019071411047084,13.287900561978017,17.93834029393533,22.040072664869,6.87011500123549e-05
1624,1724822196025018691,-2.145139217376709,0.0570693276822567,0.1689175814390182,0.0256669372320175,0.0436425656080246,-0.2872922420501709,0.9565038681030272,0.0,0.0,0.0,0.3403324496894519,0.3814851184151453,0.8303514208051755,1.962263616,0.0021770817820124,-0.0341056141026729,0.0041269453977087,-3.0072844814968485,8.646036200071352,-3.0297732930369152,0.0241438237726364,0.0983950828641907,-0.5823789590288639,0.0035719960864355,0.0065985258374778,0.0110983863283689,-20.051213625382125,90.27189670023068,77.2348511972717,-5.126972350758861e-05
1626,1724822196033293539,-2.1450748443603516,0.05715848878026,0.1690982282161712,0.0255013909190893,0.0441968291997909,-0.2874569892883301,0.956433355808258,0.0,0.0,0.0,-0.0355495762933408,1.568934599280217,1.735319912246837,1.970538464,-0.0745829994308785,0.1163631956740532,-0.0481676812572115,-7.010893373753449,13.878748414101375,-4.688808034457246,0.0234894061349625,0.0993671913404734,-0.5827563491496534,0.0065342075533738,0.0089459673142787,0.0182560841915948,-4034.1758912355904,-1921.2324534397585,-8261.639256462306,0.0001775896954377
1628,1724822196064214682,-2.145016670227051,0.0572237782180309,0.1692496836185455,0.0252739749848842,0.0450411364436149,-0.2874873280525207,0.956390917301178,0.0,0.0,0.0,-585.6570322630971,-296.40734611684906,-1220.9513221187517,2.001459607,-0.0296099717479327,0.0480741140483908,-0.0047086437783308,-7162.599302250645,2376.625522915167,-3649.7976892023,0.0225626500075491,0.1008566625086732,-0.5828682768863666,-0.0400351300413603,0.2059634705653081,0.1724758871808376,60362.08081102371,-19845.482358167763,66638.19529317459,0.0001499667802129
1630,1724822196064544492,-2.1450300216674805,0.0572924241423606,0.1693071573972702,0.024923525750637,0.0452933348715305,-0.2876584529876709,0.9563367366790771,0.0,0.0,0.0,-565.4700477576237,-302.9884973573891,-1198.5998570973704,2.001789417,-2.417108611317522,0.8402772584627963,-1.221292650412128,-415.7320904866376,-6812.5501824454695,1038.2860781934742,0.0217252737973426,0.1011426430790063,-0.5832668563209096,-0.2352456066346349,0.1071402455835084,-0.234518685509613,106847.50527005468,3677.807755516027,163563.67520555248,5.114018683366393e-05
1632,1724822196064860051,-2.145163059234619,0.0572957396507263,0.1691097319126129,0.0246679671108722,0.0446960031986236,-0.2875904738903045,0.9563918709754944,0.0,0.0,0.0,-517.9736800323867,-294.69281510830865,-1118.0636995380246,2.002104976,-0.4881860552963087,-4.091575668016197,0.5335500672320983,5884.967513889133,-15021.645137261916,5349.179310032782,0.0215853747851554,0.0998481588814941,-0.583125733694354,-0.4057086572212576,0.0105175521656695,-0.6020512438382224,147407.64661499124,26671.90385081976,251036.8049134725,-0.0002061243605585
1634,1724822196072926758,-2.14516019821167,0.0573828034102916,0.1691168695688247,0.0247016362845897,0.0445361249148845,-0.2876302301883697,0.9563865661621094,0.0,0.0,0.0,30.34675796972828,-0.5478011698435932,44.88507281656062,2.010171683,0.0198564797305214,-0.0356941092284083,-0.0084543703753565,37.83329427458768,303.5400195031303,-39.42167880958005,0.0217381090634533,0.0995617814738243,-0.5832005898489211,-0.0019926208896094,0.0052637980906231,-0.0035740685791214,40276.00451168811,22139.53122005468,86037.9189695755,9.59494469614021e-07
1636,1724822196085370814,-2.1452300548553467,0.0573421642184257,0.1689867973327636,0.024608876556158,0.0440202578902244,-0.2874425947666168,0.9564692378044128,0.0,0.0,0.0,-0.1537364917868045,-0.0268827998764019,-0.3335436762275753,2.022615739,0.007918015392373,-0.0834287095780104,0.0340471725566454,-1.0508048659033982,-1.3615463314224572,0.561409807509522,0.0218764801079425,0.0985145958008924,-0.582797657178211,-0.002540109661254,0.0004335510676272,-0.007600441869755,-949.640564039056,31.44345372838348,-1378.41849999205,-0.0001313632594685
1638,1724822196093359190,-2.1452345848083496,0.057364597916603,0.1689407080411911,0.024515762925148,0.0437071919441223,-0.2873591482639313,0.9565110802650452,0.0,0.0,0.0,-0.0406800402343097,0.1708782206707739,0.2206695602990729,2.030604115,-0.0009450902955608,-0.0816163790439019,0.0238963798018694,5.290473328285271,-0.5814183796537864,-1.92249751185146,0.021886325208379,0.0978585967966894,-0.5826202422383016,-0.0043309728703491,0.002071445038116,-0.0103161217829272,23.90476673676737,11.67353006789826,72.71763194142295,-4.778837812204456e-05
1640,1724822196103319644,-2.145324468612671,0.0573760792613029,0.1687814891338348,0.0250007230788469,0.0430555790662765,-0.287415474653244,0.9565111994743348,0.0,0.0,0.0,0.3185378622886375,0.1246745496198325,0.9864530387582976,2.040564569,0.1312341039631639,-0.0974460191682389,-0.0033475434460691,-5.245199961954242,7.845076852794322,-2.361589385497502,0.0231880857234208,0.0968889959429785,-0.5826757571677613,-0.002457164366973,0.0033492680165658,-0.0011555587964302,4.420043799597391,-4.810266222715912,3.743525074601663,-0.0001653744927996
1642,1724822196113106439,-2.1452853679656982,0.0574299804866313,0.1689127832651138,0.0246350336819887,0.0435243025422096,-0.2874931991100311,0.956476092338562,0.0,0.0,0.0,0.0574985132187548,0.0759477604889413,0.3197748814416652,2.050351364,-0.0981486193725685,0.0700541603359121,-0.0228671474255371,-8.141403276545972,6.774286910746003,-0.9035284729094843,0.0222072181181533,0.0975794999576721,-0.5828848988181278,0.0019143736652296,0.0045346690511611,0.0091406272771159,-16.485303089269205,4.113438280644612,-40.32570026641043,0.0001294499399757
1644,1724822196122803945,-2.145286798477173,0.0574646070599556,0.1689603477716446,0.024541625753045,0.0437375456094741,-0.2875805497169494,0.9564424753189088,0.0,0.0,0.0,-0.0044776749707478,0.2032057468789603,0.1957941175354207,2.06004887,-0.0301146195343851,0.0363844113262834,-0.0211460960780955,2.130535207795923,-1.1868535642166251,-1.0826636558130671,0.0218958371605201,0.0979367680466933,-0.5830830469025108,-0.0012676643126638,0.0048370874557868,0.0052052027346807,-8.764286095189707,0.4484946243824299,-27.728815250590447,4.472911470006698e-05
1646,1724822196133859635,-2.145314931869507,0.0575340464711189,0.1690216809511184,0.0242523234337568,0.0441277660429477,-0.2878160178661346,0.9563610553741456,0.0,0.0,0.0,-0.1312867714638886,0.0484166014306595,-0.2991227314175986,2.07110456,-0.0681321304082968,0.0520651383404847,-0.0489985788607856,-5.74438591289395,3.226958620045512,0.217859659283321,0.0210904345676327,0.0985238852765192,-0.5836147821408973,0.0027621703042797,0.0092518307538163,0.0149526204103764,-44.572618762263126,-28.32742954358697,-104.23164933382884,5.405533806372635e-05
1648,1724822196143364388,-2.145245313644409,0.0576462596654892,0.169240653514862,0.0237371083348989,0.0447674356400966,-0.2878866493701935,0.9563230872154236,0.0,0.0,0.0,-0.8254325905545038,-0.3378965906488324,-1.775737293891286,2.080609313,-0.1415715243390322,0.0975155072133735,-0.0245615702624874,2.3208305882101503,-7.928293223349012,2.6663969079436116,0.019723533739308,0.0994553347618215,-0.5838304271414314,-0.0025369702919135,0.0068446618297888,0.002460856319721,-6.010459735943208,-11.118058682121005,-13.577399576635198,0.0002148706790216
1650,1724822196153621656,-2.14538049697876,0.057661548256874,0.1690381169319152,0.023522051051259,0.0441659949719905,-0.2878813743591308,0.9563578963279724,0.0,0.0,0.0,-0.1452040049003963,-0.1251018382215769,-0.3456125472461124,2.090866581,-0.0065475374293623,-0.1245003676430309,0.0038440241271537,11.492216199588764,-12.292489457180595,0.8248861267493807,0.0196577871684328,0.0981777613477242,-0.5838160186428069,-0.0139692158514321,0.0024418873117886,-0.0208615607688535,71.82192409714187,23.3542674443961,139.513306421651,-0.0002121880137251
1652,1724822196163217889,-2.145521640777588,0.0576935224235057,0.1688279062509536,0.0237090494483709,0.0433167554438114,-0.2879441082477569,0.9563732743263244,0.0,0.0,0.0,0.5934403388621771,0.1224298678876709,0.9939779324292848,2.100462814,0.0887278620179928,-0.1584993585322839,-0.005696857225389,-2.6629030894778207,9.037108787777312,-0.0502287453840029,0.0205009162421841,0.0966581760984928,-0.5839016625683736,-0.0066600274821837,0.0039718238179839,-0.0068677495792179,0.9664181189804956,0.1526904785083953,-8.729510604107816,-0.0002212003052834
1654,1724822196172867578,-2.1455078125,0.0577380582690238,0.1689075529575348,0.0235072840005159,0.0436328798532485,-0.2879121601581573,0.9563734531402588,0.0,0.0,0.0,-0.1347529733015182,-0.124912240581913,-0.5295219136563432,2.110112503,-0.0591474751723538,0.0507758286897443,0.0029785319839548,-4.655947007272351,2.7171790544319476,0.7312190140636465,0.0199339157585219,0.0971474566243877,-0.583862786398791,-0.0025659455283886,0.0047941961222561,-0.0017813146833001,-47.69858449897805,-21.159808709979217,-85.35803958085297,7.710087964878746e-05
1656,1724822196183501497,-2.1455819606781006,0.0577911362051963,0.1687710136175155,0.0233741644769907,0.0428814478218555,-0.2878890335559845,0.9564177393913268,0.0,0.0,0.0,-0.3166189587170091,-0.2975148408905558,-0.58735271216887,2.120746422,0.0163597844296188,-0.1426313420870784,0.0087877209865077,10.391998931287146,-11.942525492213802,2.4850216811173587,0.020113984488646,0.095629173209402,-0.5837995115329794,-0.0105498390827136,0.00100341579025,-0.0197943721381737,30.62098550027843,5.842096589917495,71.68808449516602,-0.0001446557744969
1658,1724822196193863520,-2.1457273960113525,0.0577612668275833,0.1684956848621368,0.0238622315227985,0.041632767766714,-0.2876801788806915,0.9565236568450928,0.0,0.0,0.0,0.4825436192299459,-0.0141018144277118,0.9342324073478157,2.131108445,0.1572753799276371,-0.2033214355282382,0.0541131136946668,-6.429636246277165,7.441532776525885,0.2683676584173525,0.0217926627105315,0.0935110587722276,-0.5832806963800674,-0.0094467418872596,-0.0014840631196268,-0.0147073901926084,45.43069048933909,21.316780182230545,68.50282180756112,-0.0002815682748976
1660,1724822196203414380,-2.1457772254943848,0.057759404182434,0.1684596538543701,0.0234779734164476,0.0416716150939464,-0.2875721156597137,0.9565640091896056,0.0,0.0,0.0,0.6374417180707093,0.1363702102228625,0.8988538773610939,2.140659305,-0.0804512772832493,-0.0151790317224343,0.0205319488647437,-8.243694615144548,10.41959553120198,-2.514971869608795,0.0210423665421235,0.0933619270346727,-0.5830869468118738,-0.0015272600701194,0.0003703827105074,-0.0018821498856347,13.949983076303424,11.70357480371087,-1.1013781046496405,-3.903754710083352e-05
1662,1724822196214795614,-2.145744562149048,0.0577712878584861,0.1684638708829879,0.0237228665500879,0.041464440524578,-0.2875574231147766,0.9565712809562684,0.0,0.0,0.0,0.7654468129285503,0.2146268455022591,0.9216196536751176,2.152040539,0.0514971572573513,-0.0224420963856219,0.005485283660886,4.502566271876003,2.1345327414153763,-0.658409941167571,0.0216337899333916,0.0931052154500294,-0.5830296208510908,0.0031270423355778,0.0011386041100063,0.0023264553923993,-41.58059801860709,-12.525912074321855,-57.88736703880076,5.520509933286371e-06
1664,1724822196230416451,-2.1456902027130127,0.0577910989522933,0.1685421466827392,0.0236583035439252,0.0420560836791992,-0.2874641120433807,0.956575095653534,0.0,0.0,0.0,-1.016686875359218,-0.3970087066159569,-1.2666044965355043,2.167661376,-0.030196856337232,0.0703468975972044,0.0094288283114141,-24.359785515002507,40.87815834249949,7.391738960872053,0.0211781299701574,0.0942006883788687,-0.5828580946114346,0.0227272568270109,0.0076456368730148,0.0285541182085324,-215.2921743371204,-74.2306990959363,-272.95087758453207,8.016992702384257e-05
1666,1724822196233483648,-2.145608901977539,0.0578183904290199,0.168643906712532,0.0235854052007198,0.0424240939319133,-0.2873953282833099,0.9565813541412354,0.0,0.0,0.0,-1.7379815447577551,-0.6458132677988753,-2.183818297434459,2.170728573,-0.1164342042034335,0.2167698291206428,0.0364004042720239,-19.054468664488432,29.782052172923464,5.948440653346972,0.0208329124783959,0.0948630798504489,-0.5827319869071106,0.0182408991886049,0.0059379580355269,0.0228951825719541,-194.2892626329912,-66.11082073276766,-246.5577883060555,0.0001048800951323
