seq,stamp,px,py,pz,ox,oy,oz,ow,lx,ly,lz,ax,ay,az
272,1724812510718617926,-1.9219406843185425,-0.17367933690547943,0.1769304871559143,0.017743313685059547,0.04367765784263611,-0.38270115852355957,0.9226686358451843,0.0,0.0,0.0,0.0,0.0,0.0
274,1724812510729857994,-1.9219601154327393,-0.17373143136501312,0.17688795924186707,0.01790875382721424,0.04349401965737343,-0.3825204372406006,0.9227490425109863,0.0,0.0,0.0,0.0,0.0,0.0
276,1724812510739023915,-1.9219365119934082,-0.1736966222524643,0.17692799866199493,0.017846114933490753,0.04363396018743515,-0.38261690735816956,0.9227035641670227,0.0,0.0,0.0,0.0,0.0,0.0
278,1724812510748631256,-1.9219311475753784,-0.17370691895484924,0.17688049376010895,0.01776582933962345,0.043383631855249405,-0.38253238797187805,0.9227519631385803,0.0,0.0,0.0,0.0,0.0,0.0
280,1724812510761430980,-1.9219310283660889,-0.17369291186332703,0.17689594626426697,0.017841827124357224,0.04355013743042946,-0.3825712203979492,0.922726571559906,0.0,0.0,0.0,0.0,0.0,0.0
282,1724812510768381835,-1.9219340085983276,-0.17371071875095367,0.17690037190914154,0.018246175721287727,0.04363979026675224,-0.3825344741344452,0.9227296113967896,0.0,0.0,0.0,0.0,0.0,0.0
284,1724812510779089793,-1.921929121017456,-0.1736854761838913,0.17693452537059784,0.018117116764187813,0.0438433401286602,-0.3826058804988861,0.9226930141448975,0.0,0.0,0.0,0.0,0.0,0.0
286,1724812510789221037,-1.9219409227371216,-0.17370662093162537,0.17685310542583466,0.01785164326429367,0.04339290410280228,-0.3824154734611511,0.9227983355522156,0.0,0.0,0.0,0.0,0.0,0.0
288,1724812510798760135,-1.9219465255737305,-0.17372305691242218,0.17685431241989136,0.017980117350816727,0.043481454253196716,-0.38253119587898254,0.9227437376976013,0.0,0.0,0.0,0.0,0.0,0.0
290,1724812510809363717,-1.921941876411438,-0.17371025681495667,0.17684219777584076,0.018086131662130356,0.04340967535972595,-0.3824167847633362,0.9227924942970276,0.0,0.0,0.0,0.0,0.0,0.0
292,1724812510818384270,-1.9219571352005005,-0.17372368276119232,0.1768316775560379,0.017939943820238113,0.043439831584692,-0.38236016035079956,0.9228173494338989,0.0,0.0,0.0,0.0,0.0,0.0
294,1724812510829209451,-1.9220908880233765,-0.17393997311592102,0.17651650309562683,0.016897745430469513,0.04095172509551048,-0.38061848282814026,0.9236704111099243,0.0,0.0,0.0,0.0,0.0,0.0
296,1724812510839487936,-1.9220573902130127,-0.17392227053642273,0.1766480952501297,0.017822301015257835,0.040981847792863846,-0.38111355900764465,0.9234474897384644,0.0,0.0,0.0,0.0,0.0,0.0
298,1724812510848649213,-1.921903371810913,-0.1736738383769989,0.17704011499881744,0.019012345001101494,0.04383775591850281,-0.38306739926338196,0.9224836826324463,0.0,0.0,0.0,0.0,0.0,0.0
300,1724812510861827846,-1.921903371810913,-0.173642098903656,0.17701923847198486,0.019356390461325645,0.043805498629808426,-0.38324472308158875,0.9224044680595398,0.0,0.0,0.0,0.0,0.0,0.0
302,1724812510869508597,-1.9220256805419922,-0.1738518327474594,0.17668621242046356,0.018348747864365578,0.04116430878639221,-0.3815341293811798,0.923255443572998,0.0,0.0,0.0,0.0,0.0,0.0
304,1724812510882745977,-1.9220582246780396,-0.17390231788158417,0.1766500025987625,0.017961107194423676,0.041041404008865356,-0.3812219202518463,0.9233974814414978,0.0,0.0,0.0,0.0,0.0,0.0
306,1724812510888818859,-1.9219022989273071,-0.173633873462677,0.17708906531333923,0.01928899809718132,0.04413154721260071,-0.38332709670066833,0.9223560690879822,0.0,0.0,0.0,0.0,0.0,0.0
308,1724812510899529943,-1.9220472574234009,-0.17390915751457214,0.17662745714187622,0.018226204439997673,0.040840212255716324,-0.38119590282440186,0.9234119057655334,0.0,0.0,0.0,0.0,0.0,0.0
310,1724812510912262167,-1.9219120740890503,-0.17368456721305847,0.1770050972700119,0.019296906888484955,0.043856773525476456,-0.3830394744873047,0.9224884510040283,0.0,0.0,0.0,0.0,0.0,0.0
312,1724812510918456067,-1.9219008684158325,-0.17364433407783508,0.1770830750465393,0.01945626735687256,0.04408206045627594,-0.3833754062652588,0.9223348498344421,0.0,0.0,0.0,0.0,0.0,0.0
314,1724812510930382585,-1.9219000339508057,-0.17365431785583496,0.17701034247875214,0.019589552655816078,0.04395108297467232,-0.38318556547164917,0.9224171042442322,0.0,0.0,0.0,0.0,0.0,0.0
316,1724812510938860205,-1.9220378398895264,-0.1738923043012619,0.1766454130411148,0.018246643245220184,0.04092180356383324,-0.38130608201026917,0.9233624339103699,0.0,0.0,0.0,0.0,0.0,0.0
318,1724812510948702460,-1.9219120740890503,-0.17364853620529175,0.17705775797367096,0.019290251657366753,0.044114645570516586,-0.38321781158447266,0.9224022626876831,0.0,0.0,0.0,0.0,0.0,0.0
320,1724812510961910323,-1.921909213066101,-0.17364631593227386,0.17706084251403809,0.019348014146089554,0.044015154242515564,-0.3833719789981842,0.9223417639732361,0.0,0.0,0.0,0.0,0.0,0.0
322,1724812510968579114,-1.9218930006027222,-0.1736362874507904,0.17705635726451874,0.019532209262251854,0.043892309069633484,-0.3832448422908783,0.9223965406417847,0.0,0.0,0.0,0.0,0.0,0.0
324,1724812510979134896,-1.9220407009124756,-0.17389459908008575,0.17665590345859528,0.01814536191523075,0.04087395966053009,-0.38130897283554077,0.9233653545379639,0.0,0.0,0.0,0.0,0.0,0.0
326,1724812510988859831,-1.9220435619354248,-0.17389240860939026,0.17668071389198303,0.01798793487250805,0.04116879403591156,-0.381377637386322,0.9233269095420837,0.0,0.0,0.0,0.0,0.0,0.0
328,1724812510999034039,-1.9220635890960693,-0.17389675974845886,0.17668046057224274,0.017936477437615395,0.04107223451137543,-0.3811788856983185,0.9234143495559692,0.0,0.0,0.0,0.0,0.0,0.0
330,1724812511010315374,-1.9219309091567993,-0.17368099093437195,0.17700140178203583,0.01917128823697567,0.04388216510415077,-0.38300850987434387,0.9225027561187744,0.0,0.0,0.0,0.0,0.0,0.0
332,1724812511018374461,-1.92192542552948,-0.1736653745174408,0.17696513235569,0.0195460207760334,0.04363730549812317,-0.3829975426197052,0.9225110411643982,0.0,0.0,0.0,0.0,0.0,0.0
334,1724812511030736386,-1.9220683574676514,-0.1738886535167694,0.17663082480430603,0.01816246658563614,0.04094932973384857,-0.38132569193840027,0.9233546853065491,0.0,0.0,0.0,0.0,0.0,0.0
336,1724812511040957858,-1.9220762252807617,-0.1738751381635666,0.17670194804668427,0.01791595295071602,0.04115011543035507,-0.38135451078414917,0.9233387112617493,0.0,0.0,0.0,0.0,0.0,0.0
338,1724812511048816621,-1.9220706224441528,-0.1738872528076172,0.17664791643619537,0.018057845532894135,0.04104530066251755,-0.3811839818954468,0.9234110713005066,0.0,0.0,0.0,0.0,0.0,0.0
340,1724812511059234926,-1.9220764636993408,-0.17386752367019653,0.17669561505317688,0.017936687916517258,0.0412343330681324,-0.38134124875068665,0.9233401417732239,0.0,0.0,0.0,0.0,0.0,0.0
342,1724812511068401270,-1.9219204187393188,-0.17361006140708923,0.1770588755607605,0.01924586296081543,0.0441330187022686,-0.38328513503074646,0.9223743081092834,0.0,0.0,0.0,0.0,0.0,0.0
344,1724812511079393639,-1.92193603515625,-0.17366091907024384,0.17697617411613464,0.019366879016160965,0.04364301636815071,-0.3830803632736206,0.9224801063537598,0.0,0.0,0.0,0.0,0.0,0.0
346,1724812511089322556,-1.921918511390686,-0.1735994517803192,0.17703349888324738,0.019526392221450806,0.04401125758886337,-0.3832715153694153,0.9223799109458923,0.0,0.0,0.0,0.0,0.0,0.0
348,1724812511098769683,-1.9220675230026245,-0.17386558651924133,0.17658792436122894,0.018289396539330482,0.04091387987136841,-0.3813464939594269,0.9233452677726746,0.0,0.0,0.0,0.0,0.0,0.0
350,1724812511108258774,-1.9220770597457886,-0.17385423183441162,0.17665058374404907,0.018082119524478912,0.04124632477760315,-0.3814086318016052,0.9233088493347168,0.0,0.0,0.0,0.0,0.0,0.0
352,1724812511119294720,-1.9220786094665527,-0.17383091151714325,0.17668767273426056,0.018020635470747948,0.04136756435036659,-0.3814360797405243,0.9232932925224304,0.0,0.0,0.0,0.0,0.0,0.0
354,1724812511129175973,-1.9219368696212769,-0.17363548278808594,0.17694996297359467,0.019391492009162903,0.043725255876779556,-0.382973313331604,0.9225202798843384,0.0,0.0,0.0,0.0,0.0,0.0
356,1724812511138921277,-1.9219547510147095,-0.17362011969089508,0.17694243788719177,0.01934373937547207,0.04380354657769203,-0.38323649764060974,0.9224082231521606,0.0,0.0,0.0,0.0,0.0,0.0
358,1724812511149088366,-1.922110676765442,-0.17388340830802917,0.17646659910678864,0.018130898475646973,0.04045877233147621,-0.3810276389122009,0.923500120639801,0.0,0.0,0.0,0.0,0.0,0.0
360,1724812511158498191,-1.9219733476638794,-0.17362020909786224,0.17685437202453613,0.01919436827301979,0.043550677597522736,-0.3830782175064087,0.9224891066551208,0.0,0.0,0.0,0.0,0.0,0.0
362,1724812511168802959,-1.9221255779266357,-0.173862487077713,0.1763971447944641,0.018045423552393913,0.040329284965991974,-0.38093990087509155,0.9235436320304871,0.0,0.0,0.0,0.0,0.0,0.0
364,1724812511179592899,-1.9221255779266357,-0.17384152114391327,0.17640650272369385,0.01803458295762539,0.040687207132577896,-0.38098418712615967,0.9235098958015442,0.0,0.0,0.0,0.0,0.0,0.0
366,1724812511188744342,-1.922131896018982,-0.17386379837989807,0.17640553414821625,0.0180423054844141,0.04053577780723572,-0.38085684180259705,0.9235689043998718,0.0,0.0,0.0,0.0,0.0,0.0
368,1724812511198677859,-1.9221292734146118,-0.1738327443599701,0.17644527554512024,0.01822492852807045,0.04089360684156418,-0.38099658489227295,0.923491895198822,0.0,0.0,0.0,0.0,0.0,0.0
370,1724812511208860413,-1.9221521615982056,-0.17386552691459656,0.17639051377773285,0.018103279173374176,0.04064257815480232,-0.3808327913284302,0.923572838306427,0.0,0.0,0.0,0.0,0.0,0.0
372,1724812511219010315,-1.921990990638733,-0.1735844612121582,0.1768362671136856,0.019347408786416054,0.043751105666160583,-0.38311994075775146,0.9224590063095093,0.0,0.0,0.0,0.0,0.0,0.0
374,1724812511234487576,-1.9221311807632446,-0.17385238409042358,0.17633545398712158,0.018376003950834274,0.04017744958400726,-0.3809056282043457,0.9235578179359436,0.0,0.0,0.0,0.0,0.0,0.0
376,1724812511238679948,-1.922156572341919,-0.1738286316394806,0.17634519934654236,0.018437545746564865,0.040514763444662094,-0.380946546792984,0.9235249757766724,0.0,0.0,0.0,0.0,0.0,0.0
378,1724812511248461031,-1.9221476316452026,-0.17383088171482086,0.17632655799388885,0.018255729228258133,0.04052288085222244,-0.38090184330940247,0.9235467314720154,0.0,0.0,0.0,0.0,0.0,0.0
380,1724812511259444359,-1.9221597909927368,-0.1738365739583969,0.1762751042842865,0.018446791917085648,0.04059521108865738,-0.38080310821533203,0.9235803484916687,0.0,0.0,0.0,0.0,0.0,0.0
382,1724812511268370056,-1.9221826791763306,-0.17385321855545044,0.17627516388893127,0.018222909420728683,0.04043366387486458,-0.3807216286659241,0.9236255288124084,0.0,0.0,0.0,0.0,0.0,0.0
384,1724812511279722664,-1.9223542213439941,-0.17402224242687225,0.17593270540237427,0.016503365710377693,0.03753788396716118,-0.37918004393577576,0.9244139194488525,0.0,0.0,0.0,0.0,0.0,0.0
386,1724812511288948421,-1.9223415851593018,-0.17395101487636566,0.17601719498634338,0.016348227858543396,0.03775990754365921,-0.379442423582077,0.924299955368042,0.0,0.0,0.0,0.0,0.0,0.0
388,1724812511298472983,-1.9222276210784912,-0.173694908618927,0.1762654334306717,0.016955474391579628,0.039938051253557205,-0.3807961642742157,0.9236404895782471,0.0,0.0,0.0,0.0,0.0,0.0
390,1724812511311825797,-1.922352910041809,-0.173696830868721,0.17547735571861267,0.015683576464653015,0.03872194513678551,-0.37967658042907715,0.9241755604743958,0.0,0.0,0.0,0.0,0.0,0.0
392,1724812511318262489,-1.9223695993423462,-0.17348507046699524,0.1750144213438034,0.01110055111348629,0.040173836052417755,-0.3801705837249756,0.9239768385887146,0.0,0.0,0.0,0.0,0.0,0.0
394,1724812511329223437,-1.9222410917282104,-0.1732165366411209,0.17411372065544128,0.007767891511321068,0.040733326226472855,-0.3803842067718506,0.9238983988761902,0.0,0.0,0.0,0.0,0.0,0.0
396,1724812511339318751,-1.9222036600112915,-0.172988161444664,0.17293661832809448,0.004697013646364212,0.040559157729148865,-0.3798584043979645,0.9241431951522827,0.0,0.0,0.0,0.0,0.0,0.0
398,1724812511348489985,-1.9219439029693604,-0.1723313331604004,0.17290948331356049,0.00533625204116106,0.04391178488731384,-0.38260796666145325,0.9228512644767761,0.0,0.0,0.0,0.0,0.0,0.0
400,1724812511358597594,-1.9220786094665527,-0.1720864623785019,0.17195837199687958,0.0034191738814115524,0.04253113642334938,-0.38196036219596863,0.9231932163238525,0.0,0.0,0.0,0.0,0.0,0.0
402,1724812511368511091,-1.9220621585845947,-0.17170025408267975,0.17145168781280518,0.004575628321617842,0.04339706152677536,-0.3820384442806244,0.923115611076355,0.0,0.0,0.0,0.0,0.0,0.0
404,1724812511379040497,-1.922224521636963,-0.17147678136825562,0.17068156599998474,0.0031070357654243708,0.041825488209724426,-0.38138678669929504,0.9234637022018433,0.0,0.0,0.0,0.0,0.0,0.0
406,1724812511389480641,-1.9224720001220703,-0.1713729202747345,0.16966180503368378,0.0008985514868982136,0.040731921792030334,-0.38055673241615295,0.9238597750663757,0.0,0.0,0.0,0.0,0.0,0.0
408,1724812511398666959,-1.9226069450378418,-0.1712283343076706,0.16916564106941223,-0.00014828892017249018,0.04003084450960159,-0.3800392150878906,0.9241037368774414,0.0,0.0,0.0,0.0,0.0,0.0
410,1724812511408785177,-1.9228066205978394,-0.17105211317539215,0.16866616904735565,-0.0013331022346392274,0.03948059305548668,-0.37933439016342163,0.9244160652160645,0.0,0.0,0.0,0.0,0.0,0.0
412,1724812511419066651,-1.9228863716125488,-0.17098590731620789,0.16818803548812866,-0.0017980129923671484,0.039425142109394073,-0.3789443373680115,0.924577534198761,0.0,0.0,0.0,0.0,0.0,0.0
414,1724812511428856495,-1.9229602813720703,-0.1709006130695343,0.16792018711566925,-0.0020315058063715696,0.039525169879198074,-0.3787164092063904,0.9246661067008972,0.0,0.0,0.0,0.0,0.0,0.0
416,1724812511438736579,-1.9230220317840576,-0.1708853840827942,0.16762185096740723,-0.004376551136374474,0.039425987750291824,-0.37812769412994385,0.924903154373169,0.0,0.0,0.0,0.0,0.0,0.0
418,1724812511448434351,-1.9230198860168457,-0.17098484933376312,0.16748756170272827,-0.003610811661928892,0.038970015943050385,-0.3778347671031952,0.9250455498695374,0.0,0.0,0.0,0.0,0.0,0.0
420,1724812511458636800,-1.9230637550354004,-0.17103995382785797,0.1674903929233551,-0.003917796537280083,0.039200760424137115,-0.37869906425476074,0.9246810078620911,0.0,0.0,0.0,0.0,0.0,0.0
422,1724812511468719811,-1.9230902194976807,-0.1710825115442276,0.16740894317626953,-0.0041043804958462715,0.038881219923496246,-0.378773033618927,0.9246633648872375,0.0,0.0,0.0,0.0,0.0,0.0
424,1724812511479305241,-1.9231234788894653,-0.17109715938568115,0.1672707200050354,-0.004474218003451824,0.03852241486310959,-0.37862247228622437,0.9247384071350098,0.0,0.0,0.0,0.0,0.0,0.0
426,1724812511488764538,-1.9231185913085938,-0.17106258869171143,0.1670457124710083,-0.004701258614659309,0.03824086859822273,-0.37794020771980286,0.9250279664993286,0.0,0.0,0.0,0.0,0.0,0.0
428,1724812511498474176,-1.9231445789337158,-0.17106886208057404,0.166769877076149,-0.004296624101698399,0.03805775195360184,-0.37764686346054077,0.925157368183136,0.0,0.0,0.0,0.0,0.0,0.0
430,1724812511510096952,-1.9231778383255005,-0.17101432383060455,0.16658015549182892,-0.004641713574528694,0.038076549768447876,-0.3777407705783844,0.9251165390014648,0.0,0.0,0.0,0.0,0.0,0.0
432,1724812511518404434,-1.9232401847839355,-0.1710129827260971,0.16627733409404755,-0.004570650402456522,0.03721534460783005,-0.37736767530441284,0.925304114818573,0.0,0.0,0.0,0.0,0.0,0.0
434,1724812511529458278,-1.9233156442642212,-0.1710471510887146,0.16603414714336395,-0.004891570191830397,0.036952272057533264,-0.37727344036102295,0.9253515601158142,0.0,0.0,0.0,0.0,0.0,0.0
436,1724812511540930495,-1.9233739376068115,-0.1711072325706482,0.16586712002754211,-0.004977690987288952,0.03692639246582985,-0.3774814009666443,0.9252672791481018,0.0,0.0,0.0,0.0,0.0,0.0
438,1724812511548746483,-1.9234817028045654,-0.1712716519832611,0.16552461683750153,-0.005450228229165077,0.03602093085646629,-0.3772469460964203,0.9253959655761719,0.0,0.0,0.0,0.0,0.0,0.0
440,1724812511559744583,-1.9235610961914062,-0.17140115797519684,0.16531282663345337,-0.005356247536838055,0.035553209483623505,-0.3772125244140625,0.9254286289215088,0.0,0.0,0.0,0.0,0.0,0.0
442,1724812511568424050,-1.9236656427383423,-0.17151828110218048,0.16524043679237366,-0.004330142866820097,0.03577052801847458,-0.37785306572914124,0.9251641631126404,0.0,0.0,0.0,0.0,0.0,0.0
444,1724812511578537533,-1.9237172603607178,-0.17169460654258728,0.16496729850769043,-0.0033099642023444176,0.034448593854904175,-0.37795695662498474,0.9251761436462402,0.0,0.0,0.0,0.0,0.0,0.0
446,1724812511589157591,-1.9238455295562744,-0.17175135016441345,0.16477353870868683,-0.00456736795604229,0.035016775131225586,-0.37821003794670105,0.9250460863113403,0.0,0.0,0.0,0.0,0.0,0.0
448,1724812511598697232,-1.9239003658294678,-0.17181268334388733,0.16457422077655792,-0.004416606388986111,0.034476011991500854,-0.37818998098373413,0.9250752925872803,0.0,0.0,0.0,0.0,0.0,0.0
450,1724812511608805816,-1.9239723682403564,-0.17184893786907196,0.1644330471754074,-0.0045428709127008915,0.034306157380342484,-0.37841975688934326,0.9249869585037231,0.0,0.0,0.0,0.0,0.0,0.0
452,1724812511618440712,-1.923943042755127,-0.1718839555978775,0.16424110531806946,-0.0037480765022337437,0.032772477716207504,-0.3779459595680237,0.9252399206161499,0.0,0.0,0.0,0.0,0.0,0.0
454,1724812511628633030,-1.9240081310272217,-0.17187686264514923,0.16390082240104675,-0.005961596965789795,0.03257107362151146,-0.37731820344924927,0.9254915714263916,0.0,0.0,0.0,0.0,0.0,0.0
456,1724812511639023743,-1.9239940643310547,-0.17189332842826843,0.16385777294635773,-0.005655515938997269,0.03261246159672737,-0.3775487542152405,0.9253979921340942,0.0,0.0,0.0,0.0,0.0,0.0
458,1724812511648808521,-1.9240056276321411,-0.1718805432319641,0.16383981704711914,-0.005685353185981512,0.03255828469991684,-0.37750089168548584,0.9254192113876343,0.0,0.0,0.0,0.0,0.0,0.0
460,1724812511658713269,-1.923988699913025,-0.17189116775989532,0.16383185982704163,-0.005400344729423523,0.03252995386719704,-0.37745189666748047,0.9254419207572937,0.0,0.0,0.0,0.0,0.0,0.0
462,1724812511668568396,-1.9240034818649292,-0.1719042956829071,0.16371330618858337,-0.005511343013495207,0.032233405858278275,-0.377344012260437,0.9254956245422363,0.0,0.0,0.0,0.0,0.0,0.0
464,1724812511679166186,-1.924024224281311,-0.17192772030830383,0.16361920535564423,-0.005570460110902786,0.031809043139219284,-0.3772478699684143,0.9255490899085999,0.0,0.0,0.0,0.0,0.0,0.0
466,1724812511689235763,-1.924035906791687,-0.17191706597805023,0.16362103819847107,-0.005320997443050146,0.03206321597099304,-0.3773813247680664,0.9254874587059021,0.0,0.0,0.0,0.0,0.0,0.0
468,1724812511701616272,-1.9240628480911255,-0.1719697266817093,0.1635049730539322,-0.005356880836188793,0.031915389001369476,-0.37725821137428284,0.9255425930023193,0.0,0.0,0.0,0.0,0.0,0.0
470,1724812511708702282,-1.9240309000015259,-0.17198172211647034,0.16346196830272675,-0.004756231792271137,0.03167654946446419,-0.37720173597335815,0.9255771040916443,0.0,0.0,0.0,0.0,0.0,0.0
472,1724812511719185389,-1.9240347146987915,-0.17197993397712708,0.16339372098445892,-0.00513591431081295,0.031571246683597565,-0.3771357834339142,0.9256054759025574,0.0,0.0,0.0,0.0,0.0,0.0
474,1724812511729660544,-1.9242175817489624,-0.17224456369876862,0.16302597522735596,-0.0073250592686235905,0.028801441192626953,-0.3754727244377136,0.9263569116592407,0.0,0.0,0.0,0.0,0.0,0.0
476,1724812511738737167,-1.9240100383758545,-0.17198193073272705,0.16362625360488892,-0.0049482728354632854,0.03218669071793556,-0.3774457275867462,0.9254589676856995,0.0,0.0,0.0,0.0,0.0,0.0
478,1724812511754183048,-1.9239860773086548,-0.17198190093040466,0.163733571767807,-0.004381027538329363,0.03228769823908806,-0.3775946795940399,0.925397515296936,0.0,0.0,0.0,0.0,0.0,0.0
480,1724812511762448180,-1.9239931106567383,-0.17201483249664307,0.1637950837612152,-0.00422359025105834,0.03227527067065239,-0.3778214454650879,0.9253061413764954,0.0,0.0,0.0,0.0,0.0,0.0
482,1724812511768205165,-1.9240036010742188,-0.1721341609954834,0.16367055475711823,-0.0017343636136502028,0.030985716730356216,-0.37734127044677734,0.9255542159080505,0.0,0.0,0.0,0.0,0.0,0.0
484,1724812511779737092,-1.9240810871124268,-0.17214204370975494,0.16371509432792664,-0.001156614045612514,0.0309999231249094,-0.37755286693573,0.9254682660102844,0.0,0.0,0.0,0.0,0.0,0.0
486,1724812511789368505,-1.9241983890533447,-0.17211388051509857,0.16386587917804718,-0.000775631342548877,0.03154252469539642,-0.37771984934806824,0.9253821969032288,0.0,0.0,0.0,0.0,0.0,0.0
488,1724812511798502865,-1.924451470375061,-0.17212963104248047,0.1641208529472351,-0.0008012893958948553,0.03248151019215584,-0.3784194588661194,0.9250637888908386,0.0,0.0,0.0,0.0,0.0,0.0
490,1724812511809962621,-1.9247511625289917,-0.17216823995113373,0.16412286460399628,-0.0010830456158146262,0.03287190943956375,-0.37810051441192627,0.9251800775527954,0.0,0.0,0.0,0.0,0.0,0.0
492,1724812511818967225,-1.9250680208206177,-0.17217127978801727,0.16410063207149506,-0.001832098700106144,0.032913967967033386,-0.37756338715553284,0.9253968000411987,0.0,0.0,0.0,0.0,0.0,0.0
494,1724812511829230861,-1.92574143409729,-0.1725429743528366,0.16362619400024414,-0.004469031933695078,0.029936859384179115,-0.3750673532485962,0.9265032410621643,0.0,0.0,0.0,0.0,0.0,0.0
496,1724812511838602302,-1.9263310432434082,-0.17242300510406494,0.1637646108865738,-0.002474544569849968,0.032310158014297485,-0.37654149532318115,0.9258328080177307,0.0,0.0,0.0,0.0,0.0,0.0
498,1724812511848454618,-1.9273093938827515,-0.17277921736240387,0.16301533579826355,-0.004315072204917669,0.031000636518001556,-0.37605252861976624,0.9260696172714233,0.0,0.0,0.0,0.0,0.0,0.0
500,1724812511858279348,-1.9277758598327637,-0.17260117828845978,0.16235661506652832,-0.005501297302544117,0.03044443577528,-0.37547412514686584,0.9263164401054382,0.0,0.0,0.0,0.0,0.0,0.0
502,1724812511868762431,-1.928046703338623,-0.17223022878170013,0.161897674202919,-0.004078612197190523,0.030588099732995033,-0.3762473464012146,0.9260052442550659,0.0,0.0,0.0,0.0,0.0,0.0
504,1724812511878931547,-1.9282407760620117,-0.1718577742576599,0.16090001165866852,-0.004443129990249872,0.029940642416477203,-0.3758358955383301,0.9261918067932129,0.0,0.0,0.0,0.0,0.0,0.0
506,1724812511888730719,-1.928635597229004,-0.1718386560678482,0.1594017744064331,-0.00770906126126647,0.02496718242764473,-0.37335205078125,0.92732173204422,0.0,0.0,0.0,0.0,0.0,0.0
508,1724812511900009105,-1.9285720586776733,-0.17132200300693512,0.15872246026992798,-0.006244997028261423,0.02782522700726986,-0.3747584819793701,0.9266838431358337,0.0,0.0,0.0,0.0,0.0,0.0
510,1724812511908250697,-1.9286131858825684,-0.17101611196994781,0.15823373198509216,-0.005352357868105173,0.026513418182730675,-0.3745153546333313,0.9268261194229126,0.0,0.0,0.0,0.0,0.0,0.0
512,1724812511920809762,-1.9285767078399658,-0.17061471939086914,0.15809474885463715,-0.004920107312500477,0.02608794905245304,-0.374825656414032,0.9267151355743408,0.0,0.0,0.0,0.0,0.0,0.0
514,1724812511929119939,-1.9284157752990723,-0.17013543844223022,0.1585315763950348,-0.0033111944794654846,0.027013985440135002,-0.3757535517215729,0.9263198971748352,0.0,0.0,0.0,0.0,0.0,0.0
516,1724812511938588594,-1.9283219575881958,-0.16989468038082123,0.1584692895412445,-0.0022954868618398905,0.027190452441573143,-0.3761657774448395,0.9261505007743835,0.0,0.0,0.0,0.0,0.0,0.0
518,1724812511949460297,-1.9283699989318848,-0.16989661753177643,0.15757600963115692,-0.005124599207192659,0.025832274928689003,-0.3752550780773163,0.9265474081039429,0.0,0.0,0.0,0.0,0.0,0.0
520,1724812511958266642,-1.9283490180969238,-0.1698138564825058,0.15735457837581635,-0.005815165117383003,0.025547785684466362,-0.37516283988952637,0.9265885353088379,0.0,0.0,0.0,0.0,0.0,0.0
522,1724812511970727019,-1.9283180236816406,-0.16978371143341064,0.15712054073810577,-0.005732865538448095,0.02518768422305584,-0.3751068115234375,0.9266216158866882,0.0,0.0,0.0,0.0,0.0,0.0
524,1724812511979682846,-1.92832350730896,-0.16975049674510956,0.157068133354187,-0.005292466375976801,0.025496795773506165,-0.37526947259902954,0.9265499711036682,0.0,0.0,0.0,0.0,0.0,0.0
526,1724812511989081999,-1.9283944368362427,-0.16978506743907928,0.1570993810892105,-0.005368068814277649,0.02541421726346016,-0.37596774101257324,0.9262686967849731,0.0,0.0,0.0,0.0,0.0,0.0
528,1724812511998716068,-1.9284511804580688,-0.16982202231884003,0.1570102721452713,-0.0054610478691756725,0.024989012628793716,-0.37581223249435425,0.926342785358429,0.0,0.0,0.0,0.0,0.0,0.0
530,1724812512014763201,-1.928481101989746,-0.16980555653572083,0.15705250203609467,-0.005353758577257395,0.02519170194864273,-0.37607648968696594,0.9262306690216064,0.0,0.0,0.0,0.0,0.0,0.0
532,1724812512018041758,-1.928493618965149,-0.16981545090675354,0.15709039568901062,-0.005120690446346998,0.025191841647028923,-0.3761339485645294,0.9262085556983948,0.0,0.0,0.0,0.0,0.0,0.0
534,1724812512029492139,-1.928485631942749,-0.16980618238449097,0.15705908834934235,-0.005082697607576847,0.02498646266758442,-0.37608903646469116,0.9262326955795288,0.0,0.0,0.0,0.0,0.0,0.0
536,1724812512038793318,-1.9284274578094482,-0.16975156962871552,0.15700428187847137,-0.004602436441928148,0.024929560720920563,-0.3756569027900696,0.9264119863510132,0.0,0.0,0.0,0.0,0.0,0.0
538,1724812512048462768,-1.9284276962280273,-0.1697165071964264,0.15701772272586823,-0.004412251524627209,0.02503090724349022,-0.37571394443511963,0.9263870716094971,0.0,0.0,0.0,0.0,0.0,0.0
540,1724812512059122134,-1.9284136295318604,-0.1697302609682083,0.1570284366607666,-0.004168991465121508,0.024802079424262047,-0.3756946325302124,0.92640221118927,0.0,0.0,0.0,0.0,0.0,0.0
542,1724812512083984544,-1.928431510925293,-0.1697293221950531,0.15702314674854279,-0.004484941251575947,0.02483254112303257,-0.37571465969085693,0.9263917803764343,0.0,0.0,0.0,0.0,0.0,0.0
544,1724812512089233523,-1.9284552335739136,-0.16977310180664062,0.1570541113615036,-0.00430810172110796,0.024811001494526863,-0.3757900893688202,0.9263625741004944,0.0,0.0,0.0,0.0,0.0,0.0
546,1724812512098571804,-1.9284332990646362,-0.1697903275489807,0.15699456632137299,-0.0038982355035841465,0.02440606616437435,-0.3756575882434845,0.9264289140701294,0.0,0.0,0.0,0.0,0.0,0.0
548,1724812512110732541,-1.9284443855285645,-0.1697472333908081,0.1569814234972,-0.004420090466737747,0.024637384340167046,-0.3757314383983612,0.926390528678894,0.0,0.0,0.0,0.0,0.0,0.0
550,1724812512118678097,-1.9284342527389526,-0.1697189211845398,0.15701352059841156,-0.004446891136467457,0.024832656607031822,-0.37575310468673706,0.9263764023780823,0.0,0.0,0.0,0.0,0.0,0.0
552,1724812512129154726,-1.9284460544586182,-0.16969570517539978,0.1570093333721161,-0.00409228540956974,0.024920186027884483,-0.37579724192619324,0.9263578057289124,0.0,0.0,0.0,0.0,0.0,0.0
554,1724812512138973132,-1.9285061359405518,-0.16977021098136902,0.15699133276939392,-0.004604022018611431,0.0247186366468668,-0.37632641196250916,0.9261459112167358,0.0,0.0,0.0,0.0,0.0,0.0
556,1724812512151479173,-1.928511381149292,-0.16977950930595398,0.15695983171463013,-0.004700809251517057,0.024550627917051315,-0.3762958347797394,0.9261623620986938,0.0,0.0,0.0,0.0,0.0,0.0
558,1724812512160704032,-1.9284565448760986,-0.16972585022449493,0.1570231318473816,-0.004100438207387924,0.02475598268210888,-0.3759743869304657,0.9262902736663818,0.0,0.0,0.0,0.0,0.0,0.0
560,1724812512169865375,-1.9285093545913696,-0.16977456212043762,0.1570085734128952,-0.004528596997261047,0.024734457954764366,-0.3764317035675049,0.9261030554771423,0.0,0.0,0.0,0.0,0.0,0.0
562,1724812512180074581,-1.9284558296203613,-0.16975855827331543,0.15693961083889008,-0.003948212135583162,0.02449396811425686,-0.37581631541252136,0.9263619780540466,0.0,0.0,0.0,0.0,0.0,0.0
564,1724812512188586459,-1.9284324645996094,-0.16974790394306183,0.15697458386421204,-0.0036362672690302134,0.024500327184796333,-0.3757788836956024,0.9263783693313599,0.0,0.0,0.0,0.0,0.0,0.0
566,1724812512199485514,-1.9285154342651367,-0.16975978016853333,0.15699487924575806,-0.004690267611294985,0.024662164971232414,-0.37643107771873474,0.9261044859886169,0.0,0.0,0.0,0.0,0.0,0.0
568,1724812512217387027,-1.9285060167312622,-0.1697467416524887,0.15704654157161713,-0.0043768747709691525,0.024845117703080177,-0.37652280926704407,0.9260637760162354,0.0,0.0,0.0,0.0,0.0,0.0
570,1724812512218398227,-1.928523302078247,-0.16977886855602264,0.15697555243968964,-0.004421517252922058,0.02464470826089382,-0.37642955780029297,0.9261068105697632,0.0,0.0,0.0,0.0,0.0,0.0
572,1724812512230585627,-1.9285199642181396,-0.16973520815372467,0.15702717006206512,-0.004189623985439539,0.024978717789053917,-0.376569539308548,0.9260420799255371,0.0,0.0,0.0,0.0,0.0,0.0
574,1724812512238740706,-1.9284647703170776,-0.16971218585968018,0.15698714554309845,-0.004132620524615049,0.02474731206893921,-0.37600117921829224,0.9262794256210327,0.0,0.0,0.0,0.0,0.0,0.0
576,1724812512248348643,-1.928467035293579,-0.16973474621772766,0.15693706274032593,-0.004394002724438906,0.024445243179798126,-0.3758600950241089,0.9263435006141663,0.0,0.0,0.0,0.0,0.0,0.0
578,1724812512263112066,-1.9284523725509644,-0.16970239579677582,0.15697887539863586,-0.004035898484289646,0.02457529492676258,-0.37588879466056824,0.9263300895690918,0.0,0.0,0.0,0.0,0.0,0.0
580,1724812512268355451,-1.928450584411621,-0.1696922481060028,0.15700167417526245,-0.003769749077036977,0.024646097794175148,-0.37589678168296814,0.9263260960578918,0.0,0.0,0.0,0.0,0.0,0.0
582,1724812512282494733,-1.9284628629684448,-0.16971443593502045,0.15694820880889893,-0.0041246297769248486,0.0244806669652462,-0.37589263916015625,0.9263306856155396,0.0,0.0,0.0,0.0,0.0,0.0
584,1724812512288383241,-1.9284664392471313,-0.1696927398443222,0.15698961913585663,-0.004205568693578243,0.024492984637618065,-0.37593427300453186,0.9263131022453308,0.0,0.0,0.0,0.0,0.0,0.0
586,1724812512299173209,-1.9284594058990479,-0.16973662376403809,0.1569405198097229,-0.004008173476904631,0.024324821308255196,-0.37581196427345276,0.926367998123169,0.0,0.0,0.0,0.0,0.0,0.0
588,1724812512310323159,-1.9284563064575195,-0.16972416639328003,0.15695063769817352,-0.003926824778318405,0.02437380701303482,-0.3758220076560974,0.926362931728363,0.0,0.0,0.0,0.0,0.0,0.0
590,1724812512318848070,-1.9284721612930298,-0.16973283886909485,0.15695704519748688,-0.004373076371848583,0.024413730949163437,-0.3759337365627289,0.926314651966095,0.0,0.0,0.0,0.0,0.0,0.0
592,1724812512329521243,-1.9284570217132568,-0.16973650455474854,0.1569613218307495,-0.004312645178288221,0.024437809363007545,-0.37588027119636536,0.9263359308242798,0.0,0.0,0.0,0.0,0.0,0.0
594,1724812512340512629,-1.9284586906433105,-0.16971568763256073,0.1570064276456833,-0.004166198894381523,0.02465537004172802,-0.37602725625038147,0.9262711405754089,0.0,0.0,0.0,0.0,0.0,0.0
596,1724812512348447323,-1.9284526109695435,-0.1697479635477066,0.1569320559501648,-0.004130438901484013,0.024134399369359016,-0.37575867772102356,0.9263941049575806,0.0,0.0,0.0,0.0,0.0,0.0
598,1724812512358898451,-1.9284629821777344,-0.16972768306732178,0.15696388483047485,-0.004201705101877451,0.02456619404256344,-0.3758465647697449,0.9263466596603394,0.0,0.0,0.0,0.0,0.0,0.0
600,1724812512368938994,-1.9284641742706299,-0.16973131895065308,0.15698882937431335,-0.0042846170254051685,0.024589762091636658,-0.37583187222480774,0.9263516664505005,0.0,0.0,0.0,0.0,0.0,0.0
602,1724812512378971317,-1.928456425666809,-0.16976022720336914,0.15694934129714966,-0.004136722069233656,0.024393174797296524,-0.3757345974445343,0.9263969659805298,0.0,0.0,0.0,0.0,0.0,0.0
604,1724812512388728027,-1.9285056591033936,-0.1697455197572708,0.1570330560207367,-0.004658153280615807,0.02481783740222454,-0.3764623999595642,0.9260877966880798,0.0,0.0,0.0,0.0,0.0,0.0
606,1724812512399280199,-1.9285147190093994,-0.169763445854187,0.15699398517608643,-0.004687448963522911,0.024755865335464478,-0.37637895345687866,0.9261232018470764,0.0,0.0,0.0,0.0,0.0,0.0
608,1724812512439568971,-1.9285181760787964,-0.16978789865970612,0.15693354606628418,-0.0047680409625172615,0.024567734450101852,-0.3762720823287964,0.9261711239814758,0.0,0.0,0.0,0.0,0.0,0.0
610,1724812512439972300,-1.9284576177597046,-0.16972891986370087,0.15693750977516174,-0.0037990775890648365,0.024434775114059448,-0.3757220506668091,0.9264023900032043,0.0,0.0,0.0,0.0,0.0,0.0
612,1724812512440377326,-1.9284710884094238,-0.16969990730285645,0.1570214480161667,-0.0041351718828082085,0.024728773161768913,-0.37593212723731995,0.9263079762458801,0.0,0.0,0.0,0.0,0.0,0.0
614,1724812512440827850,-1.9284697771072388,-0.16973154246807098,0.15697479248046875,-0.004155372269451618,0.024576010182499886,-0.3758319318294525,0.9263525605201721,0.0,0.0,0.0,0.0,0.0,0.0
616,1724812512449305902,-1.9284639358520508,-0.1697273850440979,0.15693069994449615,-0.0041237929835915565,0.024349188432097435,-0.3756880760192871,0.9264170527458191,0.0,0.0,0.0,0.0,0.0,0.0
618,1724812512462030091,-1.9284532070159912,-0.1697169691324234,0.156996488571167,-0.0036853807978332043,0.02461092732846737,-0.37582826614379883,0.9263551235198975,0.0,0.0,0.0,0.0,0.0,0.0
620,1724812512468159465,-1.928459644317627,-0.16968804597854614,0.15701332688331604,-0.003988651093095541,0.024595540016889572,-0.37601038813591003,0.9262803792953491,0.0,0.0,0.0,0.0,0.0,0.0
622,1724812512480022908,-1.928466796875,-0.16968558728694916,0.15699559450149536,-0.004097016993910074,0.024565178900957108,-0.37599730491638184,0.926285982131958,0.0,0.0,0.0,0.0,0.0,0.0
624,1724812512488418982,-1.9284776449203491,-0.16972939670085907,0.15691283345222473,-0.004343851003795862,0.024241093546152115,-0.37591058015823364,0.9263286590576172,0.0,0.0,0.0,0.0,0.0,0.0
626,1724812512498736277,-1.9284712076187134,-0.16974475979804993,0.15691788494586945,-0.0042953710071742535,0.024269282817840576,-0.37591028213500977,0.9263282418251038,0.0,0.0,0.0,0.0,0.0,0.0
628,1724812512509467155,-1.9284814596176147,-0.1697751134634018,0.15689288079738617,-0.004156893119215965,0.024259915575385094,-0.3758361041545868,0.926359236240387,0.0,0.0,0.0,0.0,0.0,0.0
630,1724812512519851557,-1.9284546375274658,-0.16973043978214264,0.1569104641675949,-0.0038584324065595865,0.024408424273133278,-0.37568891048431396,0.9264163374900818,0.0,0.0,0.0,0.0,0.0,0.0
632,1724812512529292160,-1.9285227060317993,-0.1697712391614914,0.1569635272026062,-0.004414035007357597,0.02462155744433403,-0.37642577290534973,0.9261090755462646,0.0,0.0,0.0,0.0,0.0,0.0
634,1724812512539360476,-1.9284659624099731,-0.16973617672920227,0.1569059044122696,-0.003937772009521723,0.024325264617800713,-0.37582167983055115,0.9263643622398376,0.0,0.0,0.0,0.0,0.0,0.0
636,1724812512548839292,-1.9284744262695312,-0.1697259545326233,0.15696239471435547,-0.003930127248167992,0.02460535429418087,-0.37594786286354065,0.9263057112693787,0.0,0.0,0.0,0.0,0.0,0.0
638,1724812512559374282,-1.928456425666809,-0.1697511076927185,0.15690213441848755,-0.003851932706311345,0.024271778762340546,-0.3757370412349701,0.9264004826545715,0.0,0.0,0.0,0.0,0.0,0.0
640,1724812512568335166,-1.928462028503418,-0.16969840228557587,0.15698924660682678,-0.003958767279982567,0.024733582511544228,-0.37607675790786743,0.9262499809265137,0.0,0.0,0.0,0.0,0.0,0.0
642,1724812512579386029,-1.9284573793411255,-0.16973808407783508,0.15693041682243347,-0.0039791143499314785,0.024345707148313522,-0.37600091099739075,0.9262908697128296,0.0,0.0,0.0,0.0,0.0,0.0
644,1724812512589092777,-1.9284471273422241,-0.16973932087421417,0.15692435204982758,-0.003973453771322966,0.024343939498066902,-0.37596720457077026,0.9263045787811279,0.0,0.0,0.0,0.0,0.0,0.0
646,1724812512598446104,-1.9284383058547974,-0.16970263421535492,0.15695974230766296,-0.003773678792640567,0.024502109736204147,-0.37599804997444153,0.9262887239456177,0.0,0.0,0.0,0.0,0.0,0.0
648,1724812512608433311,-1.9284567832946777,-0.1697082370519638,0.15700621902942657,-0.0038190451450645924,0.02465723268687725,-0.3761325478553772,0.9262298345565796,0.0,0.0,0.0,0.0,0.0,0.0
650,1724812512619232938,-1.9284430742263794,-0.16974614560604095,0.15693441033363342,-0.003694264218211174,0.024302009493112564,-0.37597936391830444,0.9263019561767578,0.0,0.0,0.0,0.0,0.0,0.0
652,1724812512628469659,-1.9284509420394897,-0.16973677277565002,0.15693208575248718,-0.004034006968140602,0.024495471268892288,-0.3760683536529541,0.9262592792510986,0.0,0.0,0.0,0.0,0.0,0.0
654,1724812512639917283,-1.9284851551055908,-0.16976720094680786,0.1569819450378418,-0.004285065922886133,0.024427471682429314,-0.37667322158813477,0.9260141849517822,0.0,0.0,0.0,0.0,0.0,0.0
656,1724812512648626177,-1.9284491539001465,-0.1697850376367569,0.15692688524723053,-0.004228583071380854,0.024560702964663506,-0.37672513723373413,0.9259898662567139,0.0,0.0,0.0,0.0,0.0,0.0
658,1724812512658244951,-1.9283863306045532,-0.16974253952503204,0.15700209140777588,-0.004165243823081255,0.024755824357271194,-0.3771360516548157,0.9258176684379578,0.0,0.0,0.0,0.0,0.0,0.0
660,1724812512668530687,-1.928266167640686,-0.16974753141403198,0.15687993168830872,-0.0040573966689407825,0.024367330595850945,-0.3767317831516266,0.9259929656982422,0.0,0.0,0.0,0.0,0.0,0.0
662,1724812512678534104,-1.9281705617904663,-0.169831320643425,0.15674522519111633,-0.004404108971357346,0.023435911163687706,-0.3767624497413635,0.9260029792785645,0.0,0.0,0.0,0.0,0.0,0.0
664,1724812512688552041,-1.9279752969741821,-0.16995647549629211,0.15641248226165771,-0.001411807257682085,0.020556529983878136,-0.37568357586860657,0.926518976688385,0.0,0.0,0.0,0.0,0.0,0.0
666,1724812512700626129,-1.927801489830017,-0.1699611097574234,0.15634125471115112,-0.0006078863516449928,0.02039322629570961,-0.3762981593608856,0.9262739419937134,0.0,0.0,0.0,0.0,0.0,0.0
668,1724812512708550260,-1.9276553392410278,-0.17020803689956665,0.15615004301071167,-1.097735821531387e-05,0.019512707367539406,-0.37667953968048096,0.9261381030082703,0.0,0.0,0.0,0.0,0.0,0.0
670,1724812512719194928,-1.927453875541687,-0.1703670620918274,0.15601487457752228,0.0005634362460114062,0.018572216853499413,-0.3766745328903198,0.9261592626571655,0.0,0.0,0.0,0.0,0.0,0.0
672,1724812512729450317,-1.927241325378418,-0.17058581113815308,0.15583479404449463,0.00095171487191692,0.017473410815000534,-0.37662944197654724,0.9261986613273621,0.0,0.0,0.0,0.0,0.0,0.0
674,1724812512738447497,-1.927000641822815,-0.17073865234851837,0.15571147203445435,0.0005544429877772927,0.01684298925101757,-0.3768048584461212,0.9261393547058105,0.0,0.0,0.0,0.0,0.0,0.0
676,1724812512759017677,-1.9266448020935059,-0.17093075811862946,0.15585412085056305,0.002493206411600113,0.016880284994840622,-0.3781173825263977,0.9256004095077515,0.0,0.0,0.0,0.0,0.0,0.0
678,1724812512762170594,-1.926413655281067,-0.17113827168941498,0.15589235723018646,0.0026040240190923214,0.017294002696871758,-0.37920817732810974,0.9251461029052734,0.0,0.0,0.0,0.0,0.0,0.0
680,1724812512768331665,-1.926110863685608,-0.17143601179122925,0.1557854264974594,0.002522207098081708,0.01698685623705387,-0.37983137369155884,0.9248962998390198,0.0,0.0,0.0,0.0,0.0,0.0
682,1724812512779476701,-1.925729513168335,-0.1716134250164032,0.1561640352010727,0.003553540213033557,0.017241429537534714,-0.38068878650665283,0.9245356917381287,0.0,0.0,0.0,0.0,0.0,0.0
684,1724812512788908957,-1.9254366159439087,-0.17195461690425873,0.15613128244876862,0.0031877844594419003,0.016656341031193733,-0.38175076246261597,0.9241097569465637,0.0,0.0,0.0,0.0,0.0,0.0
686,1724812512799082657,-1.9250452518463135,-0.17236556112766266,0.1560874879360199,0.0031360723078250885,0.015827162191271782,-0.3824670910835266,0.9238282442092896,0.0,0.0,0.0,0.0,0.0,0.0
688,1724812512808872625,-1.924538254737854,-0.1727311611175537,0.15602540969848633,0.003736630780622363,0.013674680143594742,-0.3817872703075409,0.924141526222229,0.0,0.0,0.0,0.0,0.0,0.0
690,1724812512818576663,-1.9240469932556152,-0.17311711609363556,0.15592822432518005,0.003672822145745158,0.01210440881550312,-0.38177934288978577,0.9241669774055481,0.0,0.0,0.0,0.0,0.0,0.0
692,1724812512829039027,-1.9236923456192017,-0.17365194857120514,0.1554158478975296,0.0021084800828248262,0.008356659673154354,-0.3799165189266205,0.9249807000160217,0.0,0.0,0.0,0.0,0.0,0.0
694,1724812512838770498,-1.9231476783752441,-0.1735592782497406,0.1558351367712021,0.002533057238906622,0.009436553344130516,-0.38247084617614746,0.9239159226417542,0.0,0.0,0.0,0.0,0.0,0.0
696,1724812512848579778,-1.9226655960083008,-0.17374835908412933,0.1559736579656601,0.002935847733169794,0.00912295188754797,-0.38325464725494385,0.9235929846763611,0.0,0.0,0.0,0.0,0.0,0.0
698,1724812512858939499,-1.922215461730957,-0.17392680048942566,0.15599462389945984,0.0028599572833627462,0.008412505500018597,-0.3838540017604828,0.9233511090278625,0.0,0.0,0.0,0.0,0.0,0.0
700,1724812512868755841,-1.9218093156814575,-0.17423246800899506,0.15577740967273712,0.0027855425141751766,0.007853014394640923,-0.38445305824279785,0.9231069684028625,0.0,0.0,0.0,0.0,0.0,0.0
702,1724812512879445669,-1.921372652053833,-0.17439085245132446,0.15571585297584534,0.0033632840495556593,0.006868409924209118,-0.3848182260990143,0.9229606986045837,0.0,0.0,0.0,0.0,0.0,0.0
704,1724812512889247607,-1.9209541082382202,-0.17457418143749237,0.1557043045759201,0.003603302873671055,0.0062832399271428585,-0.3852989077568054,0.9227634072303772,0.0,0.0,0.0,0.0,0.0,0.0
706,1724812512901296518,-1.9205724000930786,-0.17481596767902374,0.15566526353359222,0.0035347393713891506,0.005808940157294273,-0.38586118817329407,0.92253178358078,0.0,0.0,0.0,0.0,0.0,0.0
708,1724812512908639366,-1.9201691150665283,-0.17487701773643494,0.1559646725654602,0.004586920607835054,0.005964016541838646,-0.3864121437072754,0.9222956299781799,0.0,0.0,0.0,0.0,0.0,0.0
710,1724812512918392529,-1.9199494123458862,-0.17529086768627167,0.15560831129550934,0.003431332530453801,0.002922097686678171,-0.3854355216026306,0.9227238297462463,0.0,0.0,0.0,0.0,0.0,0.0
712,1724812512929362911,-1.919554352760315,-0.17519094049930573,0.15596088767051697,0.0048410119488835335,0.005274721421301365,-0.3872006833553314,0.9219677448272705,0.0,0.0,0.0,0.0,0.0,0.0
714,1724812512939120859,-1.9194040298461914,-0.17547762393951416,0.15581220388412476,0.0036242941860109568,0.0026772823184728622,-0.38615110516548157,0.9224246144294739,0.0,0.0,0.0,0.0,0.0,0.0
716,1724812512949295583,-1.919173240661621,-0.1756417602300644,0.15584538877010345,0.003643512725830078,0.0027507522609084845,-0.3867841064929962,0.9221590757369995,0.0,0.0,0.0,0.0,0.0,0.0
718,1724812512958542400,-1.9189478158950806,-0.17585493624210358,0.1558762639760971,0.004073715303093195,0.0028799856081604958,-0.38762903213500977,0.9218019843101501,0.0,0.0,0.0,0.0,0.0,0.0
720,1724812512968320353,-1.918718695640564,-0.17605261504650116,0.1556282639503479,0.0037122038193047047,0.0020664683543145657,-0.38756221532821655,0.9218337535858154,0.0,0.0,0.0,0.0,0.0,0.0
722,1724812512979837374,-1.9183677434921265,-0.17593184113502502,0.15572863817214966,0.0047094919718801975,0.003036465495824814,-0.389796644449234,0.9208839535713196,0.0,0.0,0.0,0.0,0.0,0.0
724,1724812512988582316,-1.9182589054107666,-0.1762462705373764,0.15544086694717407,0.004175032023340464,0.00017724816279951483,-0.3886259198188782,0.921386182308197,0.0,0.0,0.0,0.0,0.0,0.0
726,1724812512998879185,-1.918030858039856,-0.17645707726478577,0.1552680879831314,0.004206918179988861,-0.0005223602056503296,-0.38893699645996094,0.921254575252533,0.0,0.0,0.0,0.0,0.0,0.0
728,1724812513010889448,-1.9178204536437988,-0.17660996317863464,0.15521340072155,0.004342895932495594,-0.001694854930974543,-0.38925978541374207,0.9211161732673645,0.0,0.0,0.0,0.0,0.0,0.0
730,1724812513018259447,-1.9175268411636353,-0.1766846626996994,0.15535962581634521,0.0047141327522695065,-0.0023113794159144163,-0.39009150862693787,0.9207611083984375,0.0,0.0,0.0,0.0,0.0,0.0
732,1724812513080069528,-1.9171509742736816,-0.17647700011730194,0.155649334192276,0.003936118446290493,-0.0013942400692030787,-0.3923519253730774,0.9198057651519775,0.0,0.0,0.0,0.0,0.0,0.0
734,1724812513081335045,-1.9168174266815186,-0.1765819638967514,0.1557888388633728,0.004365116357803345,-0.002663613995537162,-0.3929300010204315,0.9195542335510254,0.0,0.0,0.0,0.0,0.0,0.0
736,1724812513081572420,-1.916486144065857,-0.17666001617908478,0.15588819980621338,0.004457609262317419,-0.0034244901034981012,-0.3940703868865967,0.9190630912780762,0.0,0.0,0.0,0.0,0.0,0.0
738,1724812513081972341,-1.9161415100097656,-0.17679524421691895,0.1558602899312973,0.0046514179557561874,-0.004756859969347715,-0.3946431875228882,0.9188104271888733,0.0,0.0,0.0,0.0,0.0,0.0
740,1724812513082333483,-1.915765643119812,-0.17686870694160461,0.155826136469841,0.004831063095480204,-0.006213284097611904,-0.3945775330066681,0.9188289046287537,0.0,0.0,0.0,0.0,0.0,0.0
742,1724812513082579935,-1.9154391288757324,-0.1769656538963318,0.15582382678985596,0.004845693241804838,-0.007500754669308662,-0.39505529403686523,0.9186139702796936,0.0,0.0,0.0,0.0,0.0,0.0
744,1724812513088713626,-1.9151111841201782,-0.17708271741867065,0.1557585746049881,0.004976655822247267,-0.008744376711547375,-0.39558568596839905,0.9183740019798279,0.0,0.0,0.0,0.0,0.0,0.0
746,1724812513121046366,-1.9148831367492676,-0.1773652881383896,0.15550146996974945,0.004274426959455013,-0.011348443105816841,-0.39469531178474426,0.9187321066856384,0.0,0.0,0.0,0.0,0.0,0.0
748,1724812513121341704,-1.9145748615264893,-0.17755627632141113,0.15537402033805847,0.005592488218098879,-0.014395351521670818,-0.3953343331813812,0.9184074401855469,0.0,0.0,0.0,0.0,0.0,0.0
750,1724812513121670429,-1.9142509698867798,-0.17755605280399323,0.15530668199062347,0.006015710067003965,-0.015289860777556896,-0.396125465631485,0.9180493354797363,0.0,0.0,0.0,0.0,0.0,0.0
752,1724812513128947971,-1.9140591621398926,-0.1773742139339447,0.15582336485385895,0.0062552825547754765,-0.015522059984505177,-0.39801299571990967,0.9172271490097046,0.0,0.0,0.0,0.0,0.0,0.0
754,1724812513138723806,-1.9137462377548218,-0.17733296751976013,0.15580891072750092,0.007551177404820919,-0.01571369729936123,-0.39849886298179626,0.9170031547546387,0.0,0.0,0.0,0.0,0.0,0.0
756,1724812513149395970,-1.9135046005249023,-0.17738519608974457,0.15587390959262848,0.008917992003262043,-0.01527085155248642,-0.39932823181152344,0.9166375398635864,0.0,0.0,0.0,0.0,0.0,0.0
758,1724812513158593535,-1.913353681564331,-0.1775287538766861,0.1557682603597641,0.009403834119439125,-0.01574525237083435,-0.3994692265987396,0.9165631532669067,0.0,0.0,0.0,0.0,0.0,0.0
760,1724812513168886798,-1.9131356477737427,-0.1774301528930664,0.15599864721298218,0.010163521394133568,-0.014128019101917744,-0.4023323655128479,0.9153282046318054,0.0,0.0,0.0,0.0,0.0,0.0
762,1724812513179339555,-1.9129300117492676,-0.17770050466060638,0.15578244626522064,0.010446662083268166,-0.015441201627254486,-0.40190383791923523,0.915492057800293,0.0,0.0,0.0,0.0,0.0,0.0
764,1724812513189091043,-1.9127808809280396,-0.17782197892665863,0.15563242137432098,0.008614681661128998,-0.015955360606312752,-0.4015171229839325,0.9156721234321594,0.0,0.0,0.0,0.0,0.0,0.0
766,1724812513198854099,-1.912537932395935,-0.17814849317073822,0.15570980310440063,0.010729970410466194,-0.016993479803204536,-0.40184375643730164,0.9154877066612244,0.0,0.0,0.0,0.0,0.0,0.0
768,1724812513208394171,-1.9124326705932617,-0.17847701907157898,0.1557714343070984,0.010643464513123035,-0.01719926856458187,-0.4028986096382141,0.9150211215019226,0.0,0.0,0.0,0.0,0.0,0.0
770,1724812513218398908,-1.912198781967163,-0.17881450057029724,0.15575669705867767,0.010836562141776085,-0.017409823834896088,-0.4032149016857147,0.9148755073547363,0.0,0.0,0.0,0.0,0.0,0.0
772,1724812513229684524,-1.911974310874939,-0.179368257522583,0.15532246232032776,0.01050689909607172,-0.01837668940424919,-0.40332379937171936,0.914812445640564,0.0,0.0,0.0,0.0,0.0,0.0
774,1724812513239771013,-1.9117143154144287,-0.17967262864112854,0.15535563230514526,0.010593476705253124,-0.01914879120886326,-0.40370962023735046,0.9146254658699036,0.0,0.0,0.0,0.0,0.0,0.0
776,1724812513248727870,-1.9114232063293457,-0.1801213026046753,0.15522797405719757,0.01097398716956377,-0.020180944353342056,-0.403798907995224,0.9145593047142029,0.0,0.0,0.0,0.0,0.0,0.0
778,1724812513261939270,-1.9111467599868774,-0.18040817975997925,0.15526646375656128,0.011273522861301899,-0.02074715495109558,-0.4043031930923462,0.914320170879364,0.0,0.0,0.0,0.0,0.0,0.0
780,1724812513268270830,-1.9108749628067017,-0.18074330687522888,0.15523827075958252,0.011252093128859997,-0.022165372967720032,-0.4041801393032074,0.9143416285514832,0.0,0.0,0.0,0.0,0.0,0.0
782,1724812513279433325,-1.9105809926986694,-0.18100878596305847,0.155302956700325,0.011511211283504963,-0.023502010852098465,-0.40376052260398865,0.9144903421401978,0.0,0.0,0.0,0.0,0.0,0.0
784,1724812513290000459,-1.9103158712387085,-0.18133097887039185,0.1553480476140976,0.011349041014909744,-0.024073520675301552,-0.4043172001838684,0.9142315983772278,0.0,0.0,0.0,0.0,0.0,0.0
786,1724812513298616618,-1.9100219011306763,-0.18171446025371552,0.1552852988243103,0.010923902504146099,-0.02478441782295704,-0.40459921956062317,0.9140929579734802,0.0,0.0,0.0,0.0,0.0,0.0
788,1724812513309941946,-1.9096965789794922,-0.18209223449230194,0.15523400902748108,0.010783166624605656,-0.02537458762526512,-0.4049500823020935,0.9139230251312256,0.0,0.0,0.0,0.0,0.0,0.0
790,1724812513320537869,-1.9093843698501587,-0.18241268396377563,0.1555052250623703,0.011005769483745098,-0.02520071528851986,-0.40590524673461914,0.9135013222694397,0.0,0.0,0.0,0.0,0.0,0.0
792,1724812513334472567,-1.9090735912322998,-0.1827082335948944,0.1556602567434311,0.011002845130860806,-0.024702684953808784,-0.4066649377346039,0.9131770730018616,0.0,0.0,0.0,0.0,0.0,0.0
794,1724812513339993048,-1.908847451210022,-0.18338972330093384,0.15532130002975464,0.009179518558084965,-0.02731560543179512,-0.4050334692001343,0.9138476848602295,0.0,0.0,0.0,0.0,0.0,0.0
796,1724812513348664239,-1.9085034132003784,-0.18386310338974,0.1551290899515152,0.007946508936583996,-0.02723787911236286,-0.4051452577114105,0.9138119220733643,0.0,0.0,0.0,0.0,0.0,0.0
798,1724812513359344357,-1.9081716537475586,-0.1842028647661209,0.15549497306346893,0.008635961450636387,-0.027291323989629745,-0.4054807126522064,0.9136552810668945,0.0,0.0,0.0,0.0,0.0,0.0
800,1724812513369187762,-1.907850742340088,-0.1845811903476715,0.15563854575157166,0.008728300221264362,-0.027239587157964706,-0.4057856798171997,0.9135205745697021,0.0,0.0,0.0,0.0,0.0,0.0
802,1724812513378955795,-1.9075416326522827,-0.1849902868270874,0.1557219922542572,0.008543502539396286,-0.02730298601090908,-0.40605518221855164,0.9134007096290588,0.0,0.0,0.0,0.0,0.0,0.0
804,1724812513388600039,-1.907096266746521,-0.18511688709259033,0.1561284363269806,0.010142426006495953,-0.024697797372937202,-0.40841320157051086,0.9124066829681396,0.0,0.0,0.0,0.0,0.0,0.0
806,1724812513398395308,-1.906973123550415,-0.18597467243671417,0.15564368665218353,0.00835410226136446,-0.028018349781632423,-0.4062475562095642,0.9132952094078064,0.0,0.0,0.0,0.0,0.0,0.0
808,1724812513408327575,-1.9067076444625854,-0.18646858632564545,0.15571339428424835,0.008445026353001595,-0.028136959299445152,-0.4063195288181305,0.9132587909698486,0.0,0.0,0.0,0.0,0.0,0.0
810,1724812513418726281,-1.9064608812332153,-0.1868988573551178,0.15578460693359375,0.008113890886306763,-0.027865713462233543,-0.406609445810318,0.9131410121917725,0.0,0.0,0.0,0.0,0.0,0.0
812,1724812513429064817,-1.9060873985290527,-0.18707889318466187,0.15611763298511505,0.008887944743037224,-0.025632107630372047,-0.40884342789649963,0.9122013449668884,0.0,0.0,0.0,0.0,0.0,0.0
814,1724812513462849512,-1.9058170318603516,-0.187506765127182,0.15610359609127045,0.008333781734108925,-0.026217572391033173,-0.4087739586830139,0.9122208952903748,0.0,0.0,0.0,0.0,0.0,0.0
816,1724812513463387820,-1.9054503440856934,-0.18811224400997162,0.15566667914390564,0.007434000726789236,-0.027275128290057182,-0.408149778842926,0.9124772548675537,0.0,0.0,0.0,0.0,0.0,0.0
818,1724812513463657351,-1.9050840139389038,-0.18862633407115936,0.1556611955165863,0.007325530517846346,-0.026359153911471367,-0.40878549218177795,0.9122203588485718,0.0,0.0,0.0,0.0,0.0,0.0
820,1724812513468491729,-1.9047486782073975,-0.18903328478336334,0.15567216277122498,0.006842292845249176,-0.026649389415979385,-0.40872737765312195,0.9122416973114014,0.0,0.0,0.0,0.0,0.0,0.0
822,1724812513479227591,-1.904459834098816,-0.1893397867679596,0.1558612883090973,0.006670861039310694,-0.027125053107738495,-0.4084981679916382,0.9123317003250122,0.0,0.0,0.0,0.0,0.0,0.0
824,1724812513488341348,-1.9041556119918823,-0.18977141380310059,0.155814066529274,0.006545018404722214,-0.027630288153886795,-0.4083634316921234,0.9123777151107788,0.0,0.0,0.0,0.0,0.0,0.0
826,1724812513498692785,-1.903856635093689,-0.19016355276107788,0.15591508150100708,0.006300687789916992,-0.027003582566976547,-0.40937891602516174,0.9119430184364319,0.0,0.0,0.0,0.0,0.0,0.0
828,1724812513510227065,-1.9037035703659058,-0.19085624814033508,0.15559038519859314,0.00192921981215477,-0.029446911066770554,-0.40697526931762695,0.9129623770713806,0.0,0.0,0.0,0.0,0.0,0.0
830,1724812513518335752,-1.903292179107666,-0.1912737637758255,0.1556648313999176,0.004686117172241211,-0.02888379618525505,-0.4086475372314453,0.9122231006622314,0.0,0.0,0.0,0.0,0.0,0.0
832,1724812513529663246,-1.9030348062515259,-0.19177861511707306,0.15569433569908142,0.004789084196090698,-0.029295843094587326,-0.40708088874816895,0.9129096865653992,0.0,0.0,0.0,0.0,0.0,0.0
834,1724812513556869832,-1.902809739112854,-0.19211281836032867,0.15599901974201202,0.00460027065128088,-0.02919818088412285,-0.40739792585372925,0.9127722382545471,0.0,0.0,0.0,0.0,0.0,0.0
836,1724812513557147919,-1.9026150703430176,-0.19254706799983978,0.15608328580856323,0.0026084049604833126,-0.027745118364691734,-0.4082638919353485,0.9124384522438049,0.0,0.0,0.0,0.0,0.0,0.0
838,1724812513559490686,-1.9024438858032227,-0.19303029775619507,0.1561647355556488,0.0018870447529479861,-0.027862008661031723,-0.40908828377723694,0.9120674133300781,0.0,0.0,0.0,0.0,0.0,0.0
840,1724812513568819472,-1.902099847793579,-0.19329701364040375,0.15654443204402924,0.004827058408409357,-0.02621157094836235,-0.41187170147895813,0.9108519554138184,0.0,0.0,0.0,0.0,0.0,0.0
842,1724812513578947881,-1.9019086360931396,-0.19377748668193817,0.1565847396850586,0.0047636451199650764,-0.026403022930026054,-0.4115532338619232,0.9109907746315002,0.0,0.0,0.0,0.0,0.0,0.0
844,1724812513589202273,-1.9017306566238403,-0.19423434138298035,0.1565462350845337,0.004166681785136461,-0.027293872088193893,-0.4112530052661896,0.9111030697822571,0.0,0.0,0.0,0.0,0.0,0.0
846,1724812513598497068,-1.9015525579452515,-0.19483059644699097,0.15630373358726501,0.0037014151457697153,-0.02802780456840992,-0.4109867513179779,0.9112028479576111,0.0,0.0,0.0,0.0,0.0,0.0
848,1724812513608797553,-1.9014003276824951,-0.1952507197856903,0.15638093650341034,0.0037097230087965727,-0.027832048013806343,-0.4116402268409729,0.9109138250350952,0.0,0.0,0.0,0.0,0.0,0.0
850,1724812513619095434,-1.9012356996536255,-0.1956702023744583,0.15642237663269043,0.0015724702971056104,-0.027197666466236115,-0.4115530550479889,0.9109786152839661,0.0,0.0,0.0,0.0,0.0,0.0
852,1724812513628610205,-1.901148796081543,-0.1962958425283432,0.15628941357135773,4.8321508074877784e-05,-0.028753092512488365,-0.40960893034935,0.9118079543113708,0.0,0.0,0.0,0.0,0.0,0.0
854,1724812513653846184,-1.901012659072876,-0.19659896194934845,0.1565037965774536,-0.0004347618669271469,-0.0286844614893198,-0.40957555174827576,0.9118250608444214,0.0,0.0,0.0,0.0,0.0,0.0
856,1724812513654599034,-1.900808334350586,-0.19697225093841553,0.15670353174209595,-0.0002497169189155102,-0.028302768245339394,-0.41012927889823914,0.9115881323814392,0.0,0.0,0.0,0.0,0.0,0.0
858,1724812513658510471,-1.9005500078201294,-0.19739225506782532,0.1567574143409729,-9.895667608361691e-05,-0.0283369068056345,-0.40963104367256165,0.9118110537528992,0.0,0.0,0.0,0.0,0.0,0.0
860,1724812513669432257,-1.900280237197876,-0.1977759748697281,0.15705890953540802,0.001934849307872355,-0.028075136244297028,-0.4107992351055145,0.9112914204597473,0.0,0.0,0.0,0.0,0.0,0.0
862,1724812513678978735,-1.9000734090805054,-0.198186457157135,0.15716701745986938,0.0020265926141291857,-0.028242994099855423,-0.41135671734809875,0.9110345244407654,0.0,0.0,0.0,0.0,0.0,0.0
864,1724812513689133452,-1.8999015092849731,-0.19857226312160492,0.15742884576320648,0.0024274145253002644,-0.02774989604949951,-0.4118465185165405,0.9108273386955261,0.0,0.0,0.0,0.0,0.0,0.0
866,1724812513699305943,-1.8998374938964844,-0.19906380772590637,0.15752242505550385,0.001280679483897984,-0.02821146510541439,-0.41249221563339233,0.9105232357978821,0.0,0.0,0.0,0.0,0.0,0.0
868,1724812513709276439,-1.8994852304458618,-0.19926922023296356,0.1577599048614502,0.0027864985167980194,-0.026030877605080605,-0.4137676954269409,0.9100059866905212,0.0,0.0,0.0,0.0,0.0,0.0
870,1724812513719106038,-1.899342656135559,-0.19976173341274261,0.15778087079524994,0.0024076993577182293,-0.026246901601552963,-0.4142352044582367,0.9097881317138672,0.0,0.0,0.0,0.0,0.0,0.0
872,1724812513730243724,-1.8990683555603027,-0.20046770572662354,0.1573738157749176,0.0018764485139399767,-0.02718689851462841,-0.41327929496765137,0.9101964831352234,0.0,0.0,0.0,0.0,0.0,0.0
874,1724812513739503059,-1.8988510370254517,-0.20089296996593475,0.15758974850177765,0.00199223798699677,-0.02605310268700123,-0.41393810510635376,0.9099299907684326,0.0,0.0,0.0,0.0,0.0,0.0
876,1724812513749086658,-1.898624062538147,-0.20132869482040405,0.15777166187763214,0.002178818453103304,-0.02566380798816681,-0.4141283333301544,0.909853994846344,0.0,0.0,0.0,0.0,0.0,0.0
878,1724812513759927293,-1.8983865976333618,-0.20179525017738342,0.15782269835472107,0.00209746602922678,-0.026172401383519173,-0.4140620827674866,0.9098698496818542,0.0,0.0,0.0,0.0,0.0,0.0
880,1724812513768782820,-1.8982142210006714,-0.20245684683322906,0.15762406587600708,0.0010173700284212828,-0.02845078706741333,-0.41197913885116577,0.9107484817504883,0.0,0.0,0.0,0.0,0.0,0.0
882,1724812513781041080,-1.8979952335357666,-0.20304924249649048,0.1574835479259491,0.00029032735619693995,-0.028425967320799828,-0.4118696451187134,0.9107992649078369,0.0,0.0,0.0,0.0,0.0,0.0
884,1724812513789841071,-1.897782325744629,-0.20346981287002563,0.15770021080970764,-0.00019194030028302222,-0.02753368765115738,-0.41291123628616333,0.9103549718856812,0.0,0.0,0.0,0.0,0.0,0.0
886,1724812513798590495,-1.8975985050201416,-0.20384687185287476,0.15794605016708374,0.00019310927018523216,-0.02735852636396885,-0.41340792179107666,0.9101348519325256,0.0,0.0,0.0,0.0,0.0,0.0
888,1724812513809600903,-1.8974299430847168,-0.20432093739509583,0.1579151600599289,-0.0005204060580581427,-0.02831171452999115,-0.41326743364334106,0.9101693034172058,0.0,0.0,0.0,0.0,0.0,0.0
890,1724812513819248252,-1.8971832990646362,-0.20466908812522888,0.15801915526390076,-0.0006997818127274513,-0.028090359643101692,-0.41324007511138916,0.9101885557174683,0.0,0.0,0.0,0.0,0.0,0.0
892,1724812513829031837,-1.8969483375549316,-0.20508721470832825,0.15810313820838928,-0.0006314085330814123,-0.02843664214015007,-0.4132612645626068,0.9101682305335999,0.0,0.0,0.0,0.0,0.0,0.0
894,1724812513840522751,-1.8967655897140503,-0.2056187242269516,0.15812326967716217,-0.0004529418074525893,-0.02848183736205101,-0.41356170177459717,0.9100303649902344,0.0,0.0,0.0,0.0,0.0,0.0
896,1724812513848514787,-1.8965437412261963,-0.2060760110616684,0.15794776380062103,-0.000789126381278038,-0.028461527079343796,-0.41381609439849854,0.9099151492118835,0.0,0.0,0.0,0.0,0.0,0.0
898,1724812513858284450,-1.896343469619751,-0.20647384226322174,0.15803611278533936,-0.0006898025749251246,-0.02799120359122753,-0.41426587104797363,0.9097251296043396,0.0,0.0,0.0,0.0,0.0,0.0
900,1724812513868942043,-1.8961572647094727,-0.20673735439777374,0.1582973152399063,0.0004234001680742949,-0.026153257116675377,-0.4165574014186859,0.9087331295013428,0.0,0.0,0.0,0.0,0.0,0.0
902,1724812513878947590,-1.8960399627685547,-0.20725825428962708,0.1580524444580078,-0.0016985319089144468,-0.028520381078124046,-0.41579580307006836,0.9090090990066528,0.0,0.0,0.0,0.0,0.0,0.0
904,1724812513888539269,-1.895946741104126,-0.20749332010746002,0.15829448401927948,-0.0021409261971712112,-0.028759218752384186,-0.4160231351852417,0.9088966250419617,0.0,0.0,0.0,0.0,0.0,0.0
906,1724812513899756542,-1.8958368301391602,-0.20814476907253265,0.15800027549266815,-0.0031575418543070555,-0.030520271509885788,-0.41397950053215027,0.9097689986228943,0.0,0.0,0.0,0.0,0.0,0.0
908,1724812513908439044,-1.8955600261688232,-0.20836029946804047,0.15833045542240143,-0.0026763570494949818,-0.028578173369169235,-0.4160357117652893,0.9088951945304871,0.0,0.0,0.0,0.0,0.0,0.0
910,1724812513918582859,-1.8953019380569458,-0.20872561633586884,0.15847717225551605,-0.0015886444598436356,-0.027345476672053337,-0.41697290539741516,0.9085060954093933,0.0,0.0,0.0,0.0,0.0,0.0
912,1724812513928951227,-1.8951352834701538,-0.20911739766597748,0.158548504114151,-0.0018728888826444745,-0.02743501216173172,-0.41697871685028076,0.9085001349449158,0.0,0.0,0.0,0.0,0.0,0.0
914,1724812513938541347,-1.8949202299118042,-0.20946092903614044,0.15873686969280243,-0.0015165453078225255,-0.026876220479607582,-0.4174582362174988,0.9082973003387451,0.0,0.0,0.0,0.0,0.0,0.0
916,1724812513949058159,-1.8947505950927734,-0.2097700536251068,0.15926051139831543,-0.0008011824102140963,-0.025884289294481277,-0.4185244143009186,0.907836377620697,0.0,0.0,0.0,0.0,0.0,0.0
918,1724812513959353979,-1.8945534229278564,-0.2102382332086563,0.15923024713993073,-0.0008163537131622434,-0.026238111779093742,-0.41829606890678406,0.9079313278198242,0.0,0.0,0.0,0.0,0.0,0.0
920,1724812513968562735,-1.8942718505859375,-0.21066702902317047,0.15929049253463745,-0.0005940372357144952,-0.02596946805715561,-0.4181748628616333,0.9079951047897339,0.0,0.0,0.0,0.0,0.0,0.0
922,1724812513979748508,-1.8938907384872437,-0.21135498583316803,0.1589227169752121,-0.0008117170073091984,-0.026195138692855835,-0.4172353744506836,0.9084205627441406,0.0,0.0,0.0,0.0,0.0,0.0
924,1724812513989023968,-1.893579363822937,-0.21169686317443848,0.15889987349510193,-0.0010954445460811257,-0.026703672483563423,-0.4165438115596771,0.9087226986885071,0.0,0.0,0.0,0.0,0.0,0.0
926,1724812513998398951,-1.8933185338974,-0.21206772327423096,0.15899764001369476,-0.0010368730872869492,-0.026762057095766068,-0.41642728447914124,0.9087744355201721,0.0,0.0,0.0,0.0,0.0,0.0
928,1724812514012921550,-1.8930864334106445,-0.212460458278656,0.15907327830791473,-0.0011820022482424974,-0.02661117911338806,-0.41650527715682983,0.9087429642677307,0.0,0.0,0.0,0.0,0.0,0.0
930,1724812514019277672,-1.892884612083435,-0.2128736823797226,0.15905094146728516,-0.001712422352284193,-0.027069495990872383,-0.41607052087783813,0.9089277982711792,0.0,0.0,0.0,0.0,0.0,0.0
932,1724812514029074943,-1.8927522897720337,-0.2132234424352646,0.15923543274402618,-0.0019157198257744312,-0.026429317891597748,-0.4163387715816498,0.9088233113288879,0.0,0.0,0.0,0.0,0.0,0.0
934,1724812514039361521,-1.8927364349365234,-0.21365027129650116,0.15927013754844666,-0.0025817956775426865,-0.026598788797855377,-0.41621309518814087,0.9088742733001709,0.0,0.0,0.0,0.0,0.0,0.0
936,1724812514048770629,-1.8927137851715088,-0.21405330300331116,0.1593543142080307,-0.0024599218741059303,-0.026556314900517464,-0.4162948429584503,0.9088384509086609,0.0,0.0,0.0,0.0,0.0,0.0
938,1724812514059098485,-1.8927582502365112,-0.2145962417125702,0.15917377173900604,-0.003179829800501466,-0.02690914273262024,-0.41604551672935486,0.9089399576187134,0.0,0.0,0.0,0.0,0.0,0.0
940,1724812514068973490,-1.8928093910217285,-0.21500426530838013,0.159206360578537,-0.005024633836001158,-0.025940239429473877,-0.4159879982471466,0.9089862108230591,0.0,0.0,0.0,0.0,0.0,0.0
942,1724812514078849273,-1.8928683996200562,-0.21537505090236664,0.15924055874347687,-0.004832329694181681,-0.02623537741601467,-0.41554906964302063,0.9091794490814209,0.0,0.0,0.0,0.0,0.0,0.0
944,1724812514088633052,-1.8928635120391846,-0.21559064090251923,0.159545436501503,-0.003841510508209467,-0.025497155264019966,-0.41579827666282654,0.9090912938117981,0.0,0.0,0.0,0.0,0.0,0.0
946,1724812514098449728,-1.89292311668396,-0.2159140706062317,0.15984345972537994,-0.0027329919394105673,-0.024681374430656433,-0.4162572920322418,0.9089077115058899,0.0,0.0,0.0,0.0,0.0,0.0
948,1724812514108578105,-1.8930495977401733,-0.21631178259849548,0.15983828902244568,-0.0029884197283536196,-0.024924583733081818,-0.41675686836242676,0.9086713790893555,0.0,0.0,0.0,0.0,0.0,0.0
950,1724812514118581818,-1.8930256366729736,-0.21665343642234802,0.15988224744796753,-0.0024166922084987164,-0.024430889636278152,-0.41615909337997437,0.9089603424072266,0.0,0.0,0.0,0.0,0.0,0.0
952,1724812514233694600,-1.8930875062942505,-0.2170182764530182,0.16009783744812012,-0.0005005373386666179,-0.023971308022737503,-0.41661199927330017,0.9087681770324707,0.0,0.0,0.0,0.0,0.0,0.0
954,1724812514234336579,-1.8931910991668701,-0.21732181310653687,0.16021828353405,-0.0002110471687046811,-0.023382388055324554,-0.4167911112308502,0.908701479434967,0.0,0.0,0.0,0.0,0.0,0.0
956,1724812514234699766,-1.8933619260787964,-0.21760199964046478,0.16034981608390808,-0.00048163457540795207,-0.0228956937789917,-0.4169403612613678,0.9086453318595886,0.0,0.0,0.0,0.0,0.0,0.0
958,1724812514235125308,-1.8936330080032349,-0.2179100513458252,0.1603645533323288,-0.0011495717335492373,-0.02276352047920227,-0.41748473048210144,0.9083980321884155,0.0,0.0,0.0,0.0,0.0,0.0
960,1724812514235456515,-1.8937957286834717,-0.21820655465126038,0.16028697788715363,-0.0014322292990982533,-0.023238498717546463,-0.4165988862514496,0.9087921977043152,0.0,0.0,0.0,0.0,0.0,0.0
962,1724812514235740652,-1.8940376043319702,-0.2184446156024933,0.16020435094833374,-0.003143529174849391,-0.02291240729391575,-0.4161064624786377,0.90902179479599,0.0,0.0,0.0,0.0,0.0,0.0
964,1724812514236002798,-1.8943170309066772,-0.21915772557258606,0.15931899845600128,-0.005862905643880367,-0.025014912709593773,-0.4145871102809906,0.9096468687057495,0.0,0.0,0.0,0.0,0.0,0.0
966,1724812514236360982,-1.8946678638458252,-0.219646155834198,0.15910255908966064,-0.007110316772013903,-0.02683008275926113,-0.4125184118747711,0.9105263352394104,0.0,0.0,0.0,0.0,0.0,0.0
968,1724812514236668020,-1.8948426246643066,-0.21976464986801147,0.15931035578250885,-0.006318332627415657,-0.02490602619946003,-0.41430431604385376,0.9097756147384644,0.0,0.0,0.0,0.0,0.0,0.0
970,1724812514236920875,-1.8951627016067505,-0.22021262347698212,0.1590595543384552,-0.006960911210626364,-0.026624707505106926,-0.41178950667381287,0.9108633995056152,0.0,0.0,0.0,0.0,0.0,0.0
972,1724812514237167444,-1.895448923110962,-0.2204725593328476,0.15934273600578308,-0.006873247679322958,-0.0258056428283453,-0.4124201536178589,0.9106022119522095,0.0,0.0,0.0,0.0,0.0,0.0
974,1724812514238893157,-1.8956825733184814,-0.22073568403720856,0.15943066775798798,-0.006552268285304308,-0.02552628703415394,-0.4124666154384613,0.9105914831161499,0.0,0.0,0.0,0.0,0.0,0.0
976,1724812514249489833,-1.8958700895309448,-0.22103027999401093,0.1593882441520691,-0.006292748264968395,-0.02509024180471897,-0.4119165539741516,0.9108543395996094,0.0,0.0,0.0,0.0,0.0,0.0
978,1724812514260991075,-1.8961215019226074,-0.22137513756752014,0.1593673825263977,-0.006510106381028891,-0.024824019521474838,-0.4114920198917389,0.9110519886016846,0.0,0.0,0.0,0.0,0.0,0.0
980,1724812514268370545,-1.896330714225769,-0.22175295650959015,0.15931336581707,-0.006830641068518162,-0.02513924427330494,-0.41078653931617737,0.9113593697547913,0.0,0.0,0.0,0.0,0.0,0.0
982,1724812514280099554,-1.8965121507644653,-0.22189263999462128,0.15961116552352905,-0.006773192901164293,-0.02448390983045101,-0.4110122621059418,0.9112758040428162,0.0,0.0,0.0,0.0,0.0,0.0
984,1724812514292051153,-1.8966474533081055,-0.22222794592380524,0.15954607725143433,-0.00703077157959342,-0.024724015966057777,-0.4106905460357666,0.9114124178886414,0.0,0.0,0.0,0.0,0.0,0.0
986,1724812514298470444,-1.896514892578125,-0.22230051457881927,0.159871906042099,-0.0051778340712189674,-0.022545846179127693,-0.4119179844856262,0.9109272956848145,0.0,0.0,0.0,0.0,0.0,0.0
988,1724812514309711030,-1.8966492414474487,-0.22286632657051086,0.15945562720298767,-0.006644010543823242,-0.025258371606469154,-0.4100883901119232,0.9116718173027039,0.0,0.0,0.0,0.0,0.0,0.0
990,1724812514318479553,-1.8964312076568604,-0.22291718423366547,0.15977266430854797,-0.005347350146621466,-0.022972820326685905,-0.4115022122859955,0.9111035466194153,0.0,0.0,0.0,0.0,0.0,0.0
992,1724812514329434710,-1.8963357210159302,-0.2232052981853485,0.1597534567117691,-0.005233540199697018,-0.02316068671643734,-0.41122856736183167,0.9112229347229004,0.0,0.0,0.0,0.0,0.0,0.0
994,1724812514340291625,-1.8961961269378662,-0.22345544397830963,0.15974831581115723,-0.005065478850156069,-0.023169223219156265,-0.4110875725746155,0.9112873673439026,0.0,0.0,0.0,0.0,0.0,0.0
996,1724812514348602399,-1.8960750102996826,-0.22370663285255432,0.1597578376531601,-0.005304862279444933,-0.02328324131667614,-0.4107562303543091,0.9114324450492859,0.0,0.0,0.0,0.0,0.0,0.0
998,1724812514387704375,-1.8959300518035889,-0.22398242354393005,0.1598498821258545,-0.0035487981513142586,-0.023823952302336693,-0.4105569124221802,0.9115168452262878,0.0,0.0,0.0,0.0,0.0,0.0
1000,1724812514388080352,-1.8959227800369263,-0.2244630604982376,0.15929581224918365,-0.005425263196229935,-0.026260176673531532,-0.40918949246406555,0.9120553731918335,0.0,0.0,0.0,0.0,0.0,0.0
1002,1724812514388445562,-1.895822525024414,-0.2246510535478592,0.15930107235908508,-0.005881695542484522,-0.026113679632544518,-0.4089541733264923,0.9121622443199158,0.0,0.0,0.0,0.0,0.0,0.0
1004,1724812514388900432,-1.895640254020691,-0.2247353047132492,0.15938857197761536,-0.005111998878419399,-0.024793405085802078,-0.4092949330806732,0.9120509028434753,0.0,0.0,0.0,0.0,0.0,0.0
1006,1724812514398440913,-1.8955451250076294,-0.22478491067886353,0.1593446433544159,-0.006707323715090752,-0.024429237470030785,-0.40874093770980835,0.9122987985610962,0.0,0.0,0.0,0.0,0.0,0.0
1008,1724812514408252347,-1.8954063653945923,-0.22494322061538696,0.15936800837516785,-0.004747545346617699,-0.02486220933496952,-0.40862029790878296,0.912353515625,0.0,0.0,0.0,0.0,0.0,0.0
1010,1724812514419145830,-1.895359992980957,-0.2252425253391266,0.15918877720832825,-0.005876566283404827,-0.026699816808104515,-0.4068121612071991,0.9131026268005371,0.0,0.0,0.0,0.0,0.0,0.0
1012,1724812514429362722,-1.8952082395553589,-0.22533388435840607,0.15927188098430634,-0.00628117797896266,-0.026097184047102928,-0.4067328870296478,0.9131526947021484,0.0,0.0,0.0,0.0,0.0,0.0
1014,1724812514438541543,-1.8950586318969727,-0.2253916710615158,0.15941005945205688,-0.00601465068757534,-0.025639545172452927,-0.40686988830566406,0.9131065011024475,0.0,0.0,0.0,0.0,0.0,0.0
1016,1724812514448878538,-1.8949090242385864,-0.22529511153697968,0.1598261147737503,-0.00537553895264864,-0.025054017081856728,-0.4072510898113251,0.912956714630127,0.0,0.0,0.0,0.0,0.0,0.0
1018,1724812514458489630,-1.894792914390564,-0.22541677951812744,0.159918874502182,-0.005543749779462814,-0.024730008095502853,-0.4073196053504944,0.9129340052604675,0.0,0.0,0.0,0.0,0.0,0.0
1020,1724812514468210776,-1.8946599960327148,-0.22556070983409882,0.1599353849887848,-0.005201824940741062,-0.024648724123835564,-0.40717488527297974,0.9130027294158936,0.0,0.0,0.0,0.0,0.0,0.0
1022,1724812514479507855,-1.8945486545562744,-0.2257038801908493,0.15997673571109772,-0.005277326330542564,-0.02467387542128563,-0.4072291851043701,0.912977397441864,0.0,0.0,0.0,0.0,0.0,0.0
1024,1724812514518519110,-1.8944828510284424,-0.22579744458198547,0.16005447506904602,-0.005135325249284506,-0.0242313165217638,-0.4073769450187683,0.9129241704940796,0.0,0.0,0.0,0.0,0.0,0.0
1026,1724812514518948218,-1.8944340944290161,-0.22595016658306122,0.1600724160671234,-0.0051877377554774284,-0.024429982528090477,-0.40724411606788635,0.9129778146743774,0.0,0.0,0.0,0.0,0.0,0.0
1028,1724812514519340716,-1.894390344619751,-0.22612278163433075,0.15996640920639038,-0.0051785483956336975,-0.02470891736447811,-0.4068043828010559,0.9131664037704468,0.0,0.0,0.0,0.0,0.0,0.0
1030,1724812514529224872,-1.894336223602295,-0.226223886013031,0.1599496752023697,-0.005287387408316135,-0.024659551680088043,-0.40665555000305176,0.9132334589958191,0.0,0.0,0.0,0.0,0.0,0.0
1032,1724812514529524366,-1.8942701816558838,-0.22632455825805664,0.15991263091564178,-0.0053865606896579266,-0.025208011269569397,-0.4063102900981903,0.9133715629577637,0.0,0.0,0.0,0.0,0.0,0.0
1034,1724812514539646258,-1.8941532373428345,-0.22640067338943481,0.15997281670570374,-0.005380802787840366,-0.02522425726056099,-0.4063296914100647,0.9133625030517578,0.0,0.0,0.0,0.0,0.0,0.0
1036,1724812514548427679,-1.8940379619598389,-0.22649222612380981,0.16001129150390625,-0.005435936152935028,-0.024969719350337982,-0.40658384561538696,0.9132559895515442,0.0,0.0,0.0,0.0,0.0,0.0
1038,1724812514559829373,-1.893922209739685,-0.22682777047157288,0.1596141755580902,-0.006038346793502569,-0.0253248680382967,-0.4064273536205292,0.9133120775222778,0.0,0.0,0.0,0.0,0.0,0.0
1040,1724812514568753927,-1.8937671184539795,-0.22692477703094482,0.15966364741325378,-0.005765230860561132,-0.02569609321653843,-0.4063316881656647,0.9133461117744446,0.0,0.0,0.0,0.0,0.0,0.0
1042,1724812514578923863,-1.8936593532562256,-0.22709986567497253,0.15964093804359436,-0.005768849980086088,-0.025365008041262627,-0.4066251218318939,0.9132246971130371,0.0,0.0,0.0,0.0,0.0,0.0
1044,1724812514589347548,-1.89353346824646,-0.2272779941558838,0.1595945954322815,-0.005748079624027014,-0.025630775839090347,-0.406514972448349,0.9132664203643799,0.0,0.0,0.0,0.0,0.0,0.0
1046,1724812514598694518,-1.8933331966400146,-0.22721578180789948,0.1598661094903946,-0.004652480129152536,-0.02342548780143261,-0.4083346724510193,0.9125198721885681,0.0,0.0,0.0,0.0,0.0,0.0
1048,1724812514611668483,-1.8932125568389893,-0.22746281325817108,0.15975195169448853,-0.0044677844271063805,-0.023811113089323044,-0.40820908546447754,0.9125669002532959,0.0,0.0,0.0,0.0,0.0,0.0
1050,1724812514618747913,-1.8931697607040405,-0.22777807712554932,0.1595335453748703,-0.005729357246309519,-0.02571207843720913,-0.4073382318019867,0.9128974676132202,0.0,0.0,0.0,0.0,0.0,0.0
1052,1724812514694042476,-1.8929859399795532,-0.2278534322977066,0.15976086258888245,-0.0042817783541977406,-0.023979095742106438,-0.4081750214099884,0.9125787019729614,0.0,0.0,0.0,0.0,0.0,0.0
1054,1724812514695365912,-1.8928555250167847,-0.22838646173477173,0.15921927988529205,-0.00555587699636817,-0.026754986494779587,-0.4066784679889679,0.9131625890731812,0.0,0.0,0.0,0.0,0.0,0.0
1056,1724812514695956819,-1.8927637338638306,-0.2286403924226761,0.1592102348804474,-0.005365524906665087,-0.027015667408704758,-0.4059167206287384,0.9134950041770935,0.0,0.0,0.0,0.0,0.0,0.0
1058,1724812514697379522,-1.8926700353622437,-0.22880840301513672,0.15918736159801483,-0.005652507767081261,-0.02732747048139572,-0.4054092764854431,0.9137092232704163,0.0,0.0,0.0,0.0,0.0,0.0
1060,1724812514698558348,-1.8924270868301392,-0.2287449985742569,0.15943732857704163,-0.004780179355293512,-0.025642409920692444,-0.40761783719062805,0.9127801060676575,0.0,0.0,0.0,0.0,0.0,0.0
1062,1724812514700017048,-1.8922672271728516,-0.2289237678050995,0.15943016111850739,-0.0048698969185352325,-0.025797732174396515,-0.4079231023788452,0.912638783454895,0.0,0.0,0.0,0.0,0.0,0.0
1064,1724812514700546845,-1.8921349048614502,-0.22893579304218292,0.15988323092460632,-0.004386759828776121,-0.024597423151135445,-0.40897297859191895,0.9122045040130615,0.0,0.0,0.0,0.0,0.0,0.0
1066,1724812514705615228,-1.891891598701477,-0.22930468618869781,0.15942810475826263,-0.005165298469364643,-0.025874687358736992,-0.4087443947792053,0.9122674465179443,0.0,0.0,0.0,0.0,0.0,0.0
1068,1724812514709578147,-1.891618013381958,-0.22930088639259338,0.15979759395122528,-0.004490790423005819,-0.024456433951854706,-0.40972915291786194,0.9118683338165283,0.0,0.0,0.0,0.0,0.0,0.0
1070,1724812514718690442,-1.8913813829421997,-0.229366272687912,0.15989531576633453,-0.004556683823466301,-0.023977624252438545,-0.4103628098964691,0.9115956425666809,0.0,0.0,0.0,0.0,0.0,0.0
1072,1724812514729590080,-1.8911280632019043,-0.2297549694776535,0.1597346067428589,-0.004391861148178577,-0.02403140440583229,-0.4107402265071869,0.9114251136779785,0.0,0.0,0.0,0.0,0.0,0.0
1074,1724812514739046873,-1.8908008337020874,-0.23001040518283844,0.15972194075584412,-0.0040181721560657024,-0.024408897385001183,-0.4106932282447815,0.91143798828125,0.0,0.0,0.0,0.0,0.0,0.0
1076,1724812514748572057,-1.8905202150344849,-0.23017780482769012,0.15979304909706116,-0.0040803151205182076,-0.02428952418267727,-0.41105160117149353,0.9112793207168579,0.0,0.0,0.0,0.0,0.0,0.0
1078,1724812514759930415,-1.890247106552124,-0.23033182322978973,0.15980203449726105,-0.004037491045892239,-0.025257613509893417,-0.4107052683830261,0.9114093780517578,0.0,0.0,0.0,0.0,0.0,0.0
1080,1724812514768514143,-1.8899974822998047,-0.2305295765399933,0.15981470048427582,-0.004356158897280693,-0.02551109530031681,-0.41085654497146606,0.9113326072692871,0.0,0.0,0.0,0.0,0.0,0.0
1082,1724812514782334031,-1.8898284435272217,-0.23089054226875305,0.15964378416538239,-0.005418675020337105,-0.027278605848550797,-0.40933459997177124,0.9119604229927063,0.0,0.0,0.0,0.0,0.0,0.0
1084,1724812514791376024,-1.8895864486694336,-0.23110409080982208,0.1596490740776062,-0.005483368877321482,-0.027234937995672226,-0.4092581570148468,0.911995530128479,0.0,0.0,0.0,0.0,0.0,0.0
1086,1724812514799119297,-1.8894017934799194,-0.23113766312599182,0.15999440848827362,-0.005230259615927935,-0.027004579082131386,-0.4098702073097229,0.9117290377616882,0.0,0.0,0.0,0.0,0.0,0.0
1088,1724812514810189166,-1.8891572952270508,-0.23145149648189545,0.15965990722179413,-0.005620199721306562,-0.027182770892977715,-0.4097317159175873,0.9117836356163025,0.0,0.0,0.0,0.0,0.0,0.0
1090,1724812514818562829,-1.8888472318649292,-0.23160220682621002,0.15959438681602478,-0.005609606858342886,-0.027530573308467865,-0.40948978066444397,0.9118820428848267,0.0,0.0,0.0,0.0,0.0,0.0
1092,1724812514828857922,-1.8885687589645386,-0.23173314332962036,0.15946751832962036,-0.006928503978997469,-0.02926529385149479,-0.4090278148651123,0.9120261669158936,0.0,0.0,0.0,0.0,0.0,0.0
1094,1724812514840235273,-1.8882036209106445,-0.23178087174892426,0.15938998758792877,-0.006820985581725836,-0.02974444068968296,-0.4088984429836273,0.9120696187019348,0.0,0.0,0.0,0.0,0.0,0.0
1096,1724812514848911598,-1.8877601623535156,-0.23178806900978088,0.1594383418560028,-0.006526540033519268,-0.02975364774465561,-0.4089842140674591,0.9120329022407532,0.0,0.0,0.0,0.0,0.0,0.0
1098,1724812514858790519,-1.8872551918029785,-0.23182877898216248,0.1594323217868805,-0.006368925794959068,-0.029761018231511116,-0.4091187119483948,0.9119734168052673,0.0,0.0,0.0,0.0,0.0,0.0
1100,1724812514869926209,-1.8867026567459106,-0.2318161129951477,0.15939360857009888,-0.006439563352614641,-0.029802516102790833,-0.4090527296066284,0.9120011925697327,0.0,0.0,0.0,0.0,0.0,0.0
1102,1724812514878754155,-1.886068344116211,-0.23177717626094818,0.15952613949775696,-0.005189020652323961,-0.029431890696287155,-0.4088151156902313,0.9121277332305908,0.0,0.0,0.0,0.0,0.0,0.0
1104,1724812514888814000,-1.8854838609695435,-0.2317090630531311,0.15948182344436646,-0.00620056688785553,-0.03055897355079651,-0.408703476190567,0.9121345281600952,0.0,0.0,0.0,0.0,0.0,0.0
1106,1724812514901868733,-1.884790062904358,-0.2316576987504959,0.15959280729293823,-0.005257504526525736,-0.029686445370316505,-0.4088844060897827,0.9120880365371704,0.0,0.0,0.0,0.0,0.0,0.0
1108,1724812514908694686,-1.883992075920105,-0.2313329428434372,0.1599375307559967,-0.00438683619722724,-0.028005409985780716,-0.41131100058555603,0.911054253578186,0.0,0.0,0.0,0.0,0.0,0.0
1110,1724812514918685939,-1.8833136558532715,-0.2314143180847168,0.1598869413137436,-0.004251842387020588,-0.027760962024331093,-0.41177693009376526,0.9108518958091736,0.0,0.0,0.0,0.0,0.0,0.0
1112,1724812514928835279,-1.8826290369033813,-0.23145271837711334,0.15991036593914032,-0.003934809472411871,-0.02788630500435829,-0.41189032793045044,0.9107980728149414,0.0,0.0,0.0,0.0,0.0,0.0
1114,1724812514939139898,-1.881902813911438,-0.23145024478435516,0.15993082523345947,-0.003772208234295249,-0.02800469845533371,-0.4122125208377838,0.9106494784355164,0.0,0.0,0.0,0.0,0.0,0.0
1116,1724812514950053226,-1.8812124729156494,-0.2315416783094406,0.1597127616405487,-0.00487255584448576,-0.030278505757451057,-0.41008350253105164,0.9115321636199951,0.0,0.0,0.0,0.0,0.0,0.0
1118,1724812514958420666,-1.8806174993515015,-0.23186060786247253,0.15957604348659515,-0.004628311842679977,-0.03232300654053688,-0.40782204270362854,0.912477433681488,0.0,0.0,0.0,0.0,0.0,0.0
1120,1724812514970391497,-1.8798273801803589,-0.23193944990634918,0.1596391350030899,-0.004335667006671429,-0.03238315135240555,-0.4079253673553467,0.9124305248260498,0.0,0.0,0.0,0.0,0.0,0.0
1122,1724812514979507682,-1.8790149688720703,-0.2320321500301361,0.1595827043056488,-0.004069073591381311,-0.03265003859996796,-0.4077228605747223,0.9125127196311951,0.0,0.0,0.0,0.0,0.0,0.0
1124,1724812514988419193,-1.8783142566680908,-0.23201578855514526,0.159786656498909,-0.004305131733417511,-0.03307517617940903,-0.40783295035362244,0.9124472141265869,0.0,0.0,0.0,0.0,0.0,0.0
1126,1724812514998444677,-1.8774420022964478,-0.23211084306240082,0.15981252491474152,-0.00383454910479486,-0.03339820355176926,-0.4078728258609772,0.9124197363853455,0.0,0.0,0.0,0.0,0.0,0.0
1128,1724812515010081831,-1.8766261339187622,-0.2321542501449585,0.1597951203584671,-0.003927038516849279,-0.03410603106021881,-0.40755659341812134,0.9125343561172485,0.0,0.0,0.0,0.0,0.0,0.0
1130,1724812515018372877,-1.8757673501968384,-0.23229272663593292,0.15961559116840363,-0.004156915005296469,-0.03428618982434273,-0.40706759691238403,0.9127448201179504,0.0,0.0,0.0,0.0,0.0,0.0
1132,1724812515030206208,-1.8746390342712402,-0.2318236082792282,0.16000773012638092,-0.0027281891088932753,-0.03213341161608696,-0.41088739037513733,0.9111155867576599,0.0,0.0,0.0,0.0,0.0,0.0
1134,1724812515056377309,-1.8736672401428223,-0.23167723417282104,0.1604660302400589,-0.0017057355726137757,-0.031195901334285736,-0.41154417395591736,0.9108542799949646,0.0,0.0,0.0,0.0,0.0,0.0
1136,1724812515056657536,-1.8728480339050293,-0.23199574649333954,0.16026568412780762,-0.0022252541966736317,-0.0330219492316246,-0.40980568528175354,0.9115722179412842,0.0,0.0,0.0,0.0,0.0,0.0
1138,1724812515058766533,-1.8720473051071167,-0.23253479599952698,0.1597549468278885,-0.002932912902906537,-0.03563980385661125,-0.40690457820892334,0.9127705097198486,0.0,0.0,0.0,0.0,0.0,0.0
1140,1724812515069379376,-1.8711036443710327,-0.23246312141418457,0.15976206958293915,-0.003709107870236039,-0.03609687089920044,-0.40763577818870544,0.912423312664032,0.0,0.0,0.0,0.0,0.0,0.0
1142,1724812515080440234,-1.8701084852218628,-0.23256328701972961,0.15979613363742828,-0.0036193267442286015,-0.03594987094402313,-0.4079644978046417,0.9122825860977173,0.0,0.0,0.0,0.0,0.0,0.0
1144,1724812515089537206,-1.868920087814331,-0.23269107937812805,0.15985997021198273,-0.0035667107440531254,-0.03516368940472603,-0.40860438346862793,0.9120270013809204,0.0,0.0,0.0,0.0,0.0,0.0
1146,1724812515098967058,-1.8678271770477295,-0.23299553990364075,0.15990610420703888,-0.0013698484981432557,-0.03615288436412811,-0.4073580801486969,0.9125516414642334,0.0,0.0,0.0,0.0,0.0,0.0
1148,1724812515109156749,-1.866780161857605,-0.2332620620727539,0.16000528633594513,-0.0012752435868605971,-0.0365702249109745,-0.40676990151405334,0.9127975106239319,0.0,0.0,0.0,0.0,0.0,0.0
1150,1724812515118884138,-1.8655624389648438,-0.2328636646270752,0.16084854304790497,0.0003075109561905265,-0.03322816267609596,-0.4111202359199524,0.9109753370285034,0.0,0.0,0.0,0.0,0.0,0.0
1152,1724812515128874058,-1.8645374774932861,-0.233394593000412,0.16033414006233215,-0.00031955985468812287,-0.034806136041879654,-0.41026628017425537,0.91130131483078,0.0,0.0,0.0,0.0,0.0,0.0
1154,1724812515138728099,-1.8634675741195679,-0.23384913802146912,0.1601996123790741,-0.0008473650086671114,-0.03646581619977951,-0.40811172127723694,0.9122030735015869,0.0,0.0,0.0,0.0,0.0,0.0
1156,1724812515149671095,-1.8624447584152222,-0.23437918722629547,0.160008504986763,-0.0008148461347445846,-0.03862745687365532,-0.404807984828949,0.9135851263999939,0.0,0.0,0.0,0.0,0.0,0.0
1158,1724812515158376854,-1.8613187074661255,-0.23469339311122894,0.16000889241695404,-0.0004955166950821877,-0.03866780921816826,-0.4044603407382965,0.9137375950813293,0.0,0.0,0.0,0.0,0.0,0.0
1160,1724812515168391105,-1.859787940979004,-0.23447026312351227,0.16040286421775818,0.00047296666889451444,-0.03654351085424423,-0.408250093460083,0.9121382832527161,0.0,0.0,0.0,0.0,0.0,0.0
1162,1724812515180197090,-1.8584485054016113,-0.23454849421977997,0.1607682704925537,0.0008388134883716702,-0.03491155803203583,-0.40898987650871277,0.9118704795837402,0.0,0.0,0.0,0.0,0.0,0.0
1164,1724812515188712752,-1.8571410179138184,-0.2348995953798294,0.16094063222408295,0.001005397061817348,-0.0340779684484005,-0.40888386964797974,0.9119494557380676,0.0,0.0,0.0,0.0,0.0,0.0
1166,1724812515274212335,-1.8559173345565796,-0.2353007048368454,0.16112317144870758,0.0006103792693465948,-0.033751945942640305,-0.4089617133140564,0.9119270443916321,0.0,0.0,0.0,0.0,0.0,0.0
1168,1724812515274529371,-1.854792833328247,-0.23580925166606903,0.1612495332956314,-0.00027558422880247235,-0.03552713617682457,-0.40652692317962646,0.9129478931427002,0.0,0.0,0.0,0.0,0.0,0.0
1170,1724812515274977681,-1.8533046245574951,-0.2359306365251541,0.1616889387369156,0.0010912682628259063,-0.033744171261787415,-0.4083826243877411,0.9121862649917603,0.0,0.0,0.0,0.0,0.0,0.0
1172,1724812515275261165,-1.8520948886871338,-0.23647361993789673,0.16178104281425476,0.0008868443546816707,-0.03374173492193222,-0.4074294865131378,0.9126126766204834,0.0,0.0,0.0,0.0,0.0,0.0
1174,1724812515275591990,-1.8509458303451538,-0.2373005598783493,0.16145965456962585,0.0001854499860201031,-0.036043424159288406,-0.4044007956981659,0.9138713479042053,0.0,0.0,0.0,0.0,0.0,0.0
1176,1724812515275874286,-1.8495522737503052,-0.23768676817417145,0.16160936653614044,0.0008687355439178646,-0.03510512411594391,-0.4044547975063324,0.913883626461029,0.0,0.0,0.0,0.0,0.0,0.0
1178,1724812515276113108,-1.8484004735946655,-0.23832547664642334,0.16159968078136444,0.0005294303991831839,-0.03603508695960045,-0.4037557542324066,0.9141567945480347,0.0,0.0,0.0,0.0,0.0,0.0
1180,1724812515276618600,-1.84699285030365,-0.23874318599700928,0.16186411678791046,0.00037438084837049246,-0.03513738140463829,-0.40393006801605225,0.914114773273468,0.0,0.0,0.0,0.0,0.0,0.0
1182,1724812515279633637,-1.8456073999404907,-0.23922815918922424,0.16200485825538635,0.00126859440933913,-0.03495156392455101,-0.4037286937236786,0.9142100811004639,0.0,0.0,0.0,0.0,0.0,0.0
1184,1724812515290511797,-1.844211220741272,-0.23968972265720367,0.1623418778181076,0.0002820266527123749,-0.03361827880144119,-0.404206782579422,0.9140496850013733,0.0,0.0,0.0,0.0,0.0,0.0
1186,1724812515298977381,-1.8427326679229736,-0.24024125933647156,0.16264748573303223,0.00044019665801897645,-0.03275459259748459,-0.40445658564567566,0.9139703512191772,0.0,0.0,0.0,0.0,0.0,0.0
1188,1724812515311131683,-1.8409711122512817,-0.24016276001930237,0.16344209015369415,0.0027552405372262,-0.02876882813870907,-0.4085628092288971,0.9122726321220398,0.0,0.0,0.0,0.0,0.0,0.0
1190,1724812515318345074,-1.8396334648132324,-0.24121131002902985,0.16322177648544312,0.002299966523423791,-0.030604692175984383,-0.40546905994415283,0.9135934114456177,0.0,0.0,0.0,0.0,0.0,0.0
1192,1724812515328927852,-1.8381856679916382,-0.24185340106487274,0.1634233295917511,0.002809809288010001,-0.029980143532156944,-0.4051361680030823,0.9137603640556335,0.0,0.0,0.0,0.0,0.0,0.0
1194,1724812515339787888,-1.8367117643356323,-0.24254156649112701,0.16352801024913788,0.0030929308850318193,-0.029680900275707245,-0.40462303161621094,0.9139965176582336,0.0,0.0,0.0,0.0,0.0,0.0
1196,1724812515348402757,-1.8352278470993042,-0.24320466816425323,0.1638680100440979,0.002600699895992875,-0.028459085151553154,-0.4050922691822052,0.9138290286064148,0.0,0.0,0.0,0.0,0.0,0.0
1198,1724812515359399828,-1.833718180656433,-0.24394460022449493,0.16410179436206818,0.0018457149853929877,-0.02741309255361557,-0.4050421118736267,0.9138851165771484,0.0,0.0,0.0,0.0,0.0,0.0
1200,1724812515369242438,-1.8319181203842163,-0.24432523548603058,0.16457584500312805,0.0018804774153977633,-0.025268660858273506,-0.40740716457366943,0.9128950238227844,0.0,0.0,0.0,0.0,0.0,0.0
1202,1724812515380025035,-1.8303452730178833,-0.24530331790447235,0.16475810110569,0.0026845454704016447,-0.023610828444361687,-0.4066373109817505,0.9132805466651917,0.0,0.0,0.0,0.0,0.0,0.0
1204,1724812515388825029,-1.8286997079849243,-0.24607086181640625,0.16513840854167938,0.0026173151563853025,-0.02173520252108574,-0.40725091099739075,0.9130538702011108,0.0,0.0,0.0,0.0,0.0,0.0
1206,1724812515398434988,-1.8270453214645386,-0.24681301414966583,0.16547396779060364,0.0019305773312225938,-0.020885778591036797,-0.4085801839828491,0.912481427192688,0.0,0.0,0.0,0.0,0.0,0.0
1208,1724812515479507906,-1.8253716230392456,-0.24781809747219086,0.16578486561775208,0.0025540394708514214,-0.018717892467975616,-0.40840089321136475,0.9126071333885193,0.0,0.0,0.0,0.0,0.0,0.0
1210,1724812515479758165,-1.8235806226730347,-0.2485261857509613,0.16636833548545837,0.002867084229364991,-0.01590968854725361,-0.41009774804115295,0.9118983149528503,0.0,0.0,0.0,0.0,0.0,0.0
1212,1724812515479993039,-1.8219555616378784,-0.24961306154727936,0.16621553897857666,0.0026783521752804518,-0.01660322956740856,-0.4094935655593872,0.9121580123901367,0.0,0.0,0.0,0.0,0.0,0.0
1214,1724812515480243259,-1.8203542232513428,-0.2505333125591278,0.1665148138999939,0.0036350826267153025,-0.015819672495126724,-0.4099452495574951,0.9119657278060913,0.0,0.0,0.0,0.0,0.0,0.0
1216,1724812515480480590,-1.8185818195343018,-0.251514732837677,0.16696567833423615,0.0037450860254466534,-0.013503762893378735,-0.41049665212631226,0.9117544889450073,0.0,0.0,0.0,0.0,0.0,0.0
1218,1724812515480711878,-1.8167612552642822,-0.25249767303466797,0.16719800233840942,0.00403416296467185,-0.01220847386866808,-0.4108309745788574,0.9116207957267761,0.0,0.0,0.0,0.0,0.0,0.0
1220,1724812515480945263,-1.8151522874832153,-0.2534998953342438,0.16702917218208313,0.0029184347949922085,-0.012285956181585789,-0.4108986556529999,0.9115935564041138,0.0,0.0,0.0,0.0,0.0,0.0
1222,1724812515481185214,-1.8133386373519897,-0.25452297925949097,0.16734910011291504,0.00492591317743063,-0.009841970168054104,-0.41094771027565,0.9115925431251526,0.0,0.0,0.0,0.0,0.0,0.0
1224,1724812515491877842,-1.811454176902771,-0.2554124891757965,0.16769511997699738,0.00543062062934041,-0.007884256541728973,-0.4116702079772949,0.9112825393676758,0.0,0.0,0.0,0.0,0.0,0.0
1226,1724812515498685925,-1.8097217082977295,-0.2564404308795929,0.16776613891124725,0.005357848946005106,-0.007738902699202299,-0.4111846089363098,0.9115035533905029,0.0,0.0,0.0,0.0,0.0,0.0
1228,1724812515510509626,-1.8076634407043457,-0.25731950998306274,0.168042853474617,0.007004265673458576,-0.005478788632899523,-0.41189754009246826,0.9111868143081665,0.0,0.0,0.0,0.0,0.0,0.0
1230,1724812515518723203,-1.8058832883834839,-0.258271187543869,0.16821618378162384,0.006319415755569935,-0.0033245424274355173,-0.4116271436214447,0.9113244414329529,0.0,0.0,0.0,0.0,0.0,0.0
1232,1724812515529494906,-1.8041317462921143,-0.25911399722099304,0.16849538683891296,0.00466808769851923,-0.0006741349934600294,-0.41190460324287415,0.9112147688865662,0.0,0.0,0.0,0.0,0.0,0.0
1234,1724812515538584646,-1.8021825551986694,-0.26015907526016235,0.1684323102235794,0.006676027085632086,-0.0004944921238347888,-0.41113775968551636,0.9115486145019531,0.0,0.0,0.0,0.0,0.0,0.0
1236,1724812515548726445,-1.8002848625183105,-0.26104357838630676,0.1687166690826416,0.006411326117813587,0.001953861676156521,-0.4110194146633148,0.9116020202636719,0.0,0.0,0.0,0.0,0.0,0.0
1238,1724812515559745437,-1.7984589338302612,-0.26204851269721985,0.16918902099132538,0.004525733646005392,0.005892963148653507,-0.4117148220539093,0.911282479763031,0.0,0.0,0.0,0.0,0.0,0.0
1240,1724812515568628866,-1.7965936660766602,-0.26302745938301086,0.1693689376115799,0.005970055237412453,0.006682477425783873,-0.41087058186531067,0.9116496443748474,0.0,0.0,0.0,0.0,0.0,0.0
1242,1724812515579109613,-1.7947953939437866,-0.2638988494873047,0.16932497918605804,0.004991960246115923,0.007506079040467739,-0.4100550413131714,0.9120162725448608,0.0,0.0,0.0,0.0,0.0,0.0
1244,1724812515591867446,-1.7927500009536743,-0.2649175226688385,0.16932977735996246,0.005181522108614445,0.009084620513021946,-0.4094253480434418,0.9122836589813232,0.0,0.0,0.0,0.0,0.0,0.0
1246,1724812515600503756,-1.7908307313919067,-0.26569926738739014,0.16964848339557648,0.005455538630485535,0.012103657238185406,-0.40921562910079956,0.9123411178588867,0.0,0.0,0.0,0.0,0.0,0.0
1248,1724812515612311262,-1.7888119220733643,-0.2665930390357971,0.1698891669511795,0.006372139789164066,0.014537332579493523,-0.40942516922950745,0.9122056365013123,0.0,0.0,0.0,0.0,0.0,0.0
1250,1724812515618745274,-1.7867223024368286,-0.2674242854118347,0.1702645868062973,0.0071290116757154465,0.018033459782600403,-0.4094933569431305,0.9121070504188538,0.0,0.0,0.0,0.0,0.0,0.0
1252,1724812515628712601,-1.7847732305526733,-0.2684706747531891,0.1697271317243576,0.006166242994368076,0.017351917922496796,-0.40766629576683044,0.9129453301429749,0.0,0.0,0.0,0.0,0.0,0.0
1254,1724812515639073858,-1.7826576232910156,-0.26923614740371704,0.16979163885116577,0.007585946470499039,0.01982579007744789,-0.40777239203453064,0.9128369092941284,0.0,0.0,0.0,0.0,0.0,0.0
1256,1724812515648510326,-1.780498743057251,-0.27012795209884644,0.1699984073638916,0.00843143556267023,0.023124339058995247,-0.4070323705673218,0.9130821228027344,0.0,0.0,0.0,0.0,0.0,0.0
1258,1724812515658245436,-1.7784624099731445,-0.2710135579109192,0.16962482035160065,0.007303918246179819,0.023701872676610947,-0.4057029187679291,0.9136685132980347,0.0,0.0,0.0,0.0,0.0,0.0
1260,1724812515668533053,-1.776413917541504,-0.2716391384601593,0.16968171298503876,0.00769802276045084,0.025658901780843735,-0.4058198928833008,0.9135603308677673,0.0,0.0,0.0,0.0,0.0,0.0
1262,1724812515678431521,-1.7742044925689697,-0.27232715487480164,0.17001928389072418,0.010388437658548355,0.027989467605948448,-0.40584927797317505,0.9134523272514343,0.0,0.0,0.0,0.0,0.0,0.0
1264,1724812515689669437,-1.772337555885315,-0.27316826581954956,0.16971872746944427,0.009695026092231274,0.02550121210515499,-0.4048433005809784,0.9139790534973145,0.0,0.0,0.0,0.0,0.0,0.0
1266,1724812515699829351,-1.7705508470535278,-0.27364352345466614,0.1697646826505661,0.008957420475780964,0.026165759190917015,-0.40544071793556213,0.9137028455734253,0.0,0.0,0.0,0.0,0.0,0.0
1268,1724812515709319573,-1.7686138153076172,-0.27417781949043274,0.17014582455158234,0.0097315963357687,0.029094664379954338,-0.40584176778793335,0.9134283065795898,0.0,0.0,0.0,0.0,0.0,0.0
1270,1724812515719698162,-1.7669157981872559,-0.27479657530784607,0.17010816931724548,0.008260907605290413,0.030204206705093384,-0.4061925709247589,0.9132508635520935,0.0,0.0,0.0,0.0,0.0,0.0
1272,1724812515732144115,-1.7652519941329956,-0.27548548579216003,0.16953599452972412,0.007703522685915232,0.02885381504893303,-0.40488648414611816,0.9138791561126709,0.0,0.0,0.0,0.0,0.0,0.0
1274,1724812515739579184,-1.7636150121688843,-0.2759130299091339,0.16944237053394318,0.007570519112050533,0.02996453270316124,-0.4053926169872284,0.9136200547218323,0.0,0.0,0.0,0.0,0.0,0.0
1276,1724812515748984015,-1.7619980573654175,-0.2763672173023224,0.1694135218858719,0.0073973373509943485,0.030723867937922478,-0.4056476950645447,0.9134831428527832,0.0,0.0,0.0,0.0,0.0,0.0
1278,1724812515763616321,-1.7604527473449707,-0.27663654088974,0.16974526643753052,0.007506092544645071,0.03354988992214203,-0.40617087483406067,0.9131501913070679,0.0,0.0,0.0,0.0,0.0,0.0
1280,1724812515768950726,-1.7591722011566162,-0.27715158462524414,0.16948367655277252,0.007500078994780779,0.032347794622182846,-0.40551888942718506,0.9134834408760071,0.0,0.0,0.0,0.0,0.0,0.0
1282,1724812515779662384,-1.7576816082000732,-0.27737826108932495,0.16991747915744781,0.008714749477803707,0.035454586148262024,-0.4071856439113617,0.9126154780387878,0.0,0.0,0.0,0.0,0.0,0.0
1284,1724812515789838904,-1.756640911102295,-0.2778379023075104,0.1697625368833542,0.00817127712070942,0.03451669216156006,-0.40660375356674194,0.912915825843811,0.0,0.0,0.0,0.0,0.0,0.0
1286,1724812515798996680,-1.7554881572723389,-0.27812811732292175,0.16968023777008057,0.00825640931725502,0.033468179404735565,-0.40633177757263184,0.9130752086639404,0.0,0.0,0.0,0.0,0.0,0.0
1288,1724812515809543116,-1.7544245719909668,-0.2783927321434021,0.16965176165103912,0.00815510842949152,0.03350324556231499,-0.40696248412132263,0.9127938151359558,0.0,0.0,0.0,0.0,0.0,0.0
1290,1724812515818784633,-1.753455638885498,-0.2783932387828827,0.1700781136751175,0.007858874276280403,0.03575171157717705,-0.40795040130615234,0.9122700095176697,0.0,0.0,0.0,0.0,0.0,0.0
1292,1724812515828955173,-1.7526129484176636,-0.2786094844341278,0.17005746066570282,0.007118783891201019,0.03520236909389496,-0.407420814037323,0.9125340580940247,0.0,0.0,0.0,0.0,0.0,0.0
1294,1724812515840016787,-1.7518959045410156,-0.27875813841819763,0.17003436386585236,0.006808029022067785,0.034454017877578735,-0.40715575218200684,0.9126832485198975,0.0,0.0,0.0,0.0,0.0,0.0
1296,1724812515848832322,-1.7512012720108032,-0.2788679301738739,0.17005963623523712,0.006041406653821468,0.03394654765725136,-0.4073137640953064,0.9126372337341309,0.0,0.0,0.0,0.0,0.0,0.0
1298,1724812515863043080,-1.7503745555877686,-0.2788586914539337,0.17029809951782227,0.005997202824801207,0.034072987735271454,-0.40832963585853577,0.9121786952018738,0.0,0.0,0.0,0.0,0.0,0.0
1300,1724812515868851875,-1.7496064901351929,-0.2789621949195862,0.17024275660514832,0.005694420542567968,0.033824242651462555,-0.4084983766078949,0.9121143221855164,0.0,0.0,0.0,0.0,0.0,0.0
1302,1724812515879302064,-1.7490192651748657,-0.27907681465148926,0.17004764080047607,0.0045388853177428246,0.031590621918439865,-0.4080011546611786,0.9124234914779663,0.0,0.0,0.0,0.0,0.0,0.0
1304,1724812515889248446,-1.748409390449524,-0.279106080532074,0.17003831267356873,0.0036607771180570126,0.03124728985130787,-0.4080214202404022,0.9124301075935364,0.0,0.0,0.0,0.0,0.0,0.0
1306,1724812515900185813,-1.7477807998657227,-0.2789390981197357,0.17017313838005066,0.003569649299606681,0.03152958303689957,-0.40833717584609985,0.9122796058654785,0.0,0.0,0.0,0.0,0.0,0.0
1308,1724812515910637348,-1.7472039461135864,-0.27890971302986145,0.17014184594154358,0.003983525559306145,0.031455617398023605,-0.40849941968917847,0.9122076630592346,0.0,0.0,0.0,0.0,0.0,0.0
1310,1724812515918520000,-1.7466179132461548,-0.27879011631011963,0.17036069929599762,0.004420704673975706,0.03304967284202576,-0.40918129682540894,0.9118437170982361,0.0,0.0,0.0,0.0,0.0,0.0
1312,1724812515929443818,-1.7461984157562256,-0.2787196636199951,0.17028668522834778,0.0040424480102956295,0.032972827553749084,-0.40898293256759644,0.9119371771812439,0.0,0.0,0.0,0.0,0.0,0.0
1314,1724812515939244311,-1.745824933052063,-0.27870848774909973,0.1700059324502945,0.0033398023806512356,0.03248662129044533,-0.4090556502342224,0.9119248390197754,0.0,0.0,0.0,0.0,0.0,0.0
1316,1724812515952869645,-1.7454792261123657,-0.2785382568836212,0.16997042298316956,0.003675648244097829,0.03179836645722389,-0.40904322266578674,0.9119533896446228,0.0,0.0,0.0,0.0,0.0,0.0
1318,1724812515958496580,-1.7452092170715332,-0.27833735942840576,0.1699758619070053,0.004066036082804203,0.03144911304116249,-0.4090788960456848,0.9119478464126587,0.0,0.0,0.0,0.0,0.0,0.0
1320,1724812515968513563,-1.7449716329574585,-0.2780839502811432,0.17004764080047607,0.004179450683295727,0.03148893266916275,-0.40938979387283325,0.9118065237998962,0.0,0.0,0.0,0.0,0.0,0.0
1322,1724812515979590943,-1.7447254657745361,-0.2777865529060364,0.17009669542312622,0.004849773366004229,0.03127354010939598,-0.4096318781375885,0.9117017388343811,0.0,0.0,0.0,0.0,0.0,0.0
1324,1724812515988981830,-1.7446346282958984,-0.27750685811042786,0.1701253205537796,0.004018162842839956,0.02987569198012352,-0.40963467955589294,0.911751389503479,0.0,0.0,0.0,0.0,0.0,0.0
1326,1724812515998488903,-1.7444785833358765,-0.2772332727909088,0.17017418146133423,0.0038942075334489346,0.029651867225766182,-0.40963980555534363,0.9117570519447327,0.0,0.0,0.0,0.0,0.0,0.0
1328,1724812516009511347,-1.7443499565124512,-0.2769629657268524,0.17025668919086456,0.0036115406546741724,0.02973124012351036,-0.4097038507461548,0.9117268323898315,0.0,0.0,0.0,0.0,0.0,0.0
1330,1724812516019661848,-1.7441803216934204,-0.27666670083999634,0.17027249932289124,0.003595753340050578,0.029858913272619247,-0.4095988869667053,0.9117699265480042,0.0,0.0,0.0,0.0,0.0,0.0
1332,1724812516030933102,-1.743973970413208,-0.27633821964263916,0.17039424180984497,0.003240247257053852,0.03033151477575302,-0.40962862968444824,0.9117422103881836,0.0,0.0,0.0,0.0,0.0,0.0
1334,1724812516095539366,-1.7437212467193604,-0.27599990367889404,0.17071959376335144,0.0037178872153162956,0.03184002265334129,-0.41012507677078247,0.9114657044410706,0.0,0.0,0.0,0.0,0.0,0.0
1336,1724812516095942370,-1.7435901165008545,-0.27581024169921875,0.17062418162822723,0.0031795708928257227,0.031204188242554665,-0.4095694124698639,0.9117395877838135,0.0,0.0,0.0,0.0,0.0,0.0
1338,1724812516096212627,-1.7434182167053223,-0.2755573093891144,0.17077842354774475,0.0021243614610284567,0.031598273664712906,-0.4092959761619568,0.9118518829345703,0.0,0.0,0.0,0.0,0.0,0.0
1340,1724812516096478243,-1.7432183027267456,-0.2752710282802582,0.17114663124084473,0.001236823620274663,0.032295603305101395,-0.40949252247810364,0.911740779876709,0.0,0.0,0.0,0.0,0.0,0.0
1342,1724812516096799084,-1.743017315864563,-0.2750537097454071,0.17150743305683136,0.0009984414791688323,0.03256995603442192,-0.40945449471473694,0.9117485284805298,0.0,0.0,0.0,0.0,0.0,0.0
1344,1724812516097088461,-1.7428067922592163,-0.2748596966266632,0.17184965312480927,0.0008347973343916237,0.03259208798408508,-0.40917953848838806,0.9118712544441223,0.0,0.0,0.0,0.0,0.0,0.0
1346,1724812516098498418,-1.742634654045105,-0.27470871806144714,0.1722366362810135,-0.00013222159759607166,0.032738544046878815,-0.408981055021286,0.9119554162025452,0.0,0.0,0.0,0.0,0.0,0.0
1348,1724812516109217495,-1.742484211921692,-0.27460306882858276,0.1726270169019699,-0.0009247746202163398,0.032222043722867966,-0.40860337018966675,0.9121426343917847,0.0,0.0,0.0,0.0,0.0,0.0
1350,1724812516119197852,-1.7424507141113281,-0.2745559513568878,0.17282061278820038,-0.0027027230244129896,0.03045140579342842,-0.4080020487308502,0.9124690294265747,0.0,0.0,0.0,0.0,0.0,0.0
1352,1724812516128755535,-1.7423681020736694,-0.2744123041629791,0.1731935292482376,-0.0034621309023350477,0.029830552637577057,-0.40784186124801636,0.9125586748123169,0.0,0.0,0.0,0.0,0.0,0.0
1354,1724812516139414769,-1.7423144578933716,-0.27424928545951843,0.17358094453811646,-0.004058580379933119,0.029534993693232536,-0.407735675573349,0.9126131534576416,0.0,0.0,0.0,0.0,0.0,0.0
1356,1724812516151051301,-1.7422490119934082,-0.27407920360565186,0.1739487200975418,-0.004335914738476276,0.029156366363167763,-0.40774938464164734,0.9126180410385132,0.0,0.0,0.0,0.0,0.0,0.0
1358,1724812516158604520,-1.7422338724136353,-0.273849219083786,0.17447011172771454,-0.005101507063955069,0.029002541676163673,-0.40797317028045654,0.9125188589096069,0.0,0.0,0.0,0.0,0.0,0.0
1360,1724812516168805154,-1.7421845197677612,-0.27367129921913147,0.17484623193740845,-0.005600923206657171,0.028424957767128944,-0.40769749879837036,0.9126573801040649,0.0,0.0,0.0,0.0,0.0,0.0
1362,1724812516178947003,-1.7420414686203003,-0.27355337142944336,0.1751585155725479,-0.0058977301232516766,0.02759421616792679,-0.4073919653892517,0.9128173589706421,0.0,0.0,0.0,0.0,0.0,0.0
1364,1724812516189036481,-1.7418581247329712,-0.2734103798866272,0.17553506791591644,-0.006500163581222296,0.026965800672769547,-0.4071958363056183,0.9129195809364319,0.0,0.0,0.0,0.0,0.0,0.0
1366,1724812516231545155,-1.7416446208953857,-0.273258239030838,0.17595767974853516,-0.006839413195848465,0.02661197818815708,-0.4074857831001282,0.9127981066703796,0.0,0.0,0.0,0.0,0.0,0.0
1368,1724812516232214682,-1.7414181232452393,-0.27313533425331116,0.17634104192256927,-0.007649136241525412,0.02596673183143139,-0.40726548433303833,0.9129085540771484,0.0,0.0,0.0,0.0,0.0,0.0
1370,1724812516233465756,-1.7412234544754028,-0.2729942500591278,0.17669740319252014,-0.008577728644013405,0.025492316111922264,-0.40727493166923523,0.9129094481468201,0.0,0.0,0.0,0.0,0.0,0.0
1372,1724812516233705469,-1.7409764528274536,-0.27283841371536255,0.17707274854183197,-0.008951973170042038,0.02501423843204975,-0.4073757529258728,0.912874162197113,0.0,0.0,0.0,0.0,0.0,0.0
1374,1724812516238746407,-1.7408277988433838,-0.27263325452804565,0.17741435766220093,-0.010088498704135418,0.024485750123858452,-0.40719524025917053,0.9129571318626404,0.0,0.0,0.0,0.0,0.0,0.0
1376,1724812516249366236,-1.7406169176101685,-0.27247652411460876,0.17769862711429596,-0.010494881309568882,0.023855112493038177,-0.4072703719139099,0.9129357933998108,0.0,0.0,0.0,0.0,0.0,0.0
1378,1724812516262277440,-1.74033784866333,-0.27227339148521423,0.17802801728248596,-0.01031775213778019,0.02321765199303627,-0.4075733721256256,0.912818968296051,0.0,0.0,0.0,0.0,0.0,0.0
1380,1724812516268613383,-1.7401238679885864,-0.272088885307312,0.17828060686588287,-0.011110738851130009,0.022245023399591446,-0.40733814239501953,0.9129388332366943,0.0,0.0,0.0,0.0,0.0,0.0
1382,1724812516334806545,-1.7398720979690552,-0.27186715602874756,0.17853239178657532,-0.011207113042473793,0.021094437688589096,-0.40722957253456116,0.9130134582519531,0.0,0.0,0.0,0.0,0.0,0.0
1384,1724812516335894347,-1.7395683526992798,-0.2714923024177551,0.17907844483852386,-0.011298689059913158,0.02217610739171505,-0.40800076723098755,0.912642240524292,0.0,0.0,0.0,0.0,0.0,0.0
1386,1724812516336148520,-1.7393144369125366,-0.27122536301612854,0.1792958676815033,-0.012173700146377087,0.021215856075286865,-0.40790849924087524,0.9126951098442078,0.0,0.0,0.0,0.0,0.0,0.0
1388,1724812516336394159,-1.7390196323394775,-0.2710094749927521,0.1793564110994339,-0.012294217012822628,0.020013995468616486,-0.40765950083732605,0.9128318428993225,0.0,0.0,0.0,0.0,0.0,0.0
1390,1724812516336644834,-1.738725185394287,-0.27072975039482117,0.17944477498531342,-0.012896792963147163,0.019177492707967758,-0.4074821472167969,0.9129206538200378,0.0,0.0,0.0,0.0,0.0,0.0
1392,1724812516336971268,-1.7384355068206787,-0.2704164683818817,0.17946511507034302,-0.013591009192168713,0.018389377743005753,-0.406968355178833,0.9131560921669006,0.0,0.0,0.0,0.0,0.0,0.0
1394,1724812516338982032,-1.7381151914596558,-0.2700658440589905,0.17949528992176056,-0.013708329759538174,0.017292093485593796,-0.4065772294998169,0.9133498668670654,0.0,0.0,0.0,0.0,0.0,0.0
1396,1724812516348439169,-1.7377638816833496,-0.26963502168655396,0.17955665290355682,-0.014222105033695698,0.01651870459318161,-0.4063381254673004,0.91346275806427,0.0,0.0,0.0,0.0,0.0,0.0
1398,1724812516358795172,-1.7375117540359497,-0.2692730724811554,0.17940057814121246,-0.015458349138498306,0.014173432253301144,-0.4053196907043457,0.9139344692230225,0.0,0.0,0.0,0.0,0.0,0.0
1400,1724812516369520033,-1.7371125221252441,-0.2688044309616089,0.1794755905866623,-0.014606514945626259,0.013050946407020092,-0.4050871431827545,0.9140682220458984,0.0,0.0,0.0,0.0,0.0,0.0
1402,1724812516379047723,-1.7367589473724365,-0.2683120667934418,0.1795186847448349,-0.014253266155719757,0.012097381986677647,-0.404647558927536,0.9142816066741943,0.0,0.0,0.0,0.0,0.0,0.0
1404,1724812516389627190,-1.7364466190338135,-0.2677369713783264,0.17972572147846222,-0.015527579002082348,0.011710201390087605,-0.40467703342437744,0.9142529368400574,0.0,0.0,0.0,0.0,0.0,0.0
1406,1724812516399882823,-1.7361664772033691,-0.26728641986846924,0.17974376678466797,-0.016497386619448662,0.010621720924973488,-0.4040687084197998,0.9145181775093079,0.0,0.0,0.0,0.0,0.0,0.0
1408,1724812516411117453,-1.7357468605041504,-0.2667621672153473,0.1798757016658783,-0.015543632209300995,0.009602351114153862,-0.4037158191204071,0.9147020578384399,0.0,0.0,0.0,0.0,0.0,0.0
1410,1724812516418741194,-1.7354177236557007,-0.266275018453598,0.17992597818374634,-0.015052592381834984,0.008847645483911037,-0.4033737778663635,0.9148687124252319,0.0,0.0,0.0,0.0,0.0,0.0
1412,1724812516429604952,-1.7351206541061401,-0.26582592725753784,0.18008732795715332,-0.01592632383108139,0.00828068982809782,-0.4036884307861328,0.9147204160690308,0.0,0.0,0.0,0.0,0.0,0.0
1414,1724812516453852458,-1.7348283529281616,-0.26537230610847473,0.18019704520702362,-0.017121609300374985,0.00786819588392973,-0.4031185805797577,0.9149537682533264,0.0,0.0,0.0,0.0,0.0,0.0
1416,1724812516454211194,-1.7345819473266602,-0.2649158835411072,0.18029215931892395,-0.01780208945274353,0.0069679031148552895,-0.4024447798728943,0.9152446389198303,0.0,0.0,0.0,0.0,0.0,0.0
1418,1724812516458311088,-1.734405517578125,-0.2644500136375427,0.1803782731294632,-0.018420623615384102,0.006168857682496309,-0.4016917645931244,0.9155688285827637,0.0,0.0,0.0,0.0,0.0,0.0
1420,1724812516468523990,-1.7341901063919067,-0.26401275396347046,0.18057680130004883,-0.01844847947359085,0.007131130900233984,-0.40143516659736633,0.9156738519668579,0.0,0.0,0.0,0.0,0.0,0.0
1422,1724812516479807209,-1.7340258359909058,-0.26359823346138,0.18063701689243317,-0.018772093579173088,0.006129019428044558,-0.4006694555282593,0.9160099029541016,0.0,0.0,0.0,0.0,0.0,0.0
1424,1724812516489035249,-1.7338413000106812,-0.2631661295890808,0.18062712252140045,-0.01770051196217537,0.004583017434924841,-0.39948245882987976,0.916558563709259,0.0,0.0,0.0,0.0,0.0,0.0
1426,1724812516500021508,-1.7336264848709106,-0.2626226544380188,0.18092596530914307,-0.017019741237163544,0.003624432720243931,-0.3993176221847534,0.9166474938392639,0.0,0.0,0.0,0.0,0.0,0.0
1428,1724812516510197577,-1.7334322929382324,-0.2621789574623108,0.18107862770557404,-0.01711149886250496,0.0022731502540409565,-0.398611843585968,0.9169573187828064,0.0,0.0,0.0,0.0,0.0,0.0
1430,1724812516518740928,-1.7332996129989624,-0.2617143392562866,0.1811482161283493,-0.01876385509967804,0.0004280097782611847,-0.3977975845336914,0.9172812104225159,0.0,0.0,0.0,0.0,0.0,0.0
1432,1724812516529330691,-1.7331172227859497,-0.26120010018348694,0.1814495474100113,-0.019126933068037033,-0.00012182276987005025,-0.397605299949646,0.9173571467399597,0.0,0.0,0.0,0.0,0.0,0.0
1434,1724812516542968485,-1.7328870296478271,-0.26075881719589233,0.18168944120407104,-0.018994165584445,-0.000853685021866113,-0.3970746397972107,0.9175894260406494,0.0,0.0,0.0,0.0,0.0,0.0
1436,1724812516548345523,-1.7326370477676392,-0.2602446377277374,0.18208107352256775,-0.01824762485921383,-0.0016330056823790073,-0.39681681990623474,0.9177150130271912,0.0,0.0,0.0,0.0,0.0,0.0
1438,1724812516558858901,-1.7324748039245605,-0.25976046919822693,0.18250350654125214,-0.01872093789279461,-0.0026635737158358097,-0.396412193775177,0.9178778529167175,0.0,0.0,0.0,0.0,0.0,0.0
1440,1724812516568752400,-1.7322996854782104,-0.2592715322971344,0.18288780748844147,-0.01812327280640602,-0.0036256953608244658,-0.3960401713848114,0.9180471301078796,0.0,0.0,0.0,0.0,0.0,0.0
1442,1724812516578795623,-1.7320494651794434,-0.25864076614379883,0.1834191381931305,-0.01717419922351837,-0.003336945315822959,-0.39664241671562195,0.9178064465522766,0.0,0.0,0.0,0.0,0.0,0.0
1444,1724812516589131231,-1.7319573163986206,-0.2582753002643585,0.18365031480789185,-0.017709441483020782,-0.00500122457742691,-0.3953994810581207,0.918324887752533,0.0,0.0,0.0,0.0,0.0,0.0
1446,1724812516598866089,-1.7318031787872314,-0.2576386332511902,0.1841202974319458,-0.017104990780353546,-0.005664793308824301,-0.3946777284145355,0.9186429381370544,0.0,0.0,0.0,0.0,0.0,0.0
1448,1724812516612712559,-1.7315443754196167,-0.25693580508232117,0.18471376597881317,-0.015426917001605034,-0.005450424738228321,-0.39509472250938416,0.918494701385498,0.0,0.0,0.0,0.0,0.0,0.0
1450,1724812516619184601,-1.73151433467865,-0.25643977522850037,0.18499667942523956,-0.015999404713511467,-0.007059859577566385,-0.3938780426979065,0.9189964532852173,0.0,0.0,0.0,0.0,0.0,0.0
1452,1724812516628456643,-1.7313898801803589,-0.25590917468070984,0.18534024059772491,-0.01620863378047943,-0.00784409511834383,-0.39339548349380493,0.9191930294036865,0.0,0.0,0.0,0.0,0.0,0.0
1454,1724812516639032151,-1.7312169075012207,-0.2553493082523346,0.18575209379196167,-0.01550307497382164,-0.007893653586506844,-0.3932981491088867,0.9192464351654053,0.0,0.0,0.0,0.0,0.0,0.0
1456,1724812516648611812,-1.7311354875564575,-0.2549467086791992,0.1857229769229889,-0.015688767656683922,-0.009161130525171757,-0.39218297600746155,0.9197078347206116,0.0,0.0,0.0,0.0,0.0,0.0
1458,1724812516662601145,-1.730924367904663,-0.254514217376709,0.18595728278160095,-0.014743960462510586,-0.008903764188289642,-0.39113327860832214,0.9201728701591492,0.0,0.0,0.0,0.0,0.0,0.0
1460,1724812516668660943,-1.730722188949585,-0.2540493607521057,0.18615102767944336,-0.013926911167800426,-0.009641839191317558,-0.3901413679122925,0.9205992221832275,0.0,0.0,0.0,0.0,0.0,0.0
1462,1724812516678593589,-1.7304824590682983,-0.2535872757434845,0.186318501830101,-0.012254619970917702,-0.01072795782238245,-0.38949817419052124,0.920883297920227,0.0,0.0,0.0,0.0,0.0,0.0
1464,1724812516689106458,-1.7301714420318604,-0.25300878286361694,0.1865517795085907,-0.010961728170514107,-0.011033326387405396,-0.390129417181015,0.9206287264823914,0.0,0.0,0.0,0.0,0.0,0.0
1466,1724812516699526164,-1.7299835681915283,-0.252568781375885,0.18665501475334167,-0.011453173123300076,-0.01151749212294817,-0.3895893692970276,0.9208453893661499,0.0,0.0,0.0,0.0,0.0,0.0
1468,1724812516709161321,-1.7297903299331665,-0.25211140513420105,0.1867774873971939,-0.011279539205133915,-0.011878875084221363,-0.3888252079486847,0.9211658835411072,0.0,0.0,0.0,0.0,0.0,0.0
1470,1724812516719281601,-1.7296794652938843,-0.25174131989479065,0.18693235516548157,-0.011327283456921577,-0.012829369865357876,-0.38724881410598755,0.9218164682388306,0.0,0.0,0.0,0.0,0.0,0.0
1472,1724812516731578268,-1.7294377088546753,-0.2512187063694,0.1871483325958252,-0.010597183369100094,-0.013164220377802849,-0.3869684934616089,0.9219381213188171,0.0,0.0,0.0,0.0,0.0,0.0
1474,1724812516738736105,-1.7292033433914185,-0.2507115304470062,0.18722639977931976,-0.01040027104318142,-0.013242027722299099,-0.3866202235221863,0.9220852851867676,0.0,0.0,0.0,0.0,0.0,0.0
1476,1724812516748765371,-1.7291172742843628,-0.25017890334129333,0.18727777898311615,-0.011414829641580582,-0.014237631112337112,-0.3863464593887329,0.9221732020378113,0.0,0.0,0.0,0.0,0.0,0.0
1478,1724812516759412902,-1.728898048400879,-0.24958492815494537,0.18748366832733154,-0.011305342428386211,-0.013852319680154324,-0.3863624930381775,0.9221736788749695,0.0,0.0,0.0,0.0,0.0,0.0
1480,1724812516768530959,-1.7286474704742432,-0.24912525713443756,0.18741244077682495,-0.01045214757323265,-0.013091272674500942,-0.3857083022594452,0.9224686622619629,0.0,0.0,0.0,0.0,0.0,0.0
1482,1724812516780464036,-1.7285549640655518,-0.24876849353313446,0.1870325356721878,-0.011613634414970875,-0.014144938439130783,-0.3846794068813324,0.9228688478469849,0.0,0.0,0.0,0.0,0.0,0.0
1484,1724812516792086343,-1.728440523147583,-0.2482968270778656,0.18701240420341492,-0.012155294418334961,-0.014723884873092175,-0.3843396306037903,0.9229943156242371,0.0,0.0,0.0,0.0,0.0,0.0
1486,1724812516798419912,-1.7283998727798462,-0.2477468103170395,0.18717828392982483,-0.01256631687283516,-0.01514719519764185,-0.3834761083126068,0.9233410358428955,0.0,0.0,0.0,0.0,0.0,0.0
1488,1724812516809942344,-1.728399634361267,-0.24739567935466766,0.1870168298482895,-0.01344960369169712,-0.016096733510494232,-0.38272881507873535,0.9236226081848145,0.0,0.0,0.0,0.0,0.0,0.0
1490,1724812516818560508,-1.7284613847732544,-0.24687018990516663,0.18713028728961945,-0.013875220902264118,-0.016616923734545708,-0.3823123276233673,0.9237796068191528,0.0,0.0,0.0,0.0,0.0,0.0
1492,1724812516829451415,-1.7284282445907593,-0.24647389352321625,0.18712030351161957,-0.013991578482091427,-0.01754802092909813,-0.3817462921142578,0.9239946007728577,0.0,0.0,0.0,0.0,0.0,0.0
1494,1724812516838993606,-1.7284481525421143,-0.2460176795721054,0.18722763657569885,-0.013860956765711308,-0.01863074116408825,-0.3812654912471771,0.924173891544342,0.0,0.0,0.0,0.0,0.0,0.0
1496,1724812516849168962,-1.7284066677093506,-0.24546727538108826,0.18738889694213867,-0.013636297546327114,-0.0194860827177763,-0.3817249536514282,0.9239699840545654,0.0,0.0,0.0,0.0,0.0,0.0
1498,1724812516858869563,-1.7285984754562378,-0.24510891735553741,0.18742632865905762,-0.01503164041787386,-0.02195647358894348,-0.38058584928512573,0.9243627190589905,0.0,0.0,0.0,0.0,0.0,0.0
1500,1724812516868644506,-1.7287652492523193,-0.24461932480335236,0.18771418929100037,-0.016382906585931778,-0.02268407680094242,-0.38051286339759827,0.92435222864151,0.0,0.0,0.0,0.0,0.0,0.0
1502,1724812516879151250,-1.7289386987686157,-0.24414712190628052,0.1881469488143921,-0.017056165263056755,-0.02205486409366131,-0.3804556727409363,0.9243788719177246,0.0,0.0,0.0,0.0,0.0,0.0
1504,1724812516889046049,-1.729109764099121,-0.24367322027683258,0.18849357962608337,-0.0170748271048069,-0.022477440536022186,-0.3806592524051666,0.9242844581604004,0.0,0.0,0.0,0.0,0.0,0.0
1506,1724812516899006771,-1.7293801307678223,-0.24312520027160645,0.18884220719337463,-0.01819252036511898,-0.022840242832899094,-0.3807525634765625,0.9242158532142639,0.0,0.0,0.0,0.0,0.0,0.0
1508,1724812516908494916,-1.7295987606048584,-0.24249254167079926,0.18939612805843353,-0.018775079399347305,-0.02239209972321987,-0.3813405930995941,0.9239727258682251,0.0,0.0,0.0,0.0,0.0,0.0
1510,1724812516924373231,-1.7299180030822754,-0.2421366274356842,0.18937084078788757,-0.020214878022670746,-0.02444532699882984,-0.38079634308815,0.9241147041320801,0.0,0.0,0.0,0.0,0.0,0.0
1512,1724812516929573904,-1.7301998138427734,-0.24190852046012878,0.18918545544147491,-0.021256759762763977,-0.02599845640361309,-0.38000157475471497,0.9243760108947754,0.0,0.0,0.0,0.0,0.0,0.0
1514,1724812516967373052,-1.7304493188858032,-0.2415453940629959,0.18924519419670105,-0.021555498242378235,-0.027012242004275322,-0.37926438450813293,0.92464280128479,0.0,0.0,0.0,0.0,0.0,0.0
1516,1724812516967691601,-1.7307010889053345,-0.24123722314834595,0.18935029208660126,-0.022357774898409843,-0.02820066176354885,-0.3788437843322754,0.9247606992721558,0.0,0.0,0.0,0.0,0.0,0.0
1518,1724812516968201051,-1.7309157848358154,-0.2409522533416748,0.18950435519218445,-0.02267378941178322,-0.029116513207554817,-0.3785642981529236,0.9248390197753906,0.0,0.0,0.0,0.0,0.0,0.0
1520,1724812516969109387,-1.7310734987258911,-0.24065667390823364,0.18980342149734497,-0.022821176797151566,-0.02943962998688221,-0.3787446618080139,0.924751341342926,0.0,0.0,0.0,0.0,0.0,0.0
1522,1724812516979574721,-1.7312525510787964,-0.24039891362190247,0.19006508588790894,-0.02335796132683754,-0.02980916202068329,-0.3787982165813446,0.9247041344642639,0.0,0.0,0.0,0.0,0.0,0.0
