seq,stamp,px,py,pz,ox,oy,oz,ow,lx,ly,lz,ax,ay,az,timestamp,wx,wy,wz,aa_x,aa_y,aa_z,roll,pitch,yaw,vx,vy,vz,jx,jy,jz,fw
1442,1724914923149053680,-0.3674166202545166,0.1435679644346237,0.1713157296180725,-0.0706301257014274,-0.0334227457642555,-0.343235582113266,0.935993492603302,0.0,0.0,0.0,-1.5357728687471242,-3.210880401728933,-2.86065679663015,0.0,0.0,0.0,0.0,252.1985336423411,349.9227174851882,412.47609481093593,-0.1101778225709994,-0.1112820278786349,-0.6968182822042879,0.0182425482228135,0.0562604953653202,0.0331160747726491,11.59188918754217,-27.873829329388744,15.145198734196208,0.0
1444,1724914923151804782,-0.3673664331436157,0.1437227427959442,0.1714068353176117,-0.0693342983722686,-0.032400544732809,-0.3418353199958801,0.9366385340690612,0.0,0.0,0.0,-1.5038823992194983,-3.2875641493446732,-2.8189908101021053,0.002751102,0.6938238903005118,0.962673087918936,1.1347638093865555,189.4498213465512,263.43047193195946,318.22280101464503,-0.1085792596059436,-0.1083086546388902,-0.693987135571836,0.0140174804120576,0.047427035870363,0.0252461161381263,27.360601118678993,0.3877711548868348,41.09434499010389,0.000112902843393
1446,1724914923162933832,-0.3674006462097168,0.14385287463665,0.1713334918022155,-0.0695298090577125,-0.0321875885128974,-0.3395820260047912,0.9374505877494812,0.0,0.0,0.0,-0.4894709452950297,-2.0108996408130513,-1.1934084551897108,0.013880152,-0.0227526472539223,0.0004871876066409,0.4329588658764955,-26.91842356232285,-41.48297543846414,-35.47968351858705,-0.1093519305374152,-0.1077792403900624,-0.6891696729853183,-0.0012835798284989,0.0073872359283573,-0.0042507535298135,82.13681273457965,130.72459352659473,137.98143113084816,-5.222435260820565e-05
1448,1724914923174006258,-0.3673951327800751,0.1438872367143631,0.1713121980428695,-0.0690448582172393,-0.0320380181074142,-0.3377940058708191,0.9381372928619384,0.0,0.0,0.0,0.3206941914037138,-0.3870937109323384,0.2453139200442676,0.024952578,0.091962603458365,0.0366095265001226,0.3439469259018564,7.704883407323486,-2.4932501374433436,1.7248351880511628,-0.1087369686938876,-0.1069618364405719,-0.6854064097427562,0.0030504877363988,0.0026028426561879,-0.0014138990782335,15.094393986866407,65.92574270767011,56.258878132550976,-1.592601033698657e-05
1450,1724914923182493777,-0.3673526346683502,0.1439060717821121,0.1713035106658935,-0.0685759708285331,-0.0322026684880256,-0.3360874056816101,0.938778817653656,0.0,0.0,0.0,0.070966699567343,-0.3527657510120012,0.243454519492676,0.033440097,0.1400806839274909,-0.0219984422317382,0.4221111083056222,0.2800173842178779,-2.4984912554582865,2.596019583447518,-0.1079322644261198,-0.1067600943796329,-0.6818040559271195,0.0053121807918223,-0.0003898096790209,0.0005973237617844,-27.49967921671923,8.174242014052423,-7.034514005163482,-6.365419693735654e-06
1452,1724914923192002782,-0.3672988712787628,0.1438745707273483,0.171326458454132,-0.0682507157325744,-0.0322109498083591,-0.3343943953514099,0.9394066333770752,0.0,0.0,0.0,-0.1700389059890341,-0.2310411695469733,0.1039554957290978,0.042949102,0.0853292989185673,0.0011898885048056,0.376342469518117,-7.079948414308069,-0.1269753282189105,-6.262845646690917,-0.1075013214848872,-0.1063641153588136,-0.6782271120696314,0.0039041931185455,-0.0037460856091144,0.0029814973756936,91.67313380591762,-62.30303430064177,15.2895684069972,1.716875799354278e-05
1454,1724914923206552126,-0.3672810196876526,0.1438104212284088,0.1713824868202209,-0.0687723457813263,-0.0323654897511005,-0.3326475024223327,0.9399833083152772,0.0,0.0,0.0,3.7687278968739752,-2.8094271599297698,0.9933540056539087,0.057498446,-0.0471111109228401,-0.057769952694779,0.2529508423564027,-5.269691021793374,-2.213288219457038,-6.253074264687099,-0.1085879084156776,-0.1068028700482343,-0.6744562674079739,0.0009411557511374,-0.0043935563528449,0.001226626115804,-7257.306381720183,-940.8396623964924,388.6277598029773,4.543640174060935e-05
1456,1724914923233044947,-0.3672698736190796,0.1436947733163833,0.1712883859872818,-0.069000095129013,-0.0325247235596179,-0.3301968574523926,0.9408247470855712,0.0,0.0,0.0,-551.6544442462286,-64.57258147272944,27.0879085044528,0.083991267,-0.0018063620992304,-0.0276860209923278,0.1947613059680597,12391.993250340032,2454.581560948727,48948.22129167002,-0.1091946520762839,-0.1069712514006482,-0.6692173723366045,0.2924156240651427,-0.2122049609752139,0.0812819530443675,-39757.91299885837,23996.28283679855,-9497.7853863426,-0.000110679003152
1458,1724914923233348750,-0.3671800196170807,0.1436295807361602,0.1713133752346038,-0.068494789302349,-0.032452005892992,-0.328007310628891,0.9416297078132628,0.0,0.0,0.0,-563.7984884906409,-57.19071809758492,24.1659327712222,0.08429507,3.806083899842701,0.7265705892455866,15.23591230302956,-2896.449779763031,1074.1481488707586,14217.44598648002,-0.1085281901833008,-0.1062489205007814,-0.6646138554466876,0.1228611541903319,-0.2320199369777356,0.0895951830304397,-19678.76531394222,26235.075752250355,-10358.002731234335,1.345082284693112e-05
1460,1724914923233602045,-0.3671854138374328,0.1435671299695968,0.1713376194238662,-0.0685345903038978,-0.0322618633508682,-0.3266562223434448,0.9421029090881348,0.0,0.0,0.0,-564.497113841155,-50.136465398721306,21.386024616357098,0.084548365,-0.1862539940863448,0.7011798102982937,11.38398895128985,-15648.2628617135,-99.662154818237,-15100.258361067805,-0.1088783234624868,-0.1057595359395952,-0.6617505784093171,-0.0211482129041346,-0.2448097469619858,0.0950409366289518,-2612.4854634564545,27671.55441806313,-10912.008922205108,1.4671600528496418e-05
1462,1724914923268582320,-0.3672102987766266,0.143427312374115,0.1714047938585281,-0.068353034555912,-0.0319485329091548,-0.3252622783184051,0.9426088929176332,0.0,0.0,0.0,47.79006831610775,56.03459330128976,-56.10646804951784,0.11952864,0.0084814362387635,0.0157395237131897,0.0854274664294262,-4931.626224911518,1209.5617464893655,11059.51753469793,-0.1088893412266062,-0.1048874821201091,-0.6588235613446788,-0.2174017108520729,-0.2727079410571491,0.2942322240783142,1504.3471343209967,3683.942298416136,-326.1986857436859,4.587909179982348e-05
1464,1724914923269090001,-0.3673222661018371,0.1432868838310241,0.1715563237667083,-0.0689528509974479,-0.0314862541854381,-0.3239095509052276,0.9430465698242188,0.0,0.0,0.0,48.43591048330205,57.90964106922455,-56.25815359285609,0.120036321,-2.5315894894903828,0.6388676553629183,5.7840024978538676,-4192.529554364832,1042.9188823283969,9486.20950519167,-0.1104771991568097,-0.1042436776906437,-0.6559245624033001,-0.1927461383552806,-0.2438414948696685,0.2652926781394802,-224.03143659310444,1921.774255408556,1337.8805010477392,0.0001303090703594
1466,1724914923272300105,-0.3673767149448395,0.1431692093610763,0.1717344224452972,-0.0681688264012336,-0.0312571749091148,-0.3224773406982422,0.9436017870903016,0.0,0.0,0.0,17.347840339886925,28.119618932659677,-18.742913992090756,0.123246425,0.4663708643992123,0.2421804499677679,0.9480009182004304,319.7207050430689,7.687618897886281,-685.3003148051909,-0.1092859858921975,-0.1031372086532793,-0.6529690249665578,-0.039883839896845,-0.0366283886820468,0.0998250713723649,-9235.747343825213,-10515.22848022938,10174.708304383412,0.0001594025090554
1468,1724914923274611760,-0.3675070703029632,0.1430845856666565,0.1720390021800995,-0.0678172409534454,-0.0307459682226181,-0.3217111825942993,0.9439054131507874,0.0,0.0,0.0,-3.2550926000470644,1.755929694001588,2.260687836264612,0.12555808,0.1830289157425147,0.4784591794863301,0.7308352437160803,-105.76251618208852,76.62896563870139,-85.34626396472163,-0.1090232318949642,-0.1018537180564284,-0.6514019288617798,-0.0501731527176092,-0.0322703864282396,0.1111038658716947,-7199.309896768285,-9329.696363907138,7292.703255125462,0.0002905722180179
1470,1724914923284853654,-0.36773881316185,0.1429508775472641,0.172239676117897,-0.0683517456054687,-0.0299387667328119,-0.3205747604370117,0.9442793726921082,0.0,0.0,0.0,0.756121040018797,0.3591538210389748,-4.421098918024942,0.135799974,-0.1374562705726993,0.1024018535898285,0.2468602063538465,-17.975659831079554,-21.313153831240527,-9.73729296307852,-0.1106745504119136,-0.1005340744492493,-0.6489914936992852,-0.0292418789604624,-0.0201536419500172,0.015441449997974,97.83617679242758,-110.51347829751742,6.145322475381445,0.0001815598476215
1472,1724914923292772556,-0.3680108785629272,0.1427478194236755,0.172336533665657,-0.0691048353910446,-0.0294744707643985,-0.3191118240356445,0.9447346329689026,0.0,0.0,0.0,-0.2680709937216303,-0.357624343687667,-0.3403121301248292,0.143718876,-0.1982730365551309,0.0279430665222914,0.3994613497879381,3.879629180313589,-4.960448511672981,8.540735780273703,-0.1125583907380852,-0.0999618395643747,-0.6458568532558796,-0.0311377606746479,-0.0223541276728544,0.0105504885366185,-63.48155675893092,-46.34241634206502,313.15927291131726,6.85831504784035e-05
1474,1724914923303790477,-0.3683046102523803,0.1425519287586212,0.1724270135164261,-0.068972572684288,-0.0291718505322933,-0.3174108266830444,0.9453265070915222,0.0,0.0,0.0,0.0420109806109403,-0.191070323226445,0.0109485705419777,0.154736797,0.0216775607705618,0.0413871985437521,0.3290782877278732,4.642200376561636,-12.986003174511849,3.006706831116972,-0.1126742058941108,-0.0991012633787951,-0.6422876069906533,-0.0345306771760185,-0.0275168995557262,0.0110521822115714,40.268226596594985,29.885340548391376,0.4845204886430281,6.363184383264088e-05
1476,1724914923312127561,-0.3686421513557434,0.1422610878944397,0.1725370734930038,-0.0693727359175682,-0.0296216513961553,-0.3157406151294708,0.9458425045013428,0.0,0.0,0.0,0.4542203696097168,0.1512551319408558,-0.183076876712254,0.163073881,-0.0362717748532071,-0.1564986056678095,0.4134126506856908,3.110222350355788,-9.441234640984968,0.697858851255809,-0.1133333950735948,-0.1000090430464847,-0.6386981199646585,-0.0319727160027305,-0.0273591918135744,0.0109252757837614,21.416164528063923,-3.4962862429862476,9.45554911873232,6.932691815610076e-05
1478,1724914923325080086,-0.3688849508762359,0.1420581638813018,0.1726327836513519,-0.0681344047188758,-0.0298848561942577,-0.3142774403095245,0.9464112520217896,0.0,0.0,0.0,0.1676297493653318,-0.7906523785973016,0.5979874781977931,0.176026406,0.206472167120939,0.008860661434421,0.232938207206546,5.325976073982192,4.467764934719494,2.206685212116504,-0.1109579093617299,-0.0995573225359048,-0.6356977167341512,-0.023123208821417,-0.0227369918336748,0.0051762073197441,-8.855920068969262,-46.503010653297224,118.81482407990696,6.800461457464005e-05
1480,1724914923334054967,-0.3691197037696838,0.1418101340532302,0.1726654767990112,-0.0674598142504692,-0.03002904728055,-0.3127535879611969,0.9469597339630128,0.0,0.0,0.0,0.1706736690250874,-1.0449745668294397,2.0282123207129628,0.185001287,0.1708471932223748,-0.0026498333592177,0.3531148984486973,0.7562265179904486,6.199896766108363,3.277162599777121,-0.10973896889567,-0.099231970923983,-0.6325296578327131,-0.0248251174840099,-0.0369690748671001,0.0170220418392048,14.605800575153015,42.08366283052293,100.6398844591053,-5.661299428753966e-07
1482,1724914923342547270,-0.3693198263645172,0.1414211839437484,0.1729175448417663,-0.0664862096309661,-0.0297861918807029,-0.3115522861480713,0.9474321603775024,0.0,0.0,0.0,0.4093526145035444,-0.1217090392427944,2.411031975417538,0.19349359,0.215242960814026,0.1101278512556523,0.2996793832150722,0.6892307401780711,12.87266231675504,-0.3002850926738425,-0.1081513326556118,-0.0980255661880135,-0.6300896335054178,-0.0204804206832847,-0.0414976727197116,0.0399381010154664,1.5005099404675477,44.605757842517974,39.312966746216475,0.0001961769722774
1484,1724914923352668878,-0.3694899082183838,0.1410530656576156,0.1734455078840255,-0.0653673335909843,-0.028796823695302,-0.3098364770412445,0.9481029510498048,0.0,0.0,0.0,0.1035928271167881,-0.4436445124050427,2.739390758290116,0.203615198,0.1674684442026519,0.235506113492946,0.3689238667449024,-2.1402642071971796,4.245279669171954,1.7856665747105236,-0.1067913784713187,-0.0952550603075532,-0.6266164564792892,-0.0175706250677532,-0.0377648272656276,0.0608743465821524,-6.6452209455205065,-6.230014673829524,-25.8018640930335,0.0004727762636599
1486,1724914923363766629,-0.3696942329406738,0.1406169831752777,0.174227088689804,-0.0641826689243316,-0.0280134845525026,-0.3081527948379516,0.948755979537964,0.0,0.0,0.0,0.3165660498038453,-0.201565039758325,1.744342459177978,0.214712949,0.1751072729459233,0.1835481458810039,0.32722419583381,-13.561872645719646,0.6773508851984982,-13.373508895395709,-0.105168404448674,-0.0928453941078953,-0.6232059130182923,-0.0186585661409317,-0.0525741323077024,0.0994392064831597,20.58391792429964,71.37001899914085,-273.8841441133495,0.0007160553156989
1488,1724914923371958650,-0.3698485791683197,0.1401059925556183,0.1752171367406845,-0.0640074759721756,-0.02708275988698,-0.307593435049057,0.9489762187004088,0.0,0.0,0.0,0.4936150766675831,0.6827735903295842,-1.6133309423136772,0.22290497,-0.022164223436839,0.221504620604761,0.1595190944639742,-21.772537003714348,3.3039924637195845,-18.16317131474616,-0.1054521110116288,-0.090903493231909,-0.6220922917103757,-0.0135581311625632,-0.047374737283774,0.1032633421855351,6.623606539499862,48.05330251451532,-297.64315650857145,0.000911749037575
1490,1724914923383482490,-0.3699191808700561,0.1398032456636428,0.1761219501495361,-0.0648720636963844,-0.0253681018948555,-0.3077850639820099,0.9489028453826904,0.0,0.0,0.0,0.3269651327131975,0.2655414420976176,-3.2240213001050964,0.23442881,-0.2356466268597582,0.2380294558264938,-0.0123663811815823,2.011750376724986,-21.487935791991156,11.681710265252317,-0.1081287120022599,-0.0881913092689947,-0.6225282006922754,-0.0099608973228484,-0.0387270945232494,0.050950872079527,7.036818367880816,-40.00904872558119,21.612966749265382,0.0008546127005084
1492,1724914923394228660,-0.3700646460056305,0.1392622590065002,0.1763932406902313,-0.065333679318428,-0.0263569261878728,-0.3057718276977539,0.9494948983192444,0.0,0.0,0.0,0.6180163981451451,-0.2025128745425373,-1.374546391676811,0.24517498,-0.0082268100965806,-0.2225835087738051,0.3796988004342498,15.40700167752125,-11.363478717197566,4.972162230510328,-0.1086028691335703,-0.0901279001559054,-0.6181959023994852,-0.0062988706967352,-0.0407324321772293,0.0294873754219011,-3.325520289883122,-2.3021972273589224,101.4985626051481,0.0001942274230619
1494,1724914923406460609,-0.3700409233570099,0.1388978213071823,0.1768129914999008,-0.0646087229251861,-0.0260962918400764,-0.3057760596275329,0.9495502710342408,0.0,0.0,0.0,0.1539397917634924,0.3437022046384062,-1.1160923222290198,0.257406929,0.100090986079869,0.0769915190174926,0.001771393796045,19.3331626286666,21.36752102808409,43.61555495439456,-0.1073713587272237,-0.0891892824668753,-0.6182761076029634,0.0051207482529704,-0.043430984142887,0.0213449102162037,-78.98700520189163,78.70532171478877,36.32264908148896,0.000364904317702
1496,1724914923412546743,-0.3700001239776611,0.1385921984910965,0.1769036203622818,-0.0637430176138877,-0.0256605837494134,-0.3043704628944397,0.9500721096992492,0.0,0.0,0.0,-0.4510859257309181,0.925825833441319,-0.8490193995931755,0.263493063,0.2494844188918053,0.1975779497102233,0.4928611083738024,11.692000763102818,8.574599087109338,38.709011922267145,-0.1061060453794167,-0.0876740716115968,-0.6154104761028882,0.0036966960166999,-0.0396302899463307,0.0131882509769418,-65.81721318287748,12.576101438445882,83.40737031026389,4.75754925903992e-05
1498,1724914923421904660,-0.3700087964534759,0.1383736580610275,0.1770025342702865,-0.06283450871706,-0.0253172423690557,-0.3032678365707397,0.950494349002838,0.0,0.0,0.0,-0.5836392167881519,-0.1517648777072313,0.5002095886084666,0.27285098,0.1739393140394154,0.1161097113585309,0.2510525444657719,-10.003147988917702,-12.35018701895119,-18.687048030492132,-0.1046721597330124,-0.0863464182134216,-0.6131800397898742,-0.0036483229540564,-0.0266306203344521,0.0123106249671156,9.281805822019912,-111.40564060179868,100.40769664281896,6.863290075107535e-05
1500,1724914923432775466,-0.370082825422287,0.1380427777767181,0.1771583408117294,-0.0627483949065208,-0.0256688278168439,-0.3025260269641876,0.9507270455360411,0.0,0.0,0.0,-0.186647773243086,-1.3155133006100015,1.0389470573256752,0.283721786,0.0408207439915414,-0.0641690119302983,0.1382387562006292,16.480007651134656,4.146561569070089,2.793926893362073,-0.1043645151138479,-0.0868834114959928,-0.6116068781099108,-0.0074513871558608,-0.047739696727703,0.0252494296459229,136.86095425073626,-1472.0526853369138,2056.552068832075,0.0001105596386346
1502,1724914923442867666,-0.3701640367507934,0.1373988687992096,0.17751544713974,-0.0602382905781269,-0.0254792906343936,-0.3011268973350525,0.9513383507728576,0.0,0.0,0.0,2.1347198834741,-28.96094103195243,40.5983311112731,0.293813986,0.4762800145269351,0.1719086751348171,0.2898451955672799,25.437748857379436,14.518007287175884,7.994854852240643,-0.0997930436589018,-0.0848594021794338,-0.6088634695637059,-0.007806048531382,-0.0551480889346671,0.0343172277003342,174.7043870203406,-2033.5567546509576,2904.8142771244243,0.0002713600626313
1504,1724914923464107585,-0.3703190684318542,0.1366143971681594,0.1781966388225555,-0.0577378906309604,-0.0252608098089694,-0.2996479272842407,0.951966106891632,0.0,0.0,0.0,3.3729267516598043,-40.60650346092916,56.92529527513853,0.315053905,0.2249004784040701,0.0835870437398697,0.1455267014721596,41455.44125925361,21704.1463314954,8737.836754922128,-0.0952601361513526,-0.082791497086081,-0.6059499433691168,0.1345308169175041,-1.932053071042617,2.671255562812803,-80.88023474286092,3700.3985665159416,-5312.779555743909,0.0005797603305182
1506,1724914923464435428,-0.3702742457389831,0.1359713971614837,0.1790857464075088,-0.0552026629447937,-0.0247801821678876,-0.2991813421249389,0.952275812625885,0.0,0.0,0.0,3.345706453882551,-39.37185393813954,55.15276342275349,0.315381748,14.025614875530364,7.308990708665799,3.05441605123952,41741.88518177379,21854.088602941192,8798.252209465754,-0.0907252309679431,-0.080312659718861,-0.6051728085569454,0.135619764242374,-1.9451239457088303,2.689577942526412,-30.352240793185594,3529.7575815011924,-5464.506356845274,0.0008048252161603
1508,1724914923503464737,-0.3700931966304779,0.1352365314960479,0.1799137443304062,-0.0518525689840316,-0.0243784394115209,-0.2990028858184814,0.9525304436683656,0.0,0.0,0.0,246.9153986975108,-999.1803848780391,-426.9535709405882,0.354411057,0.1582655743772148,0.07078342368263,0.0094944961812701,10957.98285605296,13836.561776303435,-878.9073878892503,-0.0845582783385288,-0.0775281890214431,-0.6050450122132539,0.3784349340951394,-1.1703979010895011,1.427512282910186,-200026.9453772359,-498744.4507544385,-271715.45084205,0.0007364620094829
1510,1724914923504060717,-0.3698642551898956,0.1345285177230835,0.1807773113250732,-0.0491682291030883,-0.0225945524871349,-0.299230545759201,0.9526453614234924,0.0,0.0,0.0,125.82616984520769,-1300.7371991598789,-591.2509180473338,0.355007037,6.791962502567572,8.444707012889006,-0.5216053601313041,10554.759693702495,-1307.5801550856836,5680.850441627949,-0.0804559320428722,-0.0725380596628032,-0.6057717360473599,0.5277820461535612,-1.7751632664774777,1.1694652197473945,-386073.36460834485,312301.11719723744,-42443.510283548385,0.0007794905144824
1512,1724914923504543471,-0.3695532977581024,0.1334419399499893,0.1812325716018676,-0.0463818944990634,-0.0229642149060964,-0.2980853617191314,0.9531351327896118,0.0,0.0,0.0,-132.07203409885994,-829.9908815504291,-520.537715566745,0.355489791,11.662085181724128,1.8077891808457984,4.79075134319362,1569.284914795986,-5938.3343729878,3966.127401991483,-0.07498744519877,-0.0714884034298512,-0.6035278892730669,0.5397372918268957,-2.514935004782359,0.8221461377966648,-408821.61850298184,1266306.004211181,303746.3444333213,0.0003368600822959
1514,1724914923504978296,-0.3693594932556152,0.1322449296712875,0.1815427094697952,-0.0443858429789543,-0.0230366680771112,-0.297283798456192,0.9534786939620972,0.0,0.0,0.0,-260.7239478532496,-165.3276881481764,-326.8666489409417,0.355924616,9.00797492991792,2.2843565411733766,3.75880132020153,-5820.032616799611,1016.194614136244,-2266.492108112836,-0.071181212364791,-0.0703784127918159,-0.6019664164402877,0.4208832655697043,-2.6007344903424308,0.6737096113366519,-276774.35265469993,1442736.3754143585,421734.3692815584,0.0001874749264562
1516,1724914923512017135,-0.3692254424095154,0.1312718689441681,0.1817797720432281,-0.0427425354719162,-0.0222857892513275,-0.2974066138267517,0.9535333514213562,0.0,0.0,0.0,-33.0160178970251,209.00394110881433,-54.88175835871595,0.362963455,0.3816627561896078,0.3441437002198398,-0.029942722641637,-714.3322475454746,-167.79925878579823,-315.8270582365192,-0.0684684732976952,-0.0679766513857964,-0.6023466120479982,0.0229275714779166,-0.119198322391921,0.0255857349473744,20417.917550235445,22878.947129049848,24969.245973514244,0.0001414560171596
1518,1724914923522120237,-0.3689374923706054,0.1303437501192093,0.181920900940895,-0.0396403037011623,-0.022127890959382,-0.297362744808197,0.9536846876144408,0.0,0.0,0.0,0.2339121706238822,0.7333816352518188,-0.8678655191857644,0.373066557,0.5777567343612893,0.2127431965294756,0.004840542422196,0.8337760673080652,-1.3478359248306369,6.168167598472297,-0.06262516034769,-0.0658286941446563,-0.6024387768658336,0.0304511343057818,-0.0892084351542887,0.0105088798255863,1628.7421135827394,-10664.39354510618,2780.7213740424772,5.2794456689659014e-05
1520,1724914923532742284,-0.3685922622680664,0.1294258385896682,0.1819938868284225,-0.0372125096619129,-0.0210409350693225,-0.2968757450580597,0.9539588093757628,0.0,0.0,0.0,-1.0297096490492486,-1.4248451836184044,0.0179649561066471,0.383688604,0.3791684145623583,0.3286202002775087,0.1007947156994805,6.388677826979656,5.002885659337082,16.443285203612003,-0.0586525865731682,-0.0622796071545735,-0.6015798899742997,0.0272317020368255,-0.1063781406831916,0.0082638312880511,-76.73364069886102,-62.1733146726876,82.06268972879784,-1.0149867364136868e-05
1522,1724914923542295515,-0.3683773875236511,0.1282380670309066,0.1820847988128662,-0.0337947942316532,-0.0204295180737972,-0.2954003810882568,0.9545571208000184,0.0,0.0,0.0,-1.3999378841020764,-0.8072453639083932,0.7904776927615589,0.393241835,0.6557263346183436,0.325667929454665,0.3215458808190993,15.064673206261498,-3.8828685794809346,6.978264423118871,-0.0525639769147025,-0.0590025023237111,-0.5986804383212727,0.0111515563959496,-0.1183439991501025,0.0104057838409294,1.7880692833626597,65.86584816778266,51.73167940620259,-4.430907056102615e-06
1524,1724914923553163139,-0.3683964014053345,0.1270259767770767,0.1822088807821273,-0.0300724022090435,-0.0201916527003049,-0.2943432629108429,0.9550131559371948,0.0,0.0,0.0,-0.8792869147719433,-0.0763872955814086,0.9925190077140252,0.404109459,0.6477917009548426,0.2392875563031281,0.1979797190880729,11.07252141066882,5.280481697002259,-21.296020976054475,-0.0456406573656742,-0.0562995427373752,-0.5966557377029504,-0.0005603219275158,-0.1216116527337582,0.025997056752999,29.05513642270914,88.35196847310783,-64.45631917752677,4.012413431440652e-05
1526,1724914923561943396,-0.3683928847312927,0.1258866935968399,0.1825405657291412,-0.0261019188910722,-0.0196791496127843,-0.2945666313171386,0.9550716876983644,0.0,0.0,0.0,-0.757917232710987,0.8490523935394565,-0.1625472093478442,0.412889716,0.8287370145176401,0.3794948789616829,-0.0594173401289053,-21.641075123674447,-3.8522890167188386,-14.227272442115307,-0.0383279394974444,-0.0529923044479131,-0.5973177465801167,-0.0068732857965763,-0.1206912772987092,0.03157520970964,20.22963273239711,-25.65820213115811,-109.0221638529742,0.0002608866838244
1528,1724914923572019429,-0.3685462474822998,0.1247754096984863,0.1827870160341262,-0.0253458973020315,-0.0193276833742856,-0.2947052717208862,0.9550564289093018,0.0,0.0,0.0,-0.4800029007647337,-0.9249121966729624,-1.0005370879514357,0.422965749,0.1221508465014003,0.1114908390711838,-0.0283068094742251,-39.88180669314719,-19.976001704807224,1.347750706924389,-0.0370799596713018,-0.0518804659237716,-0.5976455300702284,-0.0149601401472132,-0.1035306483364255,0.0207117681242126,37.31258348408499,-151.78114777552432,-31.73025219315884,0.0001828594281653
1530,1724914923584735548,-0.3687323033809662,0.1235673725605011,0.1829902529716491,-0.024799620732665,-0.0197421703487634,-0.2949244081974029,0.9549947381019592,0.0,0.0,0.0,0.1506287524430767,-2.4653881946874474,-0.5785740162950759,0.435681868,0.1003572609965326,-0.0362541424198341,-0.0390893025933556,83.92878315501959,31.7018841326125,21.904362088856512,-0.0357787738225182,-0.0523592850446394,-0.5981262264544674,-0.0158871620931151,-0.1574663709315942,0.0092342944629919,30.26736610020791,261.32541920443964,64.05720291873054,0.0001358339854194
1532,1724914923591778771,-0.3688490986824035,0.1222146153450012,0.1830289661884308,-0.0209946613758802,-0.0195920281112194,-0.2941960394382477,0.9553135633468628,0.0,0.0,0.0,0.2884167637838168,0.8672389281283142,-0.0069624186006365,0.442725091,1.0255878251027328,0.3560277636110935,0.2039472536416819,54.22414954977191,33.21878395501621,19.555828576554894,-0.0286245767101585,-0.0498067429689766,-0.5967693806707925,-0.0139542345747951,-0.1679017474556152,0.0064233006844487,0.6394413631005452,334.8896408540741,79.52312432934077,-2.827882415015766e-05
1534,1724914923602402320,-0.3689552247524261,0.120818093419075,0.1831120550632476,-0.0186125468462705,-0.0183742959052324,-0.2933222651481628,0.955655872821808,0.0,0.0,0.0,-0.0080222971469385,2.2092003573643213,0.8116635503369867,0.45334864,0.3655501583228794,0.3487510048703567,0.1721326729694415,-28.197610927242007,2.160495607496875,-14.590918454033876,-0.0248240671777615,-0.0460542347721725,-0.5950385006754771,-0.0106662296805524,-0.1210507555855207,0.0126330014036994,-19.218862273006067,-44.26992649996144,33.96135778004396,2.0809697124913633e-05
1536,1724914923613613375,-0.3690828084945678,0.1195840835571289,0.1833106130361557,-0.0155152520164847,-0.0169506128877401,-0.2940056025981903,0.9555274844169616,0.0,0.0,0.0,-0.1207322098640166,-0.3053645306763251,0.6825314755442495,0.464559695,0.4508772076654625,0.4066372300852433,-0.1286421072445253,-2.7387222805167113,2.508368878026179,-7.550572869240618,-0.019701609084783,-0.0415286308926992,-0.5965833076925705,-0.0145128090633619,-0.1223223329988929,0.0244199265565203,6.071446743301717,-118.02789277051043,-70.69029881934003,0.0001524286328592
1538,1724914923622374398,-0.3692314028739929,0.118428535759449,0.1835704892873764,-0.0134917320683598,-0.0156953930854797,-0.2942691147327423,0.9554985165596008,0.0,0.0,0.0,0.0428576741575682,-0.6118724178913144,-0.3419039942990263,0.473320718,0.3560248924243751,0.4104362369560782,-0.0628087955354667,-10.886117394475557,-0.0237919239421202,4.479604886256587,-0.01655799497732,-0.0379433535641066,-0.5971991526062973,-0.0140480842203594,-0.1263117584571906,0.0278744047626346,-6.186618449522854,-11.000706525110685,-113.93809759988642,0.0002224633398233
1540,1724914923632487045,-0.3693394660949707,0.1172163784503936,0.1838314980268478,-0.0117002539336681,-0.0141078745946288,-0.2945321500301361,0.955465853214264,0.0,0.0,0.0,-0.3098803952730004,-0.4431502681709229,-1.4591838320581738,0.483433365,0.2452429935961632,0.404856292420801,-0.0529319830060229,6.429957811438019,-12.314754673087316,4.957125688166291,-0.0140564596317565,-0.0338578552463953,-0.5977974330240582,-0.0137335894351942,-0.1343263376391643,0.0158232826213478,-29.80959159091028,44.957418991046666,-44.841787620240865,0.0002258264336984
1542,1724914923641863601,-0.3694947361946106,0.1158311367034912,0.1838930398225784,-0.0093980208039283,-0.0138987004756927,-0.2943853139877319,0.9555396437644958,0.0,0.0,0.0,-0.545301656449656,0.2242034879859593,-1.3089540855439437,0.492809921,0.4566776013009266,0.1871184708839136,0.0281549617953421,15.779244883555185,-13.706466975273532,3.680851652024761,-0.0097824118469658,-0.0321003097822004,-0.5975542964868882,-0.0196036916853188,-0.1354440354037276,-0.0001844551718601,10.696539607255511,61.05803898361129,37.502449418780415,2.8557124241984503e-05
1544,1724914923652736502,-0.3697462677955627,0.1145134270191192,0.1838059574365615,-0.0063252844847738,-0.0139461355283856,-0.29432213306427,0.9555836915969848,0.0,0.0,0.0,0.0224186267507806,0.7605568820139599,-0.6303654112804543,0.503682822,0.5428868791953874,0.158055482112996,0.0055525337244258,1.6022441728470973,-1.944929142061401,6.20772855847958,-0.0038811655014493,-0.0303814153996908,-0.5975056385488432,-0.0245147462807651,-0.1286766322585695,-0.009395374218533,51.83668855448817,21.880918784327548,39.692686677175814,-0.0001080207679038
1546,1724914923662400053,-0.3699950277805328,0.1132056713104248,0.1837032586336136,-0.0038003362715244,-0.0139868333935737,-0.2936603724956512,0.9557999968528748,0.0,0.0,0.0,0.5201024130444061,0.7362573778997454,-0.441914204470427,0.513346373,0.504033105854725,0.1455135335448939,0.136711719296834,-0.7447958256395708,3.5696407850089047,1.1913879406737216,0.0009504336529144,-0.028973300403677,-0.5961859474516592,-0.0202262197460108,-0.1201404488826112,-0.0136250887012199,27.00286034700972,-22.892906004276185,18.997618710971047,-0.000116803116093
1548,1724914923673257728,-0.3701473474502563,0.1120865121483802,0.1835187524557113,-0.0006310004973784,-0.0135768754407763,-0.293630450963974,0.9558224678039552,0.0,0.0,0.0,0.5144275754341591,0.2390908369308046,-0.2417880646485652,0.524204048,0.5359096901458746,0.2436519272422313,-0.0013949884512012,-10.300231274162702,-6.718985181287133,-2.760523826706717,0.0067693168374219,-0.0263277685151156,-0.5961909061978546,-0.0136480777165743,-0.113940696514164,-0.0184746876030352,6.599986846335796,-18.78160641613474,59.789988761611056,-0.0001908143530099
1550,1724914923682115171,-0.3702654838562011,0.1109987795352935,0.1833444088697433,0.0009351130574941,-0.0137331206351518,-0.2934140563011169,0.9558863639831544,0.0,0.0,0.0,0.624352665109753,0.2678841065276698,0.5866404311593254,0.533061491,0.3490359806254246,0.0702791827017662,0.0461160687410127,-12.323295860907177,0.4602751403031551,5.050320682237451,0.0098501191069434,-0.0257086867445265,-0.5957770590284033,-0.0097521688183856,-0.1142212521902781,-0.0191360286054687,-2.986295463534791,3.3252922632360296,74.03342049896136,-0.0001779325184279
1552,1724914923693559736,-0.3703240752220154,0.1098184883594513,0.1831334978342056,0.0033990202937275,-0.0122670140117406,-0.292841225862503,0.9560763239860536,0.0,0.0,0.0,0.3624984267107268,0.3070430177339025,1.1456316740632213,0.544506056,0.337754760155195,0.3717958263779552,0.0992767535288372,15.923842340645583,44.500709250475325,-18.14316161506538,0.01368760160268,-0.0214673055989995,-0.5945905140642312,0.0001216429041264,-0.1067257575729083,-0.0026432322710672,-47.58156719707555,-27.5166262624329,-28.222350130248316,-0.0002101603551237
1554,1724914923702235305,-0.3702885508537292,0.1088689416646957,0.1832143813371658,0.0069593111984431,-0.0093713859096169,-0.2936564683914184,0.95583975315094,0.0,0.0,0.0,-0.2127477918024297,-0.1351455784461279,0.3939618244892619,0.553181625,0.5871094045769076,0.8772608184717285,-0.2079928614841792,12.712526981397726,-2.5603680508359616,-14.553308873227596,0.0188108164824463,-0.0138282335928106,-0.5962713627177176,-2.340288083146902e-05,-0.1063499337413098,0.0053525993956213,-38.001265489871344,-16.8482559150957,-85.99645964735426,8.748633956623899e-05
1556,1724914923712459419,-0.3703384101390838,0.1078189685940742,0.1832212656736374,0.0097019402310252,-0.009576485492289,-0.2941409945487976,0.955664873123169,0.0,0.0,0.0,-0.2602259636667278,0.1037239325498751,-0.4774959569542998,0.563405739,0.5239415443793886,0.1182180841884306,-0.1053898454694056,-3.336465116917484,-45.38452097593468,14.858583970005135,0.0241815558160841,-0.0125966780184226,-0.5973228002905843,-0.0045605259521828,-0.1098820186255489,0.003022369157259,8.447059098134735,7.1716023838319565,-61.29939611615488,2.163404593924162e-05
1558,1724914923722523600,-0.3703811764717102,0.1066419035196304,0.1832749545574188,0.0121130542829632,-0.0106017151847481,-0.293675422668457,0.955769658088684,0.0,0.0,0.0,-0.0455259174669192,0.0154926862354622,-0.8572948796906945,0.57346992,0.5185163126133904,-0.0526715679100031,0.0919317656124104,-10.578075314003758,-5.912789127071576,12.94181056688828,0.0293882770643859,-0.0131513618248082,-0.5964119819607743,-0.0053611933135861,-0.1043881088428899,-0.0042557714168411,19.917485474212477,-12.83106549539215,11.940833876414382,7.475696016213823e-05
1560,1724914923734784897,-0.3704635202884674,0.1055497080087661,0.1830795109272003,0.0135750593617558,-0.0108076781034469,-0.2927713394165039,0.9560250639915466,0.0,0.0,0.0,0.1775419417694535,-0.2025442192006679,0.0312162900185279,0.585731217,0.238851963060574,0.0401524897765754,0.1510601783234831,-3.374669742519604,41.75741269702134,-37.247033762706224,0.032292773581052,-0.01271638839464,-0.5945453611262042,-0.0054110544310965,-0.1121212201446812,-0.0167708451339159,-13.858590509288785,63.3841009634724,-9.13194812713274,-0.0001715323500662
1562,1724914923742680658,-0.3704996109008789,0.1045472547411918,0.1829428672790527,0.0153925102204084,-0.0090959789231419,-0.2940749228000641,0.9556151628494264,0.0,0.0,0.0,-0.0948489410038195,0.71061639692629,-0.4557687065796791,0.593626978,0.3110195038819008,0.5436837663104703,-0.3569369781898301,12.654173203251316,44.668388043063466,-42.09354604021199,0.034776647138922,-0.008331504637095,-0.5972182823625513,-0.0030858302721537,-0.1115435229503898,-0.0111758727786952,-41.96385011396761,77.09368090257095,-121.8479646287078,-0.0001114742567648
1564,1724914923752979211,-0.3705114424228668,0.1036056131124496,0.1829101145267486,0.0189506076276302,-0.0061204549856483,-0.2964079976081848,0.9548537731170654,0.0,0.0,0.0,-0.6272963032220913,0.9866331473771552,-2.518878994062373,0.603925531,0.4885429945322411,0.7470885569355865,-0.4916404180487405,1.1665155709335018,-12.174679551511012,6.14305684848612,0.039828955690152,-0.0004540557673522,-0.6019910279378119,-0.0092924539463297,-0.0956626119460324,-0.0315101317090302,-9.920580138229774,-33.2946732708366,-71.78452093808828,-1.794005376759859e-06
1566,1724914923762549213,-0.3706727921962738,0.1026525199413299,0.1823566257953643,0.0210800319910049,-0.0050188191235065,-0.2975616753101349,0.9544566869735718,0.0,0.0,0.0,-0.350681762818061,0.1335682635844683,-2.0627022193875617,0.613495533,0.3567855470044634,0.3466637373425973,-0.2619022922403345,-13.438938099362453,-41.29994416691545,24.529608141120484,0.043240434849603,0.0029647326665395,-0.604357553250083,-0.0155146868577364,-0.0911598713953414,-0.060457168205021,16.075836293822224,-82.04665913637459,96.93110991133568,-0.0005138932528402
1568,1724914923774954118,-0.3708436191082001,0.1016572713851928,0.1815645098686218,0.0219453088939189,-0.0063151461072266,-0.2972749769687652,0.9545187950134276,0.0,0.0,0.0,-0.3575394805159884,-0.7701633254911293,-0.068140391089523,0.625900438,0.195364043940172,-0.1569474968251168,0.0508034632227124,-4.55007623060666,-23.462643544561516,23.94218133374505,0.0456649810152246,0.0009917312493833,-0.6038144489068377,-0.0150490380750376,-0.0949207842873329,-0.070575172882549,26.44204747132219,56.64301456339673,169.4525230846291,-0.0007490429122653
1570,1724914923784331090,-0.3709937930107116,0.1006630733609199,0.1808550953865051,0.0225330777466297,-0.0077823936007916,-0.2961024641990661,0.954858660697937,0.0,0.0,0.0,0.0817500635514578,0.6788597902742648,1.5822253346628954,0.63527741,0.2126824125991157,-0.2555001510133425,0.2663346745397184,-4.502135813259931,8.035751952945581,1.4496900855539128,0.0476586751423704,-0.0015179727507822,-0.601431516048101,-0.0212020333609075,-0.1054526272173319,-0.0659157087018531,86.99978657494447,180.4008638099973,65.7351369516101,-0.0006661721857541
1572,1724914923792749086,-0.3712114691734314,0.0997797027230262,0.1803738176822662,0.0229794476181268,-0.0081431241706013,-0.2956373691558838,0.9549890756607056,0.0,0.0,0.0,1.1175470239720782,2.3929823799637235,1.3022865118604172,0.643695406,0.1268031608707477,-0.0477026899341569,0.11579258669596,0.044863000507636,30.95388610492004,-24.212111029524394,0.0487244375469512,-0.0019660236389171,-0.6004772025223298,-0.0149372438482444,-0.0861199532279748,-0.0443946745538017,43.0738924696053,34.40743848884951,-155.16834363079062,-0.0004398443556057
1574,1724914923803149444,-0.3712264895439148,0.0991258323192596,0.1800762861967086,0.0248199123889207,-0.0067533156834542,-0.2966624200344085,0.9546359777450562,0.0,0.0,0.0,0.5379312274503933,0.5764503746274214,-1.8780537089157163,0.654095764,0.2589355681694013,0.3547823377247422,-0.2173435749643129,19.771794429082323,30.161575937084475,-13.042571501699346,0.051417611953412,0.001832355333051,-0.6025502122291077,0.0014828074905253,-0.0599934637737185,-0.0469671578164074,-75.19114171084999,-169.73685290763916,-119.48560734882687,-0.0002683573189564
1576,1724914923813015102,-0.3711844682693481,0.0985608771443367,0.1794411092996597,0.0281123872846364,-0.0047981273382902,-0.2973653376102447,0.9543377757072448,0.0,0.0,0.0,-0.3860014807722164,-1.052037422560911,-1.3133246370150138,0.663961422,0.5201352832901378,0.5724476771603614,-0.1683128426426988,0.0316836590315041,-23.498354031008795,11.274298981325307,0.0565427591461998,0.0075613027792494,-0.6039036084230849,-0.0029510326210129,-0.0724208527182215,-0.0807562897545484,-37.81343199675275,-60.20084985819384,201.78628967387337,-0.0006065291939589
1578,1724914923821939751,-0.371269017457962,0.0977921858429908,0.1785881966352462,0.0294130146503448,-0.0052250116132199,-0.2974306643009186,0.9542760252952576,0.0,0.0,0.0,-0.2726710641575569,-0.7426885047954279,1.654511157504335,0.672886071,0.3069254419900279,-0.0051011685232574,-0.0167952824672315,-20.27992316413318,-30.92317758057247,5.191192870460006,0.0592808187926277,0.007524529348765,-0.6040559431324778,-0.0058839443874507,-0.0801336866380131,-0.0754294716625585,15.689053334683246,21.24126788526876,211.3632795480404,-0.0008083056217226
1580,1724914923832875710,-0.3712852597236633,0.0969962179660797,0.178033173084259,0.03029122389853,-0.0048516206443309,-0.2980245649814605,0.9540651440620422,0.0,0.0,0.0,-0.0610223057213019,-0.6902441583012005,2.3420871213904046,0.68382203,0.1335220114969712,0.1095384764052762,-0.1179665969286076,-41.539891630321954,-15.105595848101803,-13.214814128403212,0.0607310799947869,0.0087976468394324,-0.6052718319229533,-0.0081159769299077,-0.0866271482770022,-0.0431627771744302,21.098043971078575,56.446557046164486,-102.05064413873532,-0.0005098304283128
1582,1724914923841886852,-0.3714076280593872,0.0961128249764442,0.1777005791664123,0.0281512793153524,-0.0051668062806129,-0.2992081344127655,0.9537585973739624,0.0,0.0,0.0,0.1420488124079851,0.2019178275135646,0.1979187519054124,0.692833172,-0.4315035831009418,-0.2165769217386773,-0.2664770403909369,-9.254861930437755,-2.01503230808203,-15.19680291290359,0.0568229116660506,0.0069904686416849,-0.6077837403028575,-0.0076034879661719,-0.0935633557561566,-0.0265755291923044,0.9286084209709466,108.01067846565812,-252.41223579154735,-0.0002840755283037
1584,1724914923852308203,-0.371414840221405,0.0951916426420211,0.1775481700897216,0.0290115606039762,-0.0044216527603566,-0.3012130558490753,0.9531052708625792,0.0,0.0,0.0,-0.1086862471139458,1.4360551746143615,-2.606904230480763,0.703254523,0.1162186394018818,0.1743119526184388,-0.4093737165593895,37.441767746360746,20.181579712766617,16.41276928974475,0.0580007494232745,0.0090488440337417,-0.611938853487564,-0.0050965847600181,-0.0797484726795776,-0.0443127494681263,-20.536374486912912,31.373281151428387,-71.79058614406878,-0.0001034701370395
1586,1724914923861807038,-0.3715013861656189,0.0945089757442474,0.1768702119588852,0.0308639500290155,-0.0039327293634414,-0.3011423051357269,0.9530715346336364,0.0,0.0,0.0,-0.2732525925097598,0.9803818652631152,-1.580166454131796,0.712753358,0.3409983624247885,0.2159975964852054,0.0073474340005181,10.632453069682,-4.39072453153324,27.20035354974194,0.061241766869195,0.011092764786901,-0.6117468664780595,-0.0091526977609035,-0.0651515852715345,-0.0769098797021907,-0.6800061021914345,-49.828921414793626,174.767985503687,-0.0006358428982331
1588,1724914923871781916,-0.3715931177139282,0.0939294546842575,0.1760450452566146,0.0324585624039173,-0.0040337573736906,-0.3006288409233093,0.953180193901062,0.0,0.0,0.0,-0.1056840196062449,0.4638883162905873,0.8615504027033016,0.722728236,0.3105540003132646,0.0802402168511837,0.1040487857044355,-13.24385151357336,-15.79574989793447,-5.702461674551761,0.0643519485754768,0.0118264403974916,-0.6106606943775498,-0.0102677672160282,-0.0611997354259021,-0.0732774678983663,2.8564639538483725,-104.41238819237546,147.4272952358063,-0.0007864515888096
1590,1724914923883378292,-0.3717266321182251,0.0931779444217681,0.1753226518630981,0.0323398932814598,-0.004767688922584,-0.3015906810760498,0.9528769254684448,0.0,0.0,0.0,-0.2605259635184629,-1.4564861394878332,1.2586264851836313,0.734324612,0.0195736601234007,-0.1324013013580623,-0.1696525147597166,-3.3204605404504868,7.301433645496753,-17.2277484217558,0.0645559899884893,0.0104209679696255,-0.6127229623254993,-0.0114110312488016,-0.0549075086327577,-0.0565810020420594,6.401763182382885,-70.24359539465854,-6.247900785892792,-0.000672876127623
1592,1724914923896022592,-0.3718695044517517,0.0926201418042182,0.174685999751091,0.0346195697784423,-0.0033480497077107,-0.30332151055336,0.9522533416748048,0.0,0.0,0.0,0.092771906427604,-1.029978647214575,0.6214034318810144,0.746968912,0.27775610363942,0.3133938207051488,-0.2995997091132357,-0.2780806586594018,1.2186975369220256,-116.43650580281091,0.0680239916399664,0.0146258587999585,-0.6162407236878873,-0.0169378250237386,-0.1008850389099933,-0.0431643805424002,63.896503549433554,333.6130950422345,-80.46211163254509,-0.000595555415656
1594,1724914923901882204,-0.37198406457901,0.0918748378753662,0.1744525879621505,0.0354480594396591,-0.0027782395482063,-0.3068375885486603,0.9510975480079652,0.0,0.0,0.0,0.5648155006074694,1.7391810180472318,0.0682836396229256,0.752828524,0.2199249526150834,0.228106434990325,-1.270143657523158,-19.090238216973873,-16.96182433787762,-82.60663302679508,0.0691986512550327,0.0164695850550284,-0.6235750558476183,-0.0149553796667571,-0.0998431620233737,-0.0407171219894788,53.70164181184658,317.81046344151264,-82.3938726307266,-0.0001807395792786
1596,1724914923913153663,-0.3720529973506927,0.091342456638813,0.1739744991064071,0.0343816950917243,-0.002442390890792,-0.3089926540851593,0.9504396319389344,0.0,0.0,0.0,0.5878040343584614,1.965627155254562,-0.6002054692189653,0.764099983,-0.1951713525539821,-0.0152591727730421,-0.4011004245707679,-5.027882635032361,-8.061147216345653,45.22319308675328,0.0669239782334839,0.0166054553621186,-0.628097827631777,-0.0036783783948877,-0.0463869494259467,-0.0475222578046548,-5.772691564634954,-80.37821680265009,24.93793643182921,-0.0004411777186924
1598,1724914923923511343,-0.3720678985118866,0.0908700451254844,0.1734336763620376,0.0347054749727249,-0.0023412348236888,-0.310148537158966,0.9500516057014464,0.0,0.0,0.0,0.4536557179009133,0.1768385738645568,0.4599461340637591,0.774457663,0.0554167788097395,0.0300259148385686,-0.2361075171847861,14.840369664737796,-6.908465939838708,9.328474559963274,0.067457226098114,0.0170799472092616,-0.6305173573796032,-0.0015180458325012,-0.052458949120357,-0.0537052635922901,0.7000805958558942,-19.656580775665432,86.86105691189849,-0.0005086602962377
1600,1724914923932578517,-0.3720822930335998,0.0903400257229805,0.172934889793396,0.0350343510508537,-0.0029980172403156,-0.3110446035861969,0.9497446417808532,0.0,0.0,0.0,0.568362942081384,1.2133977805448004,1.1245546293126767,0.783524837,0.1157372249813448,-0.1221535707948721,-0.2039201606459635,21.62315379144448,8.973353302147183,1.9868839532932008,0.0684747747754843,0.0161004856498741,-0.6324374961676252,0.0045406630128059,-0.0447986856720419,-0.0411457925148903,-24.416771800681996,44.79493873833135,7.027151050159121,-0.0004628745862114
1602,1724914923944003631,-0.3719421923160553,0.0900247916579246,0.172664389014244,0.0387991070747375,-0.0020795189775526,-0.3120671808719635,0.9492652416229248,0.0,0.0,0.0,-0.2442355364052048,0.7242856632941295,0.2507850546572343,0.794949951,0.5783036742310863,0.3511708096824601,-0.2037210174161954,-3.8461166729887033,21.103702012347505,-4.471371393847319,0.0750450068432137,0.0202692136365159,-0.6344717694528095,0.009596959185572,-0.0256295548056328,-0.0320493407582542,-74.35139229819774,-78.2996391815029,-45.14268319759847,-0.0002508184072658
1604,1724914923952337702,-0.3718784153461456,0.0898231193423271,0.1723463833332061,0.040420688688755,-0.0007999507361091,-0.3130598962306976,0.9488725662231444,0.0,0.0,0.0,-0.8835063246711572,-0.1440197994032614,0.0650594832279065,0.803284022,0.2767365176646405,0.4034904462136219,-0.2682745334970096,-30.779444680062717,-10.107259210846674,-12.094871474736092,0.0773078705449742,0.0237923352423222,-0.6364456705199693,0.0033862453541537,-0.0253900497269707,-0.0332749042837701,-23.14270470874697,-55.783170316037086,-13.994074603070946,-0.0003033081353223
1606,1724914923961862125,-0.3718926012516022,0.0895683243870735,0.1720826029777526,0.0408060438930988,-0.0001978998334379,-0.3149809241294861,0.948220431804657,0.0,0.0,0.0,-0.5209050943633593,-0.1484519561411705,0.0220200435564152,0.812808445,0.0424168441843648,0.1288766572486241,-0.4308106397166254,-18.80143706868403,-26.21307261773354,-5.982677440707025,0.0776136973180436,0.0253336552447379,-0.6404428262843318,-0.006533863896756,-0.0286421887289067,-0.0303464324009024,43.08878375149601,6.864244065631808,4.858605819308721,-0.0002428460245607
1608,1724914923971975616,-0.3720128536224365,0.0892583504319191,0.1717472225427627,0.0402244813740253,-0.0005033109337091,-0.3167878091335296,0.947642982006073,0.0,0.0,0.0,-0.0312376590814145,-0.0003180729941227,0.1718619315454732,0.822921936,-0.0854393270867041,-0.1080980348086892,-0.3723013626181341,-2.9741335517564003,-1.0788702950883566,8.120836233894263,0.0766538712941743,0.024533793610895,-0.6442822504041033,-0.0062108918742396,-0.0280709239196128,-0.0331891748511967,8.733509780641842,5.058356030345215,38.746054251475954,-0.0003075829896337
1610,1724914923982840162,-0.372014045715332,0.0889834687113761,0.1713863164186477,0.0404426008462905,0.0002874530327972,-0.3180786371231079,0.9472013115882874,0.0,0.0,0.0,-0.3995159230361839,-0.057275827707143,0.8721164220201908,0.833786482,-0.0049129934573062,0.1410669767622132,-0.2568128924425302,1.1007606218307862,1.733657403711615,-13.07485675429538,0.0765327858201924,0.0262754298111009,-0.6469478308356329,-0.0072875840693384,-0.0287373546096088,-0.0260354683061319,-3.797827560656137,8.450440001802408,2.1282467633521627,-0.0003385852337076
1612,1724914923992037078,-0.3721369504928589,0.0886924192309379,0.1712027937173843,0.0402386561036109,0.000421134463977,-0.320525199174881,0.9463849067687988,0.0,0.0,0.0,-0.2001125142072456,0.1270454591342353,0.4064742490631362,0.842983398,-0.0439227952654382,-0.0080370187823028,-0.5616084274210729,-7.071314736013935,-11.525350964352397,-12.399315013008732,0.0759925126868439,0.0265952521842111,-0.6521053780172531,-0.013300701859098,-0.0292324753695947,-0.0163512006651123,33.54300027198498,17.67506824259236,-60.815922402739446,-0.0001576103397249
1614,1724914924002489997,-0.3722752332687378,0.0884155333042144,0.1710746884346008,0.0393664091825485,0.0004081813094671,-0.3227392435073852,0.9456688165664672,0.0,0.0,0.0,0.2914291177631052,0.2836855651395733,-0.350240028447679,0.853436317,-0.1514567540178593,-0.0728264298722077,-0.4447961779170663,17.00595048874058,12.144946655187743,12.185882144537846,0.0742854444891676,0.0261851711755038,-0.6568003946532354,-0.0100022246223865,-0.0257555317476771,-0.0197832664895347,18.850204037997656,-1.6371792532709613,-18.958029187441475,-0.0001036126127463
1616,1724914924011864884,-0.3723418712615967,0.0881802439689636,0.1708259284496307,0.0407136902213096,0.0009739269153214,-0.3241305649280548,0.9451353549957277,0.0,0.0,0.0,0.2312585241301705,0.1285748282949994,-0.0786894451197613,0.862811204,0.2374560321703886,0.1952609906656977,-0.3220560851994416,7.392172916014372,5.8271991388759075,9.464524880082768,0.0764333782049117,0.0282378408900636,-0.6596743141681197,-0.0074729659644692,-0.023507529433056,-0.0232509000588638,-5.797468674672937,-23.20764894830668,7.754365062019778,-0.00022804232302
1618,1724914924023021267,-0.3724300861358642,0.0879390984773635,0.1706101298332214,0.0399366170167923,0.0010524116223677,-0.3255341351032257,0.944685995578766,0.0,0.0,0.0,0.1748218119284614,-0.2187901018753344,-0.2737898374214367,0.873967587,-0.1326983120910976,-0.0420210355631661,-0.2646318492303349,-6.395335115593612,-10.725465741071345,2.3895360000513453,0.0748691651439246,0.0279935171842307,-0.6626548940275658,-0.0054045283050108,-0.0235496354700313,-0.0202627519413223,-2.2836853437162397,0.6357615556856655,1.110038083610112,-0.0001946305654894
1620,1724914924032725572,-0.3724614083766937,0.0876942351460456,0.1704057306051254,0.0399886071681976,0.0007924694218672,-0.326758474111557,0.9442611932754515,0.0,0.0,0.0,0.176084692629528,0.0555719403927272,-0.1060293125324769,0.883671892,0.0313238511886786,-0.0571062180536105,-0.2647212012118933,7.357902195722839,-15.588746162316925,5.459262544158696,0.0751007086077303,0.0276333454417994,-0.6652590566001337,-0.0037973304653498,-0.0274878391777315,-0.0274917282014985,7.256144777886419,40.260903739047734,44.67845073032451,-0.0001843548519721
1622,1724914924041876928,-0.3725010752677917,0.0874232202768325,0.1700986623764038,0.0395785868167877,-0.0005876328214071,-0.3275408148765564,0.9440075755119324,0.0,0.0,0.0,0.3039850977794293,0.527475292962699,0.5392229968072673,0.892823248,0.0162938911109367,-0.320878861812061,-0.1675691208721453,2.2993895194356795,-2.99389944955672,2.698719651627032,0.0752039281349518,0.0248202938179113,-0.6670093395429558,-0.0020955814338634,-0.0229975054875226,-0.0229484282051517,6.923444438141394,21.555790691688763,28.974276753713635,-0.0002848862812374
1624,1724914924052832740,-0.3724946677684784,0.0872580558061599,0.1699863523244857,0.0400344729423522,-0.0007794396951794,-0.3287940323352813,0.9435523748397828,0.0,0.0,0.0,0.2873337379900699,0.3700140165855217,0.31188836333315,0.90377906,0.0931860282831799,-0.0148987397125359,-0.2418478927044257,16.02964632665266,16.400139906041236,-3.4399027692770936,0.0761589013338626,0.0248578671545094,-0.6696644748628529,0.0027829006888602,-0.0167358988178962,-0.0164799455167727,-12.383869970116152,-10.641966830096404,-1.37344630152991,-9.973461750043135e-05
1626,1724914924061750035,-0.372453898191452,0.0870967656373977,0.1697941869497299,0.0413736961781978,-0.0009766045259311,-0.3298285007476806,0.9431333541870116,0.0,0.0,0.0,0.0980513118296709,0.3021922141540912,0.440278513522071,0.912696355,0.3015315405853244,0.0476719149976175,-0.2482809127524336,-1.0341745174765808,4.506155944178831,0.6144503598969031,0.0787930490376826,0.025453059997361,-0.6718396969211294,0.0041987021536336,-0.0148990144524736,-0.0157203179365597,-15.16840602606926,-13.902100467549843,14.915749289773666,-0.0001802114498618
1628,1724914924071861927,-0.3724157214164734,0.0869826674461364,0.1697020679712295,0.0415361896157264,-0.0006407077307812,-0.3308959603309631,0.942752480506897,0.0,0.0,0.0,0.0141346070357261,0.0894172588205336,0.597043110260153,0.922808247,0.0113095176417108,0.0644496057732314,-0.2267499921682331,-14.928602537825808,-0.847165035560806,3.1578620926113308,0.0788495913876428,0.0262832831233583,-0.6740748459292644,0.00449395098898,-0.0107401884558075,-0.0071965915893432,-4.289746255528886,-18.54711751823516,-4.697881473070399,-8.400916685272664e-05
1630,1724914924084596848,-0.372346967458725,0.0868546068668365,0.1696411073207855,0.0418178439140319,-0.0006035850965417,-0.3319127559661865,0.9423825740814208,0.0,0.0,0.0,0.0238039087409612,-0.1067641512322952,0.2132269571601996,0.935543168,0.0420826471198031,0.0134629664086377,-0.1700378887355797,-18.19524918973977,-3.755947683455663,-21.152122205841067,0.0793287542416664,0.0266252811805386,-0.6762207317785012,0.0044323590260653,-0.0147636299821254,-0.003537091626196,9.308921645934232,22.952987687734897,-16.364704774100858,-5.269219046250556e-05
1632,1724914924092004793,-0.372318297624588,0.0867249518632888,0.1696202903985977,0.0411687828600406,-0.0003591177228372,-0.3334403336048126,0.9418718814849854,0.0,0.0,0.0,0.1296062473718411,0.22856353005262,0.1513541196547923,0.942951113,-0.1815271647824314,-0.0132933222395013,-0.4370710822579713,-10.94338373176036,3.349118629476449,-18.75643413164804,0.0778975893739016,0.0267813809533753,-0.6794574225584069,0.0047321148955301,-0.0146531569480008,-0.0022769717231918,10.182457051806914,33.54922658447916,-1.9615721987314068,-1.1528987295901807e-05
1634,1724914924103037316,-0.3722519278526306,0.0866101011633873,0.1696039289236068,0.0414954610168933,0.0004142064135521,-0.3352781534194946,0.941204845905304,0.0,0.0,0.0,0.1745821325416624,0.4061839788337676,0.2347149603404941,0.953983636,0.0138921190530184,0.1380281887934717,-0.3599106935498534,18.80251443438602,3.836789221650664,7.079373355755806,0.0779444710370225,0.0286086515797128,-0.6832990044570604,0.0076266526512718,-0.0086211265250639,-0.0009152220422858,-8.195054777289785,-1.807896217941131,5.155337713359831,-9.09706219089273e-06
1636,1724914924111801105,-0.3721738755702972,0.0865470021963119,0.1695998609066009,0.0424141883850097,0.0006189138512127,-0.3364853858947754,0.9407328367233276,0.0,0.0,0.0,0.0173316229302835,0.2656743722897174,0.263183374724164,0.962747425,0.1862580217965389,0.1028782616539775,-0.2972735444748257,5.678764658796945,-4.685057171646958,4.618934283041526,0.0795031093155066,0.0297123458580354,-0.6858263392888635,0.008545550928293,-0.0060399791040959,0.0019164881925011,17.967367645857365,-29.91581412908339,27.255233241360635,-1.1287423739250766e-06
1638,1724914924123086068,-0.3720826804637909,0.0864956974983215,0.1696560829877853,0.0427392870187759,0.0008104638545773,-0.3379717767238617,0.940185010433197,0.0,0.0,0.0,0.741924767065045,-0.2736619994930651,0.9196110972127198,0.974032388,0.0470595674087295,0.0402098463090448,-0.2818893480898702,-9.42612979088531,-4.635560967102333,3.5217908656550643,0.0799399003212575,0.0304180079941656,-0.6889626589856661,0.0074693455740622,-0.003461082038668,0.0040156129977777,13.424286566243405,-16.576224210401914,-5.198800402403728,5.7672266170422074e-05
1640,1724914924138964580,-0.3719777464866638,0.086464986205101,0.1696982532739639,0.0424226447939872,0.0008755005546845,-0.3393023014068603,0.9397199749946594,0.0,0.0,0.0,-0.1795368260436056,0.1605616695558422,-0.5786786578357415,0.9899109,-0.0376268528511088,-0.0128926925428548,-0.1777426582087094,20.476082332789417,59.403913785546145,-303.44614955038793,0.0792563181818697,0.0304383526767538,-0.6917936336509877,0.0379566529883419,-0.0190262243464935,0.035007669546232,-237.8800102374983,134.54615735749002,-300.3929755817753,4.1637121102726725e-05
1642,1724914924142124513,-0.3718380928039551,0.086394116282463,0.1698292195796966,0.0425998754799366,0.0012596773449331,-0.3412642180919647,0.9390007853507996,0.0,0.0,0.0,-1.0443188590298236,0.653130766333393,-1.6574641003405068,0.993070833,0.0433064451918704,0.2142788088437566,-1.3315583776773308,15.540947610982574,49.48502079022099,-254.5252579572983,0.079264991796972,0.0314464849764989,-0.6959363995184162,0.0360690159616954,-0.0178014535115722,0.0315877814279597,-210.28890175231123,123.36813680333256,-263.2315612651689,0.0001324911170222
1644,1724914924152245910,-0.371736466884613,0.0863639190793037,0.1698293387889862,0.0419800207018852,0.0014929763274267,-0.3427939713001251,0.938471019268036,0.0,0.0,0.0,-1.1179357504408538,0.8477911557109211,-1.7877335059126205,1.00319223,-0.1259047053716316,-0.0112566062232991,-0.3216846442218051,-3.0640961734634566,-13.96232308825438,57.916771483643146,0.0778880441547057,0.031588479125338,-0.6991928351388731,0.0110091760157509,-0.0025823508729079,-0.0038355645572067,49.422359224608854,-21.152616067410374,83.09779278351333,-1.1105813409521637e-07
1646,1724914924163615410,-0.3715989291667938,0.0863396823406219,0.1697365939617157,0.0419268868863582,0.0011735836742445,-0.3438643217086792,0.9380820989608764,0.0,0.0,0.0,0.168062161444063,0.0915167603725008,0.3827094089663235,1.01456173,0.0136410959745188,-0.0637332132303052,-0.1978070439045512,10.72761604117833,9.81156092574395,-1.3589355412139312,0.0779711207542877,0.0310411414351665,-0.7014924039255008,0.0156424050905421,-0.0013197783935936,-0.0022949184318292,28.785351933396537,-42.66315832984681,67.59682328883817,-9.415541222138095e-05
1648,1724914924173057893,-0.3714234232902527,0.0863335877656936,0.1697608977556228,0.0426110923290252,0.001696519437246,-0.3451948463916778,0.9375617504119872,0.0,0.0,0.0,-0.2214086575641048,-0.1242592844817613,0.0540346574795309,1.024004213,0.1028119411245324,0.1420508638053227,-0.3067398234996627,-4.980699515442433,3.5536953738735892,-4.4798346899558865,0.07885335946596,0.0326052192046676,-0.7042763386552974,0.0153515305618299,-0.0006088068535285,0.0032573892714324,-28.124010874582297,-15.46058058780363,-37.96188973740371,2.0104737349507755e-05
1650,1724914924182903047,-0.3713054955005646,0.0863279700279235,0.1697999835014343,0.0421562381088733,0.0018680918728932,-0.3464807569980621,0.9371075630187988,0.0,0.0,0.0,-0.3635899978021443,-0.2006020732889934,-0.3520797878230302,1.033849367,-0.0942889966194658,-0.010193258003465,-0.2784083020624731,-6.428447651421074,-17.076976189056854,3.1065075376508684,0.0778355309946012,0.0327196944832074,-0.7070182448704642,0.0112151810450562,-0.0038805824899856,-0.0016919225314779,-0.2798759924887282,3.1688742434277453,5.5749173028396966,3.636558574690124e-05
1652,1724914924192628855,-0.371203750371933,0.0862584263086319,0.1697291284799575,0.0417113192379474,0.0010887529933825,-0.3476404249668121,0.9366990327835084,0.0,0.0,0.0,-0.230245939437447,-0.064832850612237,0.1520321185055533,1.043575175,-0.026223517832615,-0.1917792850425757,-0.2459967630948547,4.661127293678756,-7.25524510827331,2.885491870768356,0.0774997806855568,0.0310457361782991,-0.7095494434569197,0.0082223081548029,-0.0045660326803056,-0.003668888491271,-0.1560485623540675,-5.72325045029636,42.63957625503673,-6.786457151315696e-05
1654,1724914924207856668,-0.3711319267749786,0.0862505137920379,0.1697594821453094,0.0415515974164009,0.0009707247954793,-0.3491665124893188,0.9361385107040404,0.0,0.0,0.0,-0.5632295635086703,-0.621273235339912,0.582161087351784,1.058802988,-0.0109717994468395,-0.0300932923828857,-0.212715460316473,-18.721818567094473,-33.279276954967116,-163.28736116255365,0.0772316530257824,0.0308392065181804,-0.7128159804310902,0.0065634469075206,-0.0054187144864563,0.0071174742414044,-10.352164949599567,5.408156101619213,-10.983528361284186,2.8916163737954817e-05
1656,1724914924211582331,-0.3711057901382446,0.0862258598208427,0.1697906702756881,0.0412514023482799,0.0007716766558587,-0.3508756458759308,0.9355127811431884,0.0,0.0,0.0,-0.5913023341538708,-0.5628864220136625,0.5054811332607553,1.062528651,-0.0987013899547269,-0.1940940472590205,-0.9719021985047096,-18.17370474423319,-31.531015460645232,-142.5082568323787,0.0767516561926698,0.0303967323180671,-0.7164836493245494,0.0040509427028876,-0.008248635618854,0.0091714011262813,8.721488836291565,25.6120903742555,-22.630893952925796,3.227928053929961e-05
1658,1724914924223168439,-0.3711656630039215,0.0860715135931968,0.1699257642030716,0.0404001660645008,0.0005128619959577,-0.3531526327133178,0.9346928596496582,0.0,0.0,0.0,0.0954759668112375,0.0920226981689411,0.169438381929575,1.074114759,-0.1156472308529382,-0.1094584461051508,-0.4156393473942991,-0.4795101044946248,11.856954242801624,24.500536533287065,0.0752650083946618,0.0294978645206085,-0.7213837614881826,0.0001933073841442,-0.0076834833075807,0.0133773795842255,27.21278654878469,18.51920615400754,-28.042199125109047,0.0001480166000727
1660,1724914924233499218,-0.3711142838001251,0.0860440731048584,0.1700797826051712,0.0399607941508293,0.0010608186712488,-0.3549704253673553,0.9340224862098694,0.0,0.0,0.0,0.0812560453430513,-0.0667518762009018,-0.1114003640844257,1.084445538,-0.1115452489826295,0.0549640114661248,-0.3790972272370664,3.837681616396655,7.451056370760671,0.494924341057235,0.0739970129469958,0.0303561191295947,-0.7252486498217228,0.0051261103802886,-0.0063344743342836,0.0133446486463277,-25.875031375402425,-5.940054079787281,-10.895354225326152,0.0001542394193516
1662,1724914924241816981,-0.3710706233978271,0.0859667509794235,0.1701803058385849,0.0398281477391719,0.0014441014500334,-0.3564954102039337,0.9334466457366944,0.0,0.0,0.0,-0.2980331462440842,-0.0530136897739728,-0.0929359091890488,1.092763301,-0.0565825227826144,0.0602518821419409,-0.3953547279995165,4.131892871690942,-1.4964883331074768,4.7774218999559235,0.0734267031698839,0.0310980992514607,-0.7284928028460077,0.0031484282275613,-0.0082112415993065,0.0116932171198644,-27.430400870961584,5.1204399231170115,4.8525120640247215,0.0001049106689412
1664,1724914924252899421,-0.3710667490959167,0.085891768336296,0.1703041046857834,0.0396053083240985,0.0016542834928259,-0.3577489256858825,0.9329760670661926,0.0,0.0,0.0,-0.3337371923481362,0.0549533203076629,-0.0002847015870319,1.103845741,-0.0473515142449207,0.0121826705463013,-0.2430045950806466,-7.20365367188134,-4.116364662910154,5.562276251306347,0.0728182400166228,0.0314295009815407,-0.73117011410691,-0.0010444121008497,-0.0062498481825254,0.0122226559949822,3.6847863822029314,4.428014206470867,2.615271345742854,0.0001289420540896
1666,1724914924261779311,-0.3710859417915344,0.0858399420976638,0.1704201251268386,0.0388692244887352,0.0018717765342444,-0.358794629573822,0.9326050281524658,0.0,0.0,0.0,-0.2518766530057014,0.0564629589849563,-0.0179368731995995,1.112725631,-0.1685001734033376,-0.0227973590363043,-0.2518470485019493,-6.14909334081581,0.3558974108544961,-2.186106086161434,0.0712514415371339,0.031388548379414,-0.7334164284809129,-0.0036906669111438,-0.0066301132080455,0.011878195113133,-3.950612757756709,10.660144935289232,18.636228661002583,0.0001199643512108
1668,1724914924272896731,-0.3711482584476471,0.0857551842927932,0.1705356538295745,0.038260594010353,0.0024116414133459,-0.3603013157844543,0.932047963142395,0.0,0.0,0.0,-0.4790969452247376,0.320985951504187,0.4763118812700581,1.123843051,-0.1325558625865409,0.0409422924371399,-0.2927187097811077,0.9665775268403368,-0.4794414391092747,-1.3374073521362462,0.0696757464924418,0.0320717135137662,-0.7366322621504919,-0.0058488312156086,-0.0046204513376668,0.0119690485504992,-11.555472355118122,24.34556363502225,33.62591953099552,0.0001228194284429
1670,1724914924286552223,-0.3712322115898132,0.0857424661517143,0.1707255542278289,0.0370827950537204,0.0024255095049738,-0.3620454668998718,0.9314194917678832,0.0,0.0,0.0,-0.4879022735898832,0.6626953677488927,0.7538182326405889,1.137498543,-0.1573740228492972,-0.0698112374677739,-0.2717503826110171,-12.329643387302111,-33.20836262466292,-50.46106483832451,0.0674071710200698,0.031374796548315,-0.7404016721012908,-0.0171709768648682,0.0021146631204089,0.0263254280188398,43.40263240100036,32.65722803164357,2.5602962441406447,0.0001921517076035
1672,1724914924291954407,-0.3713485300540924,0.0857603996992111,0.1708943098783493,0.0361622348427772,0.0019702482968568,-0.3637224435806274,0.9308030605316162,0.0,0.0,0.0,-0.1592980383587047,0.8554298189506214,0.7296904018002777,1.142900727,-0.2464469744408329,-0.3028462700292836,-0.6554739238451954,0.6262121772096023,-24.04568620628413,-31.385876956455036,0.0659640352761534,0.0299783491965479,-0.744045349135292,-0.0190774710272645,0.0060568641058842,0.0297618784881246,57.576719779732656,32.63502062958823,14.63945575025025,0.0001697132291089
1674,1724914924302698705,-0.3715010583400726,0.0858839675784111,0.1711825281381607,0.0364913269877433,0.0009860851569101,-0.3644808530807495,0.9304951429367064,0.0,0.0,0.0,0.3898456475567344,1.1410628735631425,1.2952545630422572,1.153645025,0.1260038471159386,-0.1532315972486971,-0.1455075970646935,2.31792090004481,1.1394690112849126,17.116342465798116,0.0672690906479045,0.0284397084774675,-0.7457156669600356,-0.0166516614045306,0.0179336938845482,0.0396013549791245,38.24073710462393,-2.720372092069148,-12.574609580659876,0.0002827472559402
1676,1724914924311978037,-0.3716752529144287,0.0861019343137741,0.1716523915529251,0.0355933867394924,0.0001556906790938,-0.365513801574707,0.9301251173019408,0.0,0.0,0.0,0.6415564844485329,0.8809661816267296,0.6559451318302374,1.162924357,-0.1117202941692325,-0.2451229981847702,-0.2298881136452755,-2.9752631777139307,10.209165264902248,-11.379091038364043,0.0661699565143306,0.0263124079144216,-0.747996558007,-0.0117192854872776,0.0288077396297623,0.0546615563693198,2.2876662367805025,-30.04851593351956,-92.67147707906004,0.0004586979570648
1678,1724914924322259702,-0.3717153966426849,0.0864587128162384,0.1722602695226669,0.0363131724298,0.0004320157750044,-0.3672800362110138,0.9294012188911438,0.0,0.0,0.0,0.3821129488034659,0.549018269476854,-0.567727848185871,1.173206022,0.1156487972946806,0.0889651526252102,-0.3729235178239296,3.0713245566892207,11.28438665142404,0.3255259949635007,0.0672577437202524,0.0274806972671535,-0.7517627553936251,-0.0038697282274497,0.0345516381008468,0.050389006048932,-16.322936475115256,-28.825614056774125,-27.135975333268817,0.0005831177382344
1680,1724914924333411888,-0.3717581331729889,0.0868422389030456,0.1727165728807449,0.0358102619647979,0.0004203382704872,-0.3683093190193176,0.9290132522583008,0.0,0.0,0.0,0.3078637132604813,0.2694009432345301,0.2410539440579375,1.184358208,-0.0804476753236662,-0.0417444574759005,-0.1970738855323575,-31.215652292090212,-17.502205603494538,10.83446046214806,0.066299787349093,0.0271628461366635,-0.7539874514381657,-0.0042211671748972,0.0405578280876115,0.0422167988000889,21.305004082548916,-39.73599772404195,82.29555969802982,0.0004305896396175
1682,1724914924341877815,-0.3717963695526123,0.0872252359986305,0.1730823367834091,0.0337558090686798,0.0002221626345999,-0.3688811361789703,0.9288634657859802,0.0,0.0,0.0,0.6679394142253774,-0.1612368447619871,1.0005723213718625,1.192824135,-0.4323259068229085,-0.2270739873936886,-0.1370577177303022,-12.12332305270997,5.4634522189808195,-0.0437239212293416,0.0626061150682867,0.0253191850174596,-0.7552697633932715,0.0005662619918282,0.0411087086984083,0.0505161594784091,18.727049204668933,-22.28634759456234,25.619059522916334,0.0003417866043108
1684,1724914924352171064,-0.371726930141449,0.0875966772437095,0.1736938208341598,0.0331791900098323,0.00143962376751,-0.3699346482753753,0.9284640550613404,0.0,0.0,0.0,0.5627786428839757,-0.0329470606226074,0.4621190991077486,1.203117384,-0.1886639175282962,0.1715061696779243,-0.2267755239928059,34.2411349168964,12.91305170870929,2.528335687724156,0.0606057770267356,0.0272249048525268,-0.7574916318562441,0.0087236344271808,0.0366168262046304,0.0610686933383242,-28.662222154762755,21.06007681687644,-69.6267462389697,0.0005853355761689
1686,1724914924362109798,-0.3716212511062622,0.0879656970500946,0.174316719174385,0.0344420485198497,0.0012305324198678,-0.3703600168228149,0.9282487630844116,0.0,0.0,0.0,0.1008991844132917,0.2588599965345619,-0.3960490752039449,1.213056118,0.2530753819164271,0.0521671822189778,-0.0937398758300849,-0.0011073144422812,-7.68960369543885,6.002389479104127,0.0630963193460613,0.027799976409653,-0.7583897984653364,0.0121124625017579,0.0401609964485629,0.0602581041424929,-34.0382049990635,28.259948232930036,-24.220416913549855,0.0005950319057626
1688,1724914924372191228,-0.3714840114116668,0.0884015783667564,0.1748995035886764,0.0335338003933429,0.0017134803347289,-0.3708640038967132,0.9280800223350524,0.0,0.0,0.0,-0.1150976326653178,0.5325053693868762,-0.0049202450685892,1.223137548,-0.2014620640853195,0.0188001715831421,-0.1087289301238319,-27.27425006172948,-4.922891945979972,-0.7406730595559958,0.0610350594385153,0.0280571336580534,-0.759472505503213,0.0106746459883559,0.0417711508148541,0.053049328516332,-7.116337237350809,13.96627079419924,44.15744064036708,0.0005508082063592
1690,1724914924383815043,-0.371399313211441,0.0888674855232238,0.1754523664712906,0.031894214451313,0.002013555727899,-0.3714513182640075,0.927902340888977,0.0,0.0,0.0,-0.0060465404545131,0.5182431005252046,0.5801997764125257,1.234761363,-0.2797686359798962,-0.0600422251551248,-0.1073386749930492,-16.932421635661562,-21.081841850047223,-14.406828822538367,0.0577473652537109,0.0274345034621109,-0.760759941249186,0.0097056358886931,0.0529570975979325,0.0625094840424935,6.007984883534015,-9.527983856787408,83.3858800211127,0.0005217695236054
1692,1724914924392441504,-0.3713001012802124,0.089406743645668,0.1760872900485992,0.0293914824724197,0.0015104976482689,-0.372790515422821,0.9274486899375916,0.0,0.0,0.0,0.0241825637241206,0.3829072185580568,1.5110975850903752,1.243387824,-0.4911084362756384,-0.3334463698189669,-0.3246170522389375,-6.128009024412371,-15.307043523605053,-14.666517638961178,0.0534337237506965,0.0247180669054752,-0.7637166363946157,0.010148464435959,0.0545846503376004,0.0660186601068568,5.870644169686419,18.50758487383589,79.31392489680528,0.0006019208958935
1694,1724914924406721538,-0.371187150478363,0.0899988189339637,0.1768507808446884,0.0279941279441118,0.0008641383610665,-0.3747119009494781,0.9267181754112244,0.0,0.0,0.0,0.1639548019740396,1.455550340296866,1.967680670346045,1.257667858,-0.1443476761492319,-0.164671108981474,-0.2853534689678699,-3.9016267998960785,4.845951087556976,-37.40091133063234,0.0512732595159474,0.0225830107235222,-0.7679101548284611,0.0098519703480732,0.0646441219006952,0.1137016654839691,-24.99406323578813,-57.2176744691628,-327.4588776399215,0.0007290008060217
1696,1724914924413793299,-0.3711106777191162,0.0905371531844139,0.1778658032417297,0.026899954304099,0.0007837500888854,-0.3769875168800354,0.9258273243904114,0.0,0.0,0.0,-0.1346065840960195,0.5874815743751833,-1.6067908445110133,1.264739619,-0.2706435108585465,-0.1548217544424196,-0.6904538319136685,-5.5666668315723715,22.638885216385212,-19.327711098927043,0.0492500326648902,0.0217348396778959,-0.7728429640913228,0.0116583152579679,0.0775678627017111,0.1228136810404336,-49.40345734987254,-161.51650383152491,-410.3753026105711,0.0009849799252933
1698,1724914924422868232,-0.3709950447082519,0.0912578850984573,0.1787390559911728,0.0266603976488113,0.0023920417297631,-0.3787297904491424,0.9251201152801514,0.0,0.0,0.0,-0.6666085942010834,-1.3297097444477808,-4.223641722812632,1.273814552,-0.1780078309127456,0.2980468668789255,-0.423827747804084,12.71183036264838,10.437838202868356,24.80481381814061,0.0475485876296395,0.0246225133701507,-0.7765547659093733,0.0058945783299524,0.0684583854563083,0.0745148789026322,-17.709344600058337,-60.404518845640126,-75.65370704599775,0.000833319801028
1700,1724914924434221779,-0.3710253834724426,0.0918794274330139,0.1792766600847244,0.026357801631093,0.001662972732447,-0.3798393905162811,0.9246754050254822,0.0,0.0,0.0,-0.2865193577980127,0.127313363539602,-2.061231606978557,1.285168099,0.0018836135832363,-0.1440249703039382,-0.2071995503268467,13.633317189230649,-33.33270924745901,16.746897701279934,0.0475120423917496,0.0231009371773812,-0.7789830031493536,-0.0021209644776474,0.0487322382084026,0.0421661136480942,839.8330371842227,1569.376838483833,965.524328639801,0.000506286138971
1702,1724914924506006664,-0.3709274530410766,0.0926489382982254,0.1799501776695251,0.0256811901926994,0.0022628318984061,-0.3819564580917358,0.9238206148147584,0.0,0.0,0.0,425.9838614068991,766.8363667049946,419.029138645564,1.356952984,-0.0230534625603648,0.0067783513614224,-0.0640585957819926,-7351.736419943282,-7629.777867690239,-669.8877748256328,0.0457499308008493,0.0238013415973854,-0.7835549114909871,0.1676998075465121,0.9042344474366076,0.2518480668757092,287785.6123963403,-45901.342370953294,146531.8561952712,0.0006332673213966
1704,1724914924506827276,-0.3707882761955261,0.0933993458747863,0.1801591217517852,0.0223674047738313,0.000831417448353,-0.3822499811649322,0.9237878322601318,0.0,0.0,0.0,664.7881602122353,728.6383865362441,540.594505087223,1.357773596,-6.124938950993892,-6.325902519652638,-0.6200793724902893,-19225.865216319737,-31901.88846332735,8729.13213050035,0.0407081641204273,0.0186370656333069,-0.7842878469047097,0.5212411793640968,1.5405913604606098,0.5996118593824349,1231197.487133409,475140.01910789055,860792.9452811584,0.0001750806858489
1706,1724914924507191404,-0.3705416619777679,0.0940614864230156,0.1804331988096237,0.0183191634714603,-0.0018140663160011,-0.3816462159156799,0.9241251945495604,0.0,0.0,0.0,1265.0114697220963,985.94118685047,969.1792092389284,1.358137724,-15.030581762080203,-21.849908277901637,4.078316126780595,3233.295296215918,-6369.564201389655,6769.88986832851,0.0352523565254409,0.0106302302655664,-0.7831059321123359,0.801111185112461,1.7983428538435646,0.8153306377175227,858413.2210628804,1286712.71529552,1310237.1912379211,0.0002481138824023
1708,1724914924507627503,-0.3701276183128357,0.0948352515697479,0.1808214783668518,0.0180140566080808,-0.0030454481020569,-0.3808969557285309,0.9244370460510254,0.0,0.0,0.0,1226.765828240089,1850.051171748145,1610.1528196635609,1.358573823,0.8422014659516898,-5.68725116685549,3.827289354011282,14798.197951961356,40812.40829242,-13437.276383562748,0.0356344339592779,0.0080924368752785,-0.7815257450284729,1.6120530354303355,2.373551531453444,1.43476531341895,-1544194.048798022,1263830.6470154868,-1392143.8963039424,0.0003560314316718
1710,1724914924507948482,-0.3694536387920379,0.0957386866211891,0.1814106255769729,0.0185956675559282,-0.0018339531961828,-0.3813951909542084,0.924223244190216,0.0,0.0,0.0,387.0180238428952,2086.1772506509938,487.1778759707204,1.358894802,0.4893907349204857,8.298725159681089,-3.5243351243993506,-27478.92795109949,-16377.666815941106,-27496.614242378935,0.0357817375161017,0.0107948416615781,-0.7825611658791172,1.8563283812926556,3.0928420840783133,1.9964194665838024,-1611056.8876188437,-1274440.0412668744,-4369650.335805208,0.0005471008751173
1712,1724914924508256855,-0.3689533174037933,0.0967748612165451,0.1820739507675171,0.0154943689703941,-0.0029346153605729,-0.383342832326889,0.9234715700149536,0.0,0.0,0.0,187.99971904309177,1097.6628482352107,-1118.3655112854358,1.359203175,-15.79969052808335,-14.51277608160756,-13.364238499699937,-6849.608663193179,-13596.95919762372,-7924.058423302993,0.0308726939549445,0.0064592877796905,-0.7868294008545316,1.8648680794658503,3.6903162966928846,1.7725802029440842,-146819.8146508211,-3080399.9439825485,-3105009.4699075646,0.0006270189032236
1714,1724914924508564370,-0.368305504322052,0.0980109423398971,0.1825029850006103,0.014946918003261,-0.0027154497802257,-0.384543776512146,0.9229817390441896,0.0,0.0,0.0,295.73911975796307,188.78137936111224,-1428.761333852926,1.35951069,-3.807981047444861,-0.1789412518708801,-8.445768683178526,36465.46657164871,43509.33273700991,15058.537648479038,0.0296848665596114,0.0064829128822235,-0.7894270152857016,1.9718404481987897,3.7703186244767624,1.3083041508016575,317924.79828245786,-2771935.566892332,-923978.400550546,0.0003866182012797
1716,1724914924512908415,-0.3680096864700317,0.0990933999419212,0.1828560680150985,0.0123293371871113,-0.0052734650671482,-0.3854987919330597,0.922610878944397,0.0,0.0,0.0,-313.2644392190651,-583.990925259663,-202.60875898878973,1.363854735,-0.6580781349558343,-1.557468856587796,-0.4506083078532489,518.346310063723,-191.2120605184316,1306.1340931579896,0.0268194057384201,-0.0002248233013288,-0.7915748168148993,0.0580949073817631,0.2103829393811938,0.0726421016433116,-90922.23757988952,-110295.11858190504,205720.14634403645,0.0003270402859765
1718,1724914924523518172,-0.3676525056362152,0.1003201156854629,0.1834029555320739,0.0091641759499907,-0.0057446570135653,-0.3876820802688598,0.9217296838760376,0.0,0.0,0.0,-1.1841698193639425,-2.553267636377159,-3.3545495871929756,1.374464492,-0.5163581425122468,-0.3179070168144025,-0.439505702758022,15.520476551424544,47.582568863122745,4.334748590688893,0.0213497386372321,-0.0034844752448561,-0.7963177632849413,0.0326373527972592,0.1170569864046919,0.0437496804340895,14151.185403490072,26494.166209879033,8989.91347571266,0.0005251791944457
1720,1724914924533283250,-0.3673430383205414,0.1014760881662368,0.1837601065635681,0.0067198388278484,-0.0072150658816099,-0.3893653154373169,0.9210307598114014,0.0,0.0,0.0,-0.1776584000933312,1.742034448012598,-3.559701330249167,1.38422957,-0.3453595474979959,-0.4756512428842048,-0.3676224994949674,2.862942975068197,-2.8423495905150595,25.49340690384945,0.0179985053310571,-0.0080577380863065,-0.7999985377024327,0.0319963284049649,0.1482337457465457,0.0053178364796515,46.46875759882752,95.0990957273118,115.7905661206026,0.0003435350608449
1722,1724914924541938523,-0.3670637607574463,0.1029881313443183,0.1835663467645645,0.0043234857730567,-0.0080721760168671,-0.3894204795360565,0.9210146069526672,0.0,0.0,0.0,-0.2097000893312945,-0.0797513027880443,-1.50803330643898,1.392884843,-0.4329558142537227,-0.3981315898386319,-0.0078675063351884,8.601934134545244,11.889770520381113,24.93072584014886,0.0142523536617271,-0.0115021298551848,-0.8001220844004064,0.0295993214372742,0.1521827680411007,-0.0226082903462963,-17.11887148175888,-122.49351622869236,216.3344846019063,-0.0002013561131406
1724,1724914924553936970,-0.3667529821395874,0.1044396236538887,0.1832913905382156,0.0037386121693998,-0.0091717038303613,-0.3893458247184753,0.9210384488105774,0.0,0.0,0.0,-0.63826237796507,-0.0859624957086868,0.7432082286588529,1.40488329,-0.0183355290731146,-0.2066813665914648,0.0145881680766124,14.53648911047736,27.18628637674905,-9.369294747203869,0.0140305724509822,-0.0139842134444751,-0.799982140104607,0.0282016742588488,0.1423104891859923,-0.0121193902820326,-34.41111139372825,-2.914992535076806,14.394056416182746,-0.000280687325961
1726,1724914924563230548,-0.3664743304252624,0.105915792286396,0.1832564771175384,0.0038575264625251,-0.0085767963901162,-0.3900011479854584,0.9207663536071776,0.0,0.0,0.0,-0.9486560579195094,-0.1303103126598177,-0.3700388793730095,1.414176868,-0.0273507715437694,0.1268157072156319,-0.1534030986848657,-15.307507652863473,-6.834357053542064,-17.498098176713597,0.0137952471520826,-0.012785919948295,-0.8013913396702874,0.0185139334018131,0.1468156747579767,-0.0061551830331616,-9.98526916659826,87.92026018158342,-83.4586941010331,-4.075772338486287e-05
1728,1724914924573422481,-0.3664138317108154,0.1072777584195137,0.1831669360399246,0.0014240642776712,-0.0098596485331654,-0.3915487229824066,0.9201035499572754,0.0,0.0,0.0,-0.788730062298457,1.8017988516110115,-0.8146014932372365,1.424368801,-0.3436154352922833,-0.4203156906742024,-0.3252825985909831,-12.126914159013678,-17.861905051652386,9.104656083735376,0.010343322934277,-0.0170294372171052,-0.8047585564302372,0.0098932208196309,0.1386128050800534,-0.0212355513642616,-19.2475690608126,140.7358699400749,61.83829938106963,-8.374175079747357e-05
1730,1724914924584464462,-0.3662572503089905,0.1088679060339927,0.1827835142612457,-0.0002661841572262,-0.01027712225914,-0.3911267817020416,0.9202793836593628,0.0,0.0,0.0,-1.4192340196592703,2.771573879813234,1.1297945529191806,1.435410782,-0.2513738226397396,-0.1890238977014546,0.0859151806852109,-28.609528960417272,-52.55978183564349,-6.620280990895511,0.0075508405454225,-0.0191250368457246,-0.803828304176185,0.0018672428477195,0.1896912558473769,-0.0222745863435864,-10.16655562154206,-260.06251514959587,161.84513614321548,-0.0003727072100224
1732,1724914924591980804,-0.3663062155246734,0.1105274185538292,0.1826797872781753,-0.0039374884217977,-0.0126344440504908,-0.3917984068393707,0.9199559688568116,0.0,0.0,0.0,-1.2555150100690868,-0.9630891269485576,2.27338895349632,1.442927124,-0.6555322793146003,-0.960170536246764,-0.1882500815542465,-35.924578690412375,-41.45422643022808,-7.338167379267904,0.0026566024186319,-0.0263347116390729,-0.8052805296480986,-0.0123426790432237,0.2010361451252755,-0.0075207143798881,69.30559789149609,-373.2825420359318,84.97139572371651,-7.425122413612014e-05
1734,1724914924602222798,-0.3665139675140381,0.1123107820749282,0.1826903969049453,-0.0086613250896334,-0.0135813225060701,-0.3911583125591278,0.9201824069023132,0.0,0.0,0.0,0.1175578169576977,-3.0614202868417424,2.2061491806952316,1.453169118,-0.7744112007018229,-0.5314468281508543,0.1432399484599635,10.859794232660406,39.82036205077157,2.1399319071083323,-0.0053178130812287,-0.0317758337706767,-0.8038054942553092,-0.0163392593308913,0.1566665263419997,0.0200964386840087,65.75257210710849,-60.35466350621043,-96.47989420949176,6.176394988194586e-05
1736,1724914924613050286,-0.3666457235813141,0.113807275891304,0.1831261664628982,-0.0109008708968758,-0.013359255157411,-0.3920752704143524,0.9197715520858764,0.0,0.0,0.0,0.047580513136054,-2.0606615854974555,0.1323089403538784,1.463996606,-0.3996617106642519,-0.1236320692599909,-0.1795685890538953,51.53166727951435,17.40205906622084,-0.8950821156092332,-0.0095823592510733,-0.0331289091440118,-0.8057408111785705,-0.0092542054501834,0.138064118825663,0.0383711440583791,-85.181881790966,111.6782901385954,-180.7563085414747,0.0004833075010323
1738,1724914924622165388,-0.3667077124118805,0.1150646060705185,0.183461531996727,-0.0102803148329257,-0.0142198568210005,-0.3919135928153991,0.9198346734046936,0.0,0.0,0.0,-1.3329134828386802,-0.8949817569959579,-1.4325945014383163,1.473111708,0.1998964824993739,-0.1204970419631188,0.0341813596479293,22.277024769965585,-8.85039409914836,14.100548022010509,-0.0077710986567208,-0.0342245058510026,-0.8054195121132092,-0.0134766315223515,0.1166521083782146,0.0276409914468178,-54.914096152626215,144.40410241875668,-60.59790566334623,0.0003740743308383
1740,1724914924634908333,-0.3669983744621277,0.1161718741059303,0.1836507320404052,-0.0129824373871088,-0.015816768631339,-0.3916347622871399,0.9198931455612184,0.0,0.0,0.0,-0.3129012632237269,1.2394440952315635,-0.2258536236020455,1.485854653,-0.29115538515785,-0.3970712283350451,0.0473047730336228,-113.64026569872496,-28.16110366828929,23.794716246279123,-0.0115052450408481,-0.0392783205556465,-0.8047674731918832,-0.0459549367269644,0.1311515210046199,0.0048354622804716,224.44604594954797,-78.33280691718903,89.27991582709802,0.0002347087581815
1742,1724914924642076168,-0.3674210906028747,0.1172903925180435,0.183645024895668,-0.0185206197202205,-0.0158855039626359,-0.3906584680080414,0.9202122092247008,0.0,0.0,0.0,1.8780957545483543,-0.3131921888194,0.3922420904264015,1.493022488,-1.408523711051459,-0.624959141736597,0.3096462554905175,-67.33864933262568,3.3721849727755395,0.3478923561609441,-0.0216966211077931,-0.0437204703780222,-0.8024719545701251,-0.039183204045214,0.140445312263167,0.0095216368973742,171.37690381638356,-171.25594752904195,-14.868265341709735,5.254952021447672e-05
1744,1724914924652604402,-0.367527574300766,0.1185277700424194,0.1839048266410827,-0.022217908874154,-0.0145920515060424,-0.3919111490249634,0.9196190237998962,0.0,0.0,0.0,1.6056670823030204,-1.4148329380420712,-1.3277111420000316,1.503550722,-0.7481737975338261,-0.0456580267346929,-0.2472924581186039,51.24777096517101,26.72042309192616,-15.647137992283806,-0.0294595648677166,-0.0442676052514001,-0.8050649794136422,-0.0049767018852264,0.1122541063419033,0.0096068469133125,-113.25982903100024,-0.4593506368969144,-96.90448333236458,0.0003251548698943
1746,1724914924663450848,-0.3675241470336914,0.1196863800287246,0.1838406324386596,-0.0239696539938449,-0.0142704555764794,-0.3919309079647064,0.9195716977119446,0.0,0.0,0.0,-0.5992504521169355,-0.2557076684752708,-1.636123448457912,1.514397168,-0.3205317165399775,-0.0721036716071781,-0.0007397029988457,43.75372232440583,-18.801572014361188,15.976854184701054,-0.0329369309314011,-0.0450495468052387,-0.8050486397547961,-0.0059242623588531,0.1110195608090283,-0.0197207495698865,-93.51169965488496,43.24132362521583,107.54139267968073,-8.382550985121057e-08
1748,1724914924671866250,-0.36761474609375,0.1206480786204338,0.1835845559835434,-0.0242372676730155,-0.0156912039965391,-0.3915451765060425,0.919705867767334,0.0,0.0,0.0,-0.6694547113233182,-0.3072403878551384,0.1566985304418117,1.52281257,0.0759240797829749,-0.3371668497121242,0.0896112259435919,15.313060954914718,-14.036996778227302,3.472729727844855,-0.0323373430784675,-0.0478608253165511,-0.8042014489951977,-0.0143094396780725,0.1079412619414306,-0.0265176880023982,18.44887092238238,94.80233236022038,119.45056388533574,-0.0002000623925127
1750,1724914924682102042,-0.3678053319454193,0.121674045920372,0.1833618283271789,-0.0255362223833799,-0.0165999326854944,-0.3913616240024566,0.9197328090667723,0.0,0.0,0.0,-0.1470661698732564,1.9196608651806284,0.2141776950412344,1.533048362,-0.1632144910543828,-0.2634654218295429,0.034725229528192,-23.686876471747652,4.013538413471542,-9.34294119983774,-0.0340298683180035,-0.0505443187808854,-0.8037560849282387,-0.0170912776358935,0.1055253965618048,-0.0129072979704902,49.48865580652963,82.21555745289781,-36.30772523539597,-0.0001587809622942
1752,1724914924694924901,-0.3679999411106109,0.1231121942400932,0.1833385229110717,-0.0289647784084081,-0.0169915053993463,-0.3922450244426727,0.9192476272583008,0.0,0.0,0.0,0.4626720373629842,0.7997496631450467,-0.9248375582801104,1.545871221,-0.4721510279623687,-0.2631929121686913,-0.1490243942613562,-14.648688222194536,-57.40745070622305,51.8719880982616,-0.0399908494538509,-0.0539876045832668,-0.8055432671520637,-0.0169737799539504,0.164769384480973,-0.0280802307275358,19.54418534456118,-350.012030655531,126.02828535693618,7.415822841123332e-05
1754,1724914924701789037,-0.3681230545043945,0.1244365200400352,0.183049276471138,-0.0318570397794246,-0.0189616531133651,-0.3907666206359863,0.919743001461029,0.0,0.0,0.0,0.4939180821092969,-2.5679543381037773,0.7297025875789468,1.552735357,-0.5380007197415111,-0.8682617095138028,0.4502842718783901,3.039498077174338,-41.01065818949954,44.2058891398895,-0.0438739230007786,-0.0598126885623886,-0.8022000126143605,-0.0121315613167194,0.1562211504233532,-0.0334788482009509,-15.11695557147197,-315.7546194512046,204.98183119453176,-0.00018999073098
1756,1724914924712490035,-0.3681560456752777,0.1254957765340805,0.1828354895114898,-0.0344166830182075,-0.020873038098216,-0.3897004127502441,0.9200616478919984,0.0,0.0,0.0,0.0040218368533341,-3.0295892603313233,2.3216488034138485,1.563436355,-0.2947277081520634,-0.5207234437959145,0.2042421893197505,-23.049501861724156,15.219104822583766,-24.228326743868887,-0.0471804343281739,-0.0652797092011465,-0.7997582216737275,-0.0103748294772181,0.1066770073946372,-0.0003762241294822,118.81125284436358,747.3377453800842,176.73805281758297,-0.0001283958343892
1758,1724914924721809312,-0.3683119118213653,0.1265523433685302,0.1829910725355148,-0.0391330197453498,-0.0215027499943971,-0.3898338377475738,0.9198020696640016,0.0,0.0,0.0,2.4470770942468647,10.35054316023411,4.195738698397831,1.572755632,-0.8811070562612409,-0.518958342913669,-0.0315786909303106,-35.673023747653396,5.24282885721897,-18.107827165872017,-0.0553886437297371,-0.0701247571739758,-0.7998043045341254,-0.0116370670494392,0.091431182474712,0.0149962396030858,-108.961742268423,-347.0979593463287,-249.95932013915237,0.0002501473786665
1760,1724914924745921766,-0.3682750761508941,0.12738798558712,0.1832467019557953,-0.0399493686854839,-0.0221744570881128,-0.390020877122879,0.9196717143058776,0.0,0.0,0.0,-23.333198235274608,-109.24691038349192,-29.97194111772251,1.596868086,-0.0413187600272932,-0.0772680871379185,-0.0192090206858585,870.0629403681178,1078.7788079916254,1745.7552268803,-0.0563594253220476,-0.0720108375191067,-0.8001636016049375,0.2084861049788742,1.0888204119511613,0.2750182500785172,-2760.355546701052,-13608.239111872244,-3390.713722321445,0.0003300651744539
1762,1724914924746540542,-0.3681427836418152,0.1280784606933593,0.1834210753440857,-0.0397383756935596,-0.0220498386770486,-0.3897150754928589,0.9198135137557985,0.0,0.0,0.0,-25.068094504740923,-117.8046884930662,-32.10137394354657,1.597486862,0.5103180738336986,0.6070934983569591,1.088735267544482,786.9019824043321,981.0132456332695,1598.8997578849378,-0.0560905183351636,-0.0715979232984702,-0.799510459240081,0.1935326114785001,1.0188294809789031,0.2558251695427942,-2459.0460255730063,-12215.07526239759,-3007.3609825014382,0.0002347274649805
1764,1724914924752218802,-0.3680997788906097,0.1288070082664489,0.1835200488567352,-0.0413516238331794,-0.0223817396908998,-0.3892315030097961,0.91993910074234,0.0,0.0,0.0,-21.069407444482273,-103.00705240603608,-26.563355862222107,1.603165122,-0.47158365171757,-0.3347650056545704,0.181788893353132,-102.5863816094642,-109.5947603228229,-108.85581318546666,-0.0588510865320203,-0.0734363724108622,-0.7983676851175124,0.0041967621588465,0.1053762903587021,0.0170841713711125,1240.0419262796534,5507.61423495027,1615.7921387525744,0.0001662723684767
1766,1724914924761809962,-0.3681142330169678,0.1294462382793426,0.1836782991886139,-0.0436266921460628,-0.0238913763314485,-0.3893384635448456,0.9197508096694946,0.0,0.0,0.0,-0.4952490215370381,-3.1754537308405064,-0.6898076675672344,1.612756282,-0.3160214747225651,-0.4742061069559474,-0.0382001625334219,17.650174538259265,5.563489787262775,-12.575446766287422,-0.0618751827837624,-0.0779983870690719,-0.7984593355756934,0.0009704416139637,0.0548005465460619,0.0131162119060217,1190.8392437921314,5867.597326488674,1476.5716638136394,0.0002208025974295
1768,1724914924773693709,-0.3680662214756012,0.1299230307340622,0.1837843507528305,-0.0443466715514659,-0.0243159979581832,-0.3895130753517151,0.91963130235672,0.0,0.0,0.0,-0.3947181067931539,-0.3112644467033707,-1.1221003443185902,1.624640029,-0.085203014580757,-0.1121025580764195,-0.035081810871083,-10.813378086538105,-2.1304117758491223,8.69432865281015,-0.062861455196151,-0.0793539790733199,-0.7987934186391752,-0.0072541421462837,0.0479516200383702,0.0008533588628143,62.68515861518429,222.4713306415291,-156.90882377578802,0.0001529418904388
1770,1724914924782740402,-0.3682096302509308,0.130410760641098,0.1837364882230758,-0.0466123633086681,-0.0250866282731294,-0.389060765504837,0.9196900725364684,0.0,0.0,0.0,0.5458239369383819,1.5736400147835825,-3.3717031412340814,1.633686722,-0.3912647086198958,-0.3558961722177707,0.1016432664805934,-17.907858701749554,-11.756793419429007,10.71614247973909,-0.0664924238377254,-0.0825075090905421,-0.7976640846870804,-0.0087770756801646,0.046961177389504,-0.0099191344282365,71.69092633265957,114.8775656381426,-182.54665332302704,5.159302403601715e-06
1772,1724914924798403652,-0.3681552410125732,0.1309578120708465,0.1834556013345718,-0.04876010119915,-0.0252230539917945,-0.3879778385162353,0.9200324416160583,0.0,0.0,0.0,0.7934879483238002,0.8380378578028775,-4.4378919624386555,1.649349972,-0.2399310108712734,-0.128065226216418,0.1502472288717627,-85.83442899013409,-86.28016684577126,115.48774612099766,-0.0704583438586847,-0.0843477134822102,-0.7951703794765895,0.0191397630847092,0.1172540828669106,-0.1218758335090726,-108.70744641662422,-496.93320608963666,513.1168180782208,-0.0002198710183942
1774,1724914924802845645,-0.3680504858493805,0.1315823644399643,0.1827832907438278,-0.0508702248334884,-0.0258012041449546,-0.3863041400909424,0.9206061959266664,0.0,0.0,0.0,0.1537509199126449,-1.9361714987226464,-1.4264989595165476,1.653791965,-0.741505287673984,-0.6383332762230354,0.8048161752628569,-54.33876421418184,-74.64800949675387,79.49718965804513,-0.0740757682446759,-0.086917651533173,-0.7913860441661361,0.0214187867908375,0.1163790150384667,-0.1381752812820735,-123.19301594367398,-473.01435581484213,599.0916967620502,-0.0005978478232572
1776,1724914924811878446,-0.3678967654705047,0.1321886628866195,0.1817772388458252,-0.0525533631443977,-0.0278502833098173,-0.3850396275520324,0.9209815263748168,0.0,0.0,0.0,-0.5764675551541502,-3.425530898187109,2.5367228397935317,1.662824766,-0.156368041855356,-0.573740157147564,0.2763925966078421,37.25699492394519,19.426630796530425,-40.89238639263531,-0.0757461609858198,-0.0918987462969363,-0.7884969322889821,0.0162076597859659,0.0669444628761519,-0.1098624737377687,-49.09170653494763,70.38396285903235,162.45228800882725,-0.0009289049733169
1778,1724914924821881834,-0.3677436113357544,0.1328563690185547,0.1806950271129608,-0.0534387826919555,-0.02878456749022,-0.384700208902359,0.9210436940193176,0.0,0.0,0.0,-0.7158265140606852,-0.1150978377157243,1.1007980236713868,1.672828154,-0.0885697104202176,-0.2434147887488257,0.0623978040590782,5.690742995366842,22.225693855358756,-12.612418897531928,-0.0767075756901809,-0.094279115880927,-0.7876856197517994,0.0104459495844189,0.0553575420720671,-0.0911083632217035,2.8164582364140145,198.6246174543545,-71.15828044164927,-0.000995545329101
1780,1724914924835395300,-0.3676912486553192,0.1333965063095092,0.1797755658626556,-0.0540092773735523,-0.0295559521764516,-0.3843304514884949,0.9211403727531432,0.0,0.0,0.0,-0.3720351315627041,0.1537274246458126,1.460615433524049,1.68634162,-0.0315076795156321,-0.1401453860400008,0.0522374714971489,-72.77173912696469,-2.482691267182762,16.648567327099766,-0.0772144649624268,-0.0961130909281473,-0.7868323609809821,-0.0017803477864788,0.0728460201575487,-0.0903618804752888,45.42128892221866,-156.20599651859422,170.53447791569147,-0.0008471531421958
1782,1724914924841901167,-0.3677205443382263,0.1339734047651291,0.1791177690029144,-0.0565004721283912,-0.0291486382484436,-0.383723497390747,0.9212570190429688,0.0,0.0,0.0,-0.0139477620303137,-1.41409826254186,3.020832277808858,1.692847487,-0.7461093572351638,-0.1880094571422384,0.2150517399229954,-42.22760840619894,-2.071486752490003,13.447463266299328,-0.0822132536451656,-0.097220974449803,-0.7853333964023366,-0.0025322144884256,0.0702741610435548,-0.0764574531036403,28.800253201534424,-160.52156424452463,139.7046434671107,-0.0005792141681772
1784,1724914924852397611,-0.3677137494087219,0.1343994438648224,0.178732693195343,-0.0569815449416637,-0.0295931790024042,-0.3829201757907867,0.9215473532676696,0.0,0.0,0.0,-0.1560230775454961,-1.736350118093201,2.791856615106845,1.703343931,-0.0443562070298321,-0.1202427097457257,0.160126530766585,41.62025902189507,4.817186312032547,-3.819160501132248,-0.082853342702979,-0.0983402261326366,-0.7835456810817969,-0.0009577101015025,0.0381782814086379,-0.0297855803802313,-13.518029877464194,58.04270613641055,-111.27434799576524,-0.000327575590374
1786,1724914924863415953,-0.3677428662776947,0.134792223572731,0.1784843206405639,-0.0565639548003673,-0.0302463043481111,-0.3821906149387359,0.9218546152114868,0.0,0.0,0.0,-0.3047665222889706,-0.0703886266080575,0.5310893235429612,1.714362273,0.1223454938687213,-0.0861220118506586,0.1343954941234346,-4.724330539872454,-5.531843999108635,0.6639468665439168,-0.0816592272508285,-0.0991642587460209,-0.7819842129977789,-0.0062163882754582,0.0343305599384873,-0.0181612451744666,16.184425037228284,87.97355747024103,-177.10262213625884,-0.0001959210223709
1788,1724914924873131869,-0.3678338825702667,0.1351144909858703,0.1783453971147537,-0.0574047230184078,-0.0309840720146894,-0.3813994526863098,0.9221058487892152,0.0,0.0,0.0,0.1067963851826171,0.2426752771369131,-0.9490549568718872,1.724078189,-0.0936520416483044,-0.2137936617184442,0.1665421487400543,-12.106426514093478,-2.3080727790902733,2.848512687400736,-0.0827483117503421,-0.1011015954680573,-0.780192124873257,-0.0076995960881873,0.0360354612155475,-0.0174897889604093,33.684265109567896,0.6064431525995744,-119.31506694165104,-9.479188766461044e-05
1790,1724914924882777477,-0.367892175912857,0.1354895234107971,0.1781461387872696,-0.0581810437142849,-0.031311310827732,-0.3805362582206726,0.9224027395248412,0.0,0.0,0.0,0.3486276706879893,-0.054217428783531,-1.783659552350495,1.733723797,-0.1134719428948189,-0.1323275147096611,0.1896115107323288,-15.78160862557546,3.5111365059284516,15.577249128709653,-0.0840395925981929,-0.1022211993104729,-0.778253258034274,-0.0041849988697855,0.0390197079098522,-0.0363937433874141,-1.4834026706526648,12.558877673585489,-85.50535147579001,-0.0001475423089523
1792,1724914924892039526,-0.3679144084453583,0.1358521580696106,0.1776691079139709,-0.0601300671696662,-0.0311307478696107,-0.3786242008209228,0.92307049036026,0.0,0.0,0.0,0.0987145483706621,0.4475491424886704,-2.56652888441279,1.742985846,-0.3817245758446772,-0.1436959935891303,0.4511576668561289,-11.62579701081763,0.4573762090601736,11.320987179821303,-0.0880160373764766,-0.103188170331089,-0.7739531011063374,-0.0010960254452605,0.0352837200093594,-0.0513470842863332,-28.30230853906705,56.93226202180116,-60.747383750201465,-0.0004235871168501
1794,1724914924905454047,-0.3679037690162658,0.136250302195549,0.17698335647583,-0.0616968944668769,-0.0311589650809764,-0.3769242465496063,0.9236615896224976,0.0,0.0,0.0,-0.3065897407246734,1.2648484731504448,-2.9194695170284266,1.756400367,-0.200848712569148,-0.1048270319579421,0.2743388170646726,-14.302327797469488,-17.2928166772176,21.090663982822868,-0.091104968060467,-0.1042595713269666,-0.7701413571325564,-0.0043335561418658,0.0578195179710245,-0.1042730007544499,22.434855543740593,-78.11738042860934,290.59494710203427,-0.0006245866262117
1796,1724914924912163814,-0.3679500520229339,0.1367326974868774,0.1761053204536438,-0.0633259117603302,-0.0314501039683818,-0.375259131193161,0.9242193102836608,0.0,0.0,0.0,0.0206391837633066,0.274048830586834,0.0939325041817404,1.763110134,-0.3900673430227828,-0.2886193727170002,0.5308731777973125,-14.247458389879808,-14.720222085237769,20.138570577039665,-0.0941151197077812,-0.1058584377393639,-0.7663948525179768,-0.0066096713873164,0.0649132004668731,-0.1204187311217213,43.436723915857264,-116.53213990347334,408.8018202681763,-0.0008009133056968
1798,1724914924922175624,-0.3680119216442108,0.1372783035039901,0.1750556826591491,-0.0653620436787605,-0.0318356566131114,-0.3730918765068054,0.9249415397644044,0.0,0.0,0.0,0.3758605666611915,-0.4275548246489777,3.584667710444353,1.773121944,-0.3242678519124161,-0.2466969470788508,0.4621867427902476,22.27479161463662,17.38543819577333,-16.323836159232926,-0.0978811548617542,-0.1078734305684685,-0.7615243556809831,-0.0010270835739376,0.0559572713836011,-0.0821276072893297,-14.44102116256635,-21.27676791991316,92.10848571414016,-0.0009589841130253
1800,1724914924932739335,-0.3679653406143188,0.1378857046365738,0.1744412630796432,-0.0648068934679031,-0.0315309166908264,-0.3722059428691864,0.925347864627838,0.0,0.0,0.0,-0.3331143154985231,-0.1083805999921638,1.6981233199999348,1.783685655,0.0860583944259533,0.0840647443999571,0.1842682332577453,18.885557149307967,7.397570067903649,-17.107234526121104,-0.0971714838242983,-0.1068000703477215,-0.7596627778983832,0.0009177217982383,0.056645699692603,-0.0469344576351353,-39.77216094220658,-1.7115331191950425,-187.64624428297353,-0.000521400518893
1802,1724914924942764436,-0.3679893612861633,0.1384454667568206,0.174077570438385,-0.0645553544163703,-0.0319792404770851,-0.3717045485973358,0.9255515933036804,0.0,0.0,0.0,-0.4717034888065832,-0.4292789501446474,-0.2692358131021182,1.793710756,0.0855138208359472,-0.0692863207438771,0.1003096954218069,-14.63645776297398,-16.54744783149164,12.06681675200361,-0.0964290244809312,-0.107394231619813,-0.7585885990169986,-0.0073425591284426,0.0539080288467914,-0.0454506007256654,10.767963676062651,-14.209669899649397,-98.97512073749766,-0.0002794498964078
1804,1724914924952621215,-0.3681096732616424,0.138958141207695,0.1735406816005706,-0.0659814700484275,-0.0325951687991619,-0.3697532713413238,0.9262108206748962,0.0,0.0,0.0,-0.1272362631333348,-0.3968374490398685,-0.3021580170152784,1.803567535,-0.200074124693814,-0.244512109141079,0.4173554483343754,-2.42195386563869,-1.4996636868245532,15.314071259845768,-0.0988722027168491,-0.109391768221927,-0.7542337972437775,-0.0085782198349892,0.0481629685776603,-0.0521480862678265,34.426641699285256,22.73841510175159,12.876905226781242,-0.0004546597197805
1806,1724914924963855762,-0.3681595921516418,0.1394499391317367,0.1729845404624939,-0.0655732527375221,-0.0329660847783088,-0.367768257856369,0.9270167350769044,0.0,0.0,0.0,0.2528652475004735,0.1076368128726468,0.0501647218273211,1.814802082,0.1127094761930581,-0.0529281508464547,0.3736244926991774,-2.570410858617888,8.297525959226087,0.2547917534875346,-0.0980715610996858,-0.109570861991421,-0.7499727707675031,-0.0100316676256895,0.0460865988670518,-0.0507111235864119,58.744826603939096,9.423762783782172,29.72395497105868,-0.0004777909792964
1808,1724914924974145803,-0.3683154881000519,0.1399459540843963,0.1724513322114944,-0.066693902015686,-0.0326855294406414,-0.3658033311367035,0.9277238249778748,0.0,0.0,0.0,1.092141834724019,-0.1297898870038567,0.3405996472854342,1.825092123,-0.2003680757283473,-0.050067126135566,0.4153346946881663,-13.777177549949092,1.9225528824851144,4.870772677583975,-0.1006070137047397,-0.1096596402498073,-0.7456428497680975,-0.003827100269639,0.0499505749366271,-0.0509276307523336,21.839754205569875,-60.23918050389527,55.40354395170704,-0.000452236113832
1810,1724914924983025410,-0.3682627081871032,0.1404028832912445,0.1720059365034103,-0.0675980746746063,-0.0323148854076862,-0.363910049200058,0.9284157752990724,0.0,0.0,0.0,0.8284484731309708,-0.9494725130956276,1.040817991054492,1.83397173,-0.1951378141157744,-0.0203945215082345,0.4648479490996954,26.079777253322145,4.096889109709066,-6.836912429210592,-0.1027934184502259,-0.1094207527742336,-0.7414933425136566,0.0096189822056054,0.0449262600016409,-0.0451321730972527,-53.60809996687769,-12.081213042385912,35.890685179125725,-0.0003728656031249
1812,1724914924992154723,-0.3681403994560241,0.1407517194747924,0.1716410964727401,-0.0664041340351104,-0.0325932763516902,-0.3626635372638702,0.9289798140525818,0.0,0.0,0.0,0.1146082089477769,-0.3067285481738961,0.9651925674665408,1.843101043,0.2822099342555792,0.0240958971364262,0.2859229318625095,24.208941873997695,-0.9292376462096756,-11.841565392605022,-0.1004992385956056,-0.1089370444679484,-0.738903462900735,0.0107450409127025,0.0326573088851578,-0.0319870517156752,-52.69265292344827,56.64961942716763,-21.367250656956777,-0.0003110781835272
1814,1724914925005900412,-0.3680475950241089,0.141085684299469,0.1713664978742599,-0.0665224865078926,-0.033242579549551,-0.3607941269874573,0.9296759366989136,0.0,0.0,0.0,-0.0819414601163068,0.1872846182633782,0.4007046283255469,1.856846732,0.033856020400402,-0.1087700068305878,0.2837025907585043,4.258636674049985,-5.991081658152183,16.726000726869913,-0.1004768506895829,-0.110033398532853,-0.7348491089623496,0.0121395813869398,0.049906987598657,-0.0285441525755167,-28.9692518042386,-132.55361344905526,23.849203221108212,-0.0002235241486594
1816,1724914925011736084,-0.3679634034633636,0.1414403766393661,0.1711786985397339,-0.0663958936929702,-0.0336456447839736,-0.3596087396144867,0.9301295876502992,0.0,0.0,0.0,-0.2873421808722403,-1.0036979866957632,0.7007101007866394,1.862682404,0.1140218937941188,-0.1346273378303892,0.4231490535933266,5.431136423231331,-0.3768836285930763,8.296047201487237,-0.1000922627955936,-0.1105678556680544,-0.7322979164020013,0.0112070366482672,0.0483548540280853,-0.0258335671164529,-19.03643361022216,-139.1189517376412,37.88937023667126,-0.0001345751093721
1818,1724914925022380615,-0.3679066300392151,0.1417138427495956,0.1710269600152969,-0.0664956122636795,-0.033888790756464,-0.3585529327392578,0.9305212497711182,0.0,0.0,0.0,-0.1761922175660546,-1.2231345875763695,0.8415280406378128,1.873326935,0.0105620967756282,-0.0599256931312151,0.2085753776440783,-4.617148767258686,4.819804348885664,-9.47681627735598,-0.1002326597387368,-0.1109805518922611,-0.7300111752205836,0.0056720555687128,0.0233472192983077,-0.0137882757064673,9.026526649646945,42.90851580428416,-8.886637856573074,-0.0001104340479538
1820,1724914925033134036,-0.3678419589996338,0.1419394463300705,0.170883759856224,-0.066516026854515,-0.0340006202459335,-0.3574240505695343,0.9309499263763428,0.0,0.0,0.0,-0.0945028306729277,-0.0716387228195718,0.5057132424871864,1.884080356,0.0163412454146811,-0.0319745329397655,0.2227026649177488,-1.724031462442618,3.1893354177359168,5.1205941253445495,-0.1003264327647883,-0.1110829140902145,-0.7275790070181107,0.0075121378637099,0.0224287985902567,-0.0078900842499649,-0.780820554970397,50.85368850848481,-33.69020928869416,-0.0001091974387281
1822,1724914925041918518,-0.3677652180194855,0.1421468704938888,0.170853391289711,-0.0666210576891899,-0.033889677375555,-0.3562198281288147,0.9314079284667968,0.0,0.0,0.0,-0.1614787184854273,-0.028411471084718,0.1920979093003154,1.892864838,-0.015031804646814,0.0002763904781876,0.2950025618670103,-10.36144802991409,0.3033622056695575,4.601915335524502,-0.1007457084310256,-0.1108204064960154,-0.7249849600395013,0.0047758845809262,0.0218982936015921,-0.0037546554193141,7.9072911507106864,-0.6864707990667496,-31.32322463168431,-4.814836674622222e-07
1824,1724914925054273119,-0.367775022983551,0.1423876285552978,0.1708018332719802,-0.068303070962429,-0.0335098952054977,-0.3545893132686615,0.9319218993186952,0.0,0.0,0.0,0.2060850594686066,-0.13432370341602,-0.1188202293116266,1.905219439,-0.2610246228889102,-0.054496729280371,0.2888098860964091,5.736282783952588,5.052496456054881,6.174053839163939,-0.104373767031726,-0.1111248557932699,-0.7213442906020591,0.0053873748741146,0.0221029492527424,-0.0062233910838251,3.719765331872334,-18.683328699552728,-4.916270898319047,-1.4452209325566256e-05
1826,1724914925062518883,-0.3676965832710266,0.142584279179573,0.1707392334938049,-0.0685762837529182,-0.0331464670598506,-0.3531635105609894,0.9324559569358826,0.0,0.0,0.0,0.0934955002512521,-0.3440251373729776,-0.0479147648614206,1.913465203,-0.0725765240372592,0.0393699900377044,0.3764566828524066,15.579168598151313,8.259771856885328,2.9087108568334026,-0.1053118736097604,-0.1104771188811856,-0.7182721255749381,0.0079484856407106,0.0201649422332552,-0.006757360961207,-13.37156428621737,-10.364082235428,12.709203989016071,-3.316937840080194e-05
1828,1724914925075455467,-0.3676255047321319,0.142770379781723,0.170668751001358,-0.0685548558831214,-0.032490037381649,-0.3516513109207153,0.9330520033836364,0.0,0.0,0.0,-0.0737499066015012,-0.1722959017115876,0.1999188671259369,1.926401787,-0.0186830988548843,0.0828217260126753,0.2573889163154311,-3.6256934162751655,-8.463987811437333,3.969962831059089,-0.1059060630224573,-0.1090606690528017,-0.715054575204796,0.0047517246315464,0.0135022902529193,-0.0070353886272087,-6.517857849904454,10.976354985600466,27.89866543604979,-4.2493223891203647e-05
1830,1724914925084343898,-0.3675878047943115,0.1428849995136261,0.1705965250730514,-0.0691180303692817,-0.0324903056025505,-0.3500980734825134,0.9335944056510924,0.0,0.0,0.0,-0.0925358672956254,-0.0887693903650063,0.5012763729226685,1.935290218,-0.0984938085538196,-0.0646122153994387,0.3731292832457147,1.4943568273266008,-6.328454206563764,9.74758346044106,-0.1071496677161702,-0.1092790841300825,-0.7116756888884916,0.0051549211140375,0.0140639037717846,-0.0039062616158833,-13.427622519699783,4.930302943391215,33.20957097419616,-5.444594280573276e-05
1832,1724914925092020329,-0.3675421774387359,0.1430007070302963,0.1705945134162902,-0.0692948177456855,-0.0325154438614845,-0.3485603928565979,0.9341555833816528,0.0,0.0,0.0,-0.2706210793766114,-0.0805365383354623,0.7516004110956294,1.942966649,-0.0175862029368261,-0.0451799744023287,0.4262511162609105,7.033107508149602,2.4840965067494256,-0.9087684776481986,-0.1076456615239967,-0.1092731597973848,-0.7083654863200611,0.0035303554052852,0.0123750617885169,0.0009311109733776,-11.753441050086352,7.632556601478822,17.606044445779197,1.5046970411139226e-05
1834,1724914925106454060,-0.3675567209720611,0.1431061029434204,0.1706403344869613,-0.0694442987442016,-0.0324583128094673,-0.3472045660018921,0.9346513152122498,0.0,0.0,0.0,-0.12964428274241,0.2076651806601184,0.598540672692605,1.95740038,-0.011239668035477,-0.0106094118872595,0.200663991160617,13.517542234251309,-54.18393828642172,56.837649791202736,-0.1081253895772319,-0.1091135492852066,-0.7054522313579453,-0.0019766809401247,0.0149976490354148,0.0150753363183149,9.92018969040561,165.84100444715804,16.00333508835851,6.152092033414458e-05
1836,1724914925111778302,-0.3675691485404968,0.1432010680437088,0.1707439720630645,-0.0696640834212303,-0.0334394499659538,-0.3455141484737396,0.935226559638977,0.0,0.0,0.0,-0.0765262771469176,1.3771359228300546,0.7360031703377246,1.962724622,0.0864156099162322,-0.4102179327679456,0.6456047322664864,16.187380707063134,-65.94207501784284,73.10431704451553,-0.1080687806072783,-0.1109140459731825,-0.7017770066093182,-0.0021722217080158,0.0161543067460989,0.0175130464569538,-465.7396027115112,-910.2264936667232,-882.0781480765261,0.0001171476144634
1838,1724914925155741938,-0.3676058650016784,0.1433006525039672,0.1708052307367324,-0.0693886056542396,-0.0334944389760494,-0.3442519009113312,0.9357103705406188,0.0,0.0,0.0,-193.24618997167616,-448.806492677749,-367.6270426427892,2.006688258,0.0160381053331542,-0.0012738102777419,0.0607141944726517,-299.5599183811135,15954.257543980972,16008.51080208306,-0.1076595813364758,-0.1106823554687254,-0.6991007976406186,-0.0199846729258297,0.49776120772583,0.1508449175683495,76069.56528038817,-173605.584264484,145770.05335447704,7.630678420944303e-05
1840,1724914925156097091,-0.3676130175590515,0.1434788554906845,0.170859232544899,-0.0690890476107597,-0.0324685759842395,-0.3433600664138794,0.9360964298248292,0.0,0.0,0.0,-165.99900248547848,-510.93174023255074,-315.41411084026186,2.007043411,-0.0912063564675846,5.710675415806018,5.792152140131109,2816.5148190270793,658.9773842463342,15753.827322464684,-0.1078929772272161,-0.1084447073493229,-0.6972629330273653,-0.0891699066310138,0.3370471599462519,0.0192176307641602,246323.65472063544,186648.2773443221,453140.5778408588,8.049141464319028e-05
1842,1724914925156427692,-0.3676637411117553,0.1435395926237106,0.1708247065544128,-0.0688017830252647,-0.0322635099291801,-0.3416794240474701,0.9367393255233764,0.0,0.0,0.0,-32.36912837359546,-337.9527008281572,-71.39646752219521,2.007374012,1.7996374754727094,1.181827741247209,10.882173829954452,3769.9764025701734,-7603.545085362542,6838.1357445390695,-0.1076814457757768,-0.1076692124578555,-0.6937073483707461,-0.135184703951495,0.1501568027319137,-0.0680687640286237,358663.1803329219,614890.9925505181,650370.0169589703,-2.4278049667551895e-05
1844,1724914925156746819,-0.3677012622356415,0.1435771733522415,0.1708141863346099,-0.0684618055820465,-0.0321853384375572,-0.3401148617267608,0.9373362064361572,0.0,0.0,0.0,68.06141830052368,-113.48687059417551,109.12786245018336,2.007693139,2.402212245537299,0.6329919014248656,10.428064387749687,1774.906822352519,-1641.0042105875657,-1431.3262401421002,-0.1072692103357357,-0.1071114159875536,-0.6904014140294654,-0.1126097164610966,0.1123430865294083,-0.0315143474414769,298773.8514780024,669628.0550182316,537030.903382485,-4.237234437789792e-06
1846,1724914925162920910,-0.3678035140037536,0.1436236202716827,0.1707929670810699,-0.0691082179546356,-0.0321288891136646,-0.3383964002132416,0.9379124641418456,0.0,0.0,0.0,9.876899665383428,-10.134826299658588,2.4868776015527567,2.01386723,-0.1717966472116685,-0.086180909339434,0.5932661599893783,-239.84422636196305,-61.64869964589955,-955.6800480612444,-0.1087278597779378,-0.1072455801711485,-0.686681126660457,-0.0123250763855367,0.0094175922965877,-0.004826013848552,-6033.324591875458,10382.68344906354,-10386.087268897272,-1.2561636340576271e-05
1848,1724914925171986455,-0.3678588569164276,0.1437342166900634,0.1707307249307632,-0.0689921826124191,-0.0316556617617607,-0.3366700410842895,0.9385581612586976,0.0,0.0,0.0,0.3149854334404723,-0.6283595952186575,-0.0049132775493797,2.022932775,0.0107619651080326,0.0848380769041095,0.411812226828969,13.112597716930654,0.9088392323780904,-12.87337912909929,-0.1090186974382199,-0.1060753758458013,-0.6830327730031074,-0.0075231499303871,0.0045377164288193,-0.0067170941422514,-601.3624392749954,569.5639008394214,-136.64876472091237,-4.4126982279842064e-05
1850,1724914925182980945,-0.3679604828357696,0.1436819434165954,0.1706588566303253,-0.0690071731805801,-0.0323763489723205,-0.3347178995609283,0.939230501651764,0.0,0.0,0.0,-0.2512314336157339,-0.7541951993525964,0.3356458140160153,2.033927265,0.0612573817702215,-0.14459112933436,0.3655118116723756,3.1826893712692943,-11.671776297108336,-6.226788083551521,-0.1087913670380326,-0.1072188924983033,-0.6788414171702827,-0.0069228857385681,-0.0035717772970351,-0.004055169390825,-32.09554614168365,12.799856520854618,45.41191921311689,-7.74562091259877e-05
1852,1724914925205392244,-0.3680096268653869,0.143655925989151,0.1706813424825668,-0.0682859644293785,-0.0323818549513816,-0.3332943618297577,0.939789056777954,0.0,0.0,0.0,-0.0840691343721893,0.6402703314993863,2.012894512894712,2.056338564,0.0681671751036495,0.0139286665903076,0.1338841088803862,60.103246999296246,27.72711454236559,354.946149065422,-0.107580131957786,-0.1065845700446133,-0.6758751731539288,-0.0265246007160868,-0.021232572430776,0.0077399260657955,293.7342616725787,222.08266419943777,-156.46697358452036,1.9082235232993875e-05
1854,1724914925208113741,-0.3680898547172546,0.14359150826931,0.1707046329975128,-0.0679743885993957,-0.0322594121098518,-0.3317308127880096,0.9403688311576844,0.0,0.0,0.0,0.8099368430545892,1.2974989670419452,1.510627358071981,2.059060061,0.2514991694619855,0.0962136835622088,1.2205881801497755,4.052538710543564,17.875048521445507,161.18497476386096,-0.1072449960421323,-0.1059681018724111,-0.6725819158597403,-0.0264921261703676,-0.0190180498551022,0.0137093057424877,280.8857688729443,152.2709162289591,-269.3065685729315,1.4662192275777585e-05
1856,1724914925211840017,-0.3681733310222626,0.1435443758964538,0.1707819998264312,-0.0680479779839515,-0.0319729521870613,-0.3306843340396881,0.9407418370246888,0.0,0.0,0.0,1.6136768196211249,1.409677999557296,0.0747149272430012,2.062786337,-0.056418317697839,0.0997592842293111,0.6063208550411577,-58.64798422525945,-1.9291583304215056,-129.43248861150906,-0.1076892400823759,-0.1053561876238767,-0.670363173242004,-0.0194026441558339,-0.0117149343266742,0.0158547100803119,123.7207990842778,-21.97918381929793,-294.4353799771468,7.07258968420821e-05
1858,1724914925221817438,-0.3682867884635925,0.1434524357318878,0.1708090752363205,-0.0680873319506645,-0.0318663530051708,-0.3294602632522583,0.941171944141388,0.0,0.0,0.0,0.3909580732849075,-0.2010634079628581,-0.4342285032981792,2.072763758,-0.000775255658648,0.0035529867300185,0.2610446944044773,0.968618493212567,-6.896874956670923,-16.92717216813969,-0.1079699759010064,-0.1050406304657432,-0.6677631344494813,-0.0110200705670635,-0.0123492889340672,0.0032148165404652,-80.81543915009588,-75.80463690814123,7.6926457694723585,1.4770878858454422e-05
1860,1724914925232958526,-0.3684051930904388,0.1432758569717407,0.1708511263132095,-0.0684590116143226,-0.031873732805252,-0.3279204368591308,0.9416823983192444,0.0,0.0,0.0,0.0097661514168078,0.0197181727643701,0.3817586476340647,2.083904846,-0.0473129745141634,-0.03913005594693,0.2923874889676583,-0.1570401770460466,2.949404913653402,0.946351092369742,-0.1088436305048669,-0.1051215858665335,-0.6644593997622207,-0.0122525865749416,-0.0162997249969265,0.0087352414508696,-172.18374052891042,-195.86092243453632,152.43537686445913,1.6905035105407766e-05
1862,1724914925242081484,-0.3685291111469269,0.1431237906217575,0.1709678769111633,-0.0685235857963562,-0.0315909869968891,-0.3267017304897308,0.9421106576919556,0.0,0.0,0.0,-2.5917405702735836,-3.378311827209899,2.364031884244122,2.093027804,-0.0187140103130273,0.0384305941716581,0.2870744458485688,2.7276601371433946,6.935381505389136,-2.0070118912361923,-0.109284181459421,-0.1044879841836389,-0.6618799146718741,-0.0112640983299421,-0.0133236610760774,0.0113683057777131,-2963.327026413127,1147.2288954360424,732.2706626362833,9.447632769376536e-05
1864,1724914925274215695,-0.368628591299057,0.1430742442607879,0.1711714267730713,-0.067767783999443,-0.0303717739880085,-0.3258538246154785,0.9424991011619568,0.0,0.0,0.0,-400.9516919053565,205.4983761341364,84.18517226548533,2.125162015,0.0228500180713653,0.0840054909896598,0.0613299413001966,723.198044061954,-1802.2106827710345,19586.793750639987,-0.1087221495181955,-0.1015901770770156,-0.6602057334451693,-0.4001651349186659,-0.5411905015439515,0.3222459511333113,84463.26558408584,73274.57655446889,-53997.90765790589,0.0001952966776583
1866,1724914925274617420,-0.3687913417816162,0.1428541243076324,0.1713024675846099,-0.0677991360425949,-0.0304060727357864,-0.324322760105133,0.9430236220359802,0.0,0.0,0.0,-366.53424053891024,235.26995697276072,62.208889402954696,2.12556374,0.3170022687956598,-0.6490456989763722,8.028237848030832,-10522.610078877162,1270.6393342975616,15991.91126350065,-0.1089243555457503,-0.1014990808012531,-0.6569545197913624,-0.5631903146158947,-0.4575221231307296,0.3564394443241099,111142.7098494866,59418.230755226454,-59608.686771104825,9.928108071243484e-05
1868,1724914925274947351,-0.3690199851989746,0.1427276730537414,0.1714282631874084,-0.0687930956482887,-0.029842147603631,-0.3224519789218902,0.9436109662055968,0.0,0.0,0.0,-322.9636625716708,250.8930542437609,41.21333930198949,2.125893671,-6.204428240341225,0.6089302279833129,12.26399443823143,-19180.618406970258,3701.658693129953,12437.169233973073,-0.1113774453769863,-0.1008545843977033,-0.6529342450951904,-0.6734780835893711,-0.3725839075386193,0.3707568194800985,129146.3695959422,45365.673175945754,-61939.04378711139,0.0001082635680072
1870,1724914925286066448,-0.3691916465759277,0.142587661743164,0.1716079711914062,-0.0691742748022079,-0.0290302783250808,-0.3212731778621673,0.9440104365348816,0.0,0.0,0.0,21.333847658938893,10.754158752365482,-11.526961413098782,2.137012768,-0.1005144445508182,0.1032465964346465,0.2353367023663267,216.49933585095096,-44.2603029919049,-352.04241802141837,-0.1127434444604875,-0.099421157859156,-0.6504498682374019,-0.0257744281865655,-0.0370870022755038,0.0114609745471589,9153.288028416784,-8849.360220428169,-520.7164110753114,0.0001585665437992
1872,1724914925292392259,-0.3693918883800506,0.1422649025917053,0.1716635525226593,-0.0691909044981002,-0.0294796880334615,-0.3193331062793731,0.9446533918380736,0.0,0.0,0.0,0.7406146168274428,0.6514547145514544,0.3752053213849577,2.143338579,0.072554005657931,-0.1723503922705218,0.6346719145722904,19.07797342332474,-13.806444455412652,30.413461993067408,-0.112695973680529,-0.1000529153509032,-0.6463174199851913,-0.0236812389662439,-0.0389437148483065,0.0133507301572644,-2126.927514489347,-1174.0478203789844,1444.6962752702284,8.987784806601529e-06
1874,1724914925302949183,-0.3695014119148254,0.1420665830373764,0.1718849092721939,-0.0682635903358459,-0.0285286251455545,-0.3174959123134613,0.9453691244125366,0.0,0.0,0.0,-1.8311556079567872,-4.290204433066798,7.930684067295685,2.153895503,0.1280612973226827,0.2062209324634356,0.3793788014137865,2.5438493592608653,22.89042926394579,-20.00093970752466,-0.1117141880617458,-0.0974411081566735,-0.6425630892279451,-0.0086441815729534,-0.0154178267402484,0.018658964184727,72.78784584520042,165.45471930774858,-208.23485061759555,0.0001909041737019
