seq,stamp,px,py,pz,ox,oy,oz,ow,lx,ly,lz,ax,ay,az
4518,1724813756885874573,-1.740265130996704,-0.31611862778663635,0.1670161634683609,0.02824840135872364,-0.0055841486901044846,-0.4131332039833069,0.9102151989936829,0.0,0.0,0.0,0.0,0.0,0.0
4520,1724813756895404830,-1.74027681350708,-0.31610655784606934,0.167001411318779,0.02788221836090088,-0.005634751170873642,-0.4131823182106018,0.9102039337158203,0.0,0.0,0.0,0.0,0.0,0.0
4522,1724813756911899551,-1.7402451038360596,-0.31610071659088135,0.16698414087295532,0.02821543999016285,-0.005755570717155933,-0.41319969296455383,0.9101850986480713,0.0,0.0,0.0,0.0,0.0,0.0
4524,1724813756916481636,-1.740272045135498,-0.3160933256149292,0.16693590581417084,0.027572311460971832,-0.005728035233914852,-0.41314730048179626,0.9102286696434021,0.0,0.0,0.0,0.0,0.0,0.0
4526,1724813756926858435,-1.740275263786316,-0.3160713315010071,0.16688920557498932,0.0277891643345356,-0.005891529843211174,-0.4131305515766144,0.9102286696434021,0.0,0.0,0.0,0.0,0.0,0.0
4528,1724813756935451533,-1.7402851581573486,-0.31607091426849365,0.1668534278869629,0.027916859835386276,-0.005935009568929672,-0.413209468126297,0.910188615322113,0.0,0.0,0.0,0.0,0.0,0.0
4530,1724813756945873980,-1.740309238433838,-0.31604522466659546,0.16682690382003784,0.027802545577287674,-0.0059766643680632114,-0.4133191704750061,0.9101421236991882,0.0,0.0,0.0,0.0,0.0,0.0
4532,1724813756955432976,-1.740347146987915,-0.3160432279109955,0.1667957305908203,0.027283264324069023,-0.005875470116734505,-0.4132600426673889,0.9101852774620056,0.0,0.0,0.0,0.0,0.0,0.0
4534,1724813756965516628,-1.7403620481491089,-0.31602388620376587,0.16678164899349213,0.027361668646335602,-0.0059233009815216064,-0.41340628266334534,0.9101161360740662,0.0,0.0,0.0,0.0,0.0,0.0
4536,1724813756981799150,-1.740379810333252,-0.3160233795642853,0.16668643057346344,0.027665752917528152,-0.006332410499453545,-0.413239061832428,0.9101802706718445,0.0,0.0,0.0,0.0,0.0,0.0
4538,1724813756985405929,-1.7404117584228516,-0.31601348519325256,0.1665920615196228,0.02742871828377247,-0.006522598210722208,-0.41328004002571106,0.910167396068573,0.0,0.0,0.0,0.0,0.0,0.0
4540,1724813756996688620,-1.7404201030731201,-0.31598958373069763,0.16649840772151947,0.02788964845240116,-0.007006189785897732,-0.4133167564868927,0.9101332426071167,0.0,0.0,0.0,0.0,0.0,0.0
4542,1724813757007082066,-1.7404630184173584,-0.31593504548072815,0.16640853881835938,0.027556486427783966,-0.007078759837895632,-0.41357138752937317,0.9100270867347717,0.0,0.0,0.0,0.0,0.0,0.0
4544,1724813757015284556,-1.740538477897644,-0.3158983588218689,0.16614970564842224,0.02782633528113365,-0.00793684832751751,-0.41332894563674927,0.9101219773292542,0.0,0.0,0.0,0.0,0.0,0.0
4546,1724813757026402866,-1.7405301332473755,-0.31575748324394226,0.1661721169948578,0.02947067841887474,-0.007032709661871195,-0.4140629470348358,0.9097438454627991,0.0,0.0,0.0,0.0,0.0,0.0
4548,1724813757035493366,-1.7406024932861328,-0.315664142370224,0.16597051918506622,0.029647817835211754,-0.007129016797989607,-0.4143753945827484,0.9095950722694397,0.0,0.0,0.0,0.0,0.0,0.0
4550,1724813757045503906,-1.740757703781128,-0.31553441286087036,0.16548839211463928,0.0294509194791317,-0.008061341941356659,-0.41420164704322815,0.9096727967262268,0.0,0.0,0.0,0.0,0.0,0.0
4552,1724813757055794770,-1.7408666610717773,-0.31512194871902466,0.16521461308002472,0.03022456169128418,-0.008107352070510387,-0.41462627053260803,0.9094535708427429,0.0,0.0,0.0,0.0,0.0,0.0
4554,1724813757065306448,-1.7411997318267822,-0.3149212896823883,0.1640865057706833,0.02944832295179367,-0.011233053170144558,-0.41360539197921753,0.9099105000495911,0.0,0.0,0.0,0.0,0.0,0.0
4556,1724813757076260802,-1.7415519952774048,-0.31458979845046997,0.16305875778198242,0.029427429661154747,-0.012573612853884697,-0.41308778524398804,0.9101288914680481,0.0,0.0,0.0,0.0,0.0,0.0
4558,1724813757100327045,-1.7420710325241089,-0.31443506479263306,0.16134004294872284,0.029968788847327232,-0.01551126129925251,-0.41084131598472595,0.9110822081565857,0.0,0.0,0.0,0.0,0.0,0.0
4560,1724813757101013527,-1.7423746585845947,-0.3136848509311676,0.16079695522785187,0.032490238547325134,-0.01435793749988079,-0.41298550367355347,0.9100445508956909,0.0,0.0,0.0,0.0,0.0,0.0
4562,1724813757105246026,-1.7428452968597412,-0.3132355213165283,0.1595490425825119,0.031986601650714874,-0.016392776742577553,-0.4122645854949951,0.9103549122810364,0.0,0.0,0.0,0.0,0.0,0.0
4564,1724813757116742283,-1.743165373802185,-0.3126886785030365,0.15861649811267853,0.03280078247189522,-0.017427345737814903,-0.4123416244983673,0.9102718234062195,0.0,0.0,0.0,0.0,0.0,0.0
4566,1724813757125825750,-1.7434790134429932,-0.31221845746040344,0.15752074122428894,0.031796060502529144,-0.019811751320958138,-0.41204124689102173,0.9103947281837463,0.0,0.0,0.0,0.0,0.0,0.0
4568,1724813757135233281,-1.7436778545379639,-0.31154265999794006,0.1570654958486557,0.03180665895342827,-0.01984430104494095,-0.4124857485294342,0.9101923108100891,0.0,0.0,0.0,0.0,0.0,0.0
4570,1724813757145280137,-1.7438619136810303,-0.3110063970088959,0.15668649971485138,0.03233838453888893,-0.018951600417494774,-0.412823885679245,0.9100393652915955,0.0,0.0,0.0,0.0,0.0,0.0
4572,1724813757155336946,-1.744155764579773,-0.3107641041278839,0.15555784106254578,0.030431589111685753,-0.022075245156884193,-0.41144436597824097,0.9106592535972595,0.0,0.0,0.0,0.0,0.0,0.0
4574,1724813757166016555,-1.7443197965621948,-0.31043434143066406,0.15506625175476074,0.03021865338087082,-0.023121224716305733,-0.41134220361709595,0.9106864333152771,0.0,0.0,0.0,0.0,0.0,0.0
4576,1724813757177290243,-1.7443841695785522,-0.31005197763442993,0.1549452245235443,0.031476717442274094,-0.02166583389043808,-0.41223978996276855,0.9102737307548523,0.0,0.0,0.0,0.0,0.0,0.0
4578,1724813757185179427,-1.7444772720336914,-0.3098805844783783,0.1545519232749939,0.031493011862039566,-0.022325608879327774,-0.4121136963367462,0.9103142619132996,0.0,0.0,0.0,0.0,0.0,0.0
4580,1724813757197373375,-1.7445366382598877,-0.30974411964416504,0.15430468320846558,0.03147352486848831,-0.022746702656149864,-0.41212645173072815,0.910298764705658,0.0,0.0,0.0,0.0,0.0,0.0
4582,1724813757205872203,-1.7445546388626099,-0.30968302488327026,0.15407687425613403,0.031539592891931534,-0.023044085130095482,-0.4123093783855438,0.910206139087677,0.0,0.0,0.0,0.0,0.0,0.0
4584,1724813757215748569,-1.7445889711380005,-0.30960914492607117,0.15396574139595032,0.03181382641196251,-0.023225221782922745,-0.4125578701496124,0.9100793600082397,0.0,0.0,0.0,0.0,0.0,0.0
4586,1724813757226764512,-1.7446016073226929,-0.30959799885749817,0.15393440425395966,0.03197282925248146,-0.02321251668035984,-0.4129805266857147,0.9098824262619019,0.0,0.0,0.0,0.0,0.0,0.0
4588,1724813757235968852,-1.7446181774139404,-0.30959612131118774,0.1539144665002823,0.03208458423614502,-0.023482520133256912,-0.412955641746521,0.9098829030990601,0.0,0.0,0.0,0.0,0.0,0.0
4590,1724813757245895894,-1.744628667831421,-0.30964013934135437,0.153895303606987,0.03199276328086853,-0.023547308519482613,-0.41297483444213867,0.9098756909370422,0.0,0.0,0.0,0.0,0.0,0.0
4592,1724813757257098067,-1.744627833366394,-0.309632271528244,0.15395651757717133,0.03221745416522026,-0.02333315648138523,-0.4129975736141205,0.9098630547523499,0.0,0.0,0.0,0.0,0.0,0.0
4594,1724813757265896184,-1.744642972946167,-0.3096558749675751,0.15392373502254486,0.032124485820531845,-0.023492516949772835,-0.41283896565437317,0.9099341034889221,0.0,0.0,0.0,0.0,0.0,0.0
4596,1724813757277954503,-1.7446538209915161,-0.3096421957015991,0.15392136573791504,0.032131992280483246,-0.023561187088489532,-0.41279375553131104,0.9099525809288025,0.0,0.0,0.0,0.0,0.0,0.0
4598,1724813757288086285,-1.7446492910385132,-0.3096645772457123,0.153847798705101,0.032186318188905716,-0.023831872269511223,-0.41253963112831116,0.9100589156150818,0.0,0.0,0.0,0.0,0.0,0.0
4600,1724813757295649387,-1.7445787191390991,-0.3097728192806244,0.1534014642238617,0.031755853444337845,-0.024548858404159546,-0.41198450326919556,0.9103063941001892,0.0,0.0,0.0,0.0,0.0,0.0
4602,1724813757306634825,-1.7446322441101074,-0.3096888065338135,0.1537667214870453,0.03196003660559654,-0.024062197655439377,-0.41237521171569824,0.9101353287696838,0.0,0.0,0.0,0.0,0.0,0.0
4604,1724813757315219996,-1.7446434497833252,-0.30970239639282227,0.15381421148777008,0.0318952351808548,-0.023889875039458275,-0.4125558137893677,0.9100602865219116,0.0,0.0,0.0,0.0,0.0,0.0
4606,1724813757325594562,-1.744842767715454,-0.3100101053714752,0.15360064804553986,0.03162721171975136,-0.025772182270884514,-0.41042664647102356,0.9109805226325989,0.0,0.0,0.0,0.0,0.0,0.0
4608,1724813757335778732,-1.7448636293411255,-0.3100363612174988,0.1536327600479126,0.03156351298093796,-0.025711413472890854,-0.410365492105484,0.9110120534896851,0.0,0.0,0.0,0.0,0.0,0.0
4610,1724813757345255003,-1.7449380159378052,-0.30995193123817444,0.15377046167850494,0.028974616900086403,-0.024344157427549362,-0.41095206141471863,0.9108712077140808,0.0,0.0,0.0,0.0,0.0,0.0
4612,1724813757355141933,-1.7448123693466187,-0.30990174412727356,0.15382267534732819,0.029160136356949806,-0.024124378338456154,-0.4104038178920746,0.91111820936203,0.0,0.0,0.0,0.0,0.0,0.0
4614,1724813757368264864,-1.7448383569717407,-0.3099397122859955,0.15373574197292328,0.02914404682815075,-0.024197280406951904,-0.410232275724411,0.9111940264701843,0.0,0.0,0.0,0.0,0.0,0.0
4616,1724813757377231545,-1.7448906898498535,-0.30990973114967346,0.15376053750514984,0.029177486896514893,-0.023830153048038483,-0.4106810390949249,0.9110004901885986,0.0,0.0,0.0,0.0,0.0,0.0
4618,1724813757385275361,-1.744898796081543,-0.30987080931663513,0.15378323197364807,0.029303018003702164,-0.0237573329359293,-0.41089749336242676,0.9109007716178894,0.0,0.0,0.0,0.0,0.0,0.0
4620,1724813757395460421,-1.744841456413269,-0.3099736273288727,0.15354447066783905,0.02901364676654339,-0.023667050525546074,-0.41061931848526,0.9110378623008728,0.0,0.0,0.0,0.0,0.0,0.0
4622,1724813757405210072,-1.7448773384094238,-0.3098693788051605,0.15386275947093964,0.029242856428027153,-0.023453636094927788,-0.4112694561481476,0.9107427000999451,0.0,0.0,0.0,0.0,0.0,0.0
4624,1724813757416788965,-1.7449085712432861,-0.3098626434803009,0.15388712286949158,0.02930872142314911,-0.023510003462433815,-0.4113893210887909,0.9106850028038025,0.0,0.0,0.0,0.0,0.0,0.0
4626,1724813757425853793,-1.744891881942749,-0.3098408579826355,0.15392635762691498,0.029234860092401505,-0.02345503866672516,-0.411587119102478,0.9105993509292603,0.0,0.0,0.0,0.0,0.0,0.0
4628,1724813757435146654,-1.7448235750198364,-0.3099488317966461,0.15367959439754486,0.029164094477891922,-0.023558106273412704,-0.4112352132797241,0.9107579588890076,0.0,0.0,0.0,0.0,0.0,0.0
4630,1724813757446132742,-1.7448617219924927,-0.3098374605178833,0.1539427638053894,0.0295253898948431,-0.02326277457177639,-0.4117489755153656,0.9105218052864075,0.0,0.0,0.0,0.0,0.0,0.0
4632,1724813757455842668,-1.7448095083236694,-0.30991628766059875,0.15375149250030518,0.029048463329672813,-0.02328791469335556,-0.4117928743362427,0.910516619682312,0.0,0.0,0.0,0.0,0.0,0.0
4634,1724813757465605128,-1.7448371648788452,-0.30980634689331055,0.15400941669940948,0.029573064297437668,-0.022898327559232712,-0.4122006297111511,0.9103250503540039,0.0,0.0,0.0,0.0,0.0,0.0
4636,1724813757475893115,-1.744866132736206,-0.30981966853141785,0.1540016531944275,0.029460564255714417,-0.02309531904757023,-0.4120877683162689,0.9103748202323914,0.0,0.0,0.0,0.0,0.0,0.0
4638,1724813757485592118,-1.7448700666427612,-0.30983349680900574,0.1539880931377411,0.02945712022483349,-0.023262279108166695,-0.41191670298576355,0.9104481339454651,0.0,0.0,0.0,0.0,0.0,0.0
4640,1724813757497202241,-1.7448309659957886,-0.30994564294815063,0.15369363129138947,0.02906148135662079,-0.023386817425489426,-0.41157814860343933,0.9106107354164124,0.0,0.0,0.0,0.0,0.0,0.0
4642,1724813757506251739,-1.7447794675827026,-0.30995771288871765,0.1536548137664795,0.02916628122329712,-0.02339371107518673,-0.41147762537002563,0.9106526374816895,0.0,0.0,0.0,0.0,0.0,0.0
4644,1724813757515276017,-1.7447807788848877,-0.3099684417247772,0.15365269780158997,0.028963368386030197,-0.023298921063542366,-0.4115240275859833,0.9106405973434448,0.0,0.0,0.0,0.0,0.0,0.0
4646,1724813757527296155,-1.7448562383651733,-0.3098239004611969,0.15395838022232056,0.02938438206911087,-0.023140085861086845,-0.4119046926498413,0.910459041595459,0.0,0.0,0.0,0.0,0.0,0.0
4648,1724813757535737760,-1.7448830604553223,-0.30984580516815186,0.15396644175052643,0.02958868257701397,-0.02319125458598137,-0.411883145570755,0.9104608297348022,0.0,0.0,0.0,0.0,0.0,0.0
4650,1724813757545818956,-1.744822382926941,-0.309946745634079,0.15373557806015015,0.029266128316521645,-0.023449614644050598,-0.4115343689918518,0.9106224179267883,0.0,0.0,0.0,0.0,0.0,0.0
4652,1724813757556763914,-1.7448033094406128,-0.30996859073638916,0.15365660190582275,0.0292292982339859,-0.023524604737758636,-0.411300927400589,0.9107270836830139,0.0,0.0,0.0,0.0,0.0,0.0
4654,1724813757565147452,-1.7448031902313232,-0.3099686801433563,0.15360981225967407,0.029142197221517563,-0.02344389259815216,-0.4111652970314026,0.9107932448387146,0.0,0.0,0.0,0.0,0.0,0.0
4656,1724813757575340398,-1.7448134422302246,-0.3099604547023773,0.15359967947006226,0.028961533680558205,-0.02341272681951523,-0.4113498628139496,0.9107164144515991,0.0,0.0,0.0,0.0,0.0,0.0
4658,1724813757585648767,-1.7448104619979858,-0.30994871258735657,0.15361131727695465,0.02894846349954605,-0.023481963202357292,-0.4113726019859314,0.9107048511505127,0.0,0.0,0.0,0.0,0.0,0.0
4660,1724813757595496143,-1.7447959184646606,-0.3099512755870819,0.1536291092634201,0.029015935957431793,-0.02334127388894558,-0.41145989298820496,0.9106667637825012,0.0,0.0,0.0,0.0,0.0,0.0
4662,1724813757605518476,-1.7448639869689941,-0.30982494354248047,0.1539512574672699,0.029422342777252197,-0.023116914555430412,-0.4119259715080261,0.9104487299919128,0.0,0.0,0.0,0.0,0.0,0.0
4664,1724813757616189719,-1.744882345199585,-0.30980244278907776,0.1540081799030304,0.02952367253601551,-0.023150000721216202,-0.41202905774116516,0.9103980660438538,0.0,0.0,0.0,0.0,0.0,0.0
4666,1724813757625346089,-1.744896650314331,-0.30981653928756714,0.15397946536540985,0.029455123469233513,-0.02322218008339405,-0.4119400382041931,0.9104386568069458,0.0,0.0,0.0,0.0,0.0,0.0
4668,1724813757635534977,-1.7449051141738892,-0.3098359704017639,0.15394380688667297,0.02957937866449356,-0.02337552234530449,-0.41170385479927063,0.9105374813079834,0.0,0.0,0.0,0.0,0.0,0.0
4670,1724813757645816103,-1.7448322772979736,-0.3099239468574524,0.15372131764888763,0.02922656573355198,-0.023399604484438896,-0.41156336665153503,0.9106118083000183,0.0,0.0,0.0,0.0,0.0,0.0
4672,1724813757655380128,-1.7448837757110596,-0.3098354637622833,0.15394960343837738,0.02944914437830448,-0.023178894072771072,-0.4118124842643738,0.9104976654052734,0.0,0.0,0.0,0.0,0.0,0.0
4674,1724813757665689329,-1.7448961734771729,-0.3098125755786896,0.15400424599647522,0.02948654443025589,-0.023062285035848618,-0.41195985674858093,0.910432755947113,0.0,0.0,0.0,0.0,0.0,0.0
4676,1724813757682827480,-1.7448989152908325,-0.3098471462726593,0.1539933681488037,0.02950417995452881,-0.023067571222782135,-0.4119701087474823,0.9104273915290833,0.0,0.0,0.0,0.0,0.0,0.0
4678,1724813757685218573,-1.7448360919952393,-0.30995234847068787,0.15368454158306122,0.02913176640868187,-0.023386534303426743,-0.41139471530914307,0.9106913805007935,0.0,0.0,0.0,0.0,0.0,0.0
4680,1724813757697036751,-1.7448723316192627,-0.30984339118003845,0.1539616584777832,0.029375750571489334,-0.023113375529646873,-0.411860853433609,0.9104797840118408,0.0,0.0,0.0,0.0,0.0,0.0
4682,1724813757705427929,-1.7448257207870483,-0.30994123220443726,0.15369708836078644,0.02932039089500904,-0.02328832447528839,-0.4113698899745941,0.9106991291046143,0.0,0.0,0.0,0.0,0.0,0.0
4684,1724813757715435705,-1.744942545890808,-0.30992066860198975,0.15372322499752045,0.02817544713616371,-0.024812977761030197,-0.41128697991371155,0.9107324481010437,0.0,0.0,0.0,0.0,0.0,0.0
4686,1724813757726201490,-1.7448298931121826,-0.309948205947876,0.1536480337381363,0.029053229838609695,-0.023500662297010422,-0.41148388385772705,0.9106506705284119,0.0,0.0,0.0,0.0,0.0,0.0
4688,1724813757735051230,-1.7448726892471313,-0.3098275363445282,0.1539779007434845,0.029501279816031456,-0.023133764043450356,-0.4119492173194885,0.9104351997375488,0.0,0.0,0.0,0.0,0.0,0.0
4690,1724813757746012763,-1.7449028491973877,-0.3098350465297699,0.15396295487880707,0.02956402488052845,-0.023318786174058914,-0.41178253293037415,0.9105038642883301,0.0,0.0,0.0,0.0,0.0,0.0
4692,1724813757757588971,-1.744838833808899,-0.30992966890335083,0.15374529361724854,0.029372427612543106,-0.023256072774529457,-0.41154009103775024,0.9106214046478271,0.0,0.0,0.0,0.0,0.0,0.0
4694,1724813757765044577,-1.7448866367340088,-0.30982863903045654,0.15393565595149994,0.02944580465555191,-0.02324843779206276,-0.4116702973842621,0.9105603098869324,0.0,0.0,0.0,0.0,0.0,0.0
4696,1724813757780321617,-1.7448327541351318,-0.3099161982536316,0.1536891609430313,0.029160037636756897,-0.023365627974271774,-0.41155681014060974,0.9106177687644958,0.0,0.0,0.0,0.0,0.0,0.0
4698,1724813757785812051,-1.7448811531066895,-0.3098399043083191,0.15391600131988525,0.029432235285639763,-0.023292208090424538,-0.4117600619792938,0.910519003868103,0.0,0.0,0.0,0.0,0.0,0.0
4700,1724813757795290180,-1.7448419332504272,-0.3099440634250641,0.153676837682724,0.02920430898666382,-0.023369111120700836,-0.4114658832550049,0.9106574058532715,0.0,0.0,0.0,0.0,0.0,0.0
4702,1724813757821715574,-1.7448774576187134,-0.30984020233154297,0.15391568839550018,0.02953379787504673,-0.023230930790305138,-0.41173413395881653,0.9105290174484253,0.0,0.0,0.0,0.0,0.0,0.0
4704,1724813757822181015,-1.7448877096176147,-0.3098312020301819,0.153954416513443,0.029667187482118607,-0.02304706536233425,-0.41187116503715515,0.9104674458503723,0.0,0.0,0.0,0.0,0.0,0.0
4706,1724813757825742602,-1.7448927164077759,-0.3098667860031128,0.1539217233657837,0.029589364305138588,-0.023269083350896835,-0.41173404455184937,0.9105263352394104,0.0,0.0,0.0,0.0,0.0,0.0
4708,1724813757838886753,-1.7448904514312744,-0.30986353754997253,0.15392054617404938,0.02971348538994789,-0.023145658895373344,-0.4118085205554962,0.9104917049407959,0.0,0.0,0.0,0.0,0.0,0.0
4710,1724813757845375923,-1.744850516319275,-0.30983585119247437,0.1539294719696045,0.02992859110236168,-0.022605637088418007,-0.412091463804245,0.9103701710700989,0.0,0.0,0.0,0.0,0.0,0.0
4712,1724813757856117444,-1.7447521686553955,-0.3099479675292969,0.15358242392539978,0.029596423730254173,-0.022708475589752197,-0.4116320312023163,0.910586416721344,0.0,0.0,0.0,0.0,0.0,0.0
4714,1724813757866082872,-1.7446458339691162,-0.3099643588066101,0.15345507860183716,0.029773378744721413,-0.022274544462561607,-0.41176390647888184,0.9105316400527954,0.0,0.0,0.0,0.0,0.0,0.0
4716,1724813757875931471,-1.744566559791565,-0.309977650642395,0.15333275496959686,0.02994004637002945,-0.02211681753396988,-0.41164231300354004,0.9105850458145142,0.0,0.0,0.0,0.0,0.0,0.0
4718,1724813757888368216,-1.7444674968719482,-0.3100089132785797,0.1531258076429367,0.03000664710998535,-0.021856650710105896,-0.41153770685195923,0.9106363654136658,0.0,0.0,0.0,0.0,0.0,0.0
4720,1724813757895744567,-1.7443686723709106,-0.31007248163223267,0.15282784402370453,0.02929752692580223,-0.022761505097150803,-0.41118767857551575,0.9107954502105713,0.0,0.0,0.0,0.0,0.0,0.0
4722,1724813757906775305,-1.744213342666626,-0.31010377407073975,0.15258249640464783,0.029393989592790604,-0.02276298776268959,-0.41113391518592834,0.9108166098594666,0.0,0.0,0.0,0.0,0.0,0.0
4724,1724813757915755071,-1.7440825700759888,-0.3101314902305603,0.15238329768180847,0.02958722412586212,-0.022580968216061592,-0.41111552715301514,0.9108231067657471,0.0,0.0,0.0,0.0,0.0,0.0
4726,1724813757926218844,-1.743908166885376,-0.31018200516700745,0.15223394334316254,0.029849683865904808,-0.02252739854156971,-0.41114741563796997,0.9108014702796936,0.0,0.0,0.0,0.0,0.0,0.0
4728,1724813757935581715,-1.7437410354614258,-0.3102395236492157,0.15209361910820007,0.030233845114707947,-0.022200869396328926,-0.41125011444091797,0.9107504487037659,0.0,0.0,0.0,0.0,0.0,0.0
4730,1724813757945875856,-1.7436720132827759,-0.31018826365470886,0.15225809812545776,0.030461909249424934,-0.02186870574951172,-0.41190701723098755,0.9104539752006531,0.0,0.0,0.0,0.0,0.0,0.0
4732,1724813757960752540,-1.7435005903244019,-0.31015926599502563,0.15250250697135925,0.030926967039704323,-0.02147885598242283,-0.41239771246910095,0.9102253913879395,0.0,0.0,0.0,0.0,0.0,0.0
4734,1724813757965294715,-1.7433576583862305,-0.31020787358283997,0.1525908261537552,0.031135229393839836,-0.021161776036024094,-0.4128241240978241,0.9100324511528015,0.0,0.0,0.0,0.0,0.0,0.0
4736,1724813757977326796,-1.7431131601333618,-0.31023526191711426,0.15283194184303284,0.03230328857898712,-0.019447075203061104,-0.4132356345653534,0.9098432660102844,0.0,0.0,0.0,0.0,0.0,0.0
4738,1724813757985602483,-1.7429347038269043,-0.3103761076927185,0.1528291255235672,0.03202296793460846,-0.019659750163555145,-0.41304469108581543,0.9099351763725281,0.0,0.0,0.0,0.0,0.0,0.0
4740,1724813758000881224,-1.7427794933319092,-0.3105817139148712,0.1526068150997162,0.030585164204239845,-0.021438490599393845,-0.41250449419021606,0.9101896286010742,0.0,0.0,0.0,0.0,0.0,0.0
4742,1724813758008661233,-1.7425159215927124,-0.31071534752845764,0.15256696939468384,0.030422227457165718,-0.02150346152484417,-0.4123342037200928,0.910270631313324,0.0,0.0,0.0,0.0,0.0,0.0
4744,1724813758015252315,-1.7422218322753906,-0.3109545409679413,0.1524507850408554,0.030027296394109726,-0.021522510796785355,-0.41235479712486267,0.9102739691734314,0.0,0.0,0.0,0.0,0.0,0.0
4746,1724813758026323907,-1.7418876886367798,-0.31114447116851807,0.15255004167556763,0.02971516363322735,-0.021362515166401863,-0.41249069571495056,0.9102263450622559,0.0,0.0,0.0,0.0,0.0,0.0
4748,1724813758035641534,-1.7415162324905396,-0.31138619780540466,0.15265128016471863,0.02968715690076351,-0.021352136507630348,-0.4123869836330414,0.9102745652198792,0.0,0.0,0.0,0.0,0.0,0.0
4750,1724813758045844362,-1.741133213043213,-0.31168341636657715,0.15273091197013855,0.029892560094594955,-0.02132474258542061,-0.41212913393974304,0.9103853106498718,0.0,0.0,0.0,0.0,0.0,0.0
4752,1724813758057124950,-1.740709900856018,-0.3119843304157257,0.15290726721286774,0.029434334486722946,-0.02108153887093067,-0.412316232919693,0.9103211164474487,0.0,0.0,0.0,0.0,0.0,0.0
4754,1724813758065215853,-1.740262746810913,-0.3122945725917816,0.1532650589942932,0.030204661190509796,-0.019657623022794724,-0.41268324851989746,0.9101614952087402,0.0,0.0,0.0,0.0,0.0,0.0
4756,1724813758076061902,-1.7399059534072876,-0.3130415081977844,0.15270355343818665,0.03075803816318512,-0.0240324717015028,-0.4102354347705841,0.911143958568573,0.0,0.0,0.0,0.0,0.0,0.0
4758,1724813758086583270,-1.7394094467163086,-0.3133799731731415,0.15310588479042053,0.03145541250705719,-0.022696249186992645,-0.4110901355743408,0.9107691645622253,0.0,0.0,0.0,0.0,0.0,0.0
4760,1724813758095767469,-1.738869309425354,-0.3138105869293213,0.15327732264995575,0.03190895542502403,-0.022407151758670807,-0.4111495912075043,0.9107336401939392,0.0,0.0,0.0,0.0,0.0,0.0
4762,1724813758105457964,-1.7384854555130005,-0.3141443133354187,0.15350526571273804,0.029651835560798645,-0.02119474485516548,-0.41170060634613037,0.9105900526046753,0.0,0.0,0.0,0.0,0.0,0.0
4764,1724813758115214099,-1.738095760345459,-0.3145814836025238,0.15363706648349762,0.02956647053360939,-0.021211842074990273,-0.4118657410144806,0.9105177521705627,0.0,0.0,0.0,0.0,0.0,0.0
4766,1724813758125822952,-1.7377285957336426,-0.3148159086704254,0.1541365683078766,0.029828991740942,-0.02023070678114891,-0.41260388493537903,0.9101972579956055,0.0,0.0,0.0,0.0,0.0,0.0
4768,1724813758135301886,-1.7373809814453125,-0.31518155336380005,0.15429037809371948,0.02959408238530159,-0.019919030368328094,-0.4127679765224457,0.910137414932251,0.0,0.0,0.0,0.0,0.0,0.0
4770,1724813758145387826,-1.737033486366272,-0.31576597690582275,0.15386073291301727,0.02839149534702301,-0.020827608183026314,-0.41194525361061096,0.9105280041694641,0.0,0.0,0.0,0.0,0.0,0.0
4772,1724813758155466243,-1.7367234230041504,-0.3160972595214844,0.1538476049900055,0.02766377478837967,-0.020913098007440567,-0.41193780303001404,0.9105518460273743,0.0,0.0,0.0,0.0,0.0,0.0
4774,1724813758166046185,-1.7364082336425781,-0.3163522779941559,0.15389111638069153,0.027459057047963142,-0.020975444465875626,-0.4118022918701172,0.9106178283691406,0.0,0.0,0.0,0.0,0.0,0.0
4776,1724813758176127662,-1.7361489534378052,-0.31664398312568665,0.15391603112220764,0.027022482827305794,-0.02119395323097706,-0.41169658303260803,0.9106736779212952,0.0,0.0,0.0,0.0,0.0,0.0
4778,1724813758186092566,-1.735909342765808,-0.3168683648109436,0.15392427146434784,0.026962725445628166,-0.02153562754392624,-0.41144663095474243,0.9107803702354431,0.0,0.0,0.0,0.0,0.0,0.0
4780,1724813758196090914,-1.735667109489441,-0.3170456290245056,0.15399400889873505,0.027334338054060936,-0.021811559796333313,-0.4112313985824585,0.9108598828315735,0.0,0.0,0.0,0.0,0.0,0.0
4782,1724813758205334992,-1.7354477643966675,-0.31722214818000793,0.15403945744037628,0.026706907898187637,-0.021481996402144432,-0.41145139932632446,0.910787045955658,0.0,0.0,0.0,0.0,0.0,0.0
4784,1724813758215200199,-1.7351953983306885,-0.31735503673553467,0.15408480167388916,0.026528844609856606,-0.021718263626098633,-0.4111001491546631,0.9109452366828918,0.0,0.0,0.0,0.0,0.0,0.0
4786,1724813758230388839,-1.734925389289856,-0.31745290756225586,0.15418091416358948,0.025802278891205788,-0.021165352314710617,-0.41144323348999023,0.910824179649353,0.0,0.0,0.0,0.0,0.0,0.0
4788,1724813758235949044,-1.7346311807632446,-0.3175124228000641,0.154305562376976,0.025515040382742882,-0.02057623863220215,-0.4119957685470581,0.9105960130691528,0.0,0.0,0.0,0.0,0.0,0.0
4790,1724813758245646200,-1.7343182563781738,-0.3175821900367737,0.15436364710330963,0.02553573064506054,-0.020440252497792244,-0.4120897650718689,0.9105559587478638,0.0,0.0,0.0,0.0,0.0,0.0
4792,1724813758257928087,-1.7339541912078857,-0.31765636801719666,0.15449070930480957,0.025090420618653297,-0.02009766176342964,-0.41258755326271057,0.9103505611419678,0.0,0.0,0.0,0.0,0.0,0.0
4794,1724813758265231639,-1.7335679531097412,-0.31775766611099243,0.15456071496009827,0.024967750534415245,-0.01965518482029438,-0.4130626618862152,0.9101480841636658,0.0,0.0,0.0,0.0,0.0,0.0
4796,1724813758276266704,-1.73323392868042,-0.31768661737442017,0.15503257513046265,0.025326242670416832,-0.018935933709144592,-0.41406533122062683,0.9096977114677429,0.0,0.0,0.0,0.0,0.0,0.0
4798,1724813758285465369,-1.732803225517273,-0.31770697236061096,0.15536336600780487,0.025720596313476562,-0.018535494804382324,-0.41465887427330017,0.9094244837760925,0.0,0.0,0.0,0.0,0.0,0.0
4800,1724813758297769385,-1.732391119003296,-0.31789103150367737,0.1553792953491211,0.025248190388083458,-0.018824977800250053,-0.4146813750267029,0.9094215631484985,0.0,0.0,0.0,0.0,0.0,0.0
4802,1724813758305965795,-1.7319587469100952,-0.3180772364139557,0.15537162125110626,0.025259867310523987,-0.01925511285662651,-0.414398729801178,0.9095410704612732,0.0,0.0,0.0,0.0,0.0,0.0
4804,1724813758316325368,-1.7315514087677002,-0.31822970509529114,0.15543825924396515,0.024722030386328697,-0.01948561891913414,-0.41440683603286743,0.9095472693443298,0.0,0.0,0.0,0.0,0.0,0.0
4806,1724813758337184854,-1.731148362159729,-0.3184666037559509,0.15519937872886658,0.024181783199310303,-0.019996626302599907,-0.4139588475227356,0.9097546339035034,0.0,0.0,0.0,0.0,0.0,0.0
4808,1724813758337751442,-1.7306674718856812,-0.3185350000858307,0.1553121954202652,0.024081435054540634,-0.01967219077050686,-0.4144635498523712,0.9095345735549927,0.0,0.0,0.0,0.0,0.0,0.0
4810,1724813758345389943,-1.7302018404006958,-0.3185710906982422,0.15549351274967194,0.024185748770833015,-0.019219890236854553,-0.4149816930294037,0.9093050956726074,0.0,0.0,0.0,0.0,0.0,0.0
4812,1724813758355558418,-1.7297698259353638,-0.3186413645744324,0.15554757416248322,0.02423597127199173,-0.019332855939865112,-0.41499707102775574,0.9092944860458374,0.0,0.0,0.0,0.0,0.0,0.0
4814,1724813758365900192,-1.7293188571929932,-0.3187364339828491,0.1554771214723587,0.024523502215743065,-0.01990446075797081,-0.4148774743080139,0.9093289971351624,0.0,0.0,0.0,0.0,0.0,0.0
4816,1724813758375792203,-1.7288306951522827,-0.3189186751842499,0.1552375853061676,0.024113407358527184,-0.020340843126177788,-0.4149061143398285,0.909317135810852,0.0,0.0,0.0,0.0,0.0,0.0
4818,1724813758385254123,-1.7283445596694946,-0.3190009891986847,0.15520505607128143,0.02447432652115822,-0.020583806559443474,-0.4152557849884033,0.9091424345970154,0.0,0.0,0.0,0.0,0.0,0.0
4820,1724813758395879642,-1.7279095649719238,-0.3191241919994354,0.15512238442897797,0.024945490062236786,-0.021346071735024452,-0.4153597950935364,0.9090645909309387,0.0,0.0,0.0,0.0,0.0,0.0
4822,1724813758405363318,-1.7275168895721436,-0.3193110227584839,0.15493957698345184,0.024660414084792137,-0.023250143975019455,-0.4152856469154358,0.9090595245361328,0.0,0.0,0.0,0.0,0.0,0.0
4824,1724813758415616566,-1.7270469665527344,-0.3195141553878784,0.1548352688550949,0.024915071204304695,-0.023914480581879616,-0.4155977666378021,0.9088926315307617,0.0,0.0,0.0,0.0,0.0,0.0
4826,1724813758427572101,-1.72658371925354,-0.31962868571281433,0.15509557723999023,0.025655170902609825,-0.023527242243289948,-0.4165194630622864,0.9084601998329163,0.0,0.0,0.0,0.0,0.0,0.0
4828,1724813758435207384,-1.7261508703231812,-0.319902628660202,0.15509068965911865,0.02611682564020157,-0.023609017953276634,-0.41693851351737976,0.9082525968551636,0.0,0.0,0.0,0.0,0.0,0.0
4830,1724813758445827531,-1.725705862045288,-0.32022660970687866,0.15511170029640198,0.02633005753159523,-0.02380557358264923,-0.41740676760673523,0.9080262780189514,0.0,0.0,0.0,0.0,0.0,0.0
4832,1724813758455442516,-1.7252298593521118,-0.3206034004688263,0.15508972108364105,0.025774188339710236,-0.023825760930776596,-0.4179586172103882,0.9077877402305603,0.0,0.0,0.0,0.0,0.0,0.0
4834,1724813758465840665,-1.724732756614685,-0.32106921076774597,0.1548353135585785,0.025004124268889427,-0.024160832166671753,-0.41835373640060425,0.907618522644043,0.0,0.0,0.0,0.0,0.0,0.0
4836,1724813758477326598,-1.724184274673462,-0.3215080797672272,0.1547655612230301,0.024477936327457428,-0.024909580126404762,-0.41825544834136963,0.9076579213142395,0.0,0.0,0.0,0.0,0.0,0.0
4838,1724813758485399089,-1.7235944271087646,-0.3219090700149536,0.1549225002527237,0.024756181985139847,-0.023403186351060867,-0.4184897541999817,0.9075824618339539,0.0,0.0,0.0,0.0,0.0,0.0
4840,1724813758523500191,-1.7230523824691772,-0.3221852481365204,0.15534619987010956,0.023890333250164986,-0.02209060825407505,-0.4186941385269165,0.9075441956520081,0.0,0.0,0.0,0.0,0.0,0.0
4842,1724813758523883532,-1.7224217653274536,-0.322743684053421,0.15517067909240723,0.022862393409013748,-0.02342456951737404,-0.4176956117153168,0.9079972505569458,0.0,0.0,0.0,0.0,0.0,0.0
4844,1724813758524141396,-1.7217843532562256,-0.3232106864452362,0.15534424781799316,0.022892432287335396,-0.02341531589627266,-0.41741305589675903,0.908126711845398,0.0,0.0,0.0,0.0,0.0,0.0
4846,1724813758530993172,-1.7210201025009155,-0.3235991895198822,0.15579721331596375,0.026626311242580414,-0.023087287321686745,-0.4170766770839691,0.908187747001648,0.0,0.0,0.0,0.0,0.0,0.0
4848,1724813758535549805,-1.7204742431640625,-0.32393714785575867,0.15622830390930176,0.0237889364361763,-0.02109975926578045,-0.41744905710220337,0.9081438779830933,0.0,0.0,0.0,0.0,0.0,0.0
4850,1724813758545655257,-1.7198246717453003,-0.32453668117523193,0.15618212521076202,0.02307369001209736,-0.021258162334561348,-0.4169701635837555,0.908378541469574,0.0,0.0,0.0,0.0,0.0,0.0
4852,1724813758555598744,-1.719077467918396,-0.3250574767589569,0.156158447265625,0.024472644552588463,-0.022826973348855972,-0.4158457815647125,0.9088192582130432,0.0,0.0,0.0,0.0,0.0,0.0
4854,1724813758565275923,-1.7184181213378906,-0.3256039619445801,0.15606136620044708,0.024465713649988174,-0.02380102314054966,-0.41476449370384216,0.9092884063720703,0.0,0.0,0.0,0.0,0.0,0.0
4856,1724813758575655425,-1.7177551984786987,-0.3260875344276428,0.1561051607131958,0.023635851219296455,-0.023480558767914772,-0.4143035113811493,0.9095288515090942,0.0,0.0,0.0,0.0,0.0,0.0
4858,1724813758585525972,-1.7171443700790405,-0.3264806270599365,0.156359001994133,0.02336174063384533,-0.023510782048106194,-0.4142763018608093,0.9095475673675537,0.0,0.0,0.0,0.0,0.0,0.0
4860,1724813758596449899,-1.7164477109909058,-0.32714277505874634,0.15623128414154053,0.02242061123251915,-0.024268249049782753,-0.4130514860153198,0.9101080894470215,0.0,0.0,0.0,0.0,0.0,0.0
4862,1724813758605303555,-1.7158262729644775,-0.32749271392822266,0.1566607654094696,0.021838460117578506,-0.023739751428365707,-0.41310229897499084,0.9101132154464722,0.0,0.0,0.0,0.0,0.0,0.0
4864,1724813758616082733,-1.7152807712554932,-0.3281136453151703,0.15664902329444885,0.020328493788838387,-0.02357284165918827,-0.41299474239349365,0.910201370716095,0.0,0.0,0.0,0.0,0.0,0.0
4866,1724813758625305213,-1.7147330045700073,-0.32864615321159363,0.1568739414215088,0.01978849619626999,-0.022965382784605026,-0.4131197929382324,0.9101720452308655,0.0,0.0,0.0,0.0,0.0,0.0
4868,1724813758638043479,-1.7143129110336304,-0.3290528953075409,0.15727312862873077,0.01951649785041809,-0.02405596151947975,-0.41240233182907104,0.9104750156402588,0.0,0.0,0.0,0.0,0.0,0.0
4870,1724813758645359846,-1.7137583494186401,-0.3297044038772583,0.1573350876569748,0.02226300723850727,-0.023959241807460785,-0.41172128915786743,0.9107227325439453,0.0,0.0,0.0,0.0,0.0,0.0
4872,1724813758655668740,-1.7134499549865723,-0.3301664888858795,0.15754719078540802,0.018844207748770714,-0.023372190073132515,-0.4122123718261719,0.9105930924415588,0.0,0.0,0.0,0.0,0.0,0.0
4874,1724813758665753711,-1.7130979299545288,-0.33075112104415894,0.1575598418712616,0.01836751587688923,-0.0239240862429142,-0.41168680787086487,0.9108262062072754,0.0,0.0,0.0,0.0,0.0,0.0
4876,1724813758676844247,-1.7127352952957153,-0.3312939405441284,0.157528817653656,0.017979726195335388,-0.024654755368828773,-0.4112762212753296,0.9109998941421509,0.0,0.0,0.0,0.0,0.0,0.0
4878,1724813758685216438,-1.7123693227767944,-0.33181580901145935,0.1575353741645813,0.017896387726068497,-0.024894384667277336,-0.41120266914367676,0.9110281467437744,0.0,0.0,0.0,0.0,0.0,0.0
4880,1724813758695788293,-1.711978793144226,-0.3322688341140747,0.15759964287281036,0.01812279038131237,-0.02491748332977295,-0.41115519404411316,0.9110445976257324,0.0,0.0,0.0,0.0,0.0,0.0
4882,1724813758705450560,-1.7116262912750244,-0.33284348249435425,0.1573549211025238,0.018058378249406815,-0.025309817865490913,-0.4110668897628784,0.9110747575759888,0.0,0.0,0.0,0.0,0.0,0.0
4884,1724813758715411449,-1.7112137079238892,-0.33328795433044434,0.15730156004428864,0.018637765198946,-0.02571881003677845,-0.41052788496017456,0.91129469871521,0.0,0.0,0.0,0.0,0.0,0.0
4886,1724813758726413512,-1.7107728719711304,-0.33372175693511963,0.15731686353683472,0.019426310434937477,-0.02465950883924961,-0.4105891287326813,0.9112799167633057,0.0,0.0,0.0,0.0,0.0,0.0
4888,1724813758735226907,-1.7103588581085205,-0.3342016637325287,0.15720678865909576,0.019205406308174133,-0.025165056809782982,-0.41034266352653503,0.9113818407058716,0.0,0.0,0.0,0.0,0.0,0.0
4890,1724813758745608534,-1.7100653648376465,-0.33472108840942383,0.1568506956100464,0.017268896102905273,-0.027690958231687546,-0.40942656993865967,0.9117591977119446,0.0,0.0,0.0,0.0,0.0,0.0
4892,1724813758756242984,-1.7096506357192993,-0.33521538972854614,0.1565781831741333,0.01693502441048622,-0.028925985097885132,-0.40885138511657715,0.9119852781295776,0.0,0.0,0.0,0.0,0.0,0.0
4894,1724813758765163697,-1.7092173099517822,-0.3356073498725891,0.1566646248102188,0.016815852373838425,-0.02940266579389572,-0.4089905321598053,0.911909818649292,0.0,0.0,0.0,0.0,0.0,0.0
4896,1724813758780596118,-1.7087663412094116,-0.3360927999019623,0.15653735399246216,0.016061872243881226,-0.02991996705532074,-0.40922239422798157,0.9118025302886963,0.0,0.0,0.0,0.0,0.0,0.0
4898,1724813758786546326,-1.7083548307418823,-0.3365093767642975,0.15655505657196045,0.015656491741538048,-0.03001980669796467,-0.4095453917980194,0.9116612076759338,0.0,0.0,0.0,0.0,0.0,0.0
4900,1724813758797054926,-1.7079116106033325,-0.33679625391960144,0.1568395495414734,0.016358906403183937,-0.029822280630469322,-0.4100585877895355,0.9114246964454651,0.0,0.0,0.0,0.0,0.0,0.0
4902,1724813758806626105,-1.7075845003128052,-0.3371858298778534,0.15693041682243347,0.015708187595009804,-0.029600756242871284,-0.4109196364879608,0.9110555052757263,0.0,0.0,0.0,0.0,0.0,0.0
4904,1724813758815322715,-1.707148790359497,-0.33756253123283386,0.15716785192489624,0.01668461412191391,-0.027753286063671112,-0.4116891324520111,0.9107488393783569,0.0,0.0,0.0,0.0,0.0,0.0
4906,1724813758828479387,-1.7067517042160034,-0.3383016884326935,0.1568652242422104,0.015927068889141083,-0.028807055205106735,-0.4108189046382904,0.9111225605010986,0.0,0.0,0.0,0.0,0.0,0.0
4908,1724813758835902478,-1.7063732147216797,-0.3388518989086151,0.15682744979858398,0.015850476920604706,-0.029120489954948425,-0.41058987379074097,0.911217212677002,0.0,0.0,0.0,0.0,0.0,0.0
4910,1724813758845431608,-1.7060366868972778,-0.33940908312797546,0.15668602287769318,0.015168496407568455,-0.03083472140133381,-0.40975895524024963,0.9115463495254517,0.0,0.0,0.0,0.0,0.0,0.0
4912,1724813758856097686,-1.7056435346603394,-0.3398863673210144,0.1567968875169754,0.015053126960992813,-0.030654631555080414,-0.40993979573249817,0.9114730358123779,0.0,0.0,0.0,0.0,0.0,0.0
4914,1724813758866080992,-1.7052727937698364,-0.34036633372306824,0.1568072885274887,0.015170742757618427,-0.030974222347140312,-0.40976482629776,0.9115390181541443,0.0,0.0,0.0,0.0,0.0,0.0
4916,1724813758877748137,-1.7048894166946411,-0.34077635407447815,0.15715035796165466,0.01639995537698269,-0.03130056709051132,-0.41021251678466797,0.9113051891326904,0.0,0.0,0.0,0.0,0.0,0.0
4918,1724813758885735939,-1.7044126987457275,-0.3412417769432068,0.15741460025310516,0.01689179614186287,-0.03132862225174904,-0.4107085168361664,0.9110717177391052,0.0,0.0,0.0,0.0,0.0,0.0
4920,1724813758895998508,-1.703981637954712,-0.34174057841300964,0.1575535386800766,0.015637513250112534,-0.030470678582787514,-0.41133442521095276,0.9108408093452454,0.0,0.0,0.0,0.0,0.0,0.0
4922,1724813758905874396,-1.7035366296768188,-0.3422394394874573,0.15784382820129395,0.015827693045139313,-0.028659354895353317,-0.4121553599834442,0.9105251431465149,0.0,0.0,0.0,0.0,0.0,0.0
4924,1724813758916253787,-1.7031608819961548,-0.34313276410102844,0.1573595553636551,0.014373604208230972,-0.02996845915913582,-0.41181671619415283,0.910660445690155,0.0,0.0,0.0,0.0,0.0,0.0
4926,1724813758926362235,-1.7027947902679443,-0.3437739908695221,0.15727004408836365,0.014025389216840267,-0.030419833958148956,-0.41188761591911316,0.9106188416481018,0.0,0.0,0.0,0.0,0.0,0.0
4928,1724813758935835541,-1.7025119066238403,-0.3445282280445099,0.1568906158208847,0.012836066074669361,-0.03315318003296852,-0.4103941321372986,0.91121506690979,0.0,0.0,0.0,0.0,0.0,0.0
4930,1724813758946057539,-1.7022300958633423,-0.3451809585094452,0.1567942202091217,0.012021786533296108,-0.033836960792541504,-0.4100819528102875,0.9113415479660034,0.0,0.0,0.0,0.0,0.0,0.0
4932,1724813758955479921,-1.7019551992416382,-0.34580159187316895,0.15683366358280182,0.012040242552757263,-0.034320004284381866,-0.40997010469436646,0.911373496055603,0.0,0.0,0.0,0.0,0.0,0.0
4934,1724813758965207770,-1.7017688751220703,-0.3462558090686798,0.15711210668087006,0.012321465648710728,-0.03411218896508217,-0.41025564074516296,0.9112491607666016,0.0,0.0,0.0,0.0,0.0,0.0
4936,1724813758977735908,-1.7015849351882935,-0.3468606770038605,0.157159686088562,0.012294173240661621,-0.034308213740587234,-0.4103924632072449,0.9111804366111755,0.0,0.0,0.0,0.0,0.0,0.0
4938,1724813758985377171,-1.701344609260559,-0.3473009765148163,0.1574743539094925,0.012752801179885864,-0.03350262716412544,-0.4112647771835327,0.9108107686042786,0.0,0.0,0.0,0.0,0.0,0.0
4940,1724813758998017649,-1.7012550830841064,-0.3480222523212433,0.15720288455486298,0.012370068579912186,-0.03443948179483414,-0.4111320376396179,0.9108409881591797,0.0,0.0,0.0,0.0,0.0,0.0
4942,1724813759006310597,-1.7010124921798706,-0.34839877486228943,0.15772832930088043,0.013890128582715988,-0.03220950812101364,-0.4124053418636322,0.9103249311447144,0.0,0.0,0.0,0.0,0.0,0.0
4944,1724813759015155377,-1.7009246349334717,-0.3492945432662964,0.1570470631122589,0.012141833081841469,-0.035402048379182816,-0.410887748003006,0.9109174013137817,0.0,0.0,0.0,0.0,0.0,0.0
4946,1724813759026401259,-1.700757622718811,-0.34979507327079773,0.1572125256061554,0.01274834293872118,-0.03416328877210617,-0.41183698177337646,0.9105277061462402,0.0,0.0,0.0,0.0,0.0,0.0
4948,1724813759051817955,-1.7006555795669556,-0.35012006759643555,0.15755267441272736,0.013277728110551834,-0.0332544781267643,-0.4126286804676056,0.9101953506469727,0.0,0.0,0.0,0.0,0.0,0.0
4950,1724813759052179805,-1.7005467414855957,-0.3506220579147339,0.15763550996780396,0.013204935006797314,-0.03314930200576782,-0.41297703981399536,0.9100422263145447,0.0,0.0,0.0,0.0,0.0,0.0
4952,1724813759056040818,-1.7004609107971191,-0.3511371612548828,0.15774546563625336,0.012764419429004192,-0.032837875187397,-0.41385617852211,0.909660279750824,0.0,0.0,0.0,0.0,0.0,0.0
4954,1724813759065227764,-1.700415015220642,-0.3517986238002777,0.1574065238237381,0.011464037001132965,-0.03368359059095383,-0.41390126943588257,0.9096261858940125,0.0,0.0,0.0,0.0,0.0,0.0
4956,1724813759079874426,-1.7002896070480347,-0.35227248072624207,0.15744580328464508,0.0113030094653368,-0.03384924307465553,-0.4142444133758545,0.9094657897949219,0.0,0.0,0.0,0.0,0.0,0.0
4958,1724813759085488579,-1.700202465057373,-0.3530031144618988,0.15696391463279724,0.010550504550337791,-0.03488916531205177,-0.4138191044330597,0.909629225730896,0.0,0.0,0.0,0.0,0.0,0.0
4960,1724813759095914143,-1.7000315189361572,-0.35338035225868225,0.15717154741287231,0.011146558448672295,-0.034779708832502365,-0.41407597064971924,0.9095093011856079,0.0,0.0,0.0,0.0,0.0,0.0
4962,1724813759105447646,-1.699954867362976,-0.3538430631160736,0.157197043299675,0.010787127539515495,-0.03502100333571434,-0.4144115447998047,0.9093515276908875,0.0,0.0,0.0,0.0,0.0,0.0
4964,1724813759115544935,-1.699855089187622,-0.35432958602905273,0.15711882710456848,0.010669523850083351,-0.03513561934232712,-0.41468116641044617,0.909225583076477,0.0,0.0,0.0,0.0,0.0,0.0
4966,1724813759126072944,-1.6998004913330078,-0.3547731339931488,0.15722273290157318,0.010371406562626362,-0.035212207585573196,-0.4151877164840698,0.9089948534965515,0.0,0.0,0.0,0.0,0.0,0.0
4968,1724813759135622183,-1.6996629238128662,-0.3553582429885864,0.15710802376270294,0.010142424143850803,-0.03592809662222862,-0.4149174690246582,0.9090928435325623,0.0,0.0,0.0,0.0,0.0,0.0
4970,1724813759146120933,-1.699582576751709,-0.35605525970458984,0.15678095817565918,0.008976299315690994,-0.03827140852808952,-0.4138723313808441,0.9094858765602112,0.0,0.0,0.0,0.0,0.0,0.0
4972,1724813759158807636,-1.6994702816009521,-0.35656651854515076,0.15679915249347687,0.008618180640041828,-0.038638245314359665,-0.41411978006362915,0.9093611240386963,0.0,0.0,0.0,0.0,0.0,0.0
4974,1724813759165752282,-1.6993579864501953,-0.35702425241470337,0.15688453614711761,0.008663870394229889,-0.038352880626916885,-0.41451671719551086,0.909191906452179,0.0,0.0,0.0,0.0,0.0,0.0
4976,1724813759176102054,-1.6993038654327393,-0.3575302064418793,0.1568838506937027,0.008371609263122082,-0.038402259349823,-0.41475290060043335,0.9090847969055176,0.0,0.0,0.0,0.0,0.0,0.0
4978,1724813759185519455,-1.6991723775863647,-0.35826948285102844,0.15650752186775208,0.007659632712602615,-0.039170753210783005,-0.4143172800540924,0.9092569351196289,0.0,0.0,0.0,0.0,0.0,0.0
4980,1724813759195971951,-1.6990855932235718,-0.35876816511154175,0.15643982589244843,0.007569067645817995,-0.03939024731516838,-0.41445115208625793,0.9091871380805969,0.0,0.0,0.0,0.0,0.0,0.0
4982,1724813759205480278,-1.6990364789962769,-0.3593120872974396,0.1564040184020996,0.007457711733877659,-0.03994092717766762,-0.41421663761138916,0.9092709422111511,0.0,0.0,0.0,0.0,0.0,0.0
4984,1724813759215869882,-1.6990928649902344,-0.35962793231010437,0.15678860247135162,0.008224386721849442,-0.03931127488613129,-0.4148881733417511,0.9089856743812561,0.0,0.0,0.0,0.0,0.0,0.0
4986,1724813759226920441,-1.699089527130127,-0.3601681888103485,0.15680286288261414,0.008179206401109695,-0.03921957686543465,-0.4149051010608673,0.9089822173118591,0.0,0.0,0.0,0.0,0.0,0.0
4988,1724813759234930911,-1.6989805698394775,-0.36081162095069885,0.15669654309749603,0.008457099087536335,-0.038346871733665466,-0.4151747226715088,0.908893883228302,0.0,0.0,0.0,0.0,0.0,0.0
4990,1724813759246999126,-1.6989414691925049,-0.36118078231811523,0.15697555243968964,0.009023548103868961,-0.03791555389761925,-0.4156227707862854,0.9087017178535461,0.0,0.0,0.0,0.0,0.0,0.0
4992,1724813759261509652,-1.6988816261291504,-0.3616257905960083,0.15716998279094696,0.00886289868503809,-0.037604257464408875,-0.4162244200706482,0.9084407091140747,0.0,0.0,0.0,0.0,0.0,0.0
4994,1724813759265063881,-1.6988210678100586,-0.36208826303482056,0.15715427696704865,0.008847726508975029,-0.037504736334085464,-0.4164462387561798,0.9083433151245117,0.0,0.0,0.0,0.0,0.0,0.0
4996,1724813759276216189,-1.698772668838501,-0.3624446392059326,0.1571642905473709,0.008705433458089828,-0.03753459453582764,-0.4165384769439697,0.9083011746406555,0.0,0.0,0.0,0.0,0.0,0.0
4998,1724813759285624057,-1.6987287998199463,-0.36284855008125305,0.1571444422006607,0.008595019578933716,-0.037495024502277374,-0.41682758927345276,0.9081712365150452,0.0,0.0,0.0,0.0,0.0,0.0
5000,1724813759295375543,-1.69868004322052,-0.3632093071937561,0.15710650384426117,0.008422395214438438,-0.03751002252101898,-0.41690534353256226,0.9081365466117859,0.0,0.0,0.0,0.0,0.0,0.0
5002,1724813759306890240,-1.6987751722335815,-0.36380505561828613,0.1566869616508484,0.006484926678240299,-0.04064132273197174,-0.4151516854763031,0.9088209271430969,0.0,0.0,0.0,0.0,0.0,0.0
5004,1724813759317706805,-1.6988221406936646,-0.3640894591808319,0.15670336782932281,0.006093611940741539,-0.040755193680524826,-0.4155263602733612,0.9086471796035767,0.0,0.0,0.0,0.0,0.0,0.0
5006,1724813759327265789,-1.6987948417663574,-0.3643375337123871,0.15676581859588623,0.0061697037890553474,-0.04064445197582245,-0.41568562388420105,0.9085787534713745,0.0,0.0,0.0,0.0,0.0,0.0
5008,1724813759335830393,-1.6987773180007935,-0.3646579384803772,0.15675002336502075,0.00611033895984292,-0.04102668538689613,-0.41564685106277466,0.9085797667503357,0.0,0.0,0.0,0.0,0.0,0.0
5010,1724813759345998997,-1.6987415552139282,-0.36494800448417664,0.15672115981578827,0.005973425693809986,-0.04108535870909691,-0.4157458543777466,0.9085327386856079,0.0,0.0,0.0,0.0,0.0,0.0
5012,1724813759355407974,-1.698611855506897,-0.36537158489227295,0.15649600327014923,0.005666176322847605,-0.04124924913048744,-0.4158293902873993,0.9084890484809875,0.0,0.0,0.0,0.0,0.0,0.0
5014,1724813759366061699,-1.6984953880310059,-0.36565619707107544,0.15653589367866516,0.006493453402072191,-0.04005640000104904,-0.41593387722969055,0.9084890484809875,0.0,0.0,0.0,0.0,0.0,0.0
5016,1724813759377553424,-1.6984033584594727,-0.365956574678421,0.1564682573080063,0.0066361743956804276,-0.04009553790092468,-0.41564029455184937,0.9086207151412964,0.0,0.0,0.0,0.0,0.0,0.0
5018,1724813759419724390,-1.6983518600463867,-0.3662244379520416,0.1564951092004776,0.006414457689970732,-0.040452856570482254,-0.41582223773002625,0.9085232019424438,0.0,0.0,0.0,0.0,0.0,0.0
5020,1724813759420712536,-1.698270559310913,-0.3664622902870178,0.15646836161613464,0.0064988527446985245,-0.04071364924311638,-0.41568708419799805,0.908572793006897,0.0,0.0,0.0,0.0,0.0,0.0
5022,1724813759421180678,-1.6981631517410278,-0.3667410612106323,0.15653522312641144,0.006495273672044277,-0.04082261398434639,-0.4158828854560852,0.9084782004356384,0.0,0.0,0.0,0.0,0.0,0.0
5024,1724813759421607918,-1.698020577430725,-0.36701178550720215,0.1566469371318817,0.006484865676611662,-0.04072576016187668,-0.4162626564502716,0.908308744430542,0.0,0.0,0.0,0.0,0.0,0.0
5026,1724813759435214099,-1.6979042291641235,-0.36717116832733154,0.1568569839000702,0.005848221480846405,-0.04152536764740944,-0.41702425479888916,0.9079274535179138,0.0,0.0,0.0,0.0,0.0,0.0
5028,1724813759435673262,-1.6977198123931885,-0.36739301681518555,0.15689300000667572,0.005834324285387993,-0.04183658957481384,-0.4173370599746704,0.907769501209259,0.0,0.0,0.0,0.0,0.0,0.0
5030,1724813759446130487,-1.6974998712539673,-0.36764970421791077,0.15706293284893036,0.006858607288450003,-0.0406411811709404,-0.417704313993454,0.9076477289199829,0.0,0.0,0.0,0.0,0.0,0.0
5032,1724813759455946788,-1.6973304748535156,-0.36799052357673645,0.15707190334796906,0.006828499026596546,-0.040646668523550034,-0.41777491569519043,0.9076151847839355,0.0,0.0,0.0,0.0,0.0,0.0
5034,1724813759465664644,-1.697163462638855,-0.3683053255081177,0.157039612531662,0.0066647944040596485,-0.04095214232802391,-0.4178149104118347,0.9075842499732971,0.0,0.0,0.0,0.0,0.0,0.0
5036,1724813759476704317,-1.6970233917236328,-0.3685992658138275,0.15707649290561676,0.006457486655563116,-0.040944233536720276,-0.41826850175857544,0.9073772430419922,0.0,0.0,0.0,0.0,0.0,0.0
5038,1724813759485092045,-1.6968475580215454,-0.36887314915657043,0.1570662260055542,0.006367999594658613,-0.0410689152777195,-0.41866886615753174,0.9071875214576721,0.0,0.0,0.0,0.0,0.0,0.0
5040,1724813759495771929,-1.6966851949691772,-0.36917099356651306,0.15706773102283478,0.006344425026327372,-0.04109157994389534,-0.4189683496952057,0.9070483446121216,0.0,0.0,0.0,0.0,0.0,0.0
5042,1724813759505869869,-1.6965062618255615,-0.369584321975708,0.15682391822338104,0.005741942208260298,-0.041132472455501556,-0.4192561209201813,0.9069175124168396,0.0,0.0,0.0,0.0,0.0,0.0
5044,1724813759515281730,-1.6963151693344116,-0.3698892593383789,0.1567760854959488,0.005591544788330793,-0.04112819582223892,-0.41967740654945374,0.9067237973213196,0.0,0.0,0.0,0.0,0.0,0.0
5046,1724813759537309278,-1.6960978507995605,-0.3701700270175934,0.1567113697528839,0.005708881188184023,-0.04139828309416771,-0.4198322594165802,0.9066391587257385,0.0,0.0,0.0,0.0,0.0,0.0
5048,1724813759537676456,-1.69590163230896,-0.37048423290252686,0.15666116774082184,0.005323641002178192,-0.041599974036216736,-0.4200427532196045,0.906534731388092,0.0,0.0,0.0,0.0,0.0,0.0
5050,1724813759545693017,-1.6956886053085327,-0.370807945728302,0.15659426152706146,0.005632786080241203,-0.04183710739016533,-0.42014893889427185,0.9064728021621704,0.0,0.0,0.0,0.0,0.0,0.0
5052,1724813759555685328,-1.6955453157424927,-0.3710344433784485,0.1568206399679184,0.005792253650724888,-0.04201560094952583,-0.4206629991531372,0.9062250256538391,0.0,0.0,0.0,0.0,0.0,0.0
5054,1724813759566594450,-1.695334553718567,-0.3714025616645813,0.1568140685558319,0.005635546520352364,-0.04241133853793144,-0.4207421541213989,0.9061709046363831,0.0,0.0,0.0,0.0,0.0,0.0
5056,1724813759579316067,-1.695106863975525,-0.3718048930168152,0.15687872469425201,0.005296538583934307,-0.04256397485733032,-0.4208417534828186,0.9061195254325867,0.0,0.0,0.0,0.0,0.0,0.0
5058,1724813759585713709,-1.6947875022888184,-0.3722419738769531,0.1567700058221817,0.005402174312621355,-0.04264204949140549,-0.420573353767395,0.9062397480010986,0.0,0.0,0.0,0.0,0.0,0.0
5060,1724813759595486834,-1.6945383548736572,-0.3726079761981964,0.15681974589824677,0.005454379133880138,-0.04254245385527611,-0.4208807647228241,0.906101405620575,0.0,0.0,0.0,0.0,0.0,0.0
5062,1724813759605597587,-1.6943358182907104,-0.3728199601173401,0.1571251004934311,0.006091328803449869,-0.042104288935661316,-0.4216485023498535,0.9057608246803284,0.0,0.0,0.0,0.0,0.0,0.0
5064,1724813759615420145,-1.694133996963501,-0.373157262802124,0.15711256861686707,0.00678423373028636,-0.04265790432691574,-0.42146700620651245,0.905814528465271,0.0,0.0,0.0,0.0,0.0,0.0
5066,1724813759625554989,-1.6939364671707153,-0.3734906315803528,0.15689894556999207,0.005974174477159977,-0.042405445128679276,-0.4215385913848877,0.9057986736297607,0.0,0.0,0.0,0.0,0.0,0.0
5068,1724813759635395604,-1.6936765909194946,-0.3737441301345825,0.1568763554096222,0.0064390432089567184,-0.04273722320795059,-0.42181822657585144,0.9056497812271118,0.0,0.0,0.0,0.0,0.0,0.0
5070,1724813759647506662,-1.6934285163879395,-0.37391480803489685,0.1569366455078125,0.00571175804361701,-0.04217130318284035,-0.4227091670036316,0.9052656292915344,0.0,0.0,0.0,0.0,0.0,0.0
5072,1724813759655878110,-1.693257451057434,-0.3739476203918457,0.15727004408836365,0.0059534660540521145,-0.04194670170545578,-0.423674076795578,0.9048233032226562,0.0,0.0,0.0,0.0,0.0,0.0
5074,1724813759665660707,-1.6930428743362427,-0.3741658926010132,0.15719112753868103,0.005711181554943323,-0.04234428331255913,-0.42368078231811523,0.9048032164573669,0.0,0.0,0.0,0.0,0.0,0.0
5076,1724813759676666140,-1.6927616596221924,-0.374234676361084,0.1575300395488739,0.005887190345674753,-0.04210546612739563,-0.4245851933956146,0.9043892025947571,0.0,0.0,0.0,0.0,0.0,0.0
5078,1724813759685381509,-1.6925173997879028,-0.3744821846485138,0.15745943784713745,0.005666964687407017,-0.04230581223964691,-0.4245601296424866,0.9043931365013123,0.0,0.0,0.0,0.0,0.0,0.0
5080,1724813759696369888,-1.6922541856765747,-0.3747221827507019,0.15747341513633728,0.00557347945868969,-0.04231049120426178,-0.4249899089336395,0.9041915535926819,0.0,0.0,0.0,0.0,0.0,0.0
5082,1724813759705381256,-1.691968321800232,-0.374916672706604,0.15748819708824158,0.005352384876459837,-0.04254964739084244,-0.4252983331680298,0.9040365815162659,0.0,0.0,0.0,0.0,0.0,0.0
5084,1724813759715577955,-1.6916887760162354,-0.37515461444854736,0.15747888386249542,0.0056657507084310055,-0.042768437415361404,-0.42561960220336914,0.9038731455802917,0.0,0.0,0.0,0.0,0.0,0.0
5086,1724813759726891075,-1.6913396120071411,-0.3754652738571167,0.15733623504638672,0.005916200578212738,-0.04283297806978226,-0.4257993996143341,0.9037838578224182,0.0,0.0,0.0,0.0,0.0,0.0
5088,1724813759735617676,-1.6910107135772705,-0.3756696581840515,0.15735532343387604,0.005764186382293701,-0.04277460277080536,-0.4263770878314972,0.9035151600837708,0.0,0.0,0.0,0.0,0.0,0.0
5090,1724813759747279481,-1.6907265186309814,-0.3760116696357727,0.1570546180009842,0.004889371804893017,-0.04327399283647537,-0.4261161983013153,0.9036197066307068,0.0,0.0,0.0,0.0,0.0,0.0
5092,1724813759755203826,-1.6904174089431763,-0.37624391913414,0.1570415496826172,0.005375854671001434,-0.04382512718439102,-0.4262303411960602,0.9035364985466003,0.0,0.0,0.0,0.0,0.0,0.0
5094,1724813759765299785,-1.6900994777679443,-0.37649306654930115,0.15699642896652222,0.005331769585609436,-0.043945759534835815,-0.4263882339000702,0.9034563899040222,0.0,0.0,0.0,0.0,0.0,0.0
5096,1724813759778461893,-1.6897727251052856,-0.3766954839229584,0.15699198842048645,0.004852685146033764,-0.04375610500574112,-0.4266623556613922,0.9033388495445251,0.0,0.0,0.0,0.0,0.0,0.0
5098,1724813759785836282,-1.6894062757492065,-0.376756876707077,0.157335564494133,0.005701230838894844,-0.04334224388003349,-0.4275999069213867,0.9029104709625244,0.0,0.0,0.0,0.0,0.0,0.0
5100,1724813759795702395,-1.689118504524231,-0.37701308727264404,0.15709498524665833,0.005173865705728531,-0.043513160198926926,-0.42778903245925903,0.9028158187866211,0.0,0.0,0.0,0.0,0.0,0.0
5102,1724813759806448114,-1.6887162923812866,-0.37719792127609253,0.15711858868598938,0.005455803591758013,-0.043726302683353424,-0.4280560314655304,0.9026772975921631,0.0,0.0,0.0,0.0,0.0,0.0
5104,1724813759815466603,-1.688327431678772,-0.3772611618041992,0.15734203159809113,0.005961202085018158,-0.043420299887657166,-0.42880159616470337,0.9023349285125732,0.0,0.0,0.0,0.0,0.0,0.0
5106,1724813759827571723,-1.6879734992980957,-0.37744268774986267,0.1572515070438385,0.005378118250519037,-0.044540081173181534,-0.42924511432647705,0.9020731449127197,0.0,0.0,0.0,0.0,0.0,0.0
5108,1724813759835203948,-1.6876018047332764,-0.37756702303886414,0.15729883313179016,0.004989073146134615,-0.044340819120407104,-0.42995771765708923,0.9017457365989685,0.0,0.0,0.0,0.0,0.0,0.0
5110,1724813759845402281,-1.687239646911621,-0.3776914179325104,0.15736542642116547,0.005015780683606863,-0.04392603039741516,-0.43063876032829285,0.9014409184455872,0.0,0.0,0.0,0.0,0.0,0.0
5112,1724813759855578308,-1.6868196725845337,-0.3777522146701813,0.15763118863105774,0.006351328920572996,-0.04213276505470276,-0.4313294589519501,0.9011877775192261,0.0,0.0,0.0,0.0,0.0,0.0
5114,1724813759866055774,-1.6864575147628784,-0.37792515754699707,0.15758922696113586,0.006488055922091007,-0.04248601198196411,-0.4309259057044983,0.9013631939888,0.0,0.0,0.0,0.0,0.0,0.0
5116,1724813759876467847,-1.6860896348953247,-0.3780312240123749,0.15764077007770538,0.006971918512135744,-0.04231495410203934,-0.43069037795066833,0.9014802575111389,0.0,0.0,0.0,0.0,0.0,0.0
5118,1724813759885326962,-1.6856601238250732,-0.3782200813293457,0.15762554109096527,0.0076790452003479,-0.04307365044951439,-0.43011659383773804,0.9017124772071838,0.0,0.0,0.0,0.0,0.0,0.0
5120,1724813759896914080,-1.6852083206176758,-0.3783266544342041,0.1575867235660553,0.007749832235276699,-0.043593768030405045,-0.4297509789466858,0.9018611907958984,0.0,0.0,0.0,0.0,0.0,0.0
5122,1724813759905941105,-1.6847772598266602,-0.37847721576690674,0.15722788870334625,0.006183945573866367,-0.0456320196390152,-0.42862144112586975,0.9023098349571228,0.0,0.0,0.0,0.0,0.0,0.0
5124,1724813759915667006,-1.684299349784851,-0.37846308946609497,0.15726841986179352,0.006170401815325022,-0.045940984040498734,-0.4284142851829529,0.9023926854133606,0.0,0.0,0.0,0.0,0.0,0.0
5126,1724813759926344377,-1.683800220489502,-0.37841999530792236,0.15727736055850983,0.005322625394910574,-0.0459606796503067,-0.4281962811946869,0.9025006294250488,0.0,0.0,0.0,0.0,0.0,0.0
5128,1724813759935517648,-1.6831759214401245,-0.3783511221408844,0.15732455253601074,0.006367035675793886,-0.04624946415424347,-0.42809057235717773,0.9025291800498962,0.0,0.0,0.0,0.0,0.0,0.0
5130,1724813759946612721,-1.6825469732284546,-0.37818029522895813,0.1576017439365387,0.0073277391493320465,-0.04579265043139458,-0.42851096391677856,0.9023457169532776,0.0,0.0,0.0,0.0,0.0,0.0
5132,1724813759955303473,-1.6819709539413452,-0.3781220018863678,0.15761323273181915,0.00829858798533678,-0.046409863978624344,-0.4282715916633606,0.90241938829422,0.0,0.0,0.0,0.0,0.0,0.0
5134,1724813759965888239,-1.6814278364181519,-0.37804877758026123,0.15784196555614471,0.00886885542422533,-0.04520562291145325,-0.4283014237880707,0.9024609327316284,0.0,0.0,0.0,0.0,0.0,0.0
5136,1724813759977746275,-1.6810054779052734,-0.37795788049697876,0.15806889533996582,0.007323915604501963,-0.04475736618041992,-0.4281803369522095,0.9025545716285706,0.0,0.0,0.0,0.0,0.0,0.0
5138,1724813759985019961,-1.6804866790771484,-0.37798556685447693,0.1580629199743271,0.007184568326920271,-0.04507336765527725,-0.42772814631462097,0.9027543067932129,0.0,0.0,0.0,0.0,0.0,0.0
5140,1724813759996189647,-1.679964303970337,-0.3779219388961792,0.15809385478496552,0.006947849411517382,-0.04505017772316933,-0.42762014269828796,0.9028085470199585,0.0,0.0,0.0,0.0,0.0,0.0
5142,1724813760008556948,-1.6794661283493042,-0.37804755568504333,0.1578526347875595,0.006977923680096865,-0.045493341982364655,-0.42688506841659546,0.9031338691711426,0.0,0.0,0.0,0.0,0.0,0.0
5144,1724813760015163996,-1.6789889335632324,-0.3780345022678375,0.15786847472190857,0.0065913754515349865,-0.0456654392182827,-0.42668238282203674,0.9032239317893982,0.0,0.0,0.0,0.0,0.0,0.0
5146,1724813760030016006,-1.6784203052520752,-0.37804529070854187,0.15764127671718597,0.006091045215725899,-0.04695737734436989,-0.42606064677238464,0.903454601764679,0.0,0.0,0.0,0.0,0.0,0.0
5148,1724813760035452557,-1.6778863668441772,-0.3779286742210388,0.1577475219964981,0.004902963060885668,-0.046363718807697296,-0.4262232184410095,0.9034157991409302,0.0,0.0,0.0,0.0,0.0,0.0
5150,1724813760045546575,-1.6773252487182617,-0.37787583470344543,0.15778052806854248,0.00510040670633316,-0.0465133972465992,-0.42572256922721863,0.9036430716514587,0.0,0.0,0.0,0.0,0.0,0.0
5152,1724813760056890165,-1.6767040491104126,-0.37777945399284363,0.15790697932243347,0.004728620406240225,-0.045987021178007126,-0.4260447025299072,0.9035202264785767,0.0,0.0,0.0,0.0,0.0,0.0
5154,1724813760065323100,-1.6760987043380737,-0.37768682837486267,0.15797990560531616,0.004627227783203125,-0.04576386511325836,-0.42613574862480164,0.9034891128540039,0.0,0.0,0.0,0.0,0.0,0.0
5156,1724813760085674198,-1.6756172180175781,-0.3776336908340454,0.15804189443588257,0.003158968174830079,-0.04503510892391205,-0.4259532690048218,0.9036181569099426,0.0,0.0,0.0,0.0,0.0,0.0
5158,1724813760085945858,-1.675048589706421,-0.3776296377182007,0.1579984575510025,0.0038658941630274057,-0.04555569961667061,-0.425239622592926,0.903925359249115,0.0,0.0,0.0,0.0,0.0,0.0
5160,1724813760095537030,-1.6745991706848145,-0.37754833698272705,0.15813389420509338,0.0033630267716944218,-0.04573366045951843,-0.42538464069366455,0.9038500785827637,0.0,0.0,0.0,0.0,0.0,0.0
5162,1724813760105524373,-1.6740903854370117,-0.3775617182254791,0.1581616997718811,0.0028332697693258524,-0.046034134924411774,-0.4251626431941986,0.9039411544799805,0.0,0.0,0.0,0.0,0.0,0.0
5164,1724813760115252154,-1.6735615730285645,-0.3776349127292633,0.15819557011127472,0.0029910560697317123,-0.04640403389930725,-0.4252268373966217,0.9038915634155273,0.0,0.0,0.0,0.0,0.0,0.0
5166,1724813760126203913,-1.6729660034179688,-0.3777761161327362,0.15818557143211365,0.0028873304836452007,-0.04623426869511604,-0.4255620837211609,0.9037428498268127,0.0,0.0,0.0,0.0,0.0,0.0
5168,1724813760135337777,-1.672481656074524,-0.377779483795166,0.15841472148895264,0.0029393343720585108,-0.0457075797021389,-0.4259750545024872,0.9035748243331909,0.0,0.0,0.0,0.0,0.0,0.0
5170,1724813760145818739,-1.6720657348632812,-0.3780210018157959,0.15827861428260803,0.0024945868644863367,-0.04611494764685631,-0.4258098304271698,0.9036333560943604,0.0,0.0,0.0,0.0,0.0,0.0
5172,1724813760155772329,-1.6716349124908447,-0.37811774015426636,0.15846729278564453,0.0033082927111536264,-0.04468056932091713,-0.426148384809494,0.9035432934761047,0.0,0.0,0.0,0.0,0.0,0.0
5174,1724813760166767298,-1.671248435974121,-0.3782932758331299,0.15839983522891998,0.002322495449334383,-0.04580555483698845,-0.42600852251052856,0.9035558700561523,0.0,0.0,0.0,0.0,0.0,0.0
5176,1724813760175939440,-1.6707439422607422,-0.37838101387023926,0.1585075855255127,0.0038532796315848827,-0.04513942822813988,-0.42614269256591797,0.9035210013389587,0.0,0.0,0.0,0.0,0.0,0.0
5178,1724813760185372700,-1.6703649759292603,-0.37837162613868713,0.1587589532136917,0.0042905197478830814,-0.04487677291035652,-0.4264068901538849,0.9034073352813721,0.0,0.0,0.0,0.0,0.0,0.0
5180,1724813760195563887,-1.669985055923462,-0.378478080034256,0.15883319079875946,0.004943292587995529,-0.044975630939006805,-0.4263511896133423,0.9034253358840942,0.0,0.0,0.0,0.0,0.0,0.0
5182,1724813760205968260,-1.6696481704711914,-0.37846025824546814,0.15911075472831726,0.005014313384890556,-0.044661764055490494,-0.42693769931793213,0.903163492679596,0.0,0.0,0.0,0.0,0.0,0.0
5184,1724813760216069157,-1.6693360805511475,-0.37854111194610596,0.15916576981544495,0.004726065322756767,-0.04476800560951233,-0.4269782602787018,0.903140664100647,0.0,0.0,0.0,0.0,0.0,0.0
5186,1724813760226370355,-1.6690449714660645,-0.37863409519195557,0.1591954082250595,0.004708442836999893,-0.04487287253141403,-0.42694151401519775,0.9031529426574707,0.0,0.0,0.0,0.0,0.0,0.0
5188,1724813760235286713,-1.6688258647918701,-0.37866997718811035,0.15922041237354279,0.004784007556736469,-0.044862013310194016,-0.4270135760307312,0.9031189680099487,0.0,0.0,0.0,0.0,0.0,0.0
5190,1724813760245242713,-1.6686902046203613,-0.37868794798851013,0.15928499400615692,0.0038987589068710804,-0.044589411467313766,-0.42700159549713135,0.903142511844635,0.0,0.0,0.0,0.0,0.0,0.0
5192,1724813760256383273,-1.6685502529144287,-0.3786957859992981,0.1592802256345749,0.004183139652013779,-0.044726237654685974,-0.42681464552879333,0.9032227396965027,0.0,0.0,0.0,0.0,0.0,0.0
5194,1724813760265845417,-1.6684528589248657,-0.3787153363227844,0.15924449265003204,0.003817029530182481,-0.045001182705163956,-0.4265521466732025,0.9033346772193909,0.0,0.0,0.0,0.0,0.0,0.0
5196,1724813760276233439,-1.6683398485183716,-0.37872448563575745,0.15926334261894226,0.00419470714405179,-0.04502633586525917,-0.4265330135822296,0.9033408164978027,0.0,0.0,0.0,0.0,0.0,0.0
5198,1724813760285208468,-1.6682816743850708,-0.3787359893321991,0.1592463254928589,0.004076927900314331,-0.04518415406346321,-0.42638272047042847,0.9034044146537781,0.0,0.0,0.0,0.0,0.0,0.0
5200,1724813760295826464,-1.6681995391845703,-0.3787468373775482,0.1592724323272705,0.0048518055118620396,-0.04544595628976822,-0.42619946599006653,0.9034739136695862,0.0,0.0,0.0,0.0,0.0,0.0
5202,1724813760306734680,-1.6682209968566895,-0.37874889373779297,0.15932558476924896,0.004141242243349552,-0.04528745636343956,-0.42645809054374695,0.9033634066581726,0.0,0.0,0.0,0.0,0.0,0.0
5204,1724813760315751007,-1.6682054996490479,-0.3787339925765991,0.1593719869852066,0.004213985055685043,-0.04513639956712723,-0.426645427942276,0.9032821655273438,0.0,0.0,0.0,0.0,0.0,0.0
5206,1724813760326200589,-1.6682039499282837,-0.37874171137809753,0.15937553346157074,0.0041017085313797,-0.044994618743658066,-0.4266960918903351,0.9032658338546753,0.0,0.0,0.0,0.0,0.0,0.0
5208,1724813760335637866,-1.668208360671997,-0.37877020239830017,0.15933768451213837,0.003733788849785924,-0.045115597546100616,-0.4266037046909332,0.9033049941062927,0.0,0.0,0.0,0.0,0.0,0.0
5210,1724813760345768981,-1.6681573390960693,-0.37877440452575684,0.15936361253261566,0.00458618113771081,-0.04555884376168251,-0.42651641368865967,0.9033200740814209,0.0,0.0,0.0,0.0,0.0,0.0
5212,1724813760355874199,-1.6681426763534546,-0.3787685036659241,0.15938514471054077,0.004564688075333834,-0.04541744664311409,-0.4267069697380066,0.9032373428344727,0.0,0.0,0.0,0.0,0.0,0.0
5214,1724813760366473580,-1.6681450605392456,-0.3787623345851898,0.15940533578395844,0.004338904749602079,-0.04530230909585953,-0.42664361000061035,0.9032740592956543,0.0,0.0,0.0,0.0,0.0,0.0
5216,1724813760378493287,-1.6681725978851318,-0.3788077235221863,0.15937210619449615,0.0037455186247825623,-0.04562586545944214,-0.42651650309562683,0.9033204913139343,0.0,0.0,0.0,0.0,0.0,0.0
5218,1724813760386017850,-1.6681796312332153,-0.37882792949676514,0.15936744213104248,0.0036163341719657183,-0.045519474893808365,-0.42638275027275085,0.903389573097229,0.0,0.0,0.0,0.0,0.0,0.0
5220,1724813760403173835,-1.6681468486785889,-0.3788146674633026,0.15940643846988678,0.0039136470295488834,-0.04551929607987404,-0.4265824258327484,0.903294026851654,0.0,0.0,0.0,0.0,0.0,0.0
5222,1724813760405737051,-1.6681444644927979,-0.37880170345306396,0.15944130718708038,0.003779314924031496,-0.045435015112161636,-0.4267834722995758,0.9032038450241089,0.0,0.0,0.0,0.0,0.0,0.0
5224,1724813760415713499,-1.6681087017059326,-0.3788011074066162,0.15944258868694305,0.0038817082531750202,-0.0455021932721138,-0.42663848400115967,0.9032686352729797,0.0,0.0,0.0,0.0,0.0,0.0
5226,1724813760426308292,-1.6680880784988403,-0.37881216406822205,0.159465953707695,0.004317641258239746,-0.04561692103743553,-0.42664265632629395,0.9032588005065918,0.0,0.0,0.0,0.0,0.0,0.0
5228,1724813760435931644,-1.6680850982666016,-0.3788101375102997,0.15945735573768616,0.004183200653642416,-0.045800719410181046,-0.4265734553337097,0.9032828211784363,0.0,0.0,0.0,0.0,0.0,0.0
5230,1724813760446149435,-1.6680718660354614,-0.3788025677204132,0.159470796585083,0.00421565305441618,-0.04572484642267227,-0.42660757899284363,0.9032703638076782,0.0,0.0,0.0,0.0,0.0,0.0
5232,1724813760456050439,-1.6680740118026733,-0.37880611419677734,0.15947075188159943,0.00428145844489336,-0.04575918987393379,-0.42663708329200745,0.9032544493675232,0.0,0.0,0.0,0.0,0.0,0.0
5234,1724813760467129850,-1.6680793762207031,-0.37879323959350586,0.15949396789073944,0.0041254181414842606,-0.04564459249377251,-0.4267924427986145,0.9031875133514404,0.0,0.0,0.0,0.0,0.0,0.0
5236,1724813760481646001,-1.6680394411087036,-0.37880998849868774,0.1594752073287964,0.00478754099458456,-0.04586157202720642,-0.42667704820632935,0.9032278060913086,0.0,0.0,0.0,0.0,0.0,0.0
5238,1724813760485408199,-1.6680699586868286,-0.37883588671684265,0.15944470465183258,0.004370867740362883,-0.046215642243623734,-0.4263060986995697,0.9033870100975037,0.0,0.0,0.0,0.0,0.0,0.0
5240,1724813760496251286,-1.6680866479873657,-0.3788281977176666,0.15948215126991272,0.0037795896641910076,-0.04587579891085625,-0.42651060223579407,0.9033104777336121,0.0,0.0,0.0,0.0,0.0,0.0
5242,1724813760506707997,-1.6680583953857422,-0.37883180379867554,0.15950167179107666,0.003796847304329276,-0.04610205814242363,-0.4264677166938782,0.9033191204071045,0.0,0.0,0.0,0.0,0.0,0.0
5244,1724813760520617564,-1.6680383682250977,-0.3788435757160187,0.15948373079299927,0.0038197748363018036,-0.04610425606369972,-0.4264441132545471,0.9033300876617432,0.0,0.0,0.0,0.0,0.0,0.0
5246,1724813760527311063,-1.6680264472961426,-0.37886011600494385,0.15947236120700836,0.003694837912917137,-0.04606180265545845,-0.4263252317905426,0.9033889770507812,0.0,0.0,0.0,0.0,0.0,0.0
5248,1724813760535563657,-1.6679909229278564,-0.3788585066795349,0.15951959788799286,0.0040911161340773106,-0.04614508897066116,-0.42651280760765076,0.9032944440841675,0.0,0.0,0.0,0.0,0.0,0.0
5250,1724813760545340554,-1.6679438352584839,-0.37884169816970825,0.15954646468162537,0.0044374312274158,-0.04609260335564613,-0.42659375071525574,0.9032571911811829,0.0,0.0,0.0,0.0,0.0,0.0
5252,1724813760555569495,-1.667922854423523,-0.378839373588562,0.15954679250717163,0.004442576318979263,-0.04639242962002754,-0.4266000986099243,0.9032388925552368,0.0,0.0,0.0,0.0,0.0,0.0
5254,1724813760565331687,-1.6679174900054932,-0.3788769841194153,0.15952147543430328,0.004270582459867001,-0.046466533094644547,-0.4263491630554199,0.9033543467521667,0.0,0.0,0.0,0.0,0.0,0.0
5256,1724813760576196754,-1.6678836345672607,-0.3788709044456482,0.15954948961734772,0.004340402781963348,-0.046423912048339844,-0.426453560590744,0.9033069610595703,0.0,0.0,0.0,0.0,0.0,0.0
5258,1724813760585469255,-1.667864441871643,-0.3788807690143585,0.15957191586494446,0.0041539934463799,-0.04649408534169197,-0.42637285590171814,0.9033423662185669,0.0,0.0,0.0,0.0,0.0,0.0
5260,1724813760595797159,-1.6678307056427002,-0.378864586353302,0.15959785878658295,0.004124839324504137,-0.0463859923183918,-0.4263084828853607,0.9033783674240112,0.0,0.0,0.0,0.0,0.0,0.0
5262,1724813760605655301,-1.6677629947662354,-0.37884342670440674,0.15959222614765167,0.004324639216065407,-0.04650040343403816,-0.4262438416481018,0.9034020304679871,0.0,0.0,0.0,0.0,0.0,0.0
5264,1724813760615640715,-1.667697548866272,-0.37885016202926636,0.15960831940174103,0.0040322719141840935,-0.04637233540415764,-0.4260784387588501,0.903488039970398,0.0,0.0,0.0,0.0,0.0,0.0
5266,1724813760626942824,-1.6675857305526733,-0.37888655066490173,0.15960465371608734,0.00413983641192317,-0.04666971415281296,-0.42579731345176697,0.9036048054695129,0.0,0.0,0.0,0.0,0.0,0.0
5268,1724813760635371247,-1.6674507856369019,-0.37888264656066895,0.15959882736206055,0.00408946443349123,-0.0466749370098114,-0.4256097972393036,0.9036930203437805,0.0,0.0,0.0,0.0,0.0,0.0
5270,1724813760645378343,-1.6672927141189575,-0.3788986802101135,0.15956640243530273,0.004202025476843119,-0.046776480972766876,-0.4253360629081726,0.9038160443305969,0.0,0.0,0.0,0.0,0.0,0.0
5272,1724813760655581052,-1.667146921157837,-0.3788914978504181,0.15956299006938934,0.0038470118306577206,-0.04670174419879913,-0.425307959318161,0.9038347601890564,0.0,0.0,0.0,0.0,0.0,0.0
5274,1724813760666434601,-1.6669723987579346,-0.37885618209838867,0.15958288311958313,0.0037460485473275185,-0.046745628118515015,-0.4252752661705017,0.9038482904434204,0.0,0.0,0.0,0.0,0.0,0.0
5276,1724813760678743205,-1.6668119430541992,-0.3788284361362457,0.15958689153194427,0.004188735503703356,-0.04700621962547302,-0.4250786602497101,0.903925359249115,0.0,0.0,0.0,0.0,0.0,0.0
5278,1724813760685169556,-1.666656732559204,-0.3787929117679596,0.15959669649600983,0.0038194453809410334,-0.04680938646197319,-0.42499831318855286,0.9039749503135681,0.0,0.0,0.0,0.0,0.0,0.0
5280,1724813760695971640,-1.6664423942565918,-0.37883928418159485,0.15940944850444794,0.003766387701034546,-0.047062598168849945,-0.4244605004787445,0.9042147397994995,0.0,0.0,0.0,0.0,0.0,0.0
5282,1724813760705529917,-1.6662641763687134,-0.3788643777370453,0.15932084619998932,0.0035633149091154337,-0.0474669486284256,-0.42391782999038696,0.904448926448822,0.0,0.0,0.0,0.0,0.0,0.0
5284,1724813760715441836,-1.6660293340682983,-0.3788308799266815,0.15936675667762756,0.003878599964082241,-0.04805254563689232,-0.4235818088054657,0.9045741558074951,0.0,0.0,0.0,0.0,0.0,0.0
5286,1724813760727243026,-1.665796160697937,-0.37883880734443665,0.15938426554203033,0.0038204870652407408,-0.048541709780693054,-0.4231647551059723,0.904743492603302,0.0,0.0,0.0,0.0,0.0,0.0
5288,1724813760735202268,-1.6654926538467407,-0.3788379728794098,0.15947489440441132,0.004133836831897497,-0.048944298177957535,-0.4229469895362854,0.9048221707344055,0.0,0.0,0.0,0.0,0.0,0.0
5290,1724813760745837785,-1.6651825904846191,-0.37882381677627563,0.15934064984321594,0.0031106933020055294,-0.05000573396682739,-0.42258909344673157,0.9049354791641235,0.0,0.0,0.0,0.0,0.0,0.0
5292,1724813760760306044,-1.6648308038711548,-0.37878531217575073,0.15940788388252258,0.0027860228437930346,-0.05014990270137787,-0.4226692318916321,0.9048911333084106,0.0,0.0,0.0,0.0,0.0,0.0
5294,1724813760765392169,-1.6644755601882935,-0.37888938188552856,0.15916739404201508,0.0023905334528535604,-0.051002904772758484,-0.4219473898410797,0.9051814675331116,0.0,0.0,0.0,0.0,0.0,0.0
5296,1724813760776240044,-1.6640594005584717,-0.37873345613479614,0.15944531559944153,0.003756455611437559,-0.05139179527759552,-0.42191556096076965,0.9051697254180908,0.0,0.0,0.0,0.0,0.0,0.0
5298,1724813760785959165,-1.6636890172958374,-0.37863248586654663,0.1597183793783188,0.004269952420145273,-0.050587981939315796,-0.42202094197273254,0.905163586139679,0.0,0.0,0.0,0.0,0.0,0.0
5300,1724813760795472100,-1.663370966911316,-0.3787294030189514,0.15954242646694183,0.0033693574368953705,-0.05183575302362442,-0.4207935035228729,0.9056680202484131,0.0,0.0,0.0,0.0,0.0,0.0
5302,1724813760806691625,-1.6630268096923828,-0.3786771595478058,0.15982404351234436,0.0026486662682145834,-0.05251888185739517,-0.41981053352355957,0.9060871601104736,0.0,0.0,0.0,0.0,0.0,0.0
5304,1724813760815348177,-1.6626454591751099,-0.3787897229194641,0.1598159819841385,0.0003425911709200591,-0.05407220870256424,-0.4191823899745941,0.9062904715538025,0.0,0.0,0.0,0.0,0.0,0.0
5306,1724813760829896028,-1.662190556526184,-0.3787958025932312,0.16009822487831116,-0.0005845549749210477,-0.054275382310152054,-0.41902220249176025,0.9063521027565002,0.0,0.0,0.0,0.0,0.0,0.0
5308,1724813760835831948,-1.6617333889007568,-0.3788463771343231,0.1604517549276352,-0.0006449930369853973,-0.05486348643898964,-0.4186476767063141,0.9064898490905762,0.0,0.0,0.0,0.0,0.0,0.0
5310,1724813760845633346,-1.661302924156189,-0.3787747621536255,0.16095063090324402,-0.00010858933819690719,-0.05577402561903,-0.4178195297718048,0.9068164229393005,0.0,0.0,0.0,0.0,0.0,0.0
5312,1724813760856499383,-1.6608134508132935,-0.37865081429481506,0.16175538301467896,0.0012597813038155437,-0.05524413287639618,-0.41743436455726624,0.9070254564285278,0.0,0.0,0.0,0.0,0.0,0.0
5314,1724813760870902457,-1.6603217124938965,-0.37872859835624695,0.16214443743228912,0.00046142999781295657,-0.056375760585069656,-0.41628211736679077,0.9074860215187073,0.0,0.0,0.0,0.0,0.0,0.0
5316,1724813760876250671,-1.659733772277832,-0.3787499964237213,0.1624845564365387,0.0010449921246618032,-0.05732166767120361,-0.41517147421836853,0.9079349637031555,0.0,0.0,0.0,0.0,0.0,0.0
5318,1724813760886003943,-1.6591542959213257,-0.37874236702919006,0.1628427803516388,0.0010256973328068852,-0.0580805242061615,-0.4141783118247986,0.9083402156829834,0.0,0.0,0.0,0.0,0.0,0.0
5320,1724813760895282004,-1.6585232019424438,-0.3787674605846405,0.16328737139701843,0.0012420817511156201,-0.05899948626756668,-0.41352206468582153,0.9085797667503357,0.0,0.0,0.0,0.0,0.0,0.0
5322,1724813760905585741,-1.6579548120498657,-0.37871238589286804,0.16375316679477692,0.00019738370610866696,-0.05939049646258354,-0.4129345118999481,0.9088221788406372,0.0,0.0,0.0,0.0,0.0,0.0
5324,1724813760915847238,-1.6573805809020996,-0.3786830008029938,0.1641685962677002,-0.00012140143371652812,-0.0603426955640316,-0.4120766222476959,0.9091488122940063,0.0,0.0,0.0,0.0,0.0,0.0
5326,1724813760927720714,-1.6567387580871582,-0.37875282764434814,0.16445711255073547,-4.767117206938565e-05,-0.06106523796916008,-0.4108550250530243,0.90965336561203,0.0,0.0,0.0,0.0,0.0,0.0
5328,1724813760935845559,-1.6561287641525269,-0.3787761628627777,0.16485881805419922,0.0001507787237642333,-0.06198059394955635,-0.409999281167984,0.9099774360656738,0.0,0.0,0.0,0.0,0.0,0.0
5330,1724813760946754778,-1.6554946899414062,-0.3787538409233093,0.16536597907543182,0.00011409122089389712,-0.06260892003774643,-0.40954747796058655,0.9101378917694092,0.0,0.0,0.0,0.0,0.0,0.0
5332,1724813760956331621,-1.654956340789795,-0.3788573145866394,0.16558489203453064,-0.0015727888094261289,-0.06327644735574722,-0.4089025855064392,0.9103803634643555,0.0,0.0,0.0,0.0,0.0,0.0
5334,1724813760968714709,-1.654341697692871,-0.37892332673072815,0.1659695953130722,-0.00021371254115365446,-0.06441191583871841,-0.4079884886741638,0.9107120633125305,0.0,0.0,0.0,0.0,0.0,0.0
5336,1724813760979688793,-1.6537431478500366,-0.37899887561798096,0.16631914675235748,-1.4961792658141349e-05,-0.06568672508001328,-0.4069057106971741,0.9111053943634033,0.0,0.0,0.0,0.0,0.0,0.0
5338,1724813760986453923,-1.653097152709961,-0.378974050283432,0.1667809635400772,0.00015699054347351193,-0.06622399389743805,-0.40636107325553894,0.911309540271759,0.0,0.0,0.0,0.0,0.0,0.0
5340,1724813760996641884,-1.6525484323501587,-0.3789074122905731,0.1671753227710724,-0.0010811473475769162,-0.06651546061038971,-0.4058339595794678,0.9115225672721863,0.0,0.0,0.0,0.0,0.0,0.0
5342,1724813761007306404,-1.6519770622253418,-0.3788772523403168,0.16752593219280243,-0.0009913095273077488,-0.06715232878923416,-0.4049244821071625,0.911880373954773,0.0,0.0,0.0,0.0,0.0,0.0
5344,1724813761015725498,-1.6513770818710327,-0.3787586987018585,0.16794922947883606,-0.0008434284245595336,-0.06774362176656723,-0.40373021364212036,0.9123661518096924,0.0,0.0,0.0,0.0,0.0,0.0
5346,1724813761026510475,-1.6507399082183838,-0.37872549891471863,0.16826386749744415,-0.001391120720654726,-0.06858929246664047,-0.40266501903533936,0.9127730131149292,0.0,0.0,0.0,0.0,0.0,0.0
5348,1724813761163710222,-1.6500487327575684,-0.37869784235954285,0.16852420568466187,-0.0020495103672146797,-0.06855607777833939,-0.40271034836769104,0.9127541780471802,0.0,0.0,0.0,0.0,0.0,0.0
5350,1724813761164022565,-1.649415135383606,-0.37850943207740784,0.16896489262580872,-0.0011219300795346498,-0.06923661381006241,-0.40194088220596313,0.9130435585975647,0.0,0.0,0.0,0.0,0.0,0.0
5352,1724813761165204480,-1.6487534046173096,-0.37848880887031555,0.16913725435733795,-0.0007459833286702633,-0.07039555162191391,-0.40064898133277893,0.9135230183601379,0.0,0.0,0.0,0.0,0.0,0.0
5354,1724813761165853290,-1.6480566263198853,-0.37837690114974976,0.1694168746471405,-0.0008911845507100224,-0.07057001441717148,-0.4001508355140686,0.9137277007102966,0.0,0.0,0.0,0.0,0.0,0.0
5356,1724813761166462140,-1.6472210884094238,-0.378300279378891,0.16959069669246674,5.563207378145307e-05,-0.07120481133460999,-0.39950576424598694,0.9139611721038818,0.0,0.0,0.0,0.0,0.0,0.0
5358,1724813761166719932,-1.6465455293655396,-0.3782193958759308,0.16968904435634613,0.0007053482113406062,-0.07239224761724472,-0.3983546197414398,0.914370059967041,0.0,0.0,0.0,0.0,0.0,0.0
5360,1724813761166971998,-1.6458804607391357,-0.3780260682106018,0.1699274480342865,0.0011471582110971212,-0.07303567975759506,-0.3974370062351227,0.9147176146507263,0.0,0.0,0.0,0.0,0.0,0.0
5362,1724813761167328773,-1.6452726125717163,-0.37780243158340454,0.17018337547779083,-0.0007912647561170161,-0.07253804057836533,-0.3970898389816284,0.9149083495140076,0.0,0.0,0.0,0.0,0.0,0.0
5364,1724813761167630165,-1.6446170806884766,-0.3776548504829407,0.17033162713050842,-0.001603171112947166,-0.07255090028047562,-0.3964509665966034,0.9151832461357117,0.0,0.0,0.0,0.0,0.0,0.0
5366,1724813761167897873,-1.6439435482025146,-0.3775404095649719,0.1704607605934143,-0.0010832224506884813,-0.0732332319021225,-0.3953705430030823,0.9155969619750977,0.0,0.0,0.0,0.0,0.0,0.0
5368,1724813761168150413,-1.6433008909225464,-0.37743479013442993,0.17064593732357025,-0.0010234134970232844,-0.07347472012042999,-0.3945872485637665,0.9159156084060669,0.0,0.0,0.0,0.0,0.0,0.0
5370,1724813761168402982,-1.6426671743392944,-0.3773144781589508,0.17080247402191162,-0.0018239605706185102,-0.07330071926116943,-0.39384377002716064,0.9162482023239136,0.0,0.0,0.0,0.0,0.0,0.0
5372,1724813761168655405,-1.6420512199401855,-0.37723487615585327,0.17093734443187714,-0.0021052195224910975,-0.07389994710683823,-0.3932095766067505,0.9164718389511108,0.0,0.0,0.0,0.0,0.0,0.0
5374,1724813761168905902,-1.6414217948913574,-0.37705907225608826,0.17110584676265717,-0.002097652992233634,-0.07530034333467484,-0.39305588603019714,0.9164237976074219,0.0,0.0,0.0,0.0,0.0,0.0
5376,1724813761175896928,-1.6407698392868042,-0.3770473599433899,0.17108303308486938,-0.0025593843311071396,-0.07575712352991104,-0.3927147686481476,0.9165312051773071,0.0,0.0,0.0,0.0,0.0,0.0
5378,1724813761188616015,-1.640108346939087,-0.3769465386867523,0.17134958505630493,-0.0021169122774153948,-0.07483617216348648,-0.39211732149124146,0.916863739490509,0.0,0.0,0.0,0.0,0.0,0.0
5380,1724813761196442034,-1.6394232511520386,-0.3769286870956421,0.17132453620433807,-0.002014456083998084,-0.07531704753637314,-0.3906860053539276,0.9174354076385498,0.0,0.0,0.0,0.0,0.0,0.0
5382,1724813761205650666,-1.6387417316436768,-0.37680789828300476,0.17158298194408417,-0.0025764855090528727,-0.07524233311414719,-0.39031508564949036,0.9175980687141418,0.0,0.0,0.0,0.0,0.0,0.0
5384,1724813761215343047,-1.638092279434204,-0.376637727022171,0.17197127640247345,-0.00280625163577497,-0.0747823566198349,-0.3899098336696625,0.9178072810173035,0.0,0.0,0.0,0.0,0.0,0.0
5386,1724813761226619076,-1.637477159500122,-0.3765472173690796,0.17211736738681793,-0.004242677241563797,-0.07577219605445862,-0.3893008530139923,0.9179790616035461,0.0,0.0,0.0,0.0,0.0,0.0
5388,1724813761235384776,-1.6367937326431274,-0.3764425814151764,0.1724538952112198,-0.002998635871335864,-0.0756121352314949,-0.3884012997150421,0.9183781147003174,0.0,0.0,0.0,0.0,0.0,0.0
5390,1724813761246757034,-1.6361196041107178,-0.3764520585536957,0.17255234718322754,-0.004527374170720577,-0.07680828124284744,-0.3880515992641449,0.9184203743934631,0.0,0.0,0.0,0.0,0.0,0.0
5392,1724813761255441723,-1.6354234218597412,-0.3764280378818512,0.172755166888237,-0.004856449086219072,-0.07744532823562622,-0.38725465536117554,0.9187015891075134,0.0,0.0,0.0,0.0,0.0,0.0
5394,1724813761265377178,-1.6346473693847656,-0.3763069212436676,0.1730298548936844,-0.00411490723490715,-0.0774972066283226,-0.387317419052124,0.9186742901802063,0.0,0.0,0.0,0.0,0.0,0.0
5396,1724813761278996303,-1.6339987516403198,-0.3761383593082428,0.17346422374248505,-0.003092723898589611,-0.07694882154464722,-0.3868657052516937,0.9189147353172302,0.0,0.0,0.0,0.0,0.0,0.0
5398,1724813761302712727,-1.633264422416687,-0.3761788010597229,0.17359063029289246,-0.002608657581731677,-0.07798293977975845,-0.38526302576065063,0.9195022583007812,0.0,0.0,0.0,0.0,0.0,0.0
5400,1724813761302972525,-1.6325170993804932,-0.37612298130989075,0.1737852394580841,-0.0029258818831294775,-0.0779087021946907,-0.38443559408187866,0.9198537468910217,0.0,0.0,0.0,0.0,0.0,0.0
5402,1724813761307655692,-1.6317501068115234,-0.3761061728000641,0.17390744388103485,-0.001607503043487668,-0.07844085991382599,-0.38330376148223877,0.9202840328216553,0.0,0.0,0.0,0.0,0.0,0.0
5404,1724813761315331677,-1.6310362815856934,-0.37613797187805176,0.1737963855266571,-0.0030063202138990164,-0.07984039187431335,-0.3824710547924042,0.9205066561698914,0.0,0.0,0.0,0.0,0.0,0.0
5406,1724813761327698397,-1.63032865524292,-0.3760586380958557,0.17394594848155975,-0.0037347276229411364,-0.08033627271652222,-0.38180994987487793,0.920735239982605,0.0,0.0,0.0,0.0,0.0,0.0
5408,1724813761335802664,-1.6295533180236816,-0.375973105430603,0.1740691065788269,-0.0037291713524609804,-0.08068013936281204,-0.3811355233192444,0.9209845066070557,0.0,0.0,0.0,0.0,0.0,0.0
5410,1724813761355405875,-1.6288306713104248,-0.3758656084537506,0.17424632608890533,-0.002997936215251684,-0.08101882040500641,-0.38069817423820496,0.921138346195221,0.0,0.0,0.0,0.0,0.0,0.0
5412,1724813761356996900,-1.6281781196594238,-0.37578579783439636,0.17438139021396637,-0.003317825961858034,-0.08147237449884415,-0.37997379899024963,0.9213963747024536,0.0,0.0,0.0,0.0,0.0,0.0
5414,1724813761366752544,-1.6275062561035156,-0.3755383789539337,0.17471259832382202,-0.002684770617634058,-0.08193822205066681,-0.3791554868221283,0.9216940999031067,0.0,0.0,0.0,0.0,0.0,0.0
5416,1724813761379243894,-1.6267887353897095,-0.37543609738349915,0.1748945116996765,-0.002173210959881544,-0.08224770426750183,-0.37879881262779236,0.9218146204948425,0.0,0.0,0.0,0.0,0.0,0.0
5418,1724813761388671667,-1.6260207891464233,-0.37536051869392395,0.17511214315891266,-0.0003652531304396689,-0.08228342235088348,-0.3779161274433136,0.9221760630607605,0.0,0.0,0.0,0.0,0.0,0.0
5420,1724813761397395084,-1.6254342794418335,-0.3753211796283722,0.17516270279884338,-0.000716773618478328,-0.08334837108850479,-0.37638893723487854,0.9227046370506287,0.0,0.0,0.0,0.0,0.0,0.0
5422,1724813761406234661,-1.6246734857559204,-0.3752743601799011,0.17523601651191711,-0.00021858105901628733,-0.08449288457632065,-0.3754484951496124,0.9229839444160461,0.0,0.0,0.0,0.0,0.0,0.0
5424,1724813761416160486,-1.6238749027252197,-0.3751966059207916,0.17524701356887817,-0.0006478353752754629,-0.0849534124135971,-0.37467867136001587,0.9232542514801025,0.0,0.0,0.0,0.0,0.0,0.0
5426,1724813761426814499,-1.6230803728103638,-0.3750797510147095,0.1753688007593155,-0.00011359501513652503,-0.085995614528656,-0.374014675617218,0.923427164554596,0.0,0.0,0.0,0.0,0.0,0.0
5428,1724813761435913685,-1.6223678588867188,-0.3749600946903229,0.17537985742092133,-0.0007256311946548522,-0.08801634609699249,-0.3729134202003479,0.9236818552017212,0.0,0.0,0.0,0.0,0.0,0.0
5430,1724813761446167131,-1.62160325050354,-0.3747331500053406,0.17556875944137573,0.00015798320237081498,-0.0890522450208664,-0.3715129792690277,0.9241471290588379,0.0,0.0,0.0,0.0,0.0,0.0
5432,1724813761455868780,-1.6207480430603027,-0.3745971918106079,0.17581585049629211,0.0014149723574519157,-0.08852105587720871,-0.37052303552627563,0.9245944619178772,0.0,0.0,0.0,0.0,0.0,0.0
5434,1724813761466128038,-1.6199829578399658,-0.37448087334632874,0.17600269615650177,0.0007040193304419518,-0.08877506107091904,-0.36945661902427673,0.9249975085258484,0.0,0.0,0.0,0.0,0.0,0.0
5436,1724813761476590635,-1.6191773414611816,-0.37447649240493774,0.17596888542175293,0.0006004230817779899,-0.09006141126155853,-0.3679042458534241,0.9254918694496155,0.0,0.0,0.0,0.0,0.0,0.0
5438,1724813761485409198,-1.6182774305343628,-0.3744373619556427,0.17599114775657654,0.001232066424563527,-0.09099185466766357,-0.3666038513183594,0.9259160757064819,0.0,0.0,0.0,0.0,0.0,0.0
5440,1724813761495569012,-1.617342233657837,-0.37436386942863464,0.17613054811954498,0.001426267670467496,-0.09116639941930771,-0.3665331304073334,0.9259266257286072,0.0,0.0,0.0,0.0,0.0,0.0
5442,1724813761505631028,-1.6165707111358643,-0.3743099272251129,0.17617757618427277,0.0016595486085861921,-0.0920252725481987,-0.36530792713165283,0.9263253808021545,0.0,0.0,0.0,0.0,0.0,0.0
5444,1724813761515316339,-1.6156007051467896,-0.3742891252040863,0.17609566450119019,0.001445753499865532,-0.09246724843978882,-0.364205539226532,0.9267157912254333,0.0,0.0,0.0,0.0,0.0,0.0
5446,1724813761526210853,-1.6146653890609741,-0.3741106390953064,0.1762300431728363,0.0013403608463704586,-0.09272207319736481,-0.363061785697937,0.9271391034126282,0.0,0.0,0.0,0.0,0.0,0.0
5448,1724813761535139701,-1.6137747764587402,-0.3740807771682739,0.17613965272903442,0.0012457837583497167,-0.09318165481090546,-0.3622864782810211,0.9273964762687683,0.0,0.0,0.0,0.0,0.0,0.0
5450,1724813761546368156,-1.6129283905029297,-0.37398186326026917,0.17604872584342957,0.0009368413593620062,-0.09406312555074692,-0.3613353669643402,0.9276788234710693,0.0,0.0,0.0,0.0,0.0,0.0
5452,1724813761556227486,-1.6120433807373047,-0.37391233444213867,0.17595413327217102,0.0006360480329021811,-0.09451475739479065,-0.3608628511428833,0.9278171062469482,0.0,0.0,0.0,0.0,0.0,0.0
5454,1724813761565232087,-1.6111334562301636,-0.37383946776390076,0.17578716576099396,0.0020325882360339165,-0.09638041257858276,-0.3597759008407593,0.9280452728271484,0.0,0.0,0.0,0.0,0.0,0.0
5456,1724813761577328121,-1.6103402376174927,-0.37363940477371216,0.17583326995372772,0.0011721451301127672,-0.09602224826812744,-0.35970816016197205,0.9281101226806641,0.0,0.0,0.0,0.0,0.0,0.0
5458,1724813761585595159,-1.6096181869506836,-0.37339115142822266,0.17593204975128174,0.0011320066405460238,-0.09603459388017654,-0.3594331443309784,0.9282154440879822,0.0,0.0,0.0,0.0,0.0,0.0
5460,1724813761595807300,-1.60879647731781,-0.37319815158843994,0.1760093718767166,0.0026493119075894356,-0.09669651091098785,-0.35906365513801575,0.9282866716384888,0.0,0.0,0.0,0.0,0.0,0.0
5462,1724813761605872538,-1.6078628301620483,-0.37308403849601746,0.17599785327911377,0.0028047882951796055,-0.09725505113601685,-0.35861530900001526,0.9284011125564575,0.0,0.0,0.0,0.0,0.0,0.0
5464,1724813761616592851,-1.607048749923706,-0.37283504009246826,0.17623218894004822,0.003143805544823408,-0.09629730880260468,-0.35792383551597595,0.9287667274475098,0.0,0.0,0.0,0.0,0.0,0.0
5466,1724813761629140546,-1.6062569618225098,-0.37277674674987793,0.1762170046567917,0.0017152889631688595,-0.09637434035539627,-0.35720354318618774,0.929039716720581,0.0,0.0,0.0,0.0,0.0,0.0
5468,1724813761635210890,-1.6054128408432007,-0.37261608242988586,0.17631858587265015,0.0020138679537922144,-0.09646975994110107,-0.3571418523788452,0.9290528893470764,0.0,0.0,0.0,0.0,0.0,0.0
5470,1724813761645822035,-1.6045371294021606,-0.3724576234817505,0.17637257277965546,0.0026324884966015816,-0.09676822274923325,-0.3573814630508423,0.9289281964302063,0.0,0.0,0.0,0.0,0.0,0.0
5472,1724813761656335524,-1.6036559343338013,-0.3724459111690521,0.176128551363945,0.0030166730284690857,-0.09774164110422134,-0.3569665849208832,0.9289845824241638,0.0,0.0,0.0,0.0,0.0,0.0
5474,1724813761670177581,-1.6028491258621216,-0.3723383843898773,0.17601832747459412,0.0036366241984069347,-0.09842713177204132,-0.35651135444641113,0.9290847778320312,0.0,0.0,0.0,0.0,0.0,0.0
5476,1724813761677311717,-1.6020094156265259,-0.3721460700035095,0.17603571712970734,0.0037806928157806396,-0.09850196540355682,-0.35676559805870056,0.928978681564331,0.0,0.0,0.0,0.0,0.0,0.0
5478,1724813761685301490,-1.6011935472488403,-0.37199753522872925,0.17598558962345123,0.003144348505884409,-0.09881193935871124,-0.3565489649772644,0.9290313720703125,0.0,0.0,0.0,0.0,0.0,0.0
5480,1724813761696547514,-1.600411295890808,-0.3718757927417755,0.17596134543418884,0.002182953990995884,-0.09898220747709274,-0.35663050413131714,0.9289846420288086,0.0,0.0,0.0,0.0,0.0,0.0
5482,1724813761705332929,-1.5996240377426147,-0.37174540758132935,0.17587485909461975,0.0017083368729799986,-0.10000146180391312,-0.35637181997299194,0.9289757013320923,0.0,0.0,0.0,0.0,0.0,0.0
5484,1724813761717475497,-1.5987107753753662,-0.3715057075023651,0.17607273161411285,0.004167686216533184,-0.09930694848299026,-0.35652920603752136,0.928982138633728,0.0,0.0,0.0,0.0,0.0,0.0
5486,1724813761726520722,-1.5979629755020142,-0.37143999338150024,0.1759926676750183,0.003196947043761611,-0.10070640593767166,-0.3558669984340668,0.9290892481803894,0.0,0.0,0.0,0.0,0.0,0.0
5488,1724813761735362203,-1.5972024202346802,-0.37133973836898804,0.17606660723686218,0.0038126902654767036,-0.10124819725751877,-0.35528916120529175,0.9292491674423218,0.0,0.0,0.0,0.0,0.0,0.0
5490,1724813761745569716,-1.5964370965957642,-0.3712482154369354,0.17623622715473175,0.00534452497959137,-0.10079558193683624,-0.3546009957790375,0.9295535683631897,0.0,0.0,0.0,0.0,0.0,0.0
5492,1724813761755865255,-1.5957045555114746,-0.37119626998901367,0.17629222571849823,0.006330615375190973,-0.10132639110088348,-0.35363250970840454,0.9298585653305054,0.0,0.0,0.0,0.0,0.0,0.0
5494,1724813761765470339,-1.5950011014938354,-0.3711757957935333,0.1763286292552948,0.006891471333801746,-0.10177679359912872,-0.35255295038223267,0.9302152991294861,0.0,0.0,0.0,0.0,0.0,0.0
5496,1724813761781254594,-1.5943373441696167,-0.37118393182754517,0.1763317883014679,0.006612297147512436,-0.10219264775514603,-0.3514740467071533,0.9305799603462219,0.0,0.0,0.0,0.0,0.0,0.0
5498,1724813761786554775,-1.5936578512191772,-0.3711608946323395,0.17642542719841003,0.006192730274051428,-0.10238107293844223,-0.35070478916168213,0.9308522939682007,0.0,0.0,0.0,0.0,0.0,0.0
5500,1724813761797892657,-1.5931800603866577,-0.37102827429771423,0.17648562788963318,0.005223421845585108,-0.10336509346961975,-0.3498992919921875,0.9310525059700012,0.0,0.0,0.0,0.0,0.0,0.0
5502,1724813761805646584,-1.5925519466400146,-0.37106460332870483,0.17655828595161438,0.004906078334897757,-0.10320671647787094,-0.3502374589443207,0.9309447407722473,0.0,0.0,0.0,0.0,0.0,0.0
5504,1724813761815319349,-1.591855764389038,-0.37108728289604187,0.176558256149292,0.005754563491791487,-0.1038150042295456,-0.34937572479248047,0.9311959743499756,0.0,0.0,0.0,0.0,0.0,0.0
5506,1724813761826553057,-1.5910075902938843,-0.37111178040504456,0.176598459482193,0.007221431005746126,-0.1044524759054184,-0.34855884313583374,0.9314205646514893,0.0,0.0,0.0,0.0,0.0,0.0
5508,1724813761836198037,-1.5903240442276,-0.3710362911224365,0.17674121260643005,0.008029905147850513,-0.1044938936829567,-0.34779149293899536,0.9316961169242859,0.0,0.0,0.0,0.0,0.0,0.0
5510,1724813761845834811,-1.5896031856536865,-0.3710520565509796,0.17689326405525208,0.00764621514827013,-0.1040983721613884,-0.3478436768054962,0.9317241907119751,0.0,0.0,0.0,0.0,0.0,0.0
5512,1724813761856041147,-1.5888551473617554,-0.371137797832489,0.17697659134864807,0.00732274167239666,-0.10422272980213165,-0.3476344645023346,0.9317908883094788,0.0,0.0,0.0,0.0,0.0,0.0
5514,1724813761866162608,-1.5880664587020874,-0.37119853496551514,0.17721101641654968,0.008352783508598804,-0.10351525247097015,-0.3472018837928772,0.9320223927497864,0.0,0.0,0.0,0.0,0.0,0.0
5516,1724813761875814193,-1.587317705154419,-0.37132230401039124,0.1773444563150406,0.008801726624369621,-0.10402131825685501,-0.3469945788383484,0.9320390820503235,0.0,0.0,0.0,0.0,0.0,0.0
5518,1724813761885332132,-1.5865153074264526,-0.3714752197265625,0.1774176061153412,0.008692655712366104,-0.10448304563760757,-0.34688854217529297,0.9320279955863953,0.0,0.0,0.0,0.0,0.0,0.0
5520,1724813761895465994,-1.585754632949829,-0.3715547025203705,0.1775948703289032,0.00869396049529314,-0.10435999929904938,-0.34675368666648865,0.9320918917655945,0.0,0.0,0.0,0.0,0.0,0.0
5522,1724813761905531363,-1.5848385095596313,-0.3718981444835663,0.1774747669696808,0.00897953100502491,-0.10461331158876419,-0.3463677763938904,0.9322043061256409,0.0,0.0,0.0,0.0,0.0,0.0
5524,1724813761918242592,-1.5839722156524658,-0.3720657527446747,0.17753875255584717,0.009068363346159458,-0.1044948548078537,-0.3464842140674591,0.9321734309196472,0.0,0.0,0.0,0.0,0.0,0.0
5526,1724813761926201785,-1.583088994026184,-0.37223413586616516,0.17759688198566437,0.00833445880562067,-0.10428479313850403,-0.34661605954170227,0.9321547746658325,0.0,0.0,0.0,0.0,0.0,0.0
5528,1724813761935446815,-1.5821411609649658,-0.37242788076400757,0.17757141590118408,0.007654638960957527,-0.10505519807338715,-0.345868855714798,0.9323517084121704,0.0,0.0,0.0,0.0,0.0,0.0
5530,1724813761947354433,-1.5813640356063843,-0.37249475717544556,0.17771634459495544,0.007990880869328976,-0.10563109070062637,-0.3457500636577606,0.9323278069496155,0.0,0.0,0.0,0.0,0.0,0.0
5532,1724813761955441563,-1.5804582834243774,-0.3725561499595642,0.17780688405036926,0.0076385000720620155,-0.10554651916027069,-0.3458126485347748,0.9323171973228455,0.0,0.0,0.0,0.0,0.0,0.0
5534,1724813761967969243,-1.5795276165008545,-0.3726685047149658,0.17784307897090912,0.008319362998008728,-0.10568243265151978,-0.34557539224624634,0.9323839545249939,0.0,0.0,0.0,0.0,0.0,0.0
5536,1724813761976444588,-1.5784825086593628,-0.37283653020858765,0.177824929356575,0.008774865418672562,-0.10601513087749481,-0.3454064428806305,0.9324045777320862,0.0,0.0,0.0,0.0,0.0,0.0
5538,1724813761985203006,-1.577487587928772,-0.37288379669189453,0.17806944251060486,0.00918386410921812,-0.10621576756238937,-0.3453964591026306,0.9323814511299133,0.0,0.0,0.0,0.0,0.0,0.0
5540,1724813761995654521,-1.5765315294265747,-0.37306123971939087,0.17807213962078094,0.00961734727025032,-0.10676880925893784,-0.34484875202178955,0.9325166344642639,0.0,0.0,0.0,0.0,0.0,0.0
5542,1724813762006891546,-1.5755901336669922,-0.3732326030731201,0.1780453324317932,0.009738306514918804,-0.10673438012599945,-0.34533050656318665,0.9323410391807556,0.0,0.0,0.0,0.0,0.0,0.0
5544,1724813762015180098,-1.5745750665664673,-0.3733336925506592,0.17821231484413147,0.010450093075633049,-0.10645624250173569,-0.34571948647499084,0.9322209358215332,0.0,0.0,0.0,0.0,0.0,0.0
5546,1724813762026983348,-1.5736289024353027,-0.37354806065559387,0.17813429236412048,0.009430652484297752,-0.1078260987997055,-0.3453841805458069,0.932198703289032,0.0,0.0,0.0,0.0,0.0,0.0
5548,1724813762035680967,-1.5726617574691772,-0.37359943985939026,0.17831933498382568,0.011562652885913849,-0.10756371915340424,-0.34512677788734436,0.9323003888130188,0.0,0.0,0.0,0.0,0.0,0.0
5550,1724813762046085889,-1.5717180967330933,-0.3737383186817169,0.17830131947994232,0.011498522013425827,-0.10798544436693192,-0.3444986343383789,0.9324846863746643,0.0,0.0,0.0,0.0,0.0,0.0
5552,1724813762061388059,-1.5707489252090454,-0.37384653091430664,0.17840778827667236,0.011529774405062199,-0.1076611801981926,-0.3453538417816162,0.9322054386138916,0.0,0.0,0.0,0.0,0.0,0.0
5554,1724813762065814688,-1.5698060989379883,-0.37392473220825195,0.178476020693779,0.011592289432883263,-0.10900794714689255,-0.3450823128223419,0.9321486353874207,0.0,0.0,0.0,0.0,0.0,0.0
5556,1724813762079371371,-1.5687716007232666,-0.37395191192626953,0.17862831056118011,0.012422376312315464,-0.10968891531229019,-0.34531107544898987,0.9319733381271362,0.0,0.0,0.0,0.0,0.0,0.0
5558,1724813762087875032,-1.5677677392959595,-0.3741307854652405,0.17860367894172668,0.011757055297493935,-0.11013299226760864,-0.3456571400165558,0.9318012595176697,0.0,0.0,0.0,0.0,0.0,0.0
5560,1724813762096796300,-1.5667614936828613,-0.3742237091064453,0.1786590814590454,0.011551054194569588,-0.110099196434021,-0.3460303544998169,0.9316694140434265,0.0,0.0,0.0,0.0,0.0,0.0
5562,1724813762105849628,-1.565724492073059,-0.3742501437664032,0.1787874549627304,0.011288376525044441,-0.10953114181756973,-0.3470257818698883,0.9313692450523376,0.0,0.0,0.0,0.0,0.0,0.0
5564,1724813762119980947,-1.5646556615829468,-0.3742469251155853,0.17898821830749512,0.013346741907298565,-0.10914792120456696,-0.3468518555164337,0.9314517974853516,0.0,0.0,0.0,0.0,0.0,0.0
5566,1724813762127244358,-1.5636438131332397,-0.3743738532066345,0.17904478311538696,0.014142426662147045,-0.10959175229072571,-0.3466191291809082,0.9314746260643005,0.0,0.0,0.0,0.0,0.0,0.0
5568,1724813762135522039,-1.5625890493392944,-0.3745347261428833,0.17905163764953613,0.014292058534920216,-0.10981796681880951,-0.3469705879688263,0.9313147664070129,0.0,0.0,0.0,0.0,0.0,0.0
5570,1724813762147102088,-1.5616158246994019,-0.3745988607406616,0.17906007170677185,0.014378326945006847,-0.1111002117395401,-0.34683242440223694,0.9312127828598022,0.0,0.0,0.0,0.0,0.0,0.0
5572,1724813762155522024,-1.5606335401535034,-0.3745953440666199,0.17918822169303894,0.015834694728255272,-0.110300712287426,-0.3470650613307953,0.9311976432800293,0.0,0.0,0.0,0.0,0.0,0.0
5574,1724813762165632844,-1.5596802234649658,-0.3746630549430847,0.17919206619262695,0.01602182164788246,-0.1102583184838295,-0.34733641147613525,0.9310981631278992,0.0,0.0,0.0,0.0,0.0,0.0
5576,1724813762176485945,-1.558827519416809,-0.3747585415840149,0.17918094992637634,0.01611386425793171,-0.11065381020307541,-0.3468954265117645,0.9312140345573425,0.0,0.0,0.0,0.0,0.0,0.0
5578,1724813762185343212,-1.5578728914260864,-0.3748602569103241,0.17915961146354675,0.01653345115482807,-0.11105644702911377,-0.346506267786026,0.9313036799430847,0.0,0.0,0.0,0.0,0.0,0.0
5580,1724813762196099071,-1.5569888353347778,-0.3748960793018341,0.17924006283283234,0.01665595732629299,-0.11106526106595993,-0.34660574793815613,0.9312634468078613,0.0,0.0,0.0,0.0,0.0,0.0
5582,1724813762208587122,-1.5561368465423584,-0.3750395178794861,0.1791820079088211,0.01602919027209282,-0.11116819828748703,-0.3471633195877075,0.9310544729232788,0.0,0.0,0.0,0.0,0.0,0.0
5584,1724813762215527741,-1.5553216934204102,-0.37512683868408203,0.1789534091949463,0.015442472882568836,-0.11269325762987137,-0.3463060259819031,0.9312002658843994,0.0,0.0,0.0,0.0,0.0,0.0
5586,1724813762226844465,-1.5545607805252075,-0.37514710426330566,0.17888900637626648,0.01456840243190527,-0.11289939284324646,-0.3459892272949219,0.9313071966171265,0.0,0.0,0.0,0.0,0.0,0.0
5588,1724813762235687375,-1.5537744760513306,-0.3751800060272217,0.17888133227825165,0.015148120932281017,-0.11344946920871735,-0.34551045298576355,0.9314087629318237,0.0,0.0,0.0,0.0,0.0,0.0
5590,1724813762247304781,-1.5529930591583252,-0.3751120865345001,0.1790861338376999,0.016387611627578735,-0.11339069902896881,-0.3451937139034271,0.9315123558044434,0.0,0.0,0.0,0.0,0.0,0.0
5592,1724813762256513154,-1.5522301197052002,-0.37516966462135315,0.17910461127758026,0.016391539946198463,-0.11375473439693451,-0.3448854088783264,0.9315820932388306,0.0,0.0,0.0,0.0,0.0,0.0
5594,1724813762265498757,-1.551579475402832,-0.375155508518219,0.17915312945842743,0.015206802636384964,-0.11351192742586136,-0.34489402174949646,0.9316286444664001,0.0,0.0,0.0,0.0,0.0,0.0
5596,1724813762276213583,-1.5509185791015625,-0.37534099817276,0.17899638414382935,0.014341416768729687,-0.11376683413982391,-0.3448992073535919,0.9316093325614929,0.0,0.0,0.0,0.0,0.0,0.0
5598,1724813762285809559,-1.5502021312713623,-0.37538471817970276,0.1789625734090805,0.014646096155047417,-0.11423657834529877,-0.3441818356513977,0.9318124651908875,0.0,0.0,0.0,0.0,0.0,0.0
5600,1724813762295801945,-1.5494626760482788,-0.3754219114780426,0.1790553778409958,0.016503822058439255,-0.11346916109323502,-0.3436006009578705,0.9320896863937378,0.0,0.0,0.0,0.0,0.0,0.0
5602,1724813762306479245,-1.5489294528961182,-0.3754027187824249,0.1791430413722992,0.016554975882172585,-0.11353962123394012,-0.3431503176689148,0.9322460293769836,0.0,0.0,0.0,0.0,0.0,0.0
5604,1724813762315313970,-1.548257827758789,-0.37554678320884705,0.1790151596069336,0.0171375535428524,-0.11396938562393188,-0.3422974646091461,0.9324964880943298,0.0,0.0,0.0,0.0,0.0,0.0
5606,1724813762327777697,-1.5476161241531372,-0.37559303641319275,0.17899610102176666,0.018512923270463943,-0.11446698009967804,-0.341390997171402,0.932741641998291,0.0,0.0,0.0,0.0,0.0,0.0
5608,1724813762335112961,-1.5470093488693237,-0.3756728768348694,0.17898717522621155,0.01908370479941368,-0.11471095681190491,-0.34080326557159424,0.9329149723052979,0.0,0.0,0.0,0.0,0.0,0.0
5610,1724813762345587007,-1.5464377403259277,-0.37571483850479126,0.17902030050754547,0.019614392891526222,-0.1153467670083046,-0.3400924801826477,0.933085024356842,0.0,0.0,0.0,0.0,0.0,0.0
5612,1724813762355913602,-1.5459225177764893,-0.37574344873428345,0.1790570616722107,0.019752640277147293,-0.11556035280227661,-0.33968815207481384,0.933202862739563,0.0,0.0,0.0,0.0,0.0,0.0
5614,1724813762365497625,-1.5454020500183105,-0.37586769461631775,0.17900210618972778,0.018785769119858742,-0.116497702896595,-0.33921194076538086,0.9332795739173889,0.0,0.0,0.0,0.0,0.0,0.0
5616,1724813762375811268,-1.5449546575546265,-0.3758206069469452,0.17914070188999176,0.018868345767259598,-0.11601010710000992,-0.3391992151737213,0.933343231678009,0.0,0.0,0.0,0.0,0.0,0.0
5618,1724813762385280211,-1.5445232391357422,-0.375989705324173,0.17910975217819214,0.018443431705236435,-0.1166229173541069,-0.3399061858654022,0.9330180883407593,0.0,0.0,0.0,0.0,0.0,0.0
5620,1724813762396358278,-1.5441272258758545,-0.37606102228164673,0.179121732711792,0.019277548417448997,-0.11661522835493088,-0.3405449390411377,0.9327692985534668,0.0,0.0,0.0,0.0,0.0,0.0
5622,1724813762405433720,-1.5437730550765991,-0.37613236904144287,0.17908123135566711,0.019419915974140167,-0.11687111854553223,-0.34081700444221497,0.9326348304748535,0.0,0.0,0.0,0.0,0.0,0.0
5624,1724813762415715804,-1.5434505939483643,-0.3761841952800751,0.17911110818386078,0.020255623385310173,-0.11696996539831161,-0.3409794569015503,0.9325453042984009,0.0,0.0,0.0,0.0,0.0,0.0
5626,1724813762428804382,-1.5431829690933228,-0.3762589991092682,0.17914628982543945,0.020450131967663765,-0.11698100715875626,-0.3408907949924469,0.932572066783905,0.0,0.0,0.0,0.0,0.0,0.0
5628,1724813762435631503,-1.5429376363754272,-0.3763468265533447,0.17915554344654083,0.020482292398810387,-0.1171436458826065,-0.3407212793827057,0.932612955570221,0.0,0.0,0.0,0.0,0.0,0.0
5630,1724813762447015057,-1.542678952217102,-0.37643128633499146,0.17917224764823914,0.02040768787264824,-0.11696916073560715,-0.34065088629722595,0.9326621890068054,0.0,0.0,0.0,0.0,0.0,0.0
5632,1724813762455450668,-1.5424281358718872,-0.3765470087528229,0.17915746569633484,0.020550910383462906,-0.11701951175928116,-0.3406555950641632,0.9326509833335876,0.0,0.0,0.0,0.0,0.0,0.0
5634,1724813762465598940,-1.5422112941741943,-0.3766011893749237,0.17931745946407318,0.02151915244758129,-0.11612376570701599,-0.34094250202178955,0.9326362609863281,0.0,0.0,0.0,0.0,0.0,0.0
5636,1724813762497306197,-1.5420547723770142,-0.37673330307006836,0.17929886281490326,0.02082165516912937,-0.1160983070731163,-0.3407741189002991,0.9327168464660645,0.0,0.0,0.0,0.0,0.0,0.0
5638,1724813762497759696,-1.5419831275939941,-0.37680694460868835,0.1793280392885208,0.02009708620607853,-0.11595574766397476,-0.34028276801109314,0.9329298138618469,0.0,0.0,0.0,0.0,0.0,0.0
5640,1724813762498593490,-1.541872501373291,-0.3768961429595947,0.17930614948272705,0.020184528082609177,-0.11598215252161026,-0.34002986550331116,0.933016836643219,0.0,0.0,0.0,0.0,0.0,0.0
5642,1724813762507369922,-1.5417674779891968,-0.37698644399642944,0.17929688096046448,0.020444704219698906,-0.11600043624639511,-0.3398667871952057,0.9330683350563049,0.0,0.0,0.0,0.0,0.0,0.0
5644,1724813762515612980,-1.541747808456421,-0.37707704305648804,0.17928461730480194,0.01981928013265133,-0.11611753702163696,-0.3399275839328766,0.9330450892448425,0.0,0.0,0.0,0.0,0.0,0.0
5646,1724813762530707642,-1.5416996479034424,-0.3771134912967682,0.17929014563560486,0.02015511691570282,-0.11582396924495697,-0.34001535177230835,0.9330424070358276,0.0,0.0,0.0,0.0,0.0,0.0
5648,1724813762536833324,-1.5416686534881592,-0.37717404961586,0.17928197979927063,0.020325971767306328,-0.11596997827291489,-0.3398594260215759,0.9330774545669556,0.0,0.0,0.0,0.0,0.0,0.0
5650,1724813762547859893,-1.5416450500488281,-0.37720227241516113,0.1792958527803421,0.020452318713068962,-0.11607176810503006,-0.33970746397972107,0.9331173300743103,0.0,0.0,0.0,0.0,0.0,0.0
5652,1724813762556056802,-1.5416269302368164,-0.377162367105484,0.17934399843215942,0.02029094099998474,-0.11584994196891785,-0.33977630734443665,0.9331233501434326,0.0,0.0,0.0,0.0,0.0,0.0
5654,1724813762565683726,-1.5416032075881958,-0.37719225883483887,0.17926286160945892,0.020161787047982216,-0.11620564758777618,-0.3394523859024048,0.9331997632980347,0.0,0.0,0.0,0.0,0.0,0.0
5656,1724813762579414190,-1.5415937900543213,-0.37720975279808044,0.17930811643600464,0.01998734101653099,-0.11595870554447174,-0.33956581354141235,0.9331929683685303,0.0,0.0,0.0,0.0,0.0,0.0
5658,1724813762585815041,-1.5415688753128052,-0.3772168755531311,0.17927737534046173,0.01978287659585476,-0.11615703999996185,-0.33960071206092834,0.9331600666046143,0.0,0.0,0.0,0.0,0.0,0.0
5660,1724813762595328308,-1.5415289402008057,-0.3771933317184448,0.17931923270225525,0.020376520231366158,-0.11603844165802002,-0.33975112438201904,0.9331072568893433,0.0,0.0,0.0,0.0,0.0,0.0
5662,1724813762617130664,-1.5415133237838745,-0.37720245122909546,0.17931000888347626,0.020044483244419098,-0.11591731011867523,-0.339790016412735,0.9331153631210327,0.0,0.0,0.0,0.0,0.0,0.0
5664,1724813762617645709,-1.5414893627166748,-0.3771943747997284,0.17932391166687012,0.01990175060927868,-0.11596395820379257,-0.33974140882492065,0.9331302642822266,0.0,0.0,0.0,0.0,0.0,0.0
5666,1724813762625991445,-1.5414716005325317,-0.37721318006515503,0.17929241061210632,0.019960040226578712,-0.11603973805904388,-0.339447557926178,0.9332265257835388,0.0,0.0,0.0,0.0,0.0,0.0
5668,1724813762635612665,-1.5414535999298096,-0.3772113621234894,0.17930440604686737,0.019662074744701385,-0.11604466289281845,-0.339528352022171,0.933202862739563,0.0,0.0,0.0,0.0,0.0,0.0
5670,1724813762650026181,-1.5414149761199951,-0.3772391378879547,0.17928946018218994,0.019826678559184074,-0.11621542274951935,-0.339285284280777,0.9332665205001831,0.0,0.0,0.0,0.0,0.0,0.0
5672,1724813762655122474,-1.541399598121643,-0.3772222399711609,0.17932693660259247,0.019792301580309868,-0.11623556166887283,-0.3392695486545563,0.9332704544067383,0.0,0.0,0.0,0.0,0.0,0.0
5674,1724813762665666004,-1.5413730144500732,-0.3772365152835846,0.17930729687213898,0.019904451444745064,-0.11635908484458923,-0.33921998739242554,0.9332707524299622,0.0,0.0,0.0,0.0,0.0,0.0
5676,1724813762675540293,-1.5413521528244019,-0.37722185254096985,0.17932504415512085,0.019355958327651024,-0.11625774949789047,-0.3392700254917145,0.9332766532897949,0.0,0.0,0.0,0.0,0.0,0.0
5678,1724813762685260621,-1.5413366556167603,-0.37722525000572205,0.1793283224105835,0.019550370052456856,-0.11604242771863937,-0.3392428755760193,0.9333092570304871,0.0,0.0,0.0,0.0,0.0,0.0
5680,1724813762696380032,-1.5413318872451782,-0.37725576758384705,0.17931143939495087,0.019509747624397278,-0.11609896272420883,-0.33911722898483276,0.9333488345146179,0.0,0.0,0.0,0.0,0.0,0.0
5682,1724813762705445857,-1.541341781616211,-0.3772238492965698,0.17933347821235657,0.019208567216992378,-0.1160423755645752,-0.33934906125068665,0.9332777857780457,0.0,0.0,0.0,0.0,0.0,0.0
5684,1724813762720937449,-1.5413320064544678,-0.37721720337867737,0.17934855818748474,0.01928713172674179,-0.11623377352952957,-0.3392500579357147,0.9332883954048157,0.0,0.0,0.0,0.0,0.0,0.0
5686,1724813762726669875,-1.5413564443588257,-0.3772038221359253,0.17934250831604004,0.01892702281475067,-0.11619120091199875,-0.33918794989585876,0.9333236217498779,0.0,0.0,0.0,0.0,0.0,0.0
5688,1724813762735666683,-1.5413398742675781,-0.37719660997390747,0.17937776446342468,0.019399434328079224,-0.11636266857385635,-0.3391270935535431,0.9333146810531616,0.0,0.0,0.0,0.0,0.0,0.0
5690,1724813762746604451,-1.5413306951522827,-0.377170205116272,0.17939703166484833,0.01917034201323986,-0.11641144007444382,-0.3392789363861084,0.9332581758499146,0.0,0.0,0.0,0.0,0.0,0.0
5692,1724813762755495085,-1.5413038730621338,-0.37715017795562744,0.17941948771476746,0.01965685375034809,-0.11642178893089294,-0.3392277657985687,0.9332652688026428,0.0,0.0,0.0,0.0,0.0,0.0
5694,1724813762765511331,-1.5413048267364502,-0.37713679671287537,0.17942184209823608,0.01941216178238392,-0.11647085100412369,-0.33923324942588806,0.9332623481750488,0.0,0.0,0.0,0.0,0.0,0.0
5696,1724813762776454672,-1.541293978691101,-0.37711313366889954,0.1793888956308365,0.018801720812916756,-0.11653921008110046,-0.3391646146774292,0.9332911968231201,0.0,0.0,0.0,0.0,0.0,0.0
5698,1724813762785212325,-1.5412613153457642,-0.37707072496414185,0.17942818999290466,0.018949702382087708,-0.1164037361741066,-0.33925285935401917,0.9332731366157532,0.0,0.0,0.0,0.0,0.0,0.0
5700,1724813762796173210,-1.541236400604248,-0.37704741954803467,0.17943823337554932,0.018756818026304245,-0.11640048772096634,-0.33930420875549316,0.9332587122917175,0.0,0.0,0.0,0.0,0.0,0.0
5702,1724813762806687203,-1.5412226915359497,-0.37704068422317505,0.17937809228897095,0.01857410930097103,-0.11648237705230713,-0.33918240666389465,0.9332963824272156,0.0,0.0,0.0,0.0,0.0,0.0
5704,1724813762815332806,-1.541166067123413,-0.37702369689941406,0.17935730516910553,0.018835658207535744,-0.11665403842926025,-0.3389208912849426,0.933364748954773,0.0,0.0,0.0,0.0,0.0,0.0
5706,1724813762826273375,-1.5411163568496704,-0.3769935369491577,0.17932133376598358,0.018297016620635986,-0.1165887862443924,-0.3390122354030609,0.9333503842353821,0.0,0.0,0.0,0.0,0.0,0.0
5708,1724813762836196287,-1.5410726070404053,-0.37701672315597534,0.17926056683063507,0.0177945327013731,-0.11645471304655075,-0.3389735817909241,0.9333909153938293,0.0,0.0,0.0,0.0,0.0,0.0
5710,1724813762845986041,-1.5410003662109375,-0.3770090341567993,0.17926354706287384,0.01781984232366085,-0.11638808250427246,-0.3390567898750305,0.9333685636520386,0.0,0.0,0.0,0.0,0.0,0.0
5712,1724813762855593290,-1.5409432649612427,-0.3770323693752289,0.17918935418128967,0.01811925508081913,-0.11652153730392456,-0.3387799859046936,0.9334465861320496,0.0,0.0,0.0,0.0,0.0,0.0
5714,1724813762865531922,-1.5409104824066162,-0.377033531665802,0.17918230593204498,0.017930224537849426,-0.11634303629398346,-0.3388470411300659,0.9334482550621033,0.0,0.0,0.0,0.0,0.0,0.0
5716,1724813762875934026,-1.5409187078475952,-0.37703514099121094,0.1791921854019165,0.017779871821403503,-0.11615432798862457,-0.338882178068161,0.9334618449211121,0.0,0.0,0.0,0.0,0.0,0.0
5718,1724813762885224776,-1.54092538356781,-0.3770553469657898,0.17919597029685974,0.017781956121325493,-0.11614828556776047,-0.33869197964668274,0.9335315227508545,0.0,0.0,0.0,0.0,0.0,0.0
5720,1724813762895750574,-1.540949821472168,-0.3770413398742676,0.1792057752609253,0.01805962063372135,-0.11598237603902817,-0.3385726511478424,0.9335901141166687,0.0,0.0,0.0,0.0,0.0,0.0
5722,1724813762905366398,-1.5410254001617432,-0.37703976035118103,0.17922335863113403,0.017647719010710716,-0.11584790796041489,-0.3383268117904663,0.9337038397789001,0.0,0.0,0.0,0.0,0.0,0.0
5724,1724813762915599997,-1.541076898574829,-0.3769882023334503,0.17925767600536346,0.0174346212297678,-0.11590110510587692,-0.33821216225624084,0.9337428212165833,0.0,0.0,0.0,0.0,0.0,0.0
5726,1724813762927201434,-1.5411523580551147,-0.37690576910972595,0.17930786311626434,0.017445115372538567,-0.11551309376955032,-0.3383682668209076,0.9337340593338013,0.0,0.0,0.0,0.0,0.0,0.0
5728,1724813762935413906,-1.541239619255066,-0.37689751386642456,0.17931486666202545,0.017513316124677658,-0.1154341846704483,-0.3383462429046631,0.9337505102157593,0.0,0.0,0.0,0.0,0.0,0.0
5730,1724813762958007790,-1.5413376092910767,-0.3768952190876007,0.17930372059345245,0.0170525461435318,-0.11507643759250641,-0.3382399082183838,0.9338417649269104,0.0,0.0,0.0,0.0,0.0,0.0
5732,1724813762958480226,-1.5414282083511353,-0.3768991231918335,0.17927753925323486,0.017385439947247505,-0.11487432569265366,-0.3379524052143097,0.9339645504951477,0.0,0.0,0.0,0.0,0.0,0.0
5734,1724813762965502140,-1.541517972946167,-0.3769106864929199,0.17934508621692657,0.01735573634505272,-0.1145678386092186,-0.33798375725746155,0.9339914917945862,0.0,0.0,0.0,0.0,0.0,0.0
5736,1724813762983819410,-1.5416052341461182,-0.37694427371025085,0.1793137937784195,0.01747463084757328,-0.114506296813488,-0.33731964230537415,0.9342368245124817,0.0,0.0,0.0,0.0,0.0,0.0
5738,1724813762985840273,-1.5416842699050903,-0.37696707248687744,0.17931605875492096,0.017605114728212357,-0.11436892300844193,-0.3369886577129364,0.9343706965446472,0.0,0.0,0.0,0.0,0.0,0.0
5740,1724813762996060925,-1.541771650314331,-0.37705469131469727,0.1793452948331833,0.017748257145285606,-0.11412607878446579,-0.33650651574134827,0.934571385383606,0.0,0.0,0.0,0.0,0.0,0.0
5742,1724813763009426736,-1.541892409324646,-0.3771275281906128,0.1793728768825531,0.018186038359999657,-0.1139664575457573,-0.3361232876777649,0.9347202777862549,0.0,0.0,0.0,0.0,0.0,0.0
5744,1724813763015716115,-1.54203462600708,-0.3772256672382355,0.1793525665998459,0.018198993057012558,-0.11369262635707855,-0.3357745110988617,0.9348787069320679,0.0,0.0,0.0,0.0,0.0,0.0
5746,1724813763027155668,-1.542096734046936,-0.377314954996109,0.1794213056564331,0.018745625391602516,-0.11362791061401367,-0.3362715244293213,0.934697151184082,0.0,0.0,0.0,0.0,0.0,0.0
5748,1724813763036517504,-1.5421911478042603,-0.37736204266548157,0.17943120002746582,0.01899859867990017,-0.11370860785245895,-0.33608895540237427,0.9347478747367859,0.0,0.0,0.0,0.0,0.0,0.0
5750,1724813763046674102,-1.5422993898391724,-0.37742897868156433,0.17940524220466614,0.01905778981745243,-0.11374202370643616,-0.3357531428337097,0.9348633289337158,0.0,0.0,0.0,0.0,0.0,0.0
5752,1724813763056544916,-1.542425513267517,-0.37747514247894287,0.17939753830432892,0.01843711920082569,-0.11356890201568604,-0.33551204204559326,0.9349833726882935,0.0,0.0,0.0,0.0,0.0,0.0
5754,1724813763066284885,-1.542541742324829,-0.3775389492511749,0.1793079376220703,0.01828591898083687,-0.11376262456178665,-0.3352068066596985,0.9350722432136536,0.0,0.0,0.0,0.0,0.0,0.0
5756,1724813763085769301,-1.542629361152649,-0.37754860520362854,0.17927947640419006,0.017992913722991943,-0.11350136250257492,-0.3350427746772766,0.935168445110321,0.0,0.0,0.0,0.0,0.0,0.0
5758,1724813763086067910,-1.5427480936050415,-0.37758705019950867,0.1792346090078354,0.01783333346247673,-0.11301713436841965,-0.3346697688102722,0.9353636503219604,0.0,0.0,0.0,0.0,0.0,0.0
5760,1724813763095805785,-1.542900562286377,-0.37767237424850464,0.17917434871196747,0.017015529796481133,-0.11282027512788773,-0.3340812921524048,0.9356130361557007,0.0,0.0,0.0,0.0,0.0,0.0
5762,1724813763105678324,-1.5430636405944824,-0.377716600894928,0.1791452318429947,0.017250970005989075,-0.11268702149391174,-0.33380573987960815,0.9357231259346008,0.0,0.0,0.0,0.0,0.0,0.0
5764,1724813763116126786,-1.5432443618774414,-0.3778098225593567,0.17915377020835876,0.017217664048075676,-0.1126517504453659,-0.3335448205471039,0.9358210563659668,0.0,0.0,0.0,0.0,0.0,0.0
5766,1724813763126210110,-1.5434255599975586,-0.3779052793979645,0.1791461855173111,0.01698186621069908,-0.11221451312303543,-0.33342769742012024,0.9359195828437805,0.0,0.0,0.0,0.0,0.0,0.0
5768,1724813763135226112,-1.5436053276062012,-0.3780001401901245,0.17902880907058716,0.016312990337610245,-0.11288220435380936,-0.3332411050796509,0.9359177350997925,0.0,0.0,0.0,0.0,0.0,0.0
5770,1724813763147350815,-1.5437923669815063,-0.3781352639198303,0.17894092202186584,0.015702055767178535,-0.11275922507047653,-0.3330284357070923,0.936018705368042,0.0,0.0,0.0,0.0,0.0,0.0
