seq,stamp,px,py,pz,ox,oy,oz,ow,lx,ly,lz,ax,ay,az,timestamp,wx,wy,wz,aa_x,aa_y,aa_z,roll,pitch,yaw,vx,vy,vz,jx,jy,jz,fw
3546,1724822714385267906,-1.8810908794403076,0.3092238903045654,0.1563232392072677,0.0533437058329582,0.0195476934313774,-0.3000510632991791,0.9522298574447632,0.0,0.0,0.0,-0.7459629564670599,-0.6868703247344328,-1.9416526616862029,0.0,0.0,0.0,0.0,-2.618238280620466,-4.569243579475804,4.157072155316021,0.0901987608708349,0.0692949091931934,-0.6073816294291804,-0.0013697059826372,-0.0072222895522392,-0.0162798060746787,29.607459388106506,34.98257574215663,99.22504904641134,0.0
3548,1724822714398583918,-1.8811091184616089,0.3091277182102203,0.1561064571142196,0.0530083104968071,0.0192119311541318,-0.2997171282768249,0.9523605704307556,0.0,0.0,0.0,-0.351709671965521,-0.2210419263609662,-0.6203707178836009,0.013316012,-0.0348644923636014,-0.0608441023352227,0.0553556227050539,1.655877074600168,5.492392808461986,6.681119453665904,0.0897801133043149,0.068421742586901,-0.6067187287403797,-0.0113029576625081,-0.0163686630388468,-0.0421348762175242,65.74450285620816,40.99344960574603,134.09198887165076,-0.0002046740217753
3550,1724822714402928160,-1.8811722993850708,0.3090436458587646,0.1558867692947387,0.0529524758458137,0.0191688667982816,-0.2995368838310241,0.952421247959137,0.0,0.0,0.0,-0.0148835466301093,-0.0344374051798313,0.0115733418322963,0.017660254,-0.0216133687541432,-0.0227237224382705,0.0879572892359967,2.2929008782705824,6.49698543705702,5.599870140724347,0.0897116681531191,0.0682891756680609,-0.6063461340107063,-0.0122721046332081,-0.0166687161479308,-0.0429572981045223,61.814630340456574,37.990766130928634,123.524336225541,-0.0002091515909003
3552,1724822714420944486,-1.8812236785888672,0.3089438676834106,0.155681625008583,0.0524392500519752,0.0185952596366405,-0.2991673648357391,0.9525771737098694,0.0,0.0,0.0,-0.0757067845474755,0.2791459644567156,0.5975381254319823,0.03567658,-0.0368921570647425,-0.0758720371723307,0.0465332630648088,67.33007844471369,7.443152164380107,-7.542392486364246,0.0890952608285663,0.0668528507302912,-0.6056315700302591,0.003016103677055,-0.014701577267786,-0.027739190918119,-62.29811920959504,58.96609653101365,82.88221461832764,-0.0001930038140703
3554,1724822714424924990,-1.881206512451172,0.3088772892951965,0.1555568277835846,0.052969429641962,0.0183503590524196,-0.2991594076156616,0.9525551199913024,0.0,0.0,0.0,-0.3755035992594157,0.5504110983876487,0.9717384283512714,0.039657084,0.2910745733231619,-0.0371043014929412,0.0118996707186608,39.045049281629126,7.90021294215765,-2.1983640531004793,0.0902561603295759,0.0667015125152484,-0.6055975795890757,0.0019018950344786,-0.0134409651866853,-0.0255780400686909,-38.31326476477347,52.1993116101602,73.79417147011335,-0.0001165072092395
3556,1724822714432521976,-1.8812270164489744,0.3088228106498718,0.1554462313652038,0.0528237111866474,0.01836515404284,-0.2988335192203522,0.952665150165558,0.0,0.0,0.0,-0.1300539192298495,0.7157186591769645,1.2392630596688654,0.04725407,-0.0408160093741556,-0.0037533236662869,0.0894790521052012,-24.981278813294026,2.791872152269885,4.005725193526894,0.0899910938912408,0.0666119257340309,-0.6049215639965764,-0.0023367391508344,-0.0058708222479086,-0.0119784274367988,29.894057782857356,-2.337427934367107,-9.194755703343986,-0.0001038936859441
3558,1724822714446052434,-1.8812499046325684,0.3087747097015381,0.1553463190793991,0.0532776303589344,0.01819284632802,-0.2988819181919098,0.9526280164718628,0.0,0.0,0.0,0.2162349914793949,0.1033978565453146,0.0446711819927958,0.060784528,0.0719524337339533,-0.0044906001863301,-0.0058780829725742,-8.129078510339847,-14.181751137872237,-1.9550343838988105,0.0909589990137167,0.0665586030191971,-0.6050064727703812,0.0062147444986635,-0.002952326854448,-0.0084855674716095,-37.45688277884926,-18.878798336988933,-31.802346733448783,-9.393765819772644e-05
3560,1724822714452405085,-1.881186842918396,0.3087577521800995,0.1552891284227371,0.0530605278909206,0.017807014286518,-0.298912763595581,0.9526377320289612,0.0,0.0,0.0,-0.2097700272620573,0.0621375318633635,0.0111203076006853,0.067137179,-0.0287930594588069,-0.1367185252657045,-0.0031085876824953,-8.868861458979973,-10.890981176184171,0.1491286614705623,0.0907695629403308,0.0656954510195398,-0.6051051491731517,0.006348290505258,-0.0026304252674709,-0.0088385064841025,-42.477344473056064,-1.5755107223801366,-0.3352648289183637,-5.479838082384332e-05
3562,1724822714464003041,-1.881188988685608,0.3087280690670013,0.1551900953054428,0.0530583895742893,0.0174886882305145,-0.2989718914031982,0.9526252150535583,0.0,0.0,0.0,-0.1819137727217682,0.1480308164509477,0.1119625393313771,0.078735135,0.0163531793112394,-0.0529063991786111,-0.007452415360025,-0.2140403457927935,6.144994825698831,0.5032856357068328,0.0909499472114667,0.0650922211349856,-0.605247227868671,-0.000971461702079,-0.0016669831208044,-0.0072976761190091,15.93052527108944,-3.630253687584417,5.136715662636439,-9.510730901588812e-05
3564,1724822714477473974,-1.8812143802642824,0.3087195754051208,0.1551112085580825,0.0527601540088653,0.0176693852990865,-0.2988774478435516,0.952668070793152,0.0,0.0,0.0,0.2443604700810666,-0.0735479267830068,0.1254873124950473,0.092206068,-0.0507842499858825,0.0129514511342766,0.01306201041315,-10.042696124165149,-3.6566198084067825,0.7204624174714218,0.0902783013538686,0.0652500500091069,-0.6050557890484368,0.003606509481699,0.0013435318383514,-0.0061163059563185,-10.9362499099885,-19.027875419047312,2.1107170294506226,-7.750880898327572e-05
3566,1724822714482554955,-1.881185531616211,0.3087301850318908,0.1550796329975128,0.0524742566049099,0.0176987592130899,-0.2988386452198028,0.9526955485343932,0.0,0.0,0.0,0.107190671733809,-0.1751711449567342,0.1383327995338824,0.097287049,-0.111505977719978,-0.0220047974382229,0.0151849000301181,-3.6658388845999257,-4.230635419996076,-0.2802090072155864,0.0897161124242972,0.0651317697343178,-0.6049889189978033,0.0046651173288125,0.0004005926961134,-0.0054062854532559,-32.074518164374666,-10.42551808818857,-8.835963945905329,-3.2486818027749834e-05
3568,1724822714494302303,-1.881158232688904,0.3086890578269958,0.1550380736589431,0.0528681837022304,0.0175786670297384,-0.2988854050636291,0.9526613354682922,0.0,0.0,0.0,-0.4075137169615639,-0.037579774964277,-0.2741173624271525,0.109034397,0.0704505687351931,0.0002487697412197,-0.0070651371692574,8.157639466653343,5.241234521751049,1.5051119220578877,0.0905383471121707,0.065142151830237,-0.6050715034244735,0.0031768990875207,-0.0013744405485383,-0.003819484234997,-14.766397365242623,3.1548797064518492,-16.006615385835225,-3.667479170283717e-05
3570,1724822714502516277,-1.8811272382736208,0.3086899816989898,0.15500508248806,0.0533197745680809,0.0177008546888828,-0.298781543970108,0.952666401863098,0.0,0.0,0.0,-0.3619704103171129,-0.0608155288780431,-0.2958770961473185,0.117248371,0.0953495734653204,0.0625225412949854,0.0248204451037666,-2.3228252003794028,-1.1000330424115463,1.6590331037956507,0.0913378806601752,0.0656350636375791,-0.6048212094880637,-0.0017833086136818,-0.0010311267796776,-0.0084212341396181,23.910491070732704,-2.8066699815823153,18.432153542719956,-3.282876327901785e-05
3572,1724822714512654953,-1.8812148571014404,0.3086652159690857,0.1548645794391632,0.0532574281096458,0.0174132585525512,-0.2987307012081146,0.9526911973953248,0.0,0.0,0.0,0.1102877979571011,-0.0889944052035377,0.1548193943472285,0.127387047,0.0047956930265965,-0.0572735779318793,0.0138234250874585,-0.8616240943379596,-2.111636740977003,-0.4450801152652999,0.0913921793806197,0.065044028174403,-0.6047345069497612,-0.0024259334811205,-0.0029318387028762,-0.0081127710711355,18.698114139213786,4.353268281087675,18.23955539858556,-0.0001369691628301
3574,1724822714522596441,-1.881178379058838,0.3086313009262085,0.1548399329185485,0.0536377020180225,0.0173752382397651,-0.2986587882041931,0.9526930451393129,0.0,0.0,0.0,0.0243797533026799,0.0238132352044377,0.0806136632890027,0.137328535,0.0748963925692328,0.016330674116326,0.0156333811666303,-0.2133613806655392,1.0167461617942533,-1.678786030715791,0.0921478130626206,0.0651914460750294,-0.6045644393237328,0.0003634627123858,-0.0028566083281589,-0.0053610166429951,-16.309658467616188,5.27988911408327,-16.009431476162852,-2.06327479235337e-05
3576,1724822714532220077,-1.881205677986145,0.3086089789867401,0.1547614932060241,0.0536119081079959,0.0172193776816129,-0.2987496852874756,0.9526687860488892,0.0,0.0,0.0,-0.204015857338059,0.0181026091257601,-0.1530617502988826,0.146952171,0.005165616629302,-0.0333854794313817,-0.0178581947141144,-4.5906382546544195,-1.824616577569504,-0.1896440236452329,0.0921844459473069,0.0648873322652113,-0.604765521607504,-0.0017886758368774,-0.0024760923011175,-0.0064128351595407,-12.854531333434746,-5.286693598336885,-16.47048303808072,-7.545364269109565e-05
3578,1724822714543503638,-1.8812119960784912,0.3085789680480957,0.1547121256589889,0.0535358935594558,0.0171791575849056,-0.2986250519752502,0.9527129530906676,0.0,0.0,0.0,-0.2051437611177778,-0.1036414955828889,-0.235570525755212,0.158235732,-0.0115061076740511,-0.0097672095626145,0.0235345045767929,1.4995001849786151,2.6112514499349606,1.7738825336256707,0.0920711382487039,0.0647531718024679,-0.6045107976391563,-0.0038312034454293,-0.0025554392398277,-0.0087189375427421,11.499524511142075,-6.35455889071479,3.911156873191192,-4.569092536316481e-05
3580,1724822714552670875,-1.881271481513977,0.308556318283081,0.1545998454093933,0.053669199347496,0.0172181706875562,-0.2985103726387024,0.9527406692504884,0.0,0.0,0.0,-0.0133337110418155,-0.1288643994230848,-0.1161254409171431,0.167402969,0.0244125808910084,0.0180294360438741,0.0256859747112082,-1.1174551035191136,-1.415425712209292,-0.2645018328803996,0.0923111394696853,0.0648960703629057,-0.6042605673518667,-0.005891489920657,-0.0042250775009371,-0.0111107916406396,23.888707824089032,7.18223619184101,18.58923358599199,-0.0001090633729708
3582,1724822714562320670,-1.8813222646713257,0.3084977269172668,0.1545041799545288,0.0534394420683383,0.0170799493789672,-0.2984347641468048,0.9527797102928162,0.0,0.0,0.0,0.2473079773259781,0.0413463320123298,0.1197306296701921,0.177052764,-0.0375211599787781,-0.0408067448425976,0.0180629056224433,-2.4347697018584027,-5.33367849044628,0.6345732957188128,0.0919579565127576,0.0644879212955586,-0.604122893126038,-0.0038726981705963,-0.0049275232399335,-0.0107606587576167,26.543446685437843,25.10350860145963,-35.11631858873509,-8.853248710937996e-05
3584,1724822714573656656,-1.88134765625,0.3084571063518524,0.1543709188699722,0.0532243996858596,0.0165949929505586,-0.2982223033905029,0.9528668522834778,0.0,0.0,0.0,0.5419901099647837,0.4253256316209688,-1.0714690248544323,0.18838875,-0.0120758441073359,-0.0911023292674269,0.0442268339468461,2.3583258834450493,-1.3538257299819247,0.9383037326106214,0.0918469683626765,0.063413535550164,-0.6037176185896437,-0.0005618167432821,-0.0029388375804701,-0.0082921499228572,-29.926392014315397,-30.819842833967236,79.16007773133485,-0.0001279073627809
3586,1724822714596761177,-1.8812816143035889,0.3084195554256439,0.1543424278497696,0.0538289919495582,0.016680521890521,-0.2982019484043121,0.9528378248214722,0.0,0.0,0.0,-2.7828324488352862,-3.333160841545346,9.43352989684027,0.211493271,0.0477652376459654,0.0227977616797479,0.0014040484031493,1530.0861792021512,865.218073779395,-1031.4098160221515,0.0929557301300275,0.0639350337993404,-0.6036366149070904,0.0237295873680523,0.0186557971999832,-0.0937584903444417,-345.7873616058764,-265.1435118692025,1232.3609850160335,-2.4105370726862285e-05
3588,1724822714597422711,-1.8812655210494995,0.3084322810173034,0.1542786508798599,0.0542286187410354,0.0167782995849847,-0.2984177768230438,0.9527458548545836,0.0,0.0,0.0,-3.015406465939628,-3.5105031995769176,10.263508930746656,0.212154805,1.0889018705084053,0.6114638231548944,-0.7004096407584744,1383.7528990140036,782.1446347404978,-932.2671704299516,0.0936488551076136,0.0643809447300377,-0.604061111599021,0.0218160247081655,0.0163699605440204,-0.087269141542988,-309.8114827556189,-220.5094707805476,1105.7793226899587,-6.481470573222948e-05
3590,1724822714602924445,-1.8812603950500488,0.3083911836147308,0.1542166620492935,0.0542336218059062,0.0167302582412958,-0.2982740998268127,0.952791392803192,0.0,0.0,0.0,-2.809311854185766,-2.54717171535727,9.536512048462464,0.217656539,0.0051703424981591,-0.0135414877778384,0.0556792293534985,-132.2832358782469,-77.13953734648655,90.15419293925288,0.0936964967506115,0.0642781151344931,-0.6037624595936473,-0.0003924077712511,-0.0054671218632833,-0.0100306088808626,103.7333426604803,194.17188501986664,-363.4499967704472,-5.693444727587046e-05
3592,1724822714614183683,-1.8812953233718872,0.3083757758140564,0.1541322171688079,0.0541963391005992,0.0165001433342695,-0.298386812210083,0.9527621865272522,0.0,0.0,0.0,-0.1142878562813732,0.0786010636165683,0.1145093019075617,0.228915777,0.0064985473148105,-0.0419204461906404,-0.0185175317824688,1.4411954550913897,1.9836890484703311,-2.029362739406256,0.0937535093055667,0.063827700917796,-0.6040146752911988,-0.0037435027836494,-0.0013817677014476,-0.0064013540193617,139.3686588804614,121.17739829818886,-441.9519515440795,-8.212842101481807e-05
3594,1724822714626794476,-1.8813515901565552,0.3083581626415252,0.1540670096874237,0.0545468479394912,0.0166922621428966,-0.2982533574104309,0.9527806639671326,0.0,0.0,0.0,0.2309088904247511,0.0243224042260016,0.118552515197328,0.24152657,0.0433632390837999,0.046715322730154,0.0203056891163737,0.5955686985651405,4.056318419330967,-4.748431139989856,0.094320278971547,0.0643901756883898,-0.6037038240499801,-0.0025951209596257,-0.0044053694246386,-0.0078927638309735,8.630934478285944,20.574261021991795,19.97792470611167,-6.273593959631498e-05
3596,1724822714633674738,-1.8813624382019043,0.308316558599472,0.1540024876594543,0.054736491292715,0.0168683882802724,-0.2983804941177368,0.9527269005775452,0.0,0.0,0.0,0.2199381449210722,0.2592664958691674,0.3297948721509796,0.248406832,0.0387232727138396,0.0634667316076601,-0.0417455198420211,-2.788437610746854,0.2220016163558049,-3.9005955757582207,0.0945708706242735,0.0648519865121549,-0.6039491206329045,-0.000481459654253,-0.0032467092309182,-0.0061881348665373,-15.19973909546381,11.267988764970111,9.047293794939993,-5.933499759426133e-05
3598,1724822714642430044,-1.8813544511795044,0.3083193302154541,0.1539838463068008,0.0547497794032096,0.0170549731701612,-0.2984487414360046,0.9527013897895812,0.0,0.0,0.0,-0.0647206337226281,0.1030120637605556,0.167736739166732,0.257162138,-0.0092437107342638,0.0407579275808807,-0.0188735449606088,-1.6372691719525445,-3.280867754622348,1.0899300941126595,0.0944814098381697,0.06522283214452,-0.6040801698475365,0.0004718789631255,3.558441257212053e-05,-0.0023866608294715,-31.737818580986136,-23.52928069916053,-37.61762758805834,-1.8837568017069364e-05
3600,1724822714653333396,-1.8813552856445312,0.3083159029483795,0.1539543271064758,0.054870318621397,0.0169998835772275,-0.298596054315567,0.9526493549346924,0.0,0.0,0.0,-0.4002473691408023,-0.2306946189586628,-0.5018765917982047,0.26806549,0.0250639646236415,-0.0043449112519572,-0.0276617660060286,1.1932173921500344,-3.811594814838672,3.2129003902453777,0.0947348039257595,0.0652041712067037,-0.60438563411874,-0.0025911069319306,-0.0025329336701229,-0.0041757902080794,1.466574692123192,-3.1078238083061307,-22.99788555865628,-2.8930977121917537e-05
3602,1724822714663402430,-1.8814047574996948,0.3082697689533233,0.1538986265659332,0.0549049526453018,0.0167694129049778,-0.2984068989753723,0.9527106881141664,0.0,0.0,0.0,-0.0857006434092453,-0.006295145626348,-0.3762330076217006,0.278134524,0.0189155631095883,-0.0397018815294606,0.0420591154626956,-3.733568203377932,0.3221102526935632,2.6089809072706673,0.0949502332431451,0.064766100130848,-0.604001062577341,-0.0077307698461481,-0.0048104584432415,-0.012370132134853,41.69242415562408,22.925184938468504,50.993746250962104,-5.000493484273292e-05
3604,1724822714672793251,-1.8815020322799685,0.3082225918769836,0.1537225693464279,0.0547082908451557,0.0168090686202049,-0.2982755899429321,0.9527624249458312,0.0,0.0,0.0,0.3973794182377723,0.2145884757038932,0.4399703135390188,0.287525345,-0.0434973516428956,-0.0031015167409506,0.0287648860638815,5.78140274616775,5.223443987971665,-3.1056164726999604,0.0945590130666289,0.0647115481359693,-0.6037343500370113,-0.0048155569007519,-0.002943663466528,-0.0120707894204992,17.263028531422215,3.534825517714772,40.51830276465019,-0.0001694537031458
3606,1724822714682510542,-1.881493091583252,0.3082149028778076,0.1536724120378494,0.0554323233664035,0.0168968085199594,-0.2983557283878326,0.9526938796043396,0.0,0.0,0.0,0.2214586823038833,0.0479719371330213,0.3671744051881931,0.297242636,0.1376427569001991,0.0609891075743005,-0.0184059711472306,3.3221572726093473,1.6900157474622044,-3.799521284201783,0.0958885956752548,0.0653185116363981,-0.6038562508974322,-7.984125797122488e-05,-0.0006995826037048,-0.0036920373367044,-16.493277686564976,-14.861852405662615,-22.22226254654965,-4.893867729465171e-05
3608,1724822714693820937,-1.881507158279419,0.3082081973552704,0.1536500006914138,0.0553114749491214,0.0170399658381938,-0.2986042201519012,0.952620565891266,0.0,0.0,0.0,0.0561163513779133,-0.0900461708338411,-0.0780955448867879,0.308553031,-0.0264501259688732,0.0155244048137516,-0.0474939459406159,-3.2121844570925027,-2.073204576173356,3.462168032058676,0.0955555089477403,0.0655446444667851,-0.6043753693183014,-0.0010754221323878,-0.0025656761275669,-0.0060566862746371,-12.101854150948949,3.795956692616886,-2.861147552926679,-2.1478346321783425e-05
3610,1724822714704015908,-1.8815165758132937,0.3081639111042022,0.1535508036613464,0.0555505231022834,0.0170194841921329,-0.2983945906162262,0.9526727199554444,0.0,0.0,0.0,-0.0441337855638707,0.0956745538201845,0.228218547862022,0.318748002,0.0446065603421551,0.0122758103837539,0.0432521236167445,1.609244616697745,-1.8838901626183,2.45746748491422,0.0960398891912518,0.0656270459383804,-0.6039235082207723,0.0008212629887225,-0.0027950011513162,-0.0056492843307562,-9.153878539575429,8.586374734155704,14.794844041361294,-9.33833240569138e-05
3612,1724822714712538351,-1.881497144699097,0.3081511259078979,0.1535317301750183,0.0556145869195461,0.0169289447367191,-0.2983253300189972,0.9526922702789308,0.0,0.0,0.0,-0.1173068410391652,0.1002407190171673,0.2456557476805363,0.327270445,0.0201312052046675,-0.0149308001806547,0.018289647594211,-4.76212087252435,-0.9245215264381874,-2.0291286642137627,0.0962208373012065,0.0654854235157911,-0.6037802436967834,-0.0011947007328672,-0.0011377524164455,-0.0023631019598315,31.07196160109777,-9.267345736924929,5.301772830678983,-1.7478615402756428e-05
3614,1724822714723095654,-1.881555199623108,0.3081438541412353,0.1535051465034485,0.0553472638130188,0.0170377865433692,-0.2982755005359649,0.9527214169502258,0.0,0.0,0.0,0.7293757497954192,-0.1258029103986033,0.344206787457221,0.337827748,-0.054864668711873,0.0049674273116771,0.0086364222825158,4.077309094110071,2.901913431884656,-3.2717001788598985,0.0956478825984843,0.0655288810509073,-0.6036841667930847,-0.0008737115985582,-0.0013116428668524,-0.0015997230311679,1.6974250624148226,-5.015165549910539,-24.803668131052405,-2.553247082863167e-05
3616,1724822714732610724,-1.881523847579956,0.3081260323524475,0.1534978002309799,0.0557641834020614,0.0171229727566242,-0.2984646558761596,0.9526363611221312,0.0,0.0,0.0,0.0723208008774564,-0.0329153610902263,-0.1845646532949658,0.347342818,0.0798164715332063,0.0413019686517926,-0.0427099013011635,17.349413552744476,4.760585768713347,-9.725090734415108,0.0963831943445771,0.0659590249446018,-0.6040518297050255,0.0120605372260484,-0.0034462661679324,0.0040071574547475,-86.43257404845433,9.465687897214586,-66.35428635891023,-5.24141971614663e-06
3618,1724822714746290008,-1.8811864852905271,0.3080479502677917,0.1536466032266616,0.0584641993045806,0.0172608233988285,-0.3001596629619598,0.9519391655921936,0.0,0.0,0.0,-1.451778250882677,0.0907382475193599,-1.3042876551850904,0.361022102,0.379974840702327,0.12494780069457,-0.2608716122812852,-62.89013682576654,-20.143422161067193,45.00332468568071,0.1013540792117513,0.0680121175932623,-0.6074418155713076,-0.0122606797671664,-0.0001319531447805,-0.0137356079817578,74.40222740568265,-10.347570937187305,84.54979341094675,0.0001564434991984
3620,1724822714754373696,-1.8814619779586792,0.3080735206604004,0.1534179896116256,0.056240040808916,0.0171866714954376,-0.2986435890197754,0.9525511264801024,0.0,0.0,0.0,0.0373235672348854,-0.0855203299544164,0.1741048887928065,0.36910579,-0.533655593850448,-0.1633209161883806,0.3940875902220982,-40.68128281929161,-13.751939532143108,30.35663652175427,0.0972446890463709,0.0663825651795103,-0.6043958173189139,-0.0224382312332096,-0.0001224027695396,-0.0243136192613091,114.08385208563016,-12.732281324138654,126.04298978763858,-0.0002298006366036
3622,1724822714764413744,-1.881542086601257,0.3080313205718994,0.1532233506441116,0.0560121648013591,0.0170929208397865,-0.2983273267745971,0.9526653289794922,0.0,0.0,0.0,0.30825803189358,-0.1002270195268154,0.7307586945255137,0.379145838,-0.0400244628232774,-0.0281935227128036,0.0670749607604746,28.185566007619897,9.555981514935128,-20.195545594925314,0.096885464005046,0.0660355679397651,-0.6037515654587787,-0.0058982199672215,-0.0020621910329836,-0.0040769231131907,6.876452522846984,-2.987646389134732,-32.340198201973855,-0.0001883016086442
3624,1724822714776940413,-1.8815834522247312,0.3080389499664306,0.1534115523099899,0.0559813007712364,0.0173001252114772,-0.2982702553272247,0.9526813626289368,0.0,0.0,0.0,0.0801116638892454,-0.1614530321761197,-1.046338541912771,0.391672507,-0.0148629160489805,0.0305127357859717,0.0075071422618838,-9.530878444882989,-7.776385955168472,-7.233114469709824,0.096707954857179,0.0664069244658346,-0.60362083643448,-0.0229664833358924,-0.0018645335132276,-0.015003892586126,117.02375191693402,-11.940389786352323,28.75067177367779,0.0001860347477219
3626,1724822714782532065,-1.8817609548568728,0.3080223500728607,0.1532527059316635,0.055684395134449,0.0172697007656097,-0.2983766496181488,0.9526659846305848,0.0,0.0,0.0,1.072018391248423,-0.2458231708865589,-0.4597177217559184,0.397264159,-0.0969589110638398,-0.0440774826983237,-0.0391225928172593,-4.314742144005033,-8.206442841441884,-4.090316180539154,0.0961497598811118,0.0661826638444805,-0.6038628261879346,-0.0189176324887796,-0.0032096937669638,-0.0212890626207951,109.0473412284682,-6.8428879340133,96.3167859050367,-0.0001557765171903
3628,1724822714793748867,-1.8816845417022705,0.3079809248447418,0.1531740874052047,0.0561206042766571,0.0170090589672327,-0.298334926366806,0.9526581168174744,0.0,0.0,0.0,0.7574018814693048,-0.1370436144205221,0.4272919475328897,0.408480961,0.0879125092633622,-0.0206281156268406,0.0105997472101791,6.3637062127606985,0.9822612617417787,1.293454632956032,0.0971422041901394,0.0659408858344514,-0.6037665738025906,0.0009356869286136,-0.0060853385876669,-0.0114981257226167,-51.244881659799006,15.18487896840509,26.619264829931794,-7.331026371530261e-05
3630,1724822714803885210,-1.8817288875579832,0.3078973293304443,0.1530164182186126,0.0563771091401577,0.016819629818201,-0.298370361328125,0.9526352882385254,0.0,0.0,0.0,0.0254899378602512,0.0671359229791871,0.2165880253098051,0.418617304,0.0597372524661164,-0.0208235249375357,-0.0050460370726552,-3.244278342494656,4.519615067389525,1.292274605016792,0.0977430206032135,0.0657357952841797,-0.6038382250332016,-0.0006620422463754,-0.0063814403161117,-0.0112485284515653,-38.29594261179411,13.582527836800434,-15.139516198200436,-0.0001466885674897
3632,1724822714813183081,-1.8817033767700195,0.3078539073467254,0.1529485583305359,0.0565760619938373,0.0170412678271532,-0.2982186675071716,0.9526670575141908,0.0,0.0,0.0,-0.0413641357542108,0.1374691665811724,0.1239885713448444,0.427915175,0.0256094760747251,0.0599103891688607,0.0311552828033976,-3.0074303828621405,3.1958670118296815,-0.1174188611417836,0.0980037873103792,0.0662618625544597,-0.6034947582843494,0.0011366926897409,-0.0049354920986104,-0.0075975063970865,0.995415784348856,-0.4077185370579099,-14.461191093465416,-6.229650351463736e-05
3634,1724822714824158584,-1.881711721420288,0.30779629945755,0.1528612971305847,0.0566193312406539,0.0171711035072803,-0.2983268797397613,0.952628254890442,0.0,0.0,0.0,0.0756132529272707,0.0297082155948505,-0.0930571854074275,0.438890678,0.001191951896457,0.0238955602127638,-0.0220983265409616,-0.6378095332329747,-2.125398698841783,-2.457641227196498,0.0980025204901471,0.0665465990864519,-0.6037109283517532,-0.0023595983910382,-0.0036604834563007,-0.0097176989334046,16.407678718119023,-7.610603308036728,1.3492467459277968,-7.983674754622509e-05
3636,1724822714835187788,-1.8817554712295532,0.3077735304832458,0.1527345329523086,0.0567007139325141,0.0172285493463277,-0.298442929983139,0.9525860548019408,0.0,0.0,0.0,0.3203010600154171,-0.0297622365297509,0.1559527382355149,0.449919882,0.0117455195022857,0.0132660723017231,-0.0226665996783876,2.762680039095974,4.058278265408685,4.780306398777596,0.0981164232496348,0.0667166890461877,-0.603945949311431,0.0028429780907401,-0.0042910802527771,-0.0096344233393974,-22.30216439955373,2.6779040215886916,3.4962837366987847,-0.0001231354379993
3638,1724822714843535503,-1.8816887140274048,0.3077236413955688,0.1526658535003662,0.0569861456751823,0.0174732692539691,-0.2982376217842102,0.9526287913322448,0.0,0.0,0.0,-0.1469511743294323,0.0435797029618858,0.0645815250975374,0.458267597,0.0462169628901207,0.0788734857330267,0.0477663465856445,3.154854644864432,-0.7882974275324601,0.2311151697064577,0.0985331904582433,0.067332770114687,-0.6034833837208393,0.0045601385311186,-0.0043663273422076,-0.0073949440620273,-38.43749368885624,7.966422868354805,-8.053052878583742,-6.230158027652527e-05
3640,1724822714853273308,-1.881683349609375,0.3076994121074676,0.1526032984256744,0.0572487227618694,0.0172642171382904,-0.2984510958194732,0.9525500535964966,0.0,0.0,0.0,-0.3220479594090584,0.1118467651064661,0.019020632468225,0.468005402,0.0658675641805542,-0.0270344200217708,-0.0432012990184551,-1.2637128790856396,-3.6127302360340776,-1.4475239180400157,0.0991446731026091,0.0671123183494564,-0.6039290582017629,-0.0008767894352672,-0.0033445238948921,-0.0090798874518656,12.499047848151156,7.925746603965703,11.024195740500566,-5.9222383016464326e-05
3642,1724822714862907072,-1.881705403327942,0.3076590299606323,0.1524905115365982,0.0573636926710605,0.0172608904540538,-0.2983678877353668,0.9525691866874696,0.0,0.0,0.0,0.0888664978403581,0.1969244250499118,0.2748874456477468,0.477639166,0.0224160729420931,0.0073859606355196,0.0180916764917148,-3.791890989280581,2.626081076658381,2.263596893940505,0.0993727454203633,0.0671658413224508,-0.6037480826909732,-0.0017273395349093,-0.0022011112492705,-0.0070662335978504,19.46281384498907,1.9812817059510692,4.193737135564219,-0.0001071185753865
3644,1724822714873599992,-1.8817172050476072,0.3076591193675995,0.1524700373411178,0.0573528483510017,0.0174015536904335,-0.2983919084072113,0.952559769153595,0.0,0.0,0.0,0.0217407769946616,0.1368117523788511,0.0542836036703754,0.488332086,-0.0096034600754476,0.0242292111767943,-0.0063495073029325,0.5569168494260986,0.4580520310648033,-3.787919789968716,0.0992672367704684,0.0674303794324946,-0.6037900622573827,0.0013254701893714,0.0008331360190911,-0.0033451404646731,-15.921432135905588,-14.208468392104624,-19.31283171819946,-2.032511027825709e-05
3646,1724822714883645476,-1.881680965423584,0.3076752722263336,0.1524229347705841,0.0575163103640079,0.0174617040902376,-0.2986694872379303,0.9524618983268738,0.0,0.0,0.0,-0.2292090958521303,-0.086954410193716,-0.1272848363024394,0.49837757,0.0295062773271214,0.0182879711574154,-0.0585774848552634,-0.0315131798176939,1.4676890983742026,0.7772899200166401,0.0995252770910729,0.0676715873795513,-0.6043587543988254,-0.0009452779399907,0.0008206676458435,-0.0055716721918734,5.3529886271164635,-37.22558631588548,-29.73577345876233,-4.874009065673653e-05
3648,1724822714893288553,-1.8817322254180908,0.3076758980751037,0.1523610353469848,0.0575580894947052,0.0177073050290346,-0.2986350953578949,0.9524655342102052,0.0,0.0,0.0,0.1032088942721842,-0.5843152701920534,-0.5219739126066076,0.508020647,-0.0071284590484299,0.0515018791755654,0.0042406293658484,-2.240881430587374,0.6776959788945565,4.656233035406538,0.099462643141187,0.0681616943784217,-0.6042684276111688,-0.0031848328831287,-0.0008112696737976,-0.0059256170739709,15.763443330317662,-7.3322994036991584,0.4610359101356636,-6.149256754752948e-05
3650,1724822714910758201,-1.8817204236984253,0.3076339960098266,0.1522731333971023,0.0575243346393108,0.017484426498413,-0.2984249591827392,0.9525375962257384,0.0,0.0,0.0,-0.2135124702346269,0.687868571502861,0.7960362655027033,0.525490295,0.0030384490379713,-0.0242186322822709,0.0267776965051873,-96.85159489370945,9.566960579617966,29.088458176802245,0.0995445410289199,0.0676942313352439,-0.603844044564605,0.0092347867298485,-0.0241557348062997,-0.0304023485883391,-90.74645746930248,188.1527488148257,199.8268536194584,-8.224930633374477e-05
3652,1724822714912275471,-1.8817052841186523,0.3075944781303406,0.1522236615419387,0.0574102662503719,0.0175109710544347,-0.2983693182468414,0.952561378479004,0.0,0.0,0.0,-0.3607685954040982,0.9885450328540436,1.1156182026800534,0.527007565,-0.156751132233343,-0.0078710815745429,0.0745759462802805,-89.75890543191746,10.585095959626,26.475509672765064,0.0993142511588027,0.0676711102425962,-0.6037323358116929,0.0087890104384733,-0.0228453140872582,-0.0289050132459429,-86.46030850009078,172.20279542352912,179.86225891578349,-4.439385031405928e-05
3654,1724822714923352200,-1.8817040920257568,0.307600200176239,0.1522027552127838,0.0581257380545139,0.01784298568964,-0.2985538244247436,0.9524540901184082,0.0,0.0,0.0,-0.4618610875429352,0.7962024782843449,0.6199068803859393,0.538084294,0.1068651518602947,0.094075665765898,-0.038693274290777,1.8114055225854255,-4.062000556977132,-0.2912247142151236,0.1004759481894093,0.0687507196183267,-0.6040557089465979,-0.0006224099292211,-0.0017974658022374,-0.0061357112880404,25.695691539026065,-56.52094550640217,-64.33144964926394,-2.1447137493430737e-05
3656,1724822714932498231,-1.8817152976989744,0.3075662851333618,0.1521145552396774,0.0578838028013706,0.0177038107067346,-0.2984151542186737,0.9525147676467896,0.0,0.0,0.0,0.036125239236562,-0.0164432795058228,-0.116327992077328,0.547230325,-0.0426156908089385,-0.0432561046417004,0.0336682249260068,-8.351290961679505,-6.976699556106984,4.478285479849975,0.1001044758557492,0.0683262409818622,-0.6037881904643416,-0.0019180261164564,-0.0028525018847496,-0.0113081590065862,42.77097311935674,-45.80487021770941,-20.091926743742786,-8.34462804134225e-05
3658,1724822714943535606,-1.88174569606781,0.3075461983680725,0.1519675701856613,0.0577168054878711,0.0176692251116037,-0.2982202172279358,0.9525867104530334,0.0,0.0,0.0,0.3526637025661019,0.0513757686459121,0.4665055643722531,0.5582677,-0.0283331847208683,-0.0131857052360688,0.0373629858549259,6.304987517765688,2.5176713560726003,-3.464367748611764,0.0998188234206382,0.0681402927106923,-0.6033915876456767,0.0008487568111661,-0.0017165107774133,-0.0066086817582835,1.7632660725484808,8.820590602122927,11.894348552601612,-0.0001434704011714
3660,1724822714953388819,-1.881705641746521,0.3075301945209503,0.1519614607095718,0.0580940060317516,0.0176094062626361,-0.298365831375122,0.9525191783905028,0.0,0.0,0.0,0.1332860921969128,0.1618261573014565,0.223845149747312,0.568120913,0.0778682120183537,0.0098029025413501,-0.0301895703723995,4.1787109176230475,2.3947057331637835,-2.4575638861422298,0.1005664967283923,0.0682661378873754,-0.603678445962261,0.0052207385813005,-0.0016637018789467,-0.0016538641329884,-39.916451419102586,3.640792532499536,-35.72101246323014,-4.169970975435602e-06
3662,1724822714962795171,-1.8816461563110352,0.3075141906738281,0.1519366204738617,0.0583984367549419,0.0176792182028293,-0.2984234988689422,0.952481210231781,0.0,0.0,0.0,-0.4006916508477533,0.1281068530798924,-0.2117759379629247,0.577527265,0.0579114661078016,0.0328814823714069,-0.013810371133767,-3.857959476697262,6.561743791303185,1.7305182282007658,0.1011045098891323,0.0685869393864589,-0.603776794015454,0.0036869317263779,0.0012635239233773,-0.002053811596296,-19.838124644717944,-15.925481795196983,-27.408330538405203,-2.27760279039025e-05
3664,1724822714973530306,-1.8816388845443728,0.3075640797615051,0.1519217640161514,0.0586205646395683,0.0184709765017032,-0.2983511090278625,0.9524753093719482,0.0,0.0,0.0,-0.161208176819641,-0.1940495476466947,-0.274415011076614,0.5882624,-0.0047771807694383,0.1536552375715072,0.0046349875621824,-3.443196286077657,-7.419423821701303,2.2000335697521303,0.1010682567834766,0.0702230196385829,-0.6035604095497589,-0.0035259125289144,0.0003956194995176,-0.0064009294687412,44.81521801815378,-9.010174085992878,15.114019238566826,-2.086364820224448e-05
3666,1724822714982437044,-1.8817013502120972,0.3075361847877502,0.1518276780843734,0.0584806576371192,0.0182735342532396,-0.2982448935508728,0.9525209069252014,0.0,0.0,0.0,0.404269170194343,-0.1191207512164367,0.0150093457089202,0.597169138,-0.0177361699738803,-0.050392432365248,0.0277905686732504,2.2610314060873633,-10.514036337957103,-0.446969489130484,0.1009243619867319,0.0697515081255858,-0.6033588264170977,-0.0011879297546641,-0.0021692670320376,-0.0078805025825241,14.828619882349727,12.629429185718154,18.37560401598945,-8.996331930590122e-05
3668,1724822714993885373,-1.881629228591919,0.3075255155563354,0.1517769396305084,0.0588407851755619,0.0182371474802494,-0.2983683943748474,0.9524608254432678,0.0,0.0,0.0,-0.1420098761925537,0.0875165478226362,0.0176100341784339,0.608617467,0.0628304060576507,0.0116388215209769,-0.0221599827745902,4.9869230510229805,3.0106187433311424,-1.828539455502447,0.1016269690593871,0.0699097301552009,-0.6035984190471552,0.0055264947092865,-0.0010483320058938,-0.0050433435195493,-48.07577205201368,3.458876470944793,-6.13088425696067,-4.906821031057569e-05
3670,1724822715002710460,-1.881585717201233,0.3075154721736908,0.1517282724380493,0.0592582188546657,0.0182120520621538,-0.2984586358070373,0.9524070620536804,0.0,0.0,0.0,-0.568723963756508,0.0187820619796368,-0.0797489226846633,0.617442554,0.0928911256138487,0.0218280518022152,-0.0210543627606133,-6.766741202034914,-3.0305819367560893,3.728481770856124,0.1024351372204008,0.0701202760410645,-0.603763947845119,-0.000682743028193,-0.0003467140787787,-0.0064540556164294,-0.284678341085641,-5.683541515677089,1.3120547555693296,-4.7079938044126155e-05
3672,1724822715012469103,-1.8816529512405396,0.3075206279754638,0.1516551524400711,0.0588006414473056,0.0180712584406137,-0.2982145845890045,0.9525145292282104,0.0,0.0,0.0,-0.0528054957050096,-0.0139667175749434,0.0662598158631968,0.627201197,-0.0829196987383214,-0.0529081605939056,0.05421253047883,-4.928534173568352,-0.761988010313268,1.3081959613591645,0.1016590850281948,0.0695527545165954,-0.6032890804865442,-0.0047773902699219,-0.0008186599018138,-0.0063679029661818,41.817216192535625,0.655790534372757,10.1239122049255,-7.315641230571617e-05
3674,1724822715023238521,-1.8816792964935305,0.3074958026409149,0.1515999436378479,0.0589336082339286,0.0181492865085601,-0.2982499897480011,0.9524937868118286,0.0,0.0,0.0,0.2662060645994599,0.0407739462573903,0.1177884290823176,0.637970615,0.0195448206135275,0.0208495016074293,-0.007817477735493,5.347867979135371,3.3986752408008702,-2.926422081245709,0.1018653271827995,0.0697846883559962,-0.60335022088122,-0.0009868603406744,-0.0005602913286217,-0.0049717567815399,4.379016491096826,-0.5389793262723976,1.242359438343148,-5.171781297004792e-05
3676,1724822715032666639,-1.8816765546798704,0.3075049221515655,0.1515543460845947,0.0591266453266143,0.0182122383266687,-0.2983002364635467,0.9524649381637572,0.0,0.0,0.0,0.0991396745132533,-0.0107104974711306,0.1002633740373273,0.647398733,0.0355751485634587,0.0244156657058536,-0.0120215478084911,-0.208764533896561,-1.0971076819508183,0.1745407470888025,0.1021944908495677,0.0700252359553085,-0.6034398006305519,0.0008150635130803,-3.7345034822777734e-05,-0.0039590540421619,-10.53733314763382,-0.1783305076867614,7.413056845833935,-4.637632338991743e-05
3678,1724822715046859482,-1.8816537857055664,0.3074829280376434,0.1515168994665146,0.0590238571166992,0.0180747080594301,-0.298283576965332,0.9524790644645692,0.0,0.0,0.0,0.10304680038735,0.0996198646352277,0.4035740722025251,0.661591576,-0.0081753179813741,-0.0226771699115106,0.0037118943352063,-3.0898918308960512,10.71441604846027,5.18591196171844,0.1020798140361991,0.0696996768207385,-0.6034200677171346,0.0002568786907488,-0.0016032680466722,-0.0026887879863899,1.967860759407369,-9.296746004997424,1.0374619477332487,-3.4468868127264936e-05
3680,1724822715052618143,-1.88165545463562,0.3074735701084137,0.1515012979507446,0.0590165108442306,0.0182866435497999,-0.298151820898056,0.952516794204712,0.0,0.0,0.0,0.1183338099918482,0.0061973277894839,0.3620390432514067,0.667350237,-0.0259860596495981,0.0718110138505767,0.0431027371510784,1.6619555535188515,8.93849869070595,0.8656573888792407,0.1019504169733043,0.0700857935525227,-0.6031303970177946,0.0011829564407719,-0.0005390299138685,0.0003691045176053,-7.502362713026336,-11.048922472304245,-19.467719751250733,-1.4327670377269636e-05
3682,1724822715062470163,-1.8816189765930176,0.3074865639209747,0.1515568196773529,0.0593929141759872,0.0183567311614751,-0.2983784973621368,0.952421009540558,0.0,0.0,0.0,-0.1267755414357352,-0.0154483860737702,-0.0363171831441119,0.677202257,0.0705300586519197,0.0339745335376935,-0.0490710907316957,-0.9074185119327408,-6.76592238785487,-2.3340752749463305,0.1026138218746677,0.0704681165812407,-0.6035781886811316,0.0016327664118733,-0.0034884338251401,0.0010879541648032,-12.462044843242314,8.818034374667672,-24.37402615180169,5.34628357071115e-05
3684,1724822715073034726,-1.8816251754760744,0.3073952496051788,0.1515167951583862,0.0589786656200885,0.0180945564061403,-0.2983655035495758,0.9524558186531068,0.0,0.0,0.0,-0.1177632923660508,0.2024966062890666,-0.1118808528865869,0.68776682,-0.0603181895597154,-0.0706457707568755,0.0058173620890939,0.6804954613086833,4.062674708836742,4.147824154378127,0.1019755239929365,0.0697193978204826,-0.6035932808202457,-0.0016599837689454,-0.0004351880331086,-0.0005337361143364,12.43816025192951,-8.381950374036116,-4.316868691753723,-2.8470301763834952e-05
3686,1724822715082294158,-1.8816492557525637,0.307457834482193,0.1515382677316665,0.0593219809234142,0.0183670800179243,-0.2981903851032257,0.952484130859375,0.0,0.0,0.0,0.0914262604594637,-0.1105615003240336,-0.128839453641772,0.697026252,0.0520210109808976,0.0803107790186206,0.0357212036348582,2.827650557691846,0.8029696229500161,0.6823224493967616,0.1024856310106588,0.0704253939612712,-0.6031873731057572,-0.0011766769798811,0.0007377273049478,-0.0012319046810294,55.5367153768888,9.378306514863349,136.45656237229483,1.355830582010106e-05
3688,1724822715093584571,-1.8816429376602173,0.307383269071579,0.1514754742383957,0.0588766783475875,0.0177717972546815,-0.2981823086738586,0.952525556087494,0.0,0.0,0.0,1.1720037395388012,0.589886499951793,3.3156056310452127,0.708316665,-0.0441510523141568,-0.1240103586338045,0.0083574835065341,-5.343691681993555,-10.509280567101689,-1.6796925166000385,0.1019837185192741,0.0690229429589218,-0.6032364908386018,0.0003956390837309,-0.0037765279909027,-0.0034222385092013,-154.56228823663156,-122.02462151080604,-506.2667134745428,-5.317265422781768e-05
3690,1724822715118524765,-1.8816421031951904,0.3074448704719543,0.1515079885721206,0.0589667558670043,0.018154727295041,-0.2980698347091675,0.952548086643219,0.0,0.0,0.0,-16.47071510863958,-12.593904419511802,-54.009463595185025,0.733256859,-0.0025426596922893,0.0319028679013942,0.0074504416028961,7004.288902370777,-3073.25261614532,-9665.755925698,0.1019388089750281,0.0697955773374749,-0.6029701442612476,0.086521662303312,0.0654610249853249,0.2726213450011983,-1694.7494450250233,-1212.9406381877488,-5069.913158596988,2.467948435372014e-05
3692,1724822715118795998,-1.8816183805465696,0.3074628114700317,0.151582732796669,0.0591752268373966,0.0179935973137617,-0.2984223961830139,0.9524278044700624,0.0,0.0,0.0,-16.933299515978458,-12.924912533684044,-55.39276632329225,0.733528092,1.917907613060131,-0.8107484265282827,-2.6427329928322885,6603.016175694894,-2894.613786518786,-9108.784655407968,0.1024076423527717,0.0696499303636957,-0.6037074057942209,0.0819954899601924,0.0619998047077157,0.2577802332532894,-1576.6277960437055,-1123.9149010606038,-4688.334930802505,7.193262258235758e-05
3694,1724822715122799191,-1.8816131353378296,0.3074660301208496,0.1515634655952453,0.0595282018184661,0.0181644018739461,-0.298388659954071,0.9524130821228028,0.0,0.0,0.0,-15.631305144405404,-11.724437352428437,-49.83507814795166,0.737531285,0.1426238716164109,0.135030166610382,0.0119813036213991,-342.20364992589447,178.06953622339765,506.53032294195265,0.1029858046943012,0.0701827099751525,-0.6036039687121013,-0.0003207905421476,0.0005777405644202,-0.0038826068769775,532.0237122053546,440.70024797619385,1964.3506215334453,-1.9522644633520616e-05
3696,1724822715135781756,-1.8816859722137451,0.3074640035629272,0.1515522301197052,0.0592956617474556,0.0182189811021089,-0.2984232306480407,0.9524157047271729,0.0,0.0,0.0,-0.0179858750416775,-0.0740186053106047,-0.079810712736414,0.75051385,-0.0365549013534535,-0.0030057108972536,-0.0061029512121965,-5.7366935769500635,-8.99057531299049,1.3868293120988209,0.1025054059214888,0.0701520191017062,-0.6036869793073883,0.0043701275761236,0.0007286141705407,0.0029269801023072,391.4725836305454,305.3787338615118,1294.187981219418,-1.0848087317847136e-05
3698,1724822715142618055,-1.881620168685913,0.3074721693992615,0.1515858918428421,0.0590846017003059,0.0180733129382133,-0.2983886301517486,0.9524425268173218,0.0,0.0,0.0,-0.2618152924250022,-0.1174947721805232,-0.3697235715532161,0.757350149,-0.0467407756291647,-0.0585576727797296,0.0133846053305225,-0.0081594799773243,-2.745006594451149,1.7319077780471277,0.1021894011388246,0.0697444595393318,-0.6036368309995724,0.0028817193350079,-8.568777637663061e-05,0.0002058921440548,-10.81182699842751,0.378673634669432,-9.873662426565708,3.234277363748058e-05
3700,1724822715152939021,-1.8816955089569092,0.3074513375759125,0.1515145003795623,0.0589645430445671,0.0180906914174556,-0.2983193695545196,0.9524713158607484,0.0,0.0,0.0,0.0138843865954738,-0.0085914834396114,0.035314520887336,0.767671115,-0.0237356208063434,-0.0030423922978178,0.0138282411326362,4.33216206487436,3.34710202031936,-0.1871433894249924,0.1019541148864123,0.0696986778279082,-0.6034976963350852,-0.0005075335979398,-0.0012731098225593,-0.0031688633575015,14.722444704590746,0.5850336469978643,10.800759928893209,-6.822938361019991e-05
3702,1724822715163084160,-1.881632924079895,0.3074458539485931,0.1515197306871414,0.0591805428266525,0.0180769488215446,-0.2982733845710754,0.9524725079536438,0.0,0.0,0.0,0.0436762725334991,-0.1020464630584257,-0.1387570326795962,0.777816254,0.0411884130633509,0.0106528669850507,0.009634744952043,3.352688373474519,1.2509494366114766,-1.4376159839479206,0.1023795256616616,0.0697962102120246,-0.6033890935839225,0.0030465433893454,-0.0002986394868464,0.0008023255220201,-2.405423630167372,0.4061680125270168,-4.40939595970236,5.8132404923566886e-06
3704,1724822715178034713,-1.8816561698913576,0.3074467182159424,0.1515380442142486,0.0594086721539497,0.0182317346334457,-0.2985097169876098,0.9523813128471376,0.0,0.0,0.0,-0.109981592199466,0.1159302822335558,0.0762017113680935,0.792766807,0.0241847334227647,0.027174431020042,-0.0344251652440047,-19.072574512643143,-28.99988039453003,31.61505086768892,0.1027081083823327,0.0702530331362533,-0.6038606328439188,-0.0030565563257027,-0.0061888424100047,-0.0129534866755456,30.18663846053321,44.29428960578165,94.16307033735332,1.8082099227624575e-05
3706,1724822715182217821,-1.8816707134246824,0.3074135184288025,0.1514672636985778,0.0591806024312973,0.0180046688765287,-0.2982473969459533,0.9524819850921632,0.0,0.0,0.0,0.063652600764031,0.3359963927177014,0.563477890400628,0.796949915,-0.0765896366212626,-0.1293705810797787,0.138276093985033,-16.224781342093095,-23.439781102211477,26.12592255560704,0.1024241545415536,0.0696554798313077,-0.6033393545071336,-0.0031675588556225,-0.005107086724382,-0.0114686524849925,34.31131525727081,34.8443135721949,78.53655925440817,-6.612485123218639e-05
3708,1724822715193044034,-1.881696343421936,0.3074375092983246,0.1514958590269088,0.0590300522744655,0.0181019250303506,-0.2982602417469024,0.95248544216156,0.0,0.0,0.0,0.2334579404682187,0.2154981867676899,0.3504047166331697,0.807776128,-0.0318441974143913,0.0086662133142539,-0.0036337107082392,6.472578184918291,7.041269116421217,-5.133850518205072,0.1020773350461787,0.0697528249212952,-0.6033689623393708,4.855762111333206e-05,0.000699031935472,0.0004741733582012,-8.080678291177069,-19.706409124769845,-32.85885507442248,2.5439145260801453e-05
3710,1724822715202521310,-1.8816758394241333,0.307431548833847,0.1514823734760284,0.0592916123569011,0.0181554555892944,-0.298194020986557,0.9524890184402466,0.0,0.0,0.0,-0.0402918969767974,-0.0424164627826379,-0.0703347846736813,0.817253404,0.0489077878837806,0.0280342851552478,0.0138680779696557,4.4812998347891115,-2.0352614795613335,-0.0429549260349156,0.1025519189860397,0.0700037145058999,-0.6032108115059052,0.0017333712852547,7.984681391626225e-05,-0.0024499469168119,-16.618792415954516,-14.763250015349088,-11.786646004990851,-1.265996786678042e-05
3712,1724822715213221853,-1.8816624879837036,0.3074409663677215,0.151443749666214,0.0594669617712497,0.0178625155240297,-0.2982603311538696,0.9524628520011902,0.0,0.0,0.0,-0.0699269717080282,-0.0499649314274703,0.1975007933962647,0.827953947,0.0480586282743542,-0.0430241010006587,-0.0094219414014715,-6.229945012813446,-1.543496312127914,-0.7048573601623382,0.1030558585954956,0.0695561088303914,-0.6033586923361435,-0.0013323814951746,-9.715364009466045e-05,-0.0003246410158181,9.935338687355356,2.3315466588276847,3.4214621072625064,-3.951246990945661e-05
3714,1724822715223221185,-1.8816999197006223,0.3074308633804321,0.151471197605133,0.059109091758728,0.0179186817258596,-0.2982700765132904,0.9524810314178468,0.0,0.0,0.0,0.1481346322293982,0.0017266917248513,0.0298005410016388,0.837953279,-0.0717081982618361,-0.0108300163835245,-0.0027186588117742,-1.6118755967903564,5.043122691260496,-0.056209699563917,0.1023361710831214,0.0694511746423413,-0.6033969387473067,-7.889381862469236e-06,-0.0009090827669346,0.0016398084333717,7.619860979887344,2.785806882905277,-11.292754105085091,2.8526276530281523e-05
3716,1724822715232966897,-1.881664514541626,0.3074229657649994,0.1514766812324524,0.0592403151094913,0.0181638021022081,-0.2983022034168243,0.9524582028388976,0.0,0.0,0.0,0.087632849901026,0.0062347226946373,-0.0282187514987456,0.847698991,0.011040902378357,0.0556393568186676,-0.010167926481786,2.6774283603761138,-2.1555780006401797,-0.3378268692595769,0.1024407643456558,0.0700007120768785,-0.6034402264487359,0.0015846923947009,-0.0001045894922881,0.0003472352770721,-5.678455769872837,0.4527004479180302,-1.9627794694018463,6.392043917909794e-06
3718,1724822715244156828,-1.8816730976104736,0.3074308633804321,0.1514777988195419,0.0589200407266616,0.0177762359380722,-0.2983716428279876,0.9524636268615724,0.0,0.0,0.0,0.0308955257440025,0.0111736605246827,0.0010889557382325,0.858888922,-0.0336903166683896,-0.0838059251201645,-0.0084679695820223,3.4215533268220213,5.57803178948356,2.171814545627255,0.1020505389202506,0.0690774980872739,-0.6036306605518881,0.0015916541861997,-0.0010153148573799,0.0013729619460516,-9.226721084458678,7.882041543055071,-8.21981966530165,1.5006712178620828e-07
3720,1724822715252743070,-1.8816438913345337,0.3074108064174652,0.1514979749917984,0.0592103041708469,0.018052352592349,-0.298257976770401,0.9524759650230408,0.0,0.0,0.0,-0.0757108297655774,0.1278727485455603,-0.1408994532497128,0.867475164,0.0445672212386513,0.0829409032116203,0.0234876049194841,2.8865072072976026,6.5654964293321445,1.6142588713135666,0.1024521944606306,0.0697653348558182,-0.6033566174986519,0.0020563832566153,-0.0003095438643967,0.0007855613413187,-6.517988951528617,-7.175099824606082,-16.797659155660394,2.2472624826817183e-05
3722,1724822715262524031,-1.881638765335083,0.3074303567409515,0.1514882296323776,0.0592333190143108,0.0180611163377761,-0.2981835603713989,0.952497661113739,0.0,0.0,0.0,-0.0737484260095881,-0.1736852961488568,-0.3081038971968514,0.877256125,0.0034105452531954,0.0039313457381492,0.0157954686876265,-3.208342867498424,-5.559174628970517,-0.9143055413936356,0.1024965675469929,0.0697877805608104,-0.6031986082506199,-0.0001307598332473,0.0014500799748606,-0.0014002217181694,2.865822608198052,-14.711258408360573,-2.917601725564564,-1.209194504449724e-05
3724,1724822715276793033,-1.8816542625427248,0.3074396252632141,0.1514598429203033,0.0590379424393177,0.0179509129375219,-0.2981898784637451,0.952509880065918,0.0,0.0,0.0,0.0226236183341254,-0.0480426167265882,-0.0546150451988582,0.891525127,-0.0215634626382484,-0.0229618712268531,8.753472672892062e-05,-4.915533138927553,-10.334160221193963,-3.158944141683518,0.102186627607088,0.0694617221467824,-0.6032308994379386,0.0019365502013499,-0.0083886712242602,-0.0075582626112478,-11.653342972593691,56.269325849930055,48.30034876991634,-2.9296490037735012e-05
3726,1724822715282318128,-1.8816370964050293,0.3073739409446716,0.1514061689376831,0.0588099993765354,0.0177419483661651,-0.2982604205608368,0.952505886554718,0.0,0.0,0.0,-0.0811422067081672,0.3643938915694141,0.2775753745615311,0.897050222,-0.0554940088917349,-0.0981355455732727,-0.0217689711394524,-3.2706396016859287,-6.43230770961977,-0.8233126161683502,0.1018679124992125,0.0689345937874845,-0.6034062762462226,0.0017999936545152,-0.0072817554367325,-0.0070535746468514,-14.829111980294725,47.253583202921675,38.85081824964459,-4.523691062512058e-05
3728,1724822715295206347,-1.8816531896591189,0.3074185848236084,0.1513952612876892,0.0588139630854129,0.0179528892040252,-0.2978666424751282,0.9526248574256896,0.0,0.0,0.0,-0.1534590342141678,0.1498282601167964,0.138739453828307,0.909938441,-0.0113472488770136,0.0346288220550061,0.0617967680436464,6.3334505245269295,10.34254150621239,-7.3221002511472655,0.1017796476884591,0.0692976222009607,-0.6025665288169962,-0.0009421888832008,0.0023466417727036,0.0021227085510329,16.36432422031408,-29.28439646992664,-22.116942003470538,-1.6291811929969537e-05
3730,1724822715303982721,-1.8816596269607544,0.3074325025081634,0.1514316350221634,0.0592290610074996,0.01841951161623,-0.2981941998004913,0.9524877071380616,0.0,0.0,0.0,0.1214934994724941,-0.1827011243194473,-0.1231667834113885,0.918714815,0.0616173148369404,0.1256457923795005,-0.0849743760658151,1.3852928726512053,-4.362693802726743,-3.01831238996714,0.1022763480411711,0.0704705544870585,-0.603197604940902,-0.0019345589178385,9.225626537023857e-05,-8.56184478124078e-05,27.306216866681257,-10.59803099250311,-7.711027734827116,3.43721409652975e-05
3732,1724822715313955046,-1.8816925287246704,0.3074164986610412,0.1513828486204147,0.0590920485556125,0.0180094316601753,-0.2980279326438904,0.9525561928749084,0.0,0.0,0.0,0.348220028733596,0.0208543334063955,0.0507100406362593,0.92868714,-0.003076136709465,-0.0848079182743307,0.0402221990450361,-0.2221241713210968,-5.357590588180216,2.156479576609565,0.1022676227255055,0.0695883037839333,-0.602884273433701,0.0019349436384885,-0.0008892750091256,0.0001416779121452,-14.663138263766122,11.764060082158185,-0.9235438913571627,-4.641057104103523e-05
3734,1724822715323338627,-1.881628155708313,0.3074144721031189,0.1514286249876022,0.0593190863728523,0.0179656445980072,-0.2981711626052856,0.9524980187416076,0.0,0.0,0.0,-0.119588201732842,0.0548852171880457,-0.1200628859171256,0.938070721,0.0501584982011051,0.0039511366316595,-0.0313517438930133,2.4281181413185142,4.713009176315258,-3.1963234501175637,0.1027181333610797,0.0696552762500794,-0.6031737595461242,0.0048510405404442,0.0003596061325534,0.000864018370275,-37.79661176193794,-3.7954568796216193,-16.725374505381204,4.5601354930053575e-05
3736,1724822715333754965,-1.881600856781006,0.3074248731136322,0.1513912081718444,0.0595031417906284,0.0179017931222915,-0.2982417941093445,0.9524656534194946,0.0,0.0,0.0,-0.3738748021123566,-0.0704694879974433,-0.2772394619224068,0.948487059,0.0379288597117058,-0.0018330278119557,-0.0134082607484912,-3.7730804895272505,1.7975299839255652,0.8271865047189707,0.1031033892526718,0.0696506350218702,-0.6033150182101942,-0.0013707117735748,2.7020880926542645e-05,-0.0026649475043711,18.21766291158001,-2.910800326373831,6.7665025905695355,-3.845585906942134e-05
3738,1724822715345262624,-1.8816673755645752,0.3074128329753876,0.1513723284006118,0.0593740791082382,0.0182403903454542,-0.2983048260211944,0.9524475932121276,0.0,0.0,0.0,0.377735913421474,0.0120256361727289,0.0784885270161633,0.959994718,-0.0385323534709479,0.0487645754475273,-0.0152733221888648,0.0008958277020794,-5.769721336025141,3.676020557927868,0.1026517713565196,0.0702268905643074,-0.6034325598280383,-0.0028325700895663,-0.001273892994547,-0.0050727951696476,25.61836102590732,4.497820581893528,31.591528468241933,-1.7196272184024423e-05
3740,1724822715354180940,-1.8816722631454468,0.3073998987674713,0.1513033658266067,0.0593120530247688,0.0179090127348899,-0.2981376647949219,0.9525099992752076,0.0,0.0,0.0,0.331848405142565,0.0336784640388639,0.3649264488894171,0.968913034,0.0074051105625578,-0.0729590103652828,0.0440379546815197,5.4411499123609435,-0.904678512229432,-0.399189170758872,0.1027404728842944,0.0695393733721044,-0.6031077039257106,0.0040249635658682,-0.0003021877407398,-0.002384153539058,-32.10877495919506,-11.976689976243753,-3.171939461969777,-6.682745622913519e-05
3742,1724822715363097145,-1.8815956115722656,0.3074074387550354,0.1513297855854034,0.0596020072698593,0.0179754942655563,-0.2982286810874939,0.9524621963500975,0.0,0.0,0.0,-0.1947948816003475,-0.2015120837149807,0.0220674823005805,0.977829239,0.0585067236672431,0.0325762685534781,-0.0223629095649393,-0.0475545861604302,5.8842434400013035,-3.728735477653504,0.1032503785950528,0.0698487966983925,-0.6032766328263784,0.0030876323880448,-0.0006729359356807,0.0014352253825764,-26.275412288712847,-12.143539107933227,-31.7184047092682,2.517779967003709e-05
3744,1724822715373770159,-1.8816330432891848,0.3073808550834656,0.1513255834579467,0.0595509000122547,0.0181036256253719,-0.2982954680919647,0.9524419903755188,0.0,0.0,0.0,-0.0563027692861893,-0.1492626923808662,-0.2304165362603131,0.988502253,-0.0158315788233095,0.0193349693378158,-0.0146525925235057,-4.2602248212152904,-7.025645844833138,1.113107970760418,0.1030719845727099,0.0700701582884827,-0.60341120062043,-0.0001370147578967,-0.0048669480555965,-0.0035200796166297,13.922102352460296,22.964245861970213,15.192035760610633,-8.278542611129359e-07
3746,1724822715383287735,-1.8816057443618777,0.3073143661022186,0.1512655466794967,0.0592621751129627,0.0177133008837699,-0.2983233034610748,0.9524586200714112,0.0,0.0,0.0,0.084232409326857,0.2226550207492221,0.2438893164320327,0.998019829,-0.0334219571253045,-0.0966308400037392,-0.0007425817799707,-0.5916802158894161,-0.279475395178296,1.6190315588512625,0.1027468108395108,0.0691560585914855,-0.6035129554627224,0.0014135174480998,-0.0042192977144015,-0.0037282048128588,4.117435809779241,20.080344888092768,26.293855011668263,-5.141292107405274e-05
3748,1724822715393313483,-1.881606936454773,0.3073012828826904,0.1512554138898849,0.0591784827411174,0.0178727619349956,-0.2982312738895416,0.9524896740913392,0.0,0.0,0.0,0.0130542306336616,0.223351490567176,0.2588884313444366,1.008045577,-0.0260838283250308,0.02629558838848,0.0171530382796848,4.7085527092272255,5.317754566009592,-1.8785177366645631,0.1024990470402418,0.0694006884442879,-0.6033144146242635,0.0014270656455863,-0.0003541998176554,0.0015236393516593,-11.505005614718314,-13.998402873511012,-30.010221267165292,-8.439459728295517e-06
3750,1724822715403831173,-1.881574869155884,0.3073080480098724,0.1512994021177292,0.0595204308629035,0.0178087018430233,-0.2984513640403747,0.9524006843566896,0.0,0.0,0.0,-0.1565607708902495,-0.0791010318454626,-0.4043828446764686,1.018563267,0.0673164305578034,0.0056150997013488,-0.0430266686969095,2.8719374106658866,-1.2559556625713486,-1.5258099993873553,0.1031761788461482,0.0695058983295534,-0.6037596389023415,0.0016934930029961,0.0002056431339809,0.0013231808623546,-9.449787063853238,-1.5362590119590769,-22.3839206242318,4.2758250359526465e-05
3752,1724822715418015854,-1.8815767765045168,0.3073025941848755,0.1512634754180908,0.0594788156449794,0.0178260691463947,-0.2983445227146148,0.95243638753891,0.0,0.0,0.0,-0.1628736662490027,0.4198364397134907,0.0562954333595133,1.032747948,-0.0068870680299931,0.0013879660005385,0.0155994474345737,-4.327489209393125,-5.7132558310589685,8.76587819087767,0.1030939425040037,0.0695026949249665,-0.6035369274677683,-0.0040068985208563,-0.0034478697253987,-0.011784167277014,37.82640433619512,18.59322340431398,72.66397605307094,-3.497081684429597e-05
3754,1724822715423981151,-1.88161039352417,0.3072743415832519,0.1511699706315994,0.059355404227972,0.0177075788378715,-0.2981252372264862,0.9525150060653688,0.0,0.0,0.0,0.158782748248229,0.4891537706933898,0.590573309397254,1.038713245,-0.0304346035976479,-0.0462784065502952,0.0795127577618168,0.3253622991516841,3.536038730053875,3.099528763718229,0.1029431965505653,0.0691793233478579,-0.6030924982837341,-0.0043789250570256,0.0007559663175324,-0.0089889803921012,42.6830846280381,-22.036658949294264,49.093397421843534,-8.92386655028851e-05
3756,1724822715432397896,-1.8816323280334473,0.3073459267616272,0.151173710823059,0.0595999211072921,0.0181573778390884,-0.2980360090732574,0.9525191187858582,0.0,0.0,0.0,0.3845749274411253,-0.0960179924564827,0.5231624337004404,1.04712999,0.0230458297362363,0.1203696435633026,0.0151719129104324,2.190196916244725,4.686680735160785,-5.04556105559943,0.1031532908132904,0.0701739239943273,-0.6028606194174597,-0.0004162231092692,0.002313122249653,-0.0025694656672783,1.8527970434126495,-35.29008421397882,-12.85870314294016,-5.170894093568884e-06
3758,1724822715444183455,-1.881601095199585,0.3072710037231445,0.1510936915874481,0.0593587048351764,0.0177785083651542,-0.2980676889419555,0.9525315165519714,0.0,0.0,0.0,-0.0057242129551559,0.0530339711058061,0.2915842964763988,1.058915549,-0.0198565121124663,-0.073799601887417,-0.0014051033335054,4.239049701668607,4.030207163003155,-2.5540955528336022,0.102911890932739,0.0693104836168815,-0.6029669155555035,0.0026930640203772,-0.0034561858157822,-0.0003568555789925,-24.596861992584067,19.600203315696568,-30.82411330229168,-7.018561516497112e-05
3760,1724822715452413627,-1.8815786838531496,0.3072592318058014,0.1511277258396148,0.0596877187490463,0.0180143006145954,-0.298166960477829,0.9524754285812378,0.0,0.0,0.0,-0.1591939724338406,0.2543095084393602,-0.0263289451861552,1.067145721,0.0603166691083405,0.0772213500638383,-0.0290210761930662,4.307454199891519,6.764663413756184,-1.2907479685660803,0.1033962954716082,0.0699672412252327,-0.6031394406132534,0.0010967776436103,9.85604942620455e-05,0.0026397680852303,0.7979309592290322,0.6748667588596566,-29.80355678590398,3.5205983781623926e-05
3762,1724822715462588708,-1.8815879821777344,0.3072794675827026,0.1511357724666595,0.05986013635993,0.0179664622992277,-0.2982485294342041,0.9524399042129515,0.0,0.0,0.0,0.0935371600365853,-0.037978448401363,-0.2185773979176833,1.077320802,0.0357888294182495,0.0003175791446306,-0.01618135069594,-5.409133891450043,-7.988557780130376,3.17800422286511,0.1037489810199226,0.0699874685231793,-0.603303197212016,-8.574894559387758e-05,0.000451956578674,-0.0025395986747192,7.149822002917718,-16.147981858996406,5.318237454294776,5.47327283222214e-06
3764,1724822715473469598,-1.8815792798995972,0.307266503572464,0.1510693877935409,0.0594151318073272,0.0175725314766168,-0.2980617880821228,0.9525336027145386,0.0,0.0,0.0,-0.0344828361960125,-0.067330963488923,0.1210156242015251,1.088201692,-0.05795751844866,-0.0916142808457764,0.0406935372084481,0.9465503186136917,4.065314071490059,-0.0512582228637612,0.1031418398008844,0.0689502344169883,-0.602964935330151,0.003372656889141,-0.0008073111618784,-0.0015383706013682,-18.619976212108615,5.645982713114186,13.230495104407922,-6.428867982976887e-05
3766,1724822715482496213,-1.8815295696258545,0.3072620928287506,0.1510896682739257,0.0595627762377262,0.0177092608064413,-0.2980501055717468,0.9525254964828492,0.0,0.0,0.0,-0.2538862161057016,0.0461128690959052,0.1058052997513647,1.097228307,0.0221918923585217,0.0387926169366733,0.0007051416355686,4.7551368861547605,8.777118085426116,-2.6600592237612517,0.1033450926469039,0.0692978787257102,-0.6029224051247194,0.0004230648901284,-0.0010526381438733,-0.00022885850142,4.785963166333848,6.11749460461558,-0.6889232081582914,2.0583005668141615e-05
3768,1724822715494240628,-1.8816022872924805,0.3072411119937897,0.1510491520166397,0.0597431026399135,0.0179931577295064,-0.2980518639087677,0.9525083899497986,0.0,0.0,0.0,0.2468663559521707,0.0193967611473088,0.1129356708606858,1.108972722,0.0150199119037546,0.0552370762481733,-0.0034892681230989,-4.468564867593522,-7.596421135031469,-4.301900397600269,0.1035233325636541,0.0699473774798728,-0.6028961830546284,-0.0014450380052153,0.0006088551848897,0.0004137425363879,15.136754796973154,-7.1872586833621845,-7.416698455101213,-3.7490762020092095e-05
3770,1724822715502450552,-1.8815869092941284,0.3072598576545715,0.1510747224092483,0.0594953708350658,0.0178320631384849,-0.2983032464981079,0.9524481296539308,0.0,0.0,0.0,0.213307273904039,-0.067803421456329,0.0059952660251436,1.117182646,-0.043807659080321,-0.0587618054774478,-0.061447074465004,-0.3686745547099708,-2.542261776158307,0.9180502287669974,0.1031251318132427,0.0695195389796706,-0.6034489619388449,0.0029114022658092,6.75002604673125e-05,0.0016750698177991,-21.25897555935005,-1.3455012476322086,-11.947520840903731,2.3025701399283533e-05
3772,1724822715512769906,-1.8815433979034424,0.3072318136692047,0.1510733366012573,0.0597949996590614,0.018059192225337,-0.2980347871780395,0.9525091648101808,0.0,0.0,0.0,-0.2287973377153342,0.0386263466994603,-0.1033099845223304,1.127502,0.0405469327289747,0.0621342438579533,0.0515013698347998,2.3914531651943647,2.000944059571818,1.6515522724045395,0.1035851469617469,0.0701024761968773,-0.6028527737181856,0.0009966611283402,-0.0006563690586371,-0.0001780575610972,16.222348159631203,-5.999308400177924,11.181731232615505,2.0674867808929307e-06
3774,1724822715523611358,-1.881569266319275,0.3072481751441955,0.1510709077119827,0.0597512274980545,0.017931543290615,-0.2982317209243774,0.9524526596069336,0.0,0.0,0.0,0.6198204758016974,-0.2122184109170089,0.2659211840281364,1.138343452,0.0006061238956608,-0.0268206918886762,-0.0364488882730993,-2.77308485059619,-5.945403303417582,-5.942486428518754,0.1035620573222117,0.0698541111286422,-0.6032768918467181,-0.0019764364447656,0.0010013185875097,-0.0004293995051631,-1416.9521551402977,490.5025760754155,-776.6530698862659,-4.408923625090199e-06
3776,1724822715558434494,-1.8815922737121584,0.3072262406349182,0.1510329842567443,0.0599475763738155,0.0182147361338138,-0.298225075006485,0.9524371027946472,0.0,0.0,0.0,-215.96883064579004,74.32089837386962,-117.46010719559912,1.173166588,0.0059366443627837,0.0188932610326088,-0.0006725353145774,2280.8900359759136,-780.553218718267,-842.1829393455921,0.1037719530985993,0.0705109350378661,-0.6032320728444974,0.1196105149492723,-0.0472287503555435,0.0411680772931504,15974.615835123346,-4754.422099264746,11331.421386735572,-3.485829615276106e-05
3778,1724822715558993557,-1.8815243244171145,0.3071994185447693,0.1510563790798187,0.0602562688291072,0.0180012416094541,-0.2983663380146026,0.952377438545227,0.0,0.0,0.0,-206.83881142627268,71.60099373148768,-110.99308178551536,1.173725651,1.301568388108039,-0.424502719795328,-0.4790740024577248,-2170.0626356376233,274.93575242643703,239.46033574601103,0.1044790862189768,0.0703027345642394,-0.6035238450761977,-0.003099411315361,-0.0049991955186783,-0.0255644950307782,56721.964039426355,-18742.770551930676,33550.95313241411,2.6462957746853395e-05
3780,1724822715559438014,-1.881569743156433,0.3072123825550079,0.15102119743824,0.0599970407783985,0.0180997271090745,-0.2983572781085968,0.952394723892212,0.0,0.0,0.0,-167.3563744154559,58.36703949177416,-88.31342668543483,1.174170108,-1.248590279257772,0.0750812883414067,0.0143321862084494,-4929.262442088393,969.670566240283,965.8666974258194,0.1039248218954937,0.0703352544048855,-0.6035139578687626,-0.090559385653961,0.0254338444492372,-0.0719379621490272,85611.38687615965,-28771.961255620976,48907.69189064468,-3.6466696324806734e-05
3782,1724822715562374517,-1.8816100358963013,0.307214617729187,0.1509499996900558,0.059912584722042,0.0180110465735197,-0.2982904016971588,0.9524227380752563,0.0,0.0,0.0,21.53870122119845,-6.650856498221266,14.171614561103404,1.177106611,-0.0387319421399359,-0.0722979786179456,0.0516552613384804,324.31149605986303,-38.893173674511615,9.33050708302881,0.1038201623929192,0.0701083770018996,-0.6033848585157144,-0.0111568446047485,0.0007714492156249,-0.0203853672903142,50260.669625430586,-17312.867786012128,27232.68266687794,-7.086173128113608e-05
3784,1724822715573270677,-1.881627917289734,0.3072234392166137,0.1508839577436447,0.0595876649022102,0.0178834181278944,-0.2982116937637329,0.9524701237678528,0.0,0.0,0.0,0.4871880420557218,-0.0767345465259681,0.8895789907303155,1.188002771,-0.0505953098564088,-0.0393926975011977,0.0166833685986396,5.501979179554799,5.5581367720583525,-2.0972499119829013,0.1032784090554578,0.0696626503780235,-0.6032480272592401,0.0011151340919326,-0.0010356390374681,-0.0027949346628144,-909.64134609958,281.0301580082012,-602.7989392660741,-6.659980818250855e-05
3786,1724822715582415589,-1.881596565246582,0.3071998059749603,0.1508834660053253,0.0598493963479995,0.0179478265345096,-0.2981810569763183,0.952462077140808,0.0,0.0,0.0,0.0154238544151819,0.019469350506248,0.1061872324604889,1.197147683,0.0503046134882522,0.0309172874705916,0.0060413337498495,3.814368338993289,0.6475335649040863,-1.0736282118596046,0.1037443214308193,0.0699381621626337,-0.6031636379663671,0.0006654182293601,-0.0010534253527243,-0.0002226755252019,-31.675732391544855,5.293875082879096,-55.162170678155746,2.4123376462174894e-06
3788,1724822715592877484,-1.8816226720809937,0.3072071075439453,0.1508791148662567,0.0597953349351882,0.0177111122757196,-0.2982164919376373,0.9524588584899902,0.0,0.0,0.0,-0.0776481797278452,0.0123049849815045,-0.1058485950337114,1.207609578,0.0038082732039393,-0.0465774961587133,-0.0041126921896842,-1.4535577545677354,0.9142652424262494,0.7965453613359594,0.1037776618242736,0.0694579570465626,-0.6032571838280923,0.0015999543506666,-0.0005934412417794,-0.0012073322647205,-9.006734836540678,-2.4464383272329124,-5.423824279529184,-5.1758372579842375e-06
3790,1724822715603182221,-1.8815646171569824,0.3071878850460052,0.1508586406707763,0.059964183717966,0.0179070010781288,-0.2980955243110657,0.9524824023246764,0.0,0.0,0.0,-0.1715812390892537,-0.0307853835262581,-0.011077873168108,1.217914315,0.0191861208570344,0.0473075303230364,0.0220316366162048,-3.009202780283401,-0.3639804516142857,0.0212416701202443,0.1039946510812598,0.0699192715676185,-0.6029801034671337,-0.0008949839804159,-0.0007880149500927,-0.002417135048514,14.32034335523279,-0.1196769011745919,11.55490482473162,-1.8007916328462878e-05
3792,1724822715612571168,-1.8816288709640503,0.3071897029876709,0.1508322656154632,0.0596995055675506,0.0178072080016136,-0.2980988025665283,0.9524998664855956,0.0,0.0,0.0,0.1633548484614014,0.0028389427798067,0.1175829304148982,1.227303262,-0.0475755016007328,-0.0371628106831525,0.0007089029294729,-0.0368794961614529,-0.870788824278959,-0.7852859021227855,0.1035459034542767,0.0695715385023561,-0.6030096905203735,-0.0019025612264016,-0.0011788855808667,-0.0016115851715978,17.917893763418796,3.696415127824157,-3.990429045894392,-2.628907352129663e-05
3794,1724822715623313698,-1.881588578224182,0.3071601688861847,0.1508296728134155,0.0599853470921516,0.0180144291371107,-0.2980315089225769,0.9524990916252136,0.0,0.0,0.0,0.1376003306287948,0.0439631079681067,-0.1427641573381061,1.238045792,0.0389739825771004,0.053361417742945,0.0105348073645218,3.803601011704102,1.4914120509954425,-0.7652494663137424,0.1039766163671433,0.0701299733510371,-0.6028373592119879,0.003179158662931,-0.0006017975175041,4.223362583655188e-05,-12.655011721769014,-1.2678845708696,-12.008880248069186,1.0616648377292134e-06
3796,1724822715635266811,-1.881558179855347,0.3071815371513366,0.1508339494466781,0.0601042546331882,0.0178524535149335,-0.2981613278388977,0.9524539709091188,0.0,0.0,0.0,-0.1500934288222421,-0.0389701021841437,-0.1236965124755947,1.249998905,0.0278719626252353,-0.0210518963426055,-0.0209554748765617,-8.663821385899542,-3.374168713382407,7.706377070172048,0.1042904578969725,0.069905731331093,-0.6031132693119964,0.0003624329771128,-0.0002060685272411,-0.0056105834168072,-5.85500759467262,-0.0306768131147231,26.279769873311757,1.513249158783844e-06
3798,1724822715642282702,-1.8815646171569824,0.307171881198883,0.1507700085639953,0.0598581060767173,0.0177940316498279,-0.2979113161563873,0.9525488615036012,0.0,0.0,0.0,-0.1161685666779031,-0.0107402164292222,0.1623301355859637,1.257014796,-0.0647651679773304,-0.0329832324791994,0.0756951248032002,-5.55894888575501,-0.2167802555277896,4.558258940203783,0.1038713145713007,0.0696204115874801,-0.6026079609439242,-0.0003382943273351,-0.0007762899228751,-0.0050403449122091,5.038407150493089,1.861166799026038,15.415186817686518,-6.222733257057308e-05
3800,1724822715653071731,-1.8815586566925049,0.3071734607219696,0.1507832109928131,0.0598489940166473,0.017744718119502,-0.2980591356754303,0.95250403881073,0.0,0.0,0.0,-0.0584414087589493,-0.0265394992738252,-0.0919991518508788,1.267803825,0.0020992960502582,-0.0107032343712335,-0.028059768447263,4.779429054918256,4.459659040103625,-4.0348988229412726,0.1038721308540957,0.0695369363100099,-0.6029217217824918,-0.0018619368072734,0.0002781127708395,-0.001944197684061,14.250398525934363,-2.144464126069364,-13.792842399427933,1.2891575556953149e-05
3802,1724822715662941101,-1.8815988302230835,0.3071773946285248,0.1507354229688644,0.0600996613502502,0.0179544314742088,-0.2981283068656921,0.9524627327919006,0.0,0.0,0.0,0.1625498633318427,-0.0538438413836191,-0.1398299601566502,1.277673195,0.0364672138866285,0.054929472429382,-0.0174885704961244,2.911801999737333,0.3471128619220534,0.8408786788771538,0.1042239831183143,0.0700940576174761,-0.6030374268682651,-0.0016913698274834,-0.0011057255726196,-0.0062735602399346,0.6780588950862336,7.565606525180603,6.319111264292967,-4.783888308127389e-05
3804,1724822715674942920,-1.881584405899048,0.3071421682834625,0.1506392359733581,0.060400228947401,0.0176574122160673,-0.2982084155082702,0.952424168586731,0.0,0.0,0.0,-0.1462222022564264,0.1877555867684151,0.0989715799130183,1.289675014,0.0630879842983421,-0.0328973748687786,-0.0107567529001855,-9.526039998858598,-4.994741359649874,3.9528768649672537,0.1049692723521611,0.0697148626406292,-0.6032074324661003,0.0023797049857705,-0.0004913539191591,-0.0035902478024603,-39.74287166052801,7.9531397798972945,-40.62270933397085,-9.103577861149232e-05
3806,1724822715682596248,-1.881560444831848,0.3071503341197967,0.1506333500146865,0.0600897595286369,0.0175077896565198,-0.2980862855911255,0.9524847865104676,0.0,0.0,0.0,-0.5187896895170949,0.1891947337712736,-0.5072870258050951,1.297328342,-0.0671335937500662,-0.0597863873134665,0.0360500451907429,-6.305350008860029,0.56116778844567,0.8052735371744244,0.1044712397619711,0.0692309629244065,-0.6029803084986743,-0.0011084494825013,0.0016120936324242,-0.0034409001356543,-18.610535856899453,-9.869971606174165,-69.7111015239173,-6.919046420093807e-06
3808,1724822715692889356,-1.881630539894104,0.3071744740009308,0.1505609452724456,0.0601703338325023,0.0175036676228046,-0.2982300519943237,0.9524348378181458,0.0,0.0,0.0,-0.2940800635969612,-0.0516350440837758,-1.0932642522588492,1.30762145,0.016223079985554,0.002395296571732,-0.029177962971616,1.4134070142895996,-7.224363198956761,-0.8626351749451914,0.104617697270671,0.0692868330851428,-0.6032772119792981,-0.0073208196122465,0.0023738614252231,-0.0159551781414526,37.80353558963407,-42.99032572728953,-21.232317189627405,-7.467642373890883e-05
3810,1724822715703050470,-1.8817100524902344,0.3071988821029663,0.1503093391656875,0.0596861205995082,0.0165662262588739,-0.2982068955898285,0.9524892568588256,0.0,0.0,0.0,0.250262717682685,-0.6849997430527648,-0.9509406522804952,1.317782564,-0.0364700364904124,-0.2040756466826579,0.0169695984157726,-5.176020238862764,-9.082427526789438,-0.1031660737186677,0.1042440549862505,0.0672065112310831,-0.6033219144983066,-0.0072048000237003,0.0005888944507859,-0.0258349083079725,33.40117447162662,-78.5046112956336,-51.565495641302,-0.0002523705487855
3812,1724822715712670116,-1.8817737102508545,0.3071880340576172,0.1500510424375534,0.0590179711580276,0.0158310178667306,-0.2983747720718384,0.9524908661842346,0.0,0.0,0.0,0.3878813855684644,-1.5874688807780757,-2.0441504748565356,1.32740221,-0.0861728024835403,-0.1891070466008561,-0.0263227174310794,-2.2699019447775823,-2.1173218740084963,1.9324950882259673,0.1033858659677962,0.0654234083612102,-0.6037633011481778,-0.0026221948036067,-0.0106390749919533,-0.0347880296626526,7.51491982521454,-49.81525534329131,-45.12170666777072,-0.0002547236110367
3814,1724822715724543650,-1.8817462921142576,0.3069223165512085,0.1495216637849807,0.0581519342958927,0.014408397488296,-0.2979475855827331,0.95270037651062,0.0,0.0,0.0,0.3775832856073511,-1.5341102293995112,-1.5756834625151983,1.339275744,-0.0706690764760585,-0.2680821985567193,0.0909002742296584,-16.842663469574532,-5.498081533499882,16.490138825694604,0.1025944352027325,0.0621462235790946,-0.6030153954263286,0.0006863384183191,-0.0356473191000468,-0.0753773254330667,4.906668654402523,17.122223920195395,130.68000083435916,-0.0004940522329489
3816,1724822715732273338,-1.881749153137207,0.3065800070762634,0.1487840712070465,0.0567390657961368,0.0135660618543624,-0.2970726490020752,0.953071117401123,0.0,0.0,0.0,0.4445652121681476,-1.3382146473325622,-0.1065187533186096,1.347005432,-0.2921810601496818,-0.3047773109106271,0.2516634664980871,-9.856428482450344,-0.0488529649582032,6.4073347794160895,0.1004393738163138,0.0596053806940419,-0.6013157581228715,0.0041027869360377,-0.0446266473139669,-0.0782839049187194,0.140007361118533,7.299143888988795,102.26977718353795,-0.0006927687350814
3818,1724822715744053067,-1.8816205263137815,0.306048184633255,0.1481695920228958,0.0559605024755001,0.0124262822791934,-0.2967543601989746,0.9532318711280824,0.0,0.0,0.0,0.2931655670560301,-1.5761577537227307,-0.4779431424806049,1.358785161,-0.0707771491473479,-0.2210071635835861,0.0687987628366426,6.8507000224602805,-1.9641621171160075,-0.8786018550877692,0.0996375172188855,0.0569340563470263,-0.6007684949235287,0.0093858657831304,-0.0635597948609962,-0.0747004829680584,17.88439281068237,56.53735247603184,34.66737852608805,-0.0005510051122117
3820,1724822715752680608,-1.8815492391586304,0.3053834736347198,0.1473827064037323,0.0552323013544082,0.0112864319235086,-0.2961883842945099,0.9534645080566406,0.0,0.0,0.0,0.6416863994380149,-0.6034907854020437,0.2394481983717695,1.367412702,-0.0871489129894036,-0.2953001466538791,0.1537587730463548,8.640863142316665,1.2177220213160789,4.139840764717355,0.098945047052625,0.0542673885857618,-0.599699353681433,0.010933696652458,-0.076961597395968,-0.0837662256241582,27.234637530568772,83.26451672378495,86.34781337072715,-0.0007082281015009
3822,1724822715762625678,-1.8814098834991455,0.3046190440654754,0.1466349363327026,0.055555410683155,0.0102662863209843,-0.2956277132034302,0.9536311626434326,0.0,0.0,0.0,0.7616539603143474,-0.1133177641123639,1.1348273206266368,1.377357772,0.1195961139495549,-0.1705136667736512,0.1294979079326392,14.05361722870272,5.959043562146919,-1.8377725230443085,0.1001938632378197,0.0524519869250108,-0.598584747705998,0.0226148058683151,-0.0720740767034442,-0.06659385020121,-61.653631907630285,16.41848710952764,-6.15963783597015,-0.0006592073476724
3824,1724822715774192250,-1.8810325860977173,0.303849846124649,0.1459803134202957,0.0562934167683124,0.0088523244485259,-0.2950581908226013,0.9537785053253174,0.0,0.0,0.0,-0.9431369916919204,-0.3655882877972214,-0.2304382665452102,1.388924344,0.1915449716488575,-0.1902198275305817,0.1163357102823035,-27.97717159534993,-19.483466829636864,-6.393880540153745,0.1024666954950748,0.0501269707890592,-0.59746722197289,0.0258698945026196,-0.0815204064672059,-0.0614302294744391,-36.889312877735705,-15.007363776779057,-187.66812346431612,-0.0005699169924657
3826,1724822715782463029,-1.8808585405349731,0.3030867874622345,0.1454436480998993,0.0547825582325458,0.0073395646177232,-0.2950272560119629,0.9538888931274414,0.0,0.0,0.0,-0.5947320957865262,-0.4494776173070169,-2.1944139356987837,1.397195123,-0.2420957369813334,-0.456514376443389,0.0323692828228546,-30.81416862097027,-15.39678243621268,-2.91889879297313,0.1004587684059452,0.0463435410768332,-0.5975834618223396,0.0108272604101387,-0.0818762354807507,-0.0673391729859149,104.04013307901258,-23.78507985211221,-149.4527739949396,-0.0004535211150036
3828,1724822715794899186,-1.8809149265289309,0.3022627234458923,0.1445603519678115,0.0528645403683185,0.0057202936150133,-0.2943509221076965,0.9542170763015748,0.0,0.0,0.0,1.8569024266399736,-1.000372988611811,-2.4073641418818834,1.40963128,-0.2210955630551493,-0.3338377912133295,0.1313268677143467,9.637045032064451,-45.541898623864206,37.844090841412985,0.0977628865409154,0.0420506477358009,-0.5963678751695439,0.0263197396731982,-0.0950664481424112,-0.1223038377444503,21.787756607891303,99.06005981282044,369.9669941267849,-0.000791248390011
3830,1724822715803516439,-1.8805038928985596,0.3012715280056,0.1432002484798431,0.0511663258075714,0.0013440622715279,-0.2919709086418152,0.9550567269325256,0.0,0.0,0.0,0.9976282840893969,0.7092515711339669,3.092075756790059,1.418248533,-0.0905902895702457,-1.0571188822914543,0.6358951283083523,22.366187468070933,-8.990651885533643,6.691853555449479,0.0971524611475381,0.0324511640049821,-0.5917974645800053,0.0459703003374016,-0.1033270922932931,-0.1310326446284966,-128.65288564888158,145.95392073939837,445.5760903665624,-0.0012665518355481
3832,1724822715812989335,-1.8800864219665527,0.3004145324230194,0.1422380954027176,0.05155561119318,-0.0006031629163771,-0.2913389205932617,0.9552294611930848,0.0,0.0,0.0,-0.5224260237405178,1.545757117350711,5.3071926882059515,1.427721429,0.1964837627097067,-0.3618631865076647,0.1592276318257383,-3.165746294358157,58.085836741990306,-29.88695388339013,0.09904947696843,0.0288920136820465,-0.5906314908554254,0.0420628564495331,-0.0792400789098231,-0.0589940972414373,-105.21837877427907,-26.249489255696258,-80.13279945817499,-0.0008859511399775
3834,1724822715823565591,-1.8796652555465696,0.2997090518474579,0.1421168893575668,0.0504927262663841,9.3802715127822e-05,-0.2908935248851776,0.9554222226142884,0.0,0.0,0.0,-0.9829006148986024,-0.0845403708957039,0.7522871867985756,1.438297685,-0.2322223473821233,0.0717042537281718,0.0844008712148612,-21.554444426548837,6.261619177734584,-3.798433866830032,0.0966215845878056,0.0295595611565459,-0.5896687131903654,0.0352393675593134,-0.0746641373833298,-0.0299931535171218,-54.174697735293584,-47.538935647966994,-256.0265079448154,-6.477880082105633e-05
3836,1724822715832495824,-1.8793851137161257,0.2989822626113891,0.1417092978954315,0.0491170100867748,-0.0001302335876971,-0.2906025946140289,0.955582320690155,0.0,0.0,0.0,-1.5468941416848387,0.2947914412877095,-0.2171887853293044,1.447227918,-0.2815895573044089,-0.1342767531843512,0.0751863692027425,-2.1901321647713665,-24.380651794009125,-1.930926408748104,0.0941229364814875,0.0283019414712276,-0.5891141496182918,0.0239152207122685,-0.079319006722482,-0.0382788637934989,-19.14051279818566,57.688150273111866,-33.96575582177309,-0.0003455225912304
3838,1724822715842877856,-1.879226803779602,0.2981837093830108,0.1414007544517517,0.0471987389028072,-0.0017436153721064,-0.2904850244522095,0.9557132720947266,0.0,0.0,0.0,-1.2143569218630823,1.0773048768353592,0.3305324701951788,1.45760995,-0.2640388176248557,-0.4032701775228922,0.044287495690483,-2.783850252713332,-9.997681124770557,2.4724858356452857,0.0913835267366896,0.0240905910647052,-0.5890442159077074,0.0044899316423254,-0.0664089930725992,-0.0319564281851763,67.66751017740863,28.140442201039207,34.88427567932942,-0.0002408014199625
3840,1724822715853683483,-1.879299283027649,0.2975842952728271,0.1410302817821502,0.044897187501192,-0.0029528606683015,-0.2898889183998108,0.956002116203308,0.0,0.0,0.0,-0.0823704062974449,0.8501912179490421,0.5064771648191937,1.468415577,-0.34444077506767,-0.3323488599068896,0.1322827869601047,-1.3104256018296674,6.624257040685947,3.7651464214859542,0.0876861367749659,0.0203859241401037,-0.5879413477996296,-0.0012464672041829,-0.0566371059585222,-0.03151636371412,92.9642607483138,5.260746140241707,22.34894232972964,-0.0003162470963404
3842,1724822715862617952,-1.879270076751709,0.2970696687698364,0.1407691538333892,0.0432145819067955,-0.0037417588755488,-0.2893767058849334,0.9562320709228516,0.0,0.0,0.0,0.6610843758553918,1.0913236474659376,0.7509664935831655,1.477350046,-0.310862008458088,-0.2727148408893152,0.1335782537738032,9.793491118120524,8.286332349768122,-4.569821459969097,0.0849274712339116,0.0178555558120381,-0.5869622155908445,0.0013308223088301,-0.0494410634969373,-0.0235505977132755,43.7065739848759,18.261543082926472,9.90902576217954,-0.0002196672456344
3844,1724822715872644318,-1.879278540611267,0.296665757894516,0.1405968964099884,0.0422711484134197,-0.0043613910675048,-0.289249986410141,0.9563099145889282,0.0,0.0,0.0,0.6547993765511523,1.1762217284711591,0.6539115708176741,1.487376412,-0.1447631311971501,-0.1714983173979702,0.0347098073676867,21.09329831321761,13.330507061768696,-6.31977252767208,0.0834794501720358,0.0161128723771778,-0.586759982929306,0.012151689782712,-0.0352822029493022,-0.0176032394783938,-42.41381393951803,-9.79773179309622,5.567006760995106,-0.0001397211465224
3846,1724822715883571065,-1.8789910078048704,0.2963398098945617,0.1403995156288147,0.0430205054581165,-0.0045175510458648,-0.2892027795314789,0.956290066242218,0.0,0.0,0.0,-0.3062441445840526,0.8516625203862193,0.896301592385737,1.498303159,0.1396265042281119,0.0126886990243741,0.0078222904924126,2.538031366845482,5.3486426860776675,-4.5602644915946815,0.0850066832364313,0.0162438354791132,-0.5866631524754382,0.01425227047541,-0.0252395074346871,-0.009734825792818,-44.26097060161506,-11.564461617093947,1.3353907043358575,-0.0001803138535403
3848,1724822715893106991,-1.8789554834365845,0.2961373329162597,0.1403760015964508,0.0428331084549427,-0.0046092681586742,-0.2894522845745086,0.9562224745750428,0.0,0.0,0.0,-0.364699888197147,0.8923376254209325,0.735537602381453,1.507839085,-0.0316488136978061,-0.0320772371660611,-0.0531368637019576,-5.085355992961155,-0.1196854638134421,-0.6762712635893788,0.0846963166208204,0.0159819909414987,-0.5871939514966729,0.0071834782658157,-0.0176792814596158,0.0002785655312438,5.7661965904373975,-1.8260425030088496,-32.086961353990745,-8.574948794331497e-06
3850,1724822715903248495,-1.8788453340530396,0.2959963679313659,0.1404084265232086,0.0431264601647853,-0.0046134833246469,-0.2894394695758819,0.9562132358551024,0.0,0.0,0.0,-0.1779145031140369,0.8081186758825222,0.2458833088751947,1.517980589,0.0556494141668705,0.0160502837940012,0.0016581826661936,5.537812337387529,5.336234435997424,-1.4350650283627888,0.085261190766222,0.0161427529661369,-0.5871634693354589,0.0075464935501372,-0.0075562315960766,0.0043456198666156,14.204176859713762,-31.44426326454914,-52.14176383439504,3.983099735030031e-05
3852,1724822715913042178,-1.87880277633667,0.2959823608398437,0.1404618471860885,0.0436114892363548,-0.004365773871541,-0.2897828221321106,0.9560883045196532,0.0,0.0,0.0,-0.0786559775912772,0.2813113897318062,-0.3012793881485092,1.527774272,0.0808476484816394,0.0738977698050371,-0.0770698466944179,-3.5773842417041273,1.0226093416379882,-2.229091923619084,0.0860415589621616,0.0169283986979508,-0.5878535802592149,0.0037828353212603,-0.0014393369374499,0.005286371532339,12.96571629976073,-32.57831656155098,-30.90748496477421,5.29171140960525e-05
3854,1724822715924775994,-1.8787662982940672,0.2959653437137604,0.1405215114355087,0.0433743894100189,-0.004182665143162,-0.2899005115032196,0.956064224243164,0.0,0.0,0.0,0.1132770314114245,0.1972507079954417,-0.3130267374991097,1.539508088,-0.0475912974078525,0.0172361521729518,-0.0215530909760969,0.6974890517747643,-4.038491556825271,5.802005418378425,0.0854791316031737,0.017151563259169,-0.5880882546840679,0.0071566551969795,-0.0029641876254196,-0.0038346554276138,-10.885392909443231,9.280547244383524,5.659106987877379,5.959863996898236e-05
3856,1724822715933042258,-1.8786835670471191,0.2959320247173309,0.1404378712177276,0.0434626564383506,-0.004265263210982,-0.289773166179657,0.9560985565185548,0.0,0.0,0.0,-0.1353502971025207,0.3697297349576762,-0.2274614686380301,1.547774352,0.0259797343618033,-0.0115440965608576,0.0326427274800988,3.6015345709544935,1.6659585079412789,2.493540155640375,0.0856983596775346,0.0170334227955357,-0.587827635340555,0.0070782842260683,0.0005717915124545,-0.0037183870229675,-23.99581988389704,-5.540365791179652,-0.7636814430846766,-8.339307337368188e-05
3858,1724822715944608010,-1.878649115562439,0.2960131168365478,0.1404984295368194,0.0435151569545269,-0.0037305746227502,-0.2897742390632629,0.9560980200767516,0.0,0.0,0.0,-0.3144672293481374,-0.1216532848778003,-0.4161566868752786,1.559340104,-0.0181093280133626,0.0910237933092114,-0.0042615722416903,3.5978367718297575,-2.259819762973191,4.872158004798729,0.0854896201344837,0.0180865390380176,-0.5877866744520867,0.003476006929219,0.0039089305875528,-0.0102575944787073,1.452123771787745,-26.943091960942176,41.214906006715495,5.264038065350836e-05
3860,1724822715952626528,-1.8786184787750244,0.2960272133350372,0.1403300464153289,0.0437258593738079,-0.0037624826654791,-0.2894662618637085,0.956181526184082,0.0,0.0,0.0,-0.2086558273319933,-0.2512901810941407,0.2341475241306992,1.567358622,0.0519331490581184,0.0110399748881746,0.0796298647258017,-1.9735908810055784,-3.3917410053219603,4.963415596281826,0.0859176950193676,0.0181200808516735,-0.5871427743653382,0.0009377318535683,0.0006531149706567,-0.0127649100683777,28.645232417853627,-16.55426158454764,28.76886927473276,-0.0001698785019227
3862,1724822715963721509,-1.8786523342132568,0.2960174977779388,0.14031483232975,0.0431316755712032,-0.0031638909131288,-0.2891841828823089,0.9562960863113404,0.0,0.0,0.0,0.3463376926433946,-0.4409016554225526,-0.2500435375439387,1.578453603,-0.1343612242112444,0.0744717611484895,0.0502824962398921,-4.643405020569162,3.8727143306015774,-3.3002348339829366,0.0844385592890084,0.0188958881745166,-0.5865165745571822,0.000279093357804,0.0002406970267028,-0.0017721030260107,15.789729028727972,3.079067104677347,-9.312907002882994,-1.3324059428666154e-05
3864,1724822715979647840,-1.8785717487335205,0.2960468530654907,0.1402774453163147,0.043876975774765,-0.0026020742952823,-0.28928142786026,0.9562344551086426,0.0,0.0,0.0,-0.1847920455123146,0.0692283079312083,0.3864177532353405,1.594379934,0.0693957412751625,0.0939830686676329,-0.0172554371064359,1.4232152367906536,82.59834687235637,99.97662060661418,0.0855408935566224,0.0204106193381289,-0.5866633609552626,0.0150699272413703,-0.0160111278956236,-0.0341217297902431,-87.50582215266004,120.09304466816266,264.2336749839481,-4.210839456799552e-05
3866,1724822715982154437,-1.8785300254821775,0.295999675989151,0.1401793807744979,0.0440789200365543,-0.0022427598014473,-0.2889339327812195,0.956331193447113,0.0,0.0,0.0,-0.4254989898210009,0.4049943100493082,1.137221218398616,1.596886531,0.0684774405987737,0.3331260486886057,0.2744599669804138,-1.570618932189534,74.38634039004023,91.56778705402571,0.0857282913625675,0.0211837334559251,-0.5859064014902615,0.0141674478387976,-0.0154077210549008,-0.0321993706343284,-77.30383723079662,110.36522696364366,248.38270704414975,-9.500796284868172e-05
3868,1724822715993805038,-1.878499150276184,0.2960050106048584,0.1401791423559188,0.0440987907350063,-0.0018739667721092,-0.2889310717582702,0.9563319087028505,0.0,0.0,0.0,-0.3121153161916687,0.4135013988234554,1.2612625962210848,1.608537132,-0.015034239469179,0.0615517279977828,-0.0022930690887518,0.6988426030690795,-10.935173054590416,-11.26695773850513,0.0855538771307445,0.0219005039559541,-0.5858716433570734,0.0056655040536526,-0.0017939661936843,0.0011023873707802,15.09333139685619,-38.59230335914364,-80.10617056055692,-1.5791257009922569e-06
3870,1724822716002832805,-1.8784269094467163,0.2959730625152588,0.1401969492435455,0.0443632453680038,-0.0017178062116727,-0.288992702960968,0.9563012719154358,0.0,0.0,0.0,-0.1383516113945299,-0.2099773301175384,-0.0967701424763666,1.617564899,0.0463065376626425,0.0493976447415209,-0.0166539248532504,2.17504465779107,-3.0663339158282787,-0.7145054694979585,0.0859694393768834,0.0223576904479827,-0.5859831868132779,0.0057692706221814,-0.0033425032805869,0.0013163543987388,19.996187310283418,-48.68384926974298,-79.48132273404677,1.832604736055599e-05
3872,1724822716013248489,-1.8783936500549316,0.2959406077861786,0.1402027755975723,0.044425506144762,-0.0017508964519947,-0.289060890674591,0.9562777280807496,0.0,0.0,0.0,0.0789169733729378,-0.472165034912634,-0.0720527933066126,1.627980583,0.0134470757049956,-0.0032099285577643,-0.0135662631833001,-0.6147641225608289,-1.3186091158411877,-0.8504151423060213,0.0861062916615002,0.0223365234984132,-0.5861268912827686,0.0025275507288284,-0.0059915758918762,-0.0011392717346803,24.64638484408001,-11.187102168867868,18.71241641257581,7.56243699207133e-06
3874,1724822716022835858,-1.8783752918243408,0.2958577871322632,0.1401768624782562,0.0445868261158466,-0.0017073258059099,-0.2892029583454132,0.9562273621559144,0.0,0.0,0.0,0.348627715734238,-0.4560007379888074,0.2515434055690874,1.637567952,0.0299687873911527,0.0170844199846942,-0.0318404498982962,7.00821379695175,2.961322984470911,-0.273923510031538,0.086387109960536,0.0225260057078929,-0.5864170065974222,0.0067272146352479,-0.0124407306496827,-0.0003853436712866,12.919114629781385,16.391636044483988,28.30913709615599,-1.936297386004001e-05
3876,1724822716032422730,-1.8782646656036377,0.2957020699977875,0.1401953846216201,0.0453387759625911,-0.0016626750584691,-0.2892764806747436,0.956169843673706,0.0,0.0,0.0,0.3266463118907396,-0.1578824720355061,0.4707588342868589,1.647154824,0.1478190029382506,0.0535703525711028,-0.0188201608907633,2.7447865543315126,5.504140068259242,-0.5808536929405459,0.0878011534359087,0.0230533255120427,-0.5865521128238541,0.0092123114444291,-0.0147352593039116,0.003683710281785,0.1709877742132519,18.83112834881756,-0.5024538438260793,2.85436952103909e-05
3878,1724822716043432411,-1.878192663192749,0.295558899641037,0.1402580887079239,0.0458568967878818,-0.0010275720851495,-0.2895037531852722,0.9560772180557252,0.0,0.0,0.0,0.3596809311677484,-0.1056369828519442,0.1697617181631351,1.658164505,0.057315522101256,0.1356421164024628,-0.0497311033166594,2.7123912659060174,2.609261661863872,-4.256637313385547,0.0884223121916855,0.0245890887190213,-0.5869661936896777,0.0136611140030424,-0.0154435654507274,0.0094522514689714,-20.364803763814756,9.031069329902545,-45.54469949076344,7.285576921121452e-05
3880,1724822716052713652,-1.8780101537704468,0.295396476984024,0.1403752118349075,0.0467666983604431,-0.0006908483919687,-0.2899230718612671,0.9559063911437988,0.0,0.0,0.0,-0.0121434952566323,0.0117141770535592,-0.3953913522483225,1.667445746,0.1680293606032745,0.1219493452497762,-0.1005753553247793,4.988088619633473,4.708527443328041,-3.0822088691991714,0.0899609480966495,0.0257995789291586,-0.5877954138857828,0.0166520067012783,-0.0167471619963031,0.0082566140111328,15.34428951434406,-4.226323484019177,-4.019631234613968,0.0001258774497202
3882,1724822716062624620,-1.8778769969940183,0.2952384650707245,0.1404108703136444,0.047785460948944,0.0002355083124712,-0.2903690338134765,0.955720841884613,0.0,0.0,0.0,0.7263206478680683,-0.2087175553812302,0.1666741760571139,1.677356714,0.1440099336721699,0.2340616413859819,-0.1057655209048123,-4.096951784357678,2.967060513291073,0.92711058332769,0.0913657037901772,0.0282047360201996,-0.5886296160770743,0.0129926109798645,-0.0150205927848414,0.0015166978773919,54.07786369424247,-14.596121170089372,24.24111846244518,4.631463655401876e-05
3884,1724822716076569601,-1.8777045011520384,0.2950471043586731,0.1403911858797073,0.0483716204762458,0.0008918992243707,-0.290760725736618,0.9555718898773192,0.0,0.0,0.0,1.0795418595364206,-0.2622567413632706,-0.132382591565455,1.691301695,0.0540437120783445,0.1117028342839302,-0.0643711284846301,18.521160940409956,38.01148886222729,-1.3060496153509875,0.0920975392313203,0.029838109949088,-0.5893811433480506,0.0446168093062055,-0.0254445125691304,0.0204544146619376,-131.14375703666988,46.12930687881021,-154.7054121740062,-6.360803078656516e-06
3886,1724822716082180996,-1.8773813247680664,0.2948778569698334,0.1405553370714187,0.0492973960936069,0.0018826387822628,-0.2909206449985504,0.9554744362831116,0.0,0.0,0.0,-0.0096743226298325,0.1094221231491912,-1.30139657516882,1.69691309,0.2143615352525134,0.4306427998828765,-0.0813516098795573,12.077319999077492,32.99604960944955,-0.2804418141709244,0.0932932297416432,0.0322864960391647,-0.5896120859910747,0.0479914965220729,-0.0258204523922263,0.0163462111288286,-145.6104073940022,42.87755094926578,-135.50452926820782,0.0001713744023029
3888,1724822716092973320,-1.8770626783370972,0.2946892976760864,0.1404638439416885,0.0497674606740474,0.0033910423517227,-0.2909838855266571,0.9554266929626464,0.0,0.0,0.0,-0.5744989507186546,0.0873160649184363,-1.252215481727873,1.707705414,0.0023686522232411,0.2918675961198531,-0.0273879160689579,-6.02096453389913,-5.290970889789449,2.5265437596341433,0.0933187737962924,0.0354502676379514,-0.589612948405951,0.0352031995438437,-0.0209776730041255,-0.0095152478287801,-9.596170888629036,-14.255387178246504,56.52076961702901,-7.989823024606097e-05
3890,1724822716103203725,-1.876647472381592,0.2944406867027282,0.1403564363718032,0.0505861975252628,0.0048096161335706,-0.2910303175449371,0.9553634524345398,0.0,0.0,0.0,-0.2581939723190412,-0.176903389090673,-0.1700542502423687,1.717935819,0.0728740855618221,0.3111286669433653,-0.0255291570231989,-4.580954769480101,6.548383742878865,1.0566936241449545,0.0940657037839566,0.0386437145013789,-0.5895751564963823,0.0352457795903831,-0.0235892397621668,-0.0112310495932881,-3.2827928360602847,6.604556288514639,51.90630700547014,-9.053680485746312e-05
3892,1724822716112714792,-1.876359462738037,0.2942226231098175,0.1402431428432464,0.050832062959671,0.0067952484823763,-0.2909635007381439,0.9553586840629578,0.0,0.0,0.0,-0.5918319287112732,0.1726817580594664,-0.1527281759775893,1.727446886,-0.0721409095646379,0.4146659494025626,-0.0077418185207485,-5.13660241555377,-4.324519676323609,-1.5990359340979323,0.0933915830549657,0.0425772122369145,-0.5892790943398855,0.0304702460663719,-0.0245787936942196,-0.0128691232170368,-6.053816185215731,30.951469260628436,-28.410043247149467,-9.54357344525976e-05
3894,1724822716123353022,-1.876033067703247,0.2939414978027344,0.1400948464870453,0.051087163388729,0.0077768140472471,-0.2912479341030121,0.9552509784698486,0.0,0.0,0.0,-0.3108648688594417,0.4328871906529339,-0.8146871768703724,1.738085116,-0.0064822155319227,0.1876713798841199,-0.0660327542031565,1.5407797807152137,-6.375470218136167,0.7511497083004691,0.0933002380014023,0.0446304950125685,-0.5897929691618109,0.0231065175217111,-0.0194490322961602,-0.0142618508121437,27.11163082550409,14.318737602787628,-0.0831516358997817,-0.0001236558578469
3896,1724822716133784600,-1.8758695125579832,0.2938099801540375,0.139942780137062,0.0513156428933143,0.0091989552602171,-0.2911454439163208,0.9552572965621948,0.0,0.0,0.0,-0.0208818041097025,0.4785253061264681,-0.1799139964270486,1.748516694,-0.0377814824381147,0.2742121598843711,0.005534668786564,3.894682736234679,-4.735290516709086,1.3838069516921414,0.0929210152482372,0.0474731992785842,-0.5894691411277502,0.0237643085118435,-0.0154377602114088,-0.0297545656171589,-25.463113404816127,13.805050987085927,136.83928755152715,-0.0001396540686616
3898,1724822716142788379,-1.8755927085876465,0.2936489880084991,0.1395569294691085,0.0517041720449924,0.0096983248367905,-0.2912230491638183,0.9552077651023864,0.0,0.0,0.0,-0.6640643434037986,0.6761077252483629,1.642691687840692,1.757520473,0.0508701415085945,0.1303048861057545,-0.024568627541164,-0.2942121425460366,-7.269000728769811,-2.7855411033128608,0.0933736959511266,0.048661926489475,-0.5895804117718257,0.0229239655716781,-0.0103987613073748,-0.0212307602494794,-45.06465997495932,-6.862814856322236,93.29305371259956,-0.0003701107849666
3900,1724822716153188678,-1.875448226928711,0.2936307191848755,0.1395958960056305,0.0515755489468574,0.0106147183105349,-0.2914089858531952,0.9551482796669006,0.0,0.0,0.0,-0.8159554127185056,0.2586592429652385,1.3018979682091132,1.767920772,-0.0740089807349885,0.159389909401144,-0.0468372099355686,-3.3725358057336448,-4.852385182827602,0.6580051995003067,0.0925875760945665,0.0503576976569895,-0.589911936443928,0.0091610509109614,-0.0019680280653489,0.0042150644172966,28.487119415750755,-52.211720624365185,-75.80393556233243,3.92500935822358e-05
3902,1724822716162550354,-1.875402331352234,0.2936105132102966,0.1396393030881881,0.0514954961836338,0.0108849518001079,-0.291471779346466,0.9551303386688232,0.0,0.0,0.0,-0.186144936920059,-0.3318714556870101,0.2295892906663261,1.777282448,-0.0328186692528858,0.0495075428552257,-0.0170893423841903,4.78442455694605,-9.43036736544234,2.3969784068403595,0.0922744273066973,0.0508339536308776,-0.5900285467586087,0.0057977805234372,-0.0041978277688698,0.0067564979969816,49.498472654004026,-26.211642236177116,-85.10669602423955,4.4859028622528845e-05
3904,1724822716173504195,-1.8753273487091064,0.2935383915901184,0.1397404819726944,0.0515850335359573,0.0107193412259221,-0.2914844453334808,0.955123484134674,0.0,0.0,0.0,0.1282103525450802,-0.1464608631084421,-0.3253849161004574,1.788236289,0.0245177005362892,-0.0242215862767536,-0.0008385667231796,5.820619662989262,-2.4212617716670404,-1.4075442969650305,0.0925412783633538,0.0505706108659109,-0.5900621864786291,0.0059775505409049,-0.0090338697176015,0.0087345797832485,29.229477377478883,24.595898427763117,-37.430943222042536,0.0001074551976753
3906,1724822716183154251,-1.875277042388916,0.2934303879737854,0.1398205012083053,0.0519624277949333,0.0105581004172563,-0.2916713058948517,0.9550477862358092,0.0,0.0,0.0,0.4147932552930857,0.1560916631336533,-0.574088549556925,1.797886345,0.0856710485359248,-0.0109487661884577,-0.0390001136006635,0.6707426126178319,-1.0663065572470367,-3.3547691260209227,0.0933485614886143,0.0505003415082458,-0.5904472242415277,0.0081652396607125,-0.0079390246509003,0.0012931305563768,1.4253551694756394,1.390676723535595,-1.99444767273717,9.044382126596318e-05
3908,1724822716194377599,-1.8751468658447263,0.2933837473392486,0.1397436559200287,0.0519717596471309,0.0102530503645539,-0.2920572459697723,0.954932689666748,0.0,0.0,0.0,0.061749730042763,-0.2193950320251195,-0.2860979567531762,1.809109693,0.0192352947165397,-0.0547884153908544,-0.0688229417469178,-4.2807203920105685,-1.680159377957276,-3.2324379350032357,0.0935229062653501,0.0499601849157501,-0.5912747344305418,0.0152757874901539,-0.0056306084706818,-0.0025780531211783,-35.20983651096064,-26.154382633100823,9.167932925567955,-7.290788796495846e-05
3910,1724822716203524228,-1.8749797344207764,0.2933212518692016,0.1397518962621688,0.0518617518246173,0.010053819976747,-0.2925179898738861,0.9547997713088988,0.0,0.0,0.0,-0.2882820876522066,-0.404193005019361,-0.3251767186853387,1.818256322,-0.0077036810086081,-0.0535635685226376,-0.1026766794740437,-1.895045404356479,3.533066756075791,-1.2445900282766624,0.0934036030485208,0.049560046544157,-0.5922567382466343,0.0115782918175142,-0.0108059165900726,-0.0047563974790856,-1.2160065584240385,12.30347631266639,13.270929257983347,1.2888972656005693e-05
3912,1724822716213055388,-1.8749358654022217,0.2931787967681885,0.1396503746509552,0.0518069863319397,0.0101605886593461,-0.2929239571094513,0.954677164554596,0.0,0.0,0.0,0.0681324174963624,0.0359324374186071,-0.0244507670410324,1.827787482,-0.0153353249201707,0.0138705710767533,-0.0901401127069654,1.83074250861222,-0.4339466418639035,1.4584258800521912,0.0932155359802499,0.0497717255734918,-0.5931008839795919,0.0099823742341413,-0.0130531293167042,-0.0087199646641513,168.98603025633352,-44.205793589961694,76.35889756506609,-8.649676086036953e-05
3914,1724822716223635684,-1.8747670650482176,0.2930629253387451,0.1395808011293411,0.0518572255969047,0.0097279101610183,-0.2933162152767181,0.9545584321022034,0.0,0.0,0.0,3.4015840659138603,-1.493322410161328,1.3097036613167885,1.838367778,0.0349405954874176,-0.0789141096907697,-0.0730288198244974,3.276083660384255,-5.925338059998647,1.3523975017063037,0.0935433292183641,0.0490124684175245,-0.593948999414565,0.0134700382171679,-0.0094817684673129,-0.0043816680539601,2474.910594494553,-449.26984771091867,-2830.54659901824,-5.90536584649803e-05
3916,1724822716254154489,-1.8745746612548828,0.2929029464721679,0.1396402269601822,0.0518800765275955,0.0096126310527324,-0.2941264510154724,0.9543089866638184,0.0,0.0,0.0,269.0672077457848,-42.030448912288136,-345.3525350434445,1.868886583,0.0050095820700372,-0.0093665588171179,-0.0550731525561214,125.12873623994923,372.9357348528813,-4208.172590606736,0.0936129256279562,0.0488849139769834,-0.5956511340821332,0.3877098267503243,-0.21623015480111,0.114787904351516,-75397.58041316434,32936.83985661311,12070.789311191416,7.349867319930047e-05
3918,1724822716254757701,-1.8743362426757812,0.2927699983119964,0.1397108137607574,0.0519155152142047,0.0097100464627146,-0.2948840856552124,0.9540722966194152,0.0,0.0,0.0,222.5837579273266,-21.754021342480883,-337.7919454834234,1.869489795,0.081992295166528,0.2200119602647583,-2.643672897648921,312.7801526614082,-706.9020874852661,-1688.7798537758254,0.0935851032850474,0.0491660969772188,-0.597228408289833,0.5530761841305321,-0.2420037704190463,-0.0976969582946196,-100158.53679250016,36794.78174351085,43981.85576307902,8.124203116591199e-05
3920,1724822716255174029,-1.87406063079834,0.292663037776947,0.1396084427833557,0.0519392304122448,0.0096450429409742,-0.2954049110412597,0.9539105296134948,0.0,0.0,0.0,174.2477100206572,-5.5213750168710085,-310.4446995978619,1.869906123,0.2654156034961852,-0.3866805878763028,-2.5989249862468475,416.9121483940036,-1384.8362810404356,116.35423970482944,0.0936418867900736,0.0491069579894902,-0.598322040791162,0.6309288207707215,-0.2450340469704794,-0.234173139844829,-111737.48026497551,37223.416733435326,64449.26642054303,-9.397724364115052e-05
3922,1724822716263293776,-1.873859167098999,0.2925547659397125,0.1395625472068786,0.051358800381422,0.0091773783788084,-0.2964005768299103,0.9536376595497132,0.0,0.0,0.0,-42.037921495470954,16.95802808612281,16.89258216578456,1.87802587,-0.0964936492036678,-0.1642056835331821,-0.2491928312072754,-23.922174826515977,19.80449548573055,166.57453466891138,0.0927544914757104,0.0479677361335087,-0.6004632284963705,0.0265714710367319,-0.0115927860567524,-0.0050261701609413,-13195.658515882418,889.2677052142684,22022.023146068772,-3.705817614680309e-05
3924,1724822716273706091,-1.8735589981079104,0.2924573123455047,0.1395185738801956,0.0509128607809543,0.0090315928682684,-0.2971802949905395,0.9534202218055724,0.0,0.0,0.0,0.0357895053827117,1.1257118004008084,1.9587169989905555,1.888438185,-0.0698654962296888,-0.0594014277883956,-0.1545520784017977,26.64499358194697,83.95348919466004,-8.498013655793395,0.0919477489144291,0.0475002647857139,-0.6021244891472872,0.0213717063532641,0.00753345102828,0.0196063450242149,1949.225284208797,-818.2740136964832,-798.8143541191872,-3.766783418525351e-05
3926,1724822716282707265,-1.8734246492385864,0.2926565706729889,0.1398804783821106,0.0541307814419269,0.0140924509614706,-0.2984765172004699,0.9527764916419984,0.0,0.0,0.0,1.306255561713209,-0.7752058513299563,-0.2870458467255738,1.897439359,0.3574032509002915,1.27122230608372,-0.3678960546802928,1.4103532996640649,26.542598404568093,-10.947872061355756,0.0950458417393791,0.0592020228071623,-0.6043564634660765,0.0258582043714881,0.0121323325173836,0.0340701731420676,107.4494333767268,-127.7784450023028,-162.43435761493302,0.0003366768200762
3928,1724822716293928628,-1.8729815483093264,0.2926527559757232,0.1401769518852234,0.0524430945515632,0.0139590483158826,-0.3001625835895538,0.9523430466651917,0.0,0.0,0.0,2.0406187431995413,-1.042258035113357,-0.8918510620793205,1.908660722,-0.2710806724883439,-0.127613303111873,-0.3123292636074236,-8.103921654541026,-67.87928620261766,23.7457564843967,0.0917911919399138,0.0581032017504756,-0.6079857506809743,0.0518169177779554,-0.0145583744094892,0.0043546360127599,36.20227320990253,123.72103066322168,126.60052765057463,0.0002929710894579
3930,1724822716303500333,-1.8723849058151243,0.2923973202705383,0.1400384753942489,0.05219042673707,0.0124508226290345,-0.299932062625885,0.9524505138397216,0.0,0.0,0.0,2.148395873751461,1.346396244419504,1.7936208555944964,1.918232427,0.0424653116841834,-0.3137582231060548,0.0684019579977793,16.08141727200484,22.567052640892648,0.266068480135722,0.092218964919547,0.0550525540194412,-0.6076091704071436,0.0691225515362106,-0.0136242220880724,0.0101572864509487,-117.33668933599556,108.44913321697004,94.30365470068436,-0.000114904844115
3932,1724822716312749477,-1.8716849088668823,0.2923880517482757,0.1403525024652481,0.0527349524199962,0.0136517789214849,-0.3011119663715362,0.9520316123962402,0.0,0.0,0.0,-0.0861946949471192,1.0883425540017626,1.001159497026386,1.927481571,0.0421621473157517,0.2704700319627168,-0.2822619112660937,3.00858898865293,31.76156551572804,-29.31264088342215,0.0924751270236501,0.0577842523959346,-0.6099817379575492,0.0920356547992469,0.0099898915834799,0.03735899813491,-255.7180010116317,-91.2598112540998,-156.17114328175222,0.0003091352135325
3934,1724822716322937358,-1.8705637454986572,0.2926131784915924,0.1407713443040847,0.0535903349518775,0.0147896651178598,-0.3034023940563202,0.9512394666671752,0.0,0.0,0.0,-2.8498531592582235,-0.5524155464419758,-1.3809441373886246,1.937669452,0.1069431888074318,0.2416396795017785,-0.4843819830954355,-7.940270272830947,-10.522491713277866,8.826032094909742,0.0932868049371598,0.0606931534462677,-0.6146753432236941,0.0623900049443619,0.0046402917118673,0.0257900315142363,-15.80505320742054,-30.827874645684652,-57.811126151871,0.0003863670126114
3936,1724822716333128737,-1.8704137802124023,0.2924824953079223,0.1408779770135879,0.0530886724591255,0.0152740376070141,-0.3038733005523681,0.9511095285415648,0.0,0.0,0.0,-0.4065024494892926,0.4610044716478592,-0.175756922579745,1.947860831,-0.1197547373763483,0.0559756106512692,-0.1021933315884631,0.186639059453693,-10.586805352309405,8.75105038251403,0.092006184004495,0.0613575176468627,-0.615661327198823,0.0339581764200289,-0.0012681196366379,0.0092146615227646,195.0341699333991,64.20498414751404,76.80556694785835,0.0001199108216509
3938,1724822716343210756,-1.8698794841766355,0.2925849556922912,0.1409584283828735,0.0536117702722549,0.0153138926252722,-0.3053160607814789,0.9506173729896544,0.0,0.0,0.0,1.1138792718796335,0.7569026764393486,0.1851829904256285,1.95794285,0.1058472707453979,0.0253490741846255,-0.3007139676274279,5.553104157133191,-7.575057098739261,-10.805213143441694,0.0928885232365351,0.0618918800991026,-0.6186622906040042,0.0536303426841868,0.0137600072226113,0.0219112567776411,-1.56421652419737,-27.74095768200546,-34.913759250050035,6.661430826379932e-05
3940,1724822716353515332,-1.8693201541900637,0.2927646338939667,0.1413309425115585,0.0533593334257602,0.01493183337152,-0.3069021105766296,0.9501268267631532,0.0,0.0,0.0,-0.5069600809729344,-0.1302312582572606,-0.9193528460218052,1.968247426,-0.0141169083823479,-0.1004959258321285,-0.3184761894177436,-6.528021549838341,-0.1819182167558237,2.162888663578986,0.0925358440466721,0.0611645850837507,-0.6220322362256892,0.0562895593527201,0.0138323710068242,0.0125065168563001,-71.33181271446914,-49.91964539309885,-17.135240945315207,0.0003479125711542
3942,1724822716362636399,-1.8687905073165896,0.2928617000579834,0.1412541270256042,0.053193774074316,0.0150204170495271,-0.308059424161911,0.94976007938385,0.0,0.0,0.0,-0.4635744558887562,-0.2935206158084524,-0.3485977147462805,1.977368493,-0.0323731181148845,-0.0050261786727418,-0.2673698372722584,2.0409919118323447,14.965322333852772,0.5889488943165837,0.0920913706738014,0.0613437378626111,-0.6244693113262321,0.0454891486633215,0.011536406582854,0.0040671330806434,51.47690680538925,2.49843914254018,44.74786147698831,-8.929903752869402e-05
3944,1724822716376694201,-1.868423581123352,0.2930432558059692,0.1415818929672241,0.0543704815208911,0.0169976782053709,-0.3104081749916076,0.9488950371742249,0.0,0.0,0.0,1.2723434039346992,0.1836180465829825,-0.1058035895845309,1.991426295,0.0839064174690749,0.3028174538947193,-0.3677299660438208,-4.264858090482785,-16.320404225009856,-2.825070577014106,0.0929676725226249,0.0660601455034167,-0.6292330599369907,0.0545839619629475,0.0065045003499939,0.0116609415623667,68.4333055040656,85.65359778295995,52.555751609152125,0.0003044402909032
3946,1724822716384516948,-1.8678725957870483,0.2930662333965301,0.1416223794221878,0.0543414577841758,0.0171140320599079,-0.3117828667163849,0.9484438300132751,0.0,0.0,0.0,1.568035967490582,1.0787750101621028,0.4589251305559204,1.999249042,-0.0040289553512603,0.0087757441440647,-0.3710502456219431,-3.3062433074074407,-16.29620750435393,0.0344748449347989,0.0927448905899789,0.0663976437501089,-0.6321231836867729,0.0672595615968134,0.0102983853165063,0.0080211993494287,-17.207015948896412,56.04701939088087,56.86373704335542,3.6826351629651485e-05
3948,1724822716392825831,-1.8673417568206787,0.2932167649269104,0.1417141407728195,0.0545464903116226,0.0173883475363254,-0.3132163286209106,0.9479545950889589,0.0,0.0,0.0,0.9396235566575228,1.0292199131436035,0.7961362768415019,2.007557925,0.0385257613962818,0.0612777488556198,-0.3667137774694338,8.943894860345466,5.971704329015384,-7.126695820095149,0.0928652043878078,0.0671869673445867,-0.6351164967467036,0.0798264926431642,0.0245021675365126,0.019990648061853,-182.96752134658743,-87.32659189745408,-27.824092247499863,7.331430574999532e-05
3950,1724822716403378178,-1.866285800933838,0.2935608923435211,0.1420449912548065,0.0556149408221244,0.0178390555083751,-0.3159202635288238,0.946986436843872,0.0,0.0,0.0,-2.4295851861499016,-0.9826650866154448,-0.4142541713991391,2.018110272,0.184129666888304,0.119641886707903,-0.5444203912280057,5.307280964807923,-2.556199028570412,0.7995040834799791,0.0944262470394711,0.0689811543823315,-0.6407312704154126,0.0820646966225524,0.0262464445861407,0.0197554617487005,-167.3483191922277,-98.41643291247549,-54.45344611532431,0.0002870376032054
3952,1724822716414767506,-1.865572452545166,0.293781578540802,0.1421274244785308,0.056322555989027,0.017639746889472,-0.3176541328430176,0.9463680982589722,0.0,0.0,0.0,-2.4678556115504646,-0.9696696877329002,-0.2938075409106713,2.0294996,0.1401991498913057,-0.00888393973826,-0.3184715883511815,-48.28521723486168,2.3421140407412153,21.994856750955563,0.0957724385154199,0.0692248480505625,-0.644360292387129,0.0219198618578104,0.0009429941142258,0.0102190590605015,269.33962105259013,111.83656859801542,10.345593798133676,5.415147112276319e-05
3954,1724822716422790688,-1.8656266927719116,0.2936849594116211,0.1422262638807296,0.0545322261750698,0.018634034320712,-0.3180913627147674,0.9463070034980774,0.0,0.0,0.0,1.2343798588244628,0.5532566883086224,-0.2121017686280864,2.037522782,-0.4983052598574816,0.0869251209947793,-0.1298161202887466,-17.404668893004782,2.6025491005928383,5.359405014854037,0.0917066760774001,0.0700166881755674,-0.6453342984061753,0.0180183492875869,0.0002394106084508,0.0109336165301971,314.2165771116717,128.30675964259328,7.928985568451305,0.0001092690447034
3956,1724822716432821690,-1.8651351928710935,0.2938413918018341,0.1423185616731643,0.0550046004354953,0.0185271222144365,-0.3195436596870422,0.9457923769950868,0.0,0.0,0.0,2.539887555933177,1.0689002514325177,-0.1608432582791096,2.047553784,0.1068975500096091,-0.0040914998847554,-0.303735289516794,29.2556432510726,-24.327952342455976,-6.06888511937068,0.0925655761122191,0.0702561468249918,-0.6483794570311243,0.0519796988679104,0.0138274717198303,0.0050290479699093,-2.5128215598760377,8.855438537691434,26.654009400497003,7.349491140882882e-05
3958,1724822716445076463,-1.8644535541534424,0.2939843833446502,0.1423177272081375,0.0539423935115337,0.0155223151668906,-0.3209340274333954,0.9454368352890016,0.0,0.0,0.0,0.5229685177115568,0.5403896869320735,0.4883422548756307,2.059808557,0.0001396634263276,-0.5306070615005627,-0.2093897194367946,9.527206151168912,22.50128863230435,-12.11378523545136,0.0923551256741775,0.0640183555634243,-0.651542041931559,0.0704432530063172,0.0226491406965081,0.009462602612702,-163.5110484996932,-49.52970865912981,11.839665164967249,-2.043315003694399e-05
3960,1724822716453053011,-1.8638147115707395,0.2942220568656921,0.1424426883459091,0.0545467436313629,0.0153492344543337,-0.3224882483482361,0.9448758959770204,0.0,0.0,0.0,-0.7757232671701169,0.1120710529602605,0.3692168630704726,2.067785105,0.1708272477848564,-0.0112358585681036,-0.4088798599769576,10.270666624350074,39.6709039996645,-10.974498155047172,0.093508670851756,0.0642317688689304,-0.6548043759865954,0.0695076218994898,0.026027818533711,0.0140149744750486,-81.26453387285528,-35.59340643248037,-8.603117902999966,9.336143480265637e-05
3962,1724822716462797582,-1.8632633686065672,0.2944308221340179,0.142559602856636,0.0552717670798301,0.0155580192804336,-0.3240842819213867,0.9442840814590454,0.0,0.0,0.0,-0.5968100560148257,-0.0192546484306559,0.3607544439162261,2.077529676,0.1384372849096611,0.0724737409544876,-0.3487412338987297,-5.9132248688224465,5.591117437756421,3.37257441412887,0.0946426333025129,0.0652541016459547,-0.658128303328189,0.054110317359175,0.0234115928627165,0.015214049541087,39.28180178246554,-1.6397345140217467,13.499572619755984,8.86941530468636e-05
3964,1724822716472857049,-1.862744688987732,0.2946869730949402,0.1427460461854934,0.055651094764471,0.0160321407020092,-0.3256939649581909,0.9436998963356018,0.0,0.0,0.0,0.0156041193274778,0.0871730343206682,0.6457579684020969,2.087589143,0.0520644319633827,0.0975714098756135,-0.3438804909721038,5.296052828426483,7.480463137728528,-5.968166831803607,0.0949452190223012,0.0665586426204655,-0.6614864527526707,0.0583176407943568,0.0258059951753573,0.0213114920297021,5.379254883054774,5.01684936412118,43.39116057812036,0.000152504967432
3966,1724822716482397431,-1.8621271848678589,0.2949362695217132,0.1429744958877563,0.0569755956530571,0.0167630109935998,-0.3277205526828766,0.9429062008857728,0.0,0.0,0.0,-0.4352455077600359,0.0847011765109659,1.1959839095065372,2.097129525,0.2281988013386714,0.2140473989436241,-0.4591915902271098,5.483913000839189,1.501117465145215,-4.8266164764267625,0.0968395531571839,0.0690108056009123,-0.665661230515269,0.0548233805990321,0.0252727402581456,0.0278307389331908,28.63517703050954,8.64919041012751,38.95975499300465,0.0001937736417828
3968,1724822716494590139,-1.8616130352020264,0.2952310442924499,0.1433743685483932,0.0575985237956047,0.0170946400612592,-0.3300337791442871,0.9420552253723145,0.0,0.0,0.0,1.0964774042547631,0.328970758603758,1.3794056998910604,2.109322233,0.0928329661210822,0.0654996274520062,-0.4049125678186119,-3.4107516567286273,10.461018116128956,-21.376929513582663,0.0976340769339529,0.0702849603277754,-0.6705091639396749,0.0484415986713031,0.0284962962756942,0.050401375224311,89.0794837678458,0.2387719863251725,-116.26610772037,0.0003586824752359
3970,1724822716503061245,-1.861165761947632,0.295497864484787,0.1439049392938614,0.0583822429180145,0.0182686448097229,-0.3329144418239593,0.9409707188606262,0.0,0.0,0.0,1.6359854115200332,0.2144890735360252,-0.378314018304358,2.117793339,0.1092077790995421,0.2873883108576098,-0.7380124051364862,-8.374109466916924,9.95314536832391,-10.328904186591638,0.0981287911143768,0.0733187749083983,-0.6765085694975974,0.0672637481326887,0.0316631653495562,0.0593099865502653,0.8829615412651535,-23.349050278306276,-203.43664007762175,0.0004920289264501
3972,1724822716512897643,-1.8603389263153076,0.2958112061023712,0.144450381398201,0.0582428537309169,0.019488027319312,-0.3352007567882538,0.940142810344696,0.0,0.0,0.0,0.9273278026767416,-0.1275105545015857,-2.3330340488892736,2.127629737,-0.0908885872730229,0.1997973514644644,-0.5084615068219897,-14.766992134345749,-7.646990378133774,11.945708427148949,0.0968773238269262,0.0757616103978638,-0.68130820541293,0.0766635223886993,0.0319528596948615,0.0392561064122123,-59.95942556467139,-34.96358159220924,-75.79575360243479,0.0005009315656847
3974,1724822716524034721,-1.8595783710479736,0.2961682975292206,0.1446833610534668,0.0574610605835914,0.0206848345696926,-0.3378540873527527,0.939215123653412,0.0,0.0,0.0,0.4119437712608729,-0.5193589992525303,-1.627093653003041,2.138766815,-0.1850446955467809,0.1304926331294394,-0.5190611057053552,21.883621267893023,-27.140216451697228,16.15155528156608,0.0943845450842249,0.0777602685669839,-0.6869404417984931,0.0866345951590972,0.0285535156365135,0.009561978552897,-37.81988560471564,-20.966007021953303,128.59511479054544,0.0001877289084135
3976,1724822716532595389,-1.8587160110473633,0.296389639377594,0.1446904838085174,0.0579026639461517,0.0194959919899702,-0.3390087485313415,0.9387972950935364,0.0,0.0,0.0,0.1438265691862064,-0.6052828382795918,-0.0971429479789657,2.147327483,0.2019255341304496,-0.2394875658734926,-0.2682486180739619,24.498752922909457,-21.978998245198415,20.618825157569457,0.0959221461779278,0.0759375497915347,-0.6894285949433766,0.0869804644090379,0.0226984124423452,0.0024708417372711,-89.07516385204578,15.93030665737558,127.28440364638512,-2.220826765078783e-05
3978,1724822716547255634,-1.8577861785888672,0.2966431379318237,0.1447678506374359,0.0580896511673927,0.0192755460739135,-0.3402917385101318,0.9383260011672974,0.0,0.0,0.0,-2.6120377725405817,0.2801916892841807,0.4775784477059415,2.161987728,0.0412787818784647,-0.0284666348784048,-0.1838755598807334,111.3857754135388,108.37068180583331,-92.72755733006016,0.0963203214688302,0.0757808596950092,-0.6921597205287979,0.0916855547596071,0.0157999237568944,0.0194040001450943,-246.71663642519565,1.0869366155938849,-47.48700802247655,4.270124035427232e-05
