seq,stamp,px,py,pz,ox,oy,oz,ow,lx,ly,lz,ax,ay,az
12,1724559613660547029,-1.765087366104126,0.2742347717285156,0.19297485053539276,-0.008036356419324875,0.03229060024023056,-0.31141749024391174,0.9496904015541077,0.0,0.0,0.0,0.0,0.0,0.0
14,1724559613672141805,-1.7642438411712646,0.27395927906036377,0.19226592779159546,-0.008823034353554249,0.026101505383849144,-0.3100896179676056,0.950308084487915,0.0,0.0,0.0,0.0,0.0,0.0
16,1724559613680776385,-1.7632112503051758,0.27387893199920654,0.19205066561698914,-0.006696511059999466,0.027786042541265488,-0.3101556599140167,0.9502561092376709,0.0,0.0,0.0,0.0,0.0,0.0
18,1724559613694968349,-1.7622263431549072,0.27369236946105957,0.19132959842681885,-0.004865795839577913,0.02458050474524498,-0.3099367916584015,0.9504268765449524,0.0,0.0,0.0,0.0,0.0,0.0
20,1724559613708010554,-1.7612608671188354,0.2741905748844147,0.19176192581653595,-0.007135786581784487,0.028091881424188614,-0.3134568929672241,0.9491600394248962,0.0,0.0,0.0,0.0,0.0,0.0
22,1724559613710220081,-1.7603034973144531,0.274466872215271,0.192077174782753,-0.013625334948301315,0.025164850056171417,-0.3143520653247833,0.9488750696182251,0.0,0.0,0.0,0.0,0.0,0.0
24,1724559613722107759,-1.7592774629592896,0.2742643654346466,0.19207212328910828,-0.013859041966497898,0.026333827525377274,-0.31422528624534607,0.948881983757019,0.0,0.0,0.0,0.0,0.0,0.0
26,1724559613730761379,-1.7580466270446777,0.2742169201374054,0.1917666643857956,-0.010181144811213017,0.03014468029141426,-0.3145982623100281,0.9486914873123169,0.0,0.0,0.0,0.0,0.0,0.0
28,1724559613740517666,-1.7568563222885132,0.27422991394996643,0.19053931534290314,-0.00816093198955059,0.027853121981024742,-0.3158908188343048,0.9483515620231628,0.0,0.0,0.0,0.0,0.0,0.0
30,1724559613752116775,-1.7555314302444458,0.2745707929134369,0.1914552003145218,-0.00981968641281128,0.03351207450032234,-0.31775879859924316,0.9475283026695251,0.0,0.0,0.0,0.0,0.0,0.0
32,1724559613762912523,-1.754370093345642,0.2747083604335785,0.19163013994693756,-0.014697293750941753,0.03036332130432129,-0.3184591829776764,0.9473361968994141,0.0,0.0,0.0,0.0,0.0,0.0
34,1724559613771318082,-1.753143548965454,0.2751038670539856,0.1921486109495163,-0.018145808950066566,0.03409190848469734,-0.32072752714157104,0.9463838338851929,0.0,0.0,0.0,0.0,0.0,0.0
36,1724559613780462372,-1.7518510818481445,0.2751096189022064,0.19203078746795654,-0.02213578298687935,0.0409604087471962,-0.3218006193637848,0.9456619620323181,0.0,0.0,0.0,0.0,0.0,0.0
38,1724559613790327598,-1.7504523992538452,0.27506154775619507,0.19160443544387817,-0.02636761963367462,0.041932977735996246,-0.32268860936164856,0.9452081322669983,0.0,0.0,0.0,0.0,0.0,0.0
40,1724559613801767612,-1.7491626739501953,0.27465909719467163,0.190559521317482,-0.03127852454781532,0.03734995424747467,-0.3196426331996918,0.9462849497795105,0.0,0.0,0.0,0.0,0.0,0.0
42,1724559613810688477,-1.7477123737335205,0.27531179785728455,0.19127950072288513,-0.03031677007675171,0.03915496915578842,-0.3213321268558502,0.945671021938324,0.0,0.0,0.0,0.0,0.0,0.0
44,1724559613821762120,-1.7460229396820068,0.27551397681236267,0.19129373133182526,-0.028573645278811455,0.042931657284498215,-0.324005663394928,0.9446485638618469,0.0,0.0,0.0,0.0,0.0,0.0
46,1724559613830340262,-1.7443784475326538,0.2758338749408722,0.1917821615934372,-0.022838899865746498,0.0493796169757843,-0.32853153347969055,0.9429247379302979,0.0,0.0,0.0,0.0,0.0,0.0
48,1724559613840788638,-1.742689609527588,0.27554771304130554,0.19087202847003937,-0.02330544777214527,0.04204468056559563,-0.3267021179199219,0.9439040422439575,0.0,0.0,0.0,0.0,0.0,0.0
50,1724559613851481379,-1.7411736249923706,0.2756178677082062,0.19054974615573883,-0.02608899585902691,0.041061047464609146,-0.32764169573783875,0.943548858165741,0.0,0.0,0.0,0.0,0.0,0.0
52,1724559613860466053,-1.7394003868103027,0.27598971128463745,0.19094164669513702,-0.027325015515089035,0.04641473665833473,-0.3293502628803253,0.9426704049110413,0.0,0.0,0.0,0.0,0.0,0.0
54,1724559613874133101,-1.7377229928970337,0.2757951617240906,0.1896851807832718,-0.023775462061166763,0.04453926905989647,-0.32992467284202576,0.9426562786102295,0.0,0.0,0.0,0.0,0.0,0.0
56,1724559613880442272,-1.735965371131897,0.2761146128177643,0.19011043012142181,-0.029467809945344925,0.0471188947558403,-0.3306514620780945,0.9421152472496033,0.0,0.0,0.0,0.0,0.0,0.0
58,1724559613890530878,-1.734098196029663,0.27673086524009705,0.1907537877559662,-0.03021509386599064,0.05603170022368431,-0.3341814875602722,0.940356433391571,0.0,0.0,0.0,0.0,0.0,0.0
60,1724559613901296031,-1.7324110269546509,0.27652353048324585,0.1897839456796646,-0.03431028872728348,0.05046400800347328,-0.3331391215324402,0.940900981426239,0.0,0.0,0.0,0.0,0.0,0.0
62,1724559613922228694,-1.730562448501587,0.276965469121933,0.18998810648918152,-0.03631842881441116,0.054447054862976074,-0.3348694145679474,0.9399888515472412,0.0,0.0,0.0,0.0,0.0,0.0
64,1724559613922856513,-1.7286040782928467,0.2772260904312134,0.18994523584842682,-0.03856130689382553,0.05705362185835838,-0.3359898030757904,0.9393448233604431,0.0,0.0,0.0,0.0,0.0,0.0
66,1724559613930452106,-1.726574420928955,0.2769754230976105,0.1889701783657074,-0.03582193702459335,0.0593404695391655,-0.334933340549469,0.9396889209747314,0.0,0.0,0.0,0.0,0.0,0.0
68,1724559613940860986,-1.7246235609054565,0.2774420976638794,0.1890711933374405,-0.03937912359833717,0.061028044670820236,-0.33719873428344727,0.9386277794837952,0.0,0.0,0.0,0.0,0.0,0.0
70,1724559613951380362,-1.7228320837020874,0.2774105966091156,0.1886802315711975,-0.04133002832531929,0.059704046696424484,-0.33702996373176575,0.9386895895004272,0.0,0.0,0.0,0.0,0.0,0.0
72,1724559613961678517,-1.7211604118347168,0.27766910195350647,0.18859104812145233,-0.041501857340335846,0.060163021087646484,-0.3375309109687805,0.9384726285934448,0.0,0.0,0.0,0.0,0.0,0.0
74,1724559613971924892,-1.7195225954055786,0.2780967652797699,0.18884819746017456,-0.04116252064704895,0.0626101940870285,-0.33939090371131897,0.9376564025878906,0.0,0.0,0.0,0.0,0.0,0.0
76,1724559613982960838,-1.718049168586731,0.27794960141181946,0.1885165274143219,-0.03876171633601189,0.0621594563126564,-0.3384559750556946,0.9381264448165894,0.0,0.0,0.0,0.0,0.0,0.0
78,1724559613990537601,-1.7167726755142212,0.27794718742370605,0.18818145990371704,-0.03942945972084999,0.0593876950442791,-0.33754783868789673,0.9386053681373596,0.0,0.0,0.0,0.0,0.0,0.0
80,1724559614000902695,-1.7155569791793823,0.27824509143829346,0.18788816034793854,-0.04086143895983696,0.05838945508003235,-0.3379453718662262,0.9384636282920837,0.0,0.0,0.0,0.0,0.0,0.0
82,1724559614010633766,-1.7142599821090698,0.2785772681236267,0.18783043324947357,-0.040049195289611816,0.06161123514175415,-0.33941200375556946,0.9377631545066833,0.0,0.0,0.0,0.0,0.0,0.0
84,1724559614022488362,-1.7132644653320312,0.27857983112335205,0.1870477795600891,-0.04077126830816269,0.057769086211919785,-0.3390747904777527,0.9380984902381897,0.0,0.0,0.0,0.0,0.0,0.0
86,1724559614031204004,-1.7122246026992798,0.2789682447910309,0.1870155930519104,-0.04118109121918678,0.05984875559806824,-0.3406776785850525,0.937369167804718,0.0,0.0,0.0,0.0,0.0,0.0
88,1724559614042413834,-1.7113147974014282,0.2791547179222107,0.18690729141235352,-0.04246452450752258,0.06011486425995827,-0.341484010219574,0.9370014071464539,0.0,0.0,0.0,0.0,0.0,0.0
90,1724559614050714271,-1.710483193397522,0.27921587228775024,0.18682435154914856,-0.04215223714709282,0.06155689060688019,-0.3420369625091553,0.9367201328277588,0.0,0.0,0.0,0.0,0.0,0.0
92,1724559614060463340,-1.7098041772842407,0.27932441234588623,0.1867770552635193,-0.04213501885533333,0.06295380741357803,-0.3426516652107239,0.9364033937454224,0.0,0.0,0.0,0.0,0.0,0.0
94,1724559614071572468,-1.709256887435913,0.2792826294898987,0.1866728663444519,-0.04241813346743584,0.06255076080560684,-0.34262529015541077,0.9364272356033325,0.0,0.0,0.0,0.0,0.0,0.0
96,1724559614080511772,-1.7087534666061401,0.2791723906993866,0.18657901883125305,-0.042446523904800415,0.06182487681508064,-0.3428925573825836,0.9363764524459839,0.0,0.0,0.0,0.0,0.0,0.0
98,1724559614090852641,-1.7083829641342163,0.2790185809135437,0.18647414445877075,-0.04282807186245918,0.06071588769555092,-0.342972069978714,0.9364023804664612,0.0,0.0,0.0,0.0,0.0,0.0
100,1724559614102141428,-1.7081292867660522,0.278793603181839,0.1863880604505539,-0.042442839592695236,0.06055200845003128,-0.3433338403701782,0.9362980723381042,0.0,0.0,0.0,0.0,0.0,0.0
102,1724559614128422378,-1.7079765796661377,0.27832818031311035,0.1859164535999298,-0.039286062121391296,0.060909777879714966,-0.34216707944869995,0.9368395209312439,0.0,0.0,0.0,0.0,0.0,0.0
104,1724559614128706469,-1.7079108953475952,0.2779906988143921,0.1858336329460144,-0.038536880165338516,0.06054859608411789,-0.34204572439193726,0.9369384050369263,0.0,0.0,0.0,0.0,0.0,0.0
106,1724559614131055821,-1.7079509496688843,0.27760690450668335,0.18564124405384064,-0.0383581668138504,0.0595107227563858,-0.3416474759578705,0.9371574521064758,0.0,0.0,0.0,0.0,0.0,0.0
108,1724559614143762242,-1.707995057106018,0.2772677540779114,0.1856081485748291,-0.03848779946565628,0.05928608775138855,-0.341499388217926,0.9372203946113586,0.0,0.0,0.0,0.0,0.0,0.0
110,1724559614151115144,-1.7080769538879395,0.27701783180236816,0.18585991859436035,-0.04054976999759674,0.058644939213991165,-0.3418410122394562,0.9370492100715637,0.0,0.0,0.0,0.0,0.0,0.0
112,1724559614160720730,-1.7080843448638916,0.27677226066589355,0.1860315352678299,-0.04149613156914711,0.05912042781710625,-0.3423408269882202,0.9367953538894653,0.0,0.0,0.0,0.0,0.0,0.0
114,1724559614171819003,-1.708103895187378,0.27641743421554565,0.18603633344173431,-0.042718302458524704,0.059035222977399826,-0.3424902856349945,0.936691164970398,0.0,0.0,0.0,0.0,0.0,0.0
116,1724559614180340197,-1.7081218957901,0.2758728265762329,0.18597717583179474,-0.04359036684036255,0.05701519921422005,-0.3421798348426819,0.9368895888328552,0.0,0.0,0.0,0.0,0.0,0.0
118,1724559614192268922,-1.7081025838851929,0.2754456400871277,0.18607854843139648,-0.0433042012155056,0.05708253011107445,-0.3421900272369385,0.9368950724601746,0.0,0.0,0.0,0.0,0.0,0.0
120,1724559614201328002,-1.7080731391906738,0.2750922441482544,0.18620683252811432,-0.04311743378639221,0.057937443256378174,-0.34257909655570984,0.9367090463638306,0.0,0.0,0.0,0.0,0.0,0.0
122,1724559614210602501,-1.7080059051513672,0.27476444840431213,0.18628419935703278,-0.0428653322160244,0.05800918489694595,-0.342705100774765,0.9366700649261475,0.0,0.0,0.0,0.0,0.0,0.0
124,1724559614221754751,-1.707896113395691,0.27443256974220276,0.18634289503097534,-0.042665593326091766,0.05744561180472374,-0.3428999185562134,0.9366426467895508,0.0,0.0,0.0,0.0,0.0,0.0
126,1724559614230838802,-1.7077810764312744,0.2741447389125824,0.18641263246536255,-0.04254971072077751,0.05750985071063042,-0.34306496381759644,0.9365834593772888,0.0,0.0,0.0,0.0,0.0,0.0
128,1724559614241076492,-1.707686424255371,0.2738664448261261,0.18652713298797607,-0.04275539889931679,0.05744495615363121,-0.3433438837528229,0.9364758729934692,0.0,0.0,0.0,0.0,0.0,0.0
130,1724559614250860559,-1.707600474357605,0.27357620000839233,0.18661744892597198,-0.04194125533103943,0.057732149958610535,-0.3437284529209137,0.9363539814949036,0.0,0.0,0.0,0.0,0.0,0.0
132,1724559614260789107,-1.7075096368789673,0.2732371985912323,0.18668708205223083,-0.04201526194810867,0.057020243257284164,-0.34378352761268616,0.9363740682601929,0.0,0.0,0.0,0.0,0.0,0.0
134,1724559614273423179,-1.7073689699172974,0.2728870213031769,0.18664775788784027,-0.041532717645168304,0.05595192685723305,-0.3436225652694702,0.9365190267562866,0.0,0.0,0.0,0.0,0.0,0.0
136,1724559614281504583,-1.7071541547775269,0.2723372280597687,0.18636314570903778,-0.03892273083329201,0.0548086054623127,-0.34301307797431946,0.9369221925735474,0.0,0.0,0.0,0.0,0.0,0.0
138,1724559614290555586,-1.7070218324661255,0.27185094356536865,0.18566851317882538,-0.035488199442625046,0.052947089076042175,-0.3417525887489319,0.9376260042190552,0.0,0.0,0.0,0.0,0.0,0.0
140,1724559614308470033,-1.7068662643432617,0.27185171842575073,0.1860230714082718,-0.03582752123475075,0.053299885243177414,-0.3421468436717987,0.9374492168426514,0.0,0.0,0.0,0.0,0.0,0.0
142,1724559614311244334,-1.7068039178848267,0.27158376574516296,0.1861862689256668,-0.03715241327881813,0.05113600566983223,-0.34179118275642395,0.9376479387283325,0.0,0.0,0.0,0.0,0.0,0.0
144,1724559614321259420,-1.7066305875778198,0.2714673578739166,0.1860945075750351,-0.036521364003419876,0.04995478689670563,-0.34207683801651,0.9376322031021118,0.0,0.0,0.0,0.0,0.0,0.0
146,1724559614330186669,-1.7064130306243896,0.27130192518234253,0.1859230250120163,-0.035959601402282715,0.04829055443406105,-0.34197166562080383,0.9377794861793518,0.0,0.0,0.0,0.0,0.0,0.0
148,1724559614342189118,-1.7061711549758911,0.2711218595504761,0.18585821986198425,-0.03528478741645813,0.047301843762397766,-0.3420368731021881,0.937831699848175,0.0,0.0,0.0,0.0,0.0,0.0
150,1724559614351277094,-1.705919861793518,0.27095651626586914,0.18589600920677185,-0.03519519045948982,0.04709514230489731,-0.34207895398139954,0.9378300905227661,0.0,0.0,0.0,0.0,0.0,0.0
152,1724559614361047100,-1.705686092376709,0.2708756923675537,0.18608663976192474,-0.03548941761255264,0.04754827916622162,-0.34255003929138184,0.9376242160797119,0.0,0.0,0.0,0.0,0.0,0.0
154,1724559614370917246,-1.7055473327636719,0.2706495225429535,0.18601632118225098,-0.03654618188738823,0.04566311836242676,-0.34204527735710144,0.9378615617752075,0.0,0.0,0.0,0.0,0.0,0.0
156,1724559614380197396,-1.7053873538970947,0.2705073058605194,0.1861339807510376,-0.036289282143116,0.04609035700559616,-0.34241560101509094,0.9377155303955078,0.0,0.0,0.0,0.0,0.0,0.0
158,1724559614391711777,-1.7052204608917236,0.2704440653324127,0.18632757663726807,-0.03638574853539467,0.046766262501478195,-0.34281837940216064,0.9375311732292175,0.0,0.0,0.0,0.0,0.0,0.0
160,1724559614400856031,-1.7050533294677734,0.27035418152809143,0.1864599883556366,-0.03605315834283829,0.04692182317376137,-0.3431476056575775,0.9374157190322876,0.0,0.0,0.0,0.0,0.0,0.0
162,1724559614410724192,-1.7048765420913696,0.2702641189098358,0.1865619719028473,-0.03591814264655113,0.04678452014923096,-0.34346017241477966,0.9373133778572083,0.0,0.0,0.0,0.0,0.0,0.0
164,1724559614425619748,-1.704702615737915,0.27003562450408936,0.18652504682540894,-0.035496629774570465,0.04584549739956856,-0.34375858306884766,0.9372663497924805,0.0,0.0,0.0,0.0,0.0,0.0
166,1724559614431136075,-1.7044790983200073,0.2699284553527832,0.18653783202171326,-0.03450840711593628,0.045702014118433,-0.3443247973918915,0.9371024966239929,0.0,0.0,0.0,0.0,0.0,0.0
168,1724559614440537442,-1.7042908668518066,0.26978689432144165,0.18654167652130127,-0.034044068306684494,0.04484163969755173,-0.34473058581352234,0.9370117783546448,0.0,0.0,0.0,0.0,0.0,0.0
170,1724559614450982663,-1.7041072845458984,0.2695958912372589,0.18642500042915344,-0.032652247697114944,0.04448592662811279,-0.3450333774089813,0.9369668364524841,0.0,0.0,0.0,0.0,0.0,0.0
172,1724559614460219762,-1.7038666009902954,0.2691855728626251,0.18589989840984344,-0.02922246977686882,0.043383318930864334,-0.3438635468482971,0.9375616312026978,0.0,0.0,0.0,0.0,0.0,0.0
174,1724559614472545014,-1.703755497932434,0.26898086071014404,0.1859462857246399,-0.030200883746147156,0.04221188277006149,-0.3437206745147705,0.9376364946365356,0.0,0.0,0.0,0.0,0.0,0.0
176,1724559614483789504,-1.7035698890686035,0.26901760697364807,0.1862303465604782,-0.030178790912032127,0.0436091274023056,-0.34481170773506165,0.9371725916862488,0.0,0.0,0.0,0.0,0.0,0.0
178,1724559614490431582,-1.7033717632293701,0.2689226269721985,0.1861850768327713,-0.030250437557697296,0.04369586333632469,-0.3453236222267151,0.936977744102478,0.0,0.0,0.0,0.0,0.0,0.0
180,1724559614501576908,-1.7031521797180176,0.2688548266887665,0.18626253306865692,-0.029562437906861305,0.043818868696689606,-0.3456345796585083,0.9368792772293091,0.0,0.0,0.0,0.0,0.0,0.0
182,1724559614510325748,-1.7029409408569336,0.26869484782218933,0.1862102746963501,-0.029506439343094826,0.04343023523688316,-0.34580928087234497,0.9368346929550171,0.0,0.0,0.0,0.0,0.0,0.0
184,1724559614520518397,-1.7027426958084106,0.26855021715164185,0.18599224090576172,-0.029766211286187172,0.04173527657985687,-0.34570300579071045,0.9369426965713501,0.0,0.0,0.0,0.0,0.0,0.0
186,1724559614530486036,-1.7024736404418945,0.2683958113193512,0.1857820600271225,-0.029401427134871483,0.04066379368305206,-0.34561100602149963,0.937035322189331,0.0,0.0,0.0,0.0,0.0,0.0
188,1724559614542118361,-1.7021970748901367,0.2682412266731262,0.18553225696086884,-0.028668848797678947,0.03952334448695183,-0.345292329788208,0.937224268913269,0.0,0.0,0.0,0.0,0.0,0.0
190,1724559614553124252,-1.7019063234329224,0.26815885305404663,0.18536894023418427,-0.028391346335411072,0.03963061794638634,-0.34532567858695984,0.9372158050537109,0.0,0.0,0.0,0.0,0.0,0.0
192,1724559614560555456,-1.7015514373779297,0.2681123614311218,0.1852811872959137,-0.025955121964216232,0.040297895669937134,-0.3456837236881256,0.9371260404586792,0.0,0.0,0.0,0.0,0.0,0.0
194,1724559614571563562,-1.7012873888015747,0.2680271565914154,0.1849527209997177,-0.024993665516376495,0.040423549711704254,-0.34560084342956543,0.9371773600578308,0.0,0.0,0.0,0.0,0.0,0.0
196,1724559614580529280,-1.7010220289230347,0.26795417070388794,0.18453562259674072,-0.023599164560437202,0.040204647928476334,-0.3452078104019165,0.9373676776885986,0.0,0.0,0.0,0.0,0.0,0.0
198,1724559614590652680,-1.7007973194122314,0.2679775059223175,0.1842552125453949,-0.023448999971151352,0.04078977182507515,-0.3451979160308838,0.9373498558998108,0.0,0.0,0.0,0.0,0.0,0.0
200,1724559614600916818,-1.700598955154419,0.2678639590740204,0.18390439450740814,-0.023370930925011635,0.03992834687232971,-0.34468400478363037,0.937578022480011,0.0,0.0,0.0,0.0,0.0,0.0
202,1724559614611617251,-1.7003272771835327,0.2678215801715851,0.1839112490415573,-0.020835423842072487,0.04264291748404503,-0.3450137674808502,0.9373970031738281,0.0,0.0,0.0,0.0,0.0,0.0
204,1724559614621336300,-1.7001211643218994,0.26779794692993164,0.1836259365081787,-0.020094728097319603,0.0427372045814991,-0.3447522521018982,0.9375050067901611,0.0,0.0,0.0,0.0,0.0,0.0
206,1724559614630365062,-1.6998929977416992,0.267759770154953,0.1834925413131714,-0.019752483814954758,0.04243457689881325,-0.344844251871109,0.9374921917915344,0.0,0.0,0.0,0.0,0.0,0.0
208,1724559614640766498,-1.699713945388794,0.26772138476371765,0.18344512581825256,-0.020133037120103836,0.042611945420503616,-0.34484779834747314,0.93747478723526,0.0,0.0,0.0,0.0,0.0,0.0
210,1724559614651598444,-1.6994712352752686,0.267668217420578,0.18339194357395172,-0.01964130625128746,0.04316684603691101,-0.3450511395931244,0.9373850226402283,0.0,0.0,0.0,0.0,0.0,0.0
212,1724559614660267376,-1.6992268562316895,0.26750653982162476,0.1831541508436203,-0.018988512456417084,0.04291149601340294,-0.3447628915309906,0.9375162124633789,0.0,0.0,0.0,0.0,0.0,0.0
214,1724559614671073337,-1.6989556550979614,0.2673290967941284,0.18291649222373962,-0.017469899728894234,0.0433366522192955,-0.34475621581077576,0.9375286102294922,0.0,0.0,0.0,0.0,0.0,0.0
216,1724559614681023147,-1.6987128257751465,0.267060250043869,0.18258774280548096,-0.016478748992085457,0.04294157773256302,-0.3445676863193512,0.9376341104507446,0.0,0.0,0.0,0.0,0.0,0.0
218,1724559614691404807,-1.6984144449234009,0.2666255831718445,0.18188193440437317,-0.013884888030588627,0.04197964072227478,-0.3433128595352173,0.9381797909736633,0.0,0.0,0.0,0.0,0.0,0.0
220,1724559614701234052,-1.698164701461792,0.26643556356430054,0.18166053295135498,-0.013009238056838512,0.04229424521327019,-0.34347230195999146,0.9381197690963745,0.0,0.0,0.0,0.0,0.0,0.0
222,1724559614710621634,-1.6979392766952515,0.2662234306335449,0.18147088587284088,-0.012398631311953068,0.043020665645599365,-0.3434309959411621,0.9381102323532104,0.0,0.0,0.0,0.0,0.0,0.0
224,1724559614721280209,-1.6977636814117432,0.26601746678352356,0.18150341510772705,-0.013667764142155647,0.0434439517557621,-0.3436567783355713,0.9379903674125671,0.0,0.0,0.0,0.0,0.0,0.0
226,1724559614731485183,-1.6975165605545044,0.2658429443836212,0.18154816329479218,-0.013073936104774475,0.0449858158826828,-0.3440684676170349,0.9377751350402832,0.0,0.0,0.0,0.0,0.0,0.0
228,1724559614740305780,-1.6972428560256958,0.2656315863132477,0.1814776510000229,-0.012497235089540482,0.04604068771004677,-0.3443295359611511,0.9376359581947327,0.0,0.0,0.0,0.0,0.0,0.0
230,1724559614760708961,-1.6969847679138184,0.2653455138206482,0.1813378781080246,-0.011799100786447525,0.046340640634298325,-0.3443530201911926,0.9376217126846313,0.0,0.0,0.0,0.0,0.0,0.0
232,1724559614761175807,-1.696692705154419,0.2650676667690277,0.1811245083808899,-0.010752500034868717,0.046447791159152985,-0.3442545235157013,0.9376651048660278,0.0,0.0,0.0,0.0,0.0,0.0
234,1724559614771014920,-1.6963719129562378,0.2647711932659149,0.18087279796600342,-0.009651114232838154,0.04650210589170456,-0.34431183338165283,0.9376533627510071,0.0,0.0,0.0,0.0,0.0,0.0
236,1724559614780214048,-1.695937156677246,0.2644348740577698,0.18046465516090393,-0.007146692834794521,0.04677664861083031,-0.34413662552833557,0.9377264380455017,0.0,0.0,0.0,0.0,0.0,0.0
238,1724559614791036536,-1.695677399635315,0.2642400562763214,0.18002218008041382,-0.007114786189049482,0.0448487363755703,-0.34510889649391174,0.9374635219573975,0.0,0.0,0.0,0.0,0.0,0.0
240,1724559614800690767,-1.6953529119491577,0.26416015625,0.1802419126033783,-0.005862702615559101,0.04848000407218933,-0.3465018570423126,0.9367774128913879,0.0,0.0,0.0,0.0,0.0,0.0
242,1724559614810464187,-1.695055365562439,0.26375919580459595,0.17995941638946533,-0.004272908437997103,0.04938460513949394,-0.34605908393859863,0.9369023442268372,0.0,0.0,0.0,0.0,0.0,0.0
244,1724559614821248607,-1.69482421875,0.26326102018356323,0.17936894297599792,-0.004815977998077869,0.04607308655977249,-0.3451099991798401,0.9374184012413025,0.0,0.0,0.0,0.0,0.0,0.0
246,1724559614842135197,-1.6945221424102783,0.26299726963043213,0.1791718602180481,-0.004433427006006241,0.04693851247429848,-0.34542742371559143,0.9372603893280029,0.0,0.0,0.0,0.0,0.0,0.0
248,1724559614843906980,-1.6942133903503418,0.2627052366733551,0.17913539707660675,-0.0032770538236945868,0.04868147894740105,-0.3458360731601715,0.9370255470275879,0.0,0.0,0.0,0.0,0.0,0.0
250,1724559614852866394,-1.693934679031372,0.26237693428993225,0.17896771430969238,-0.0021939571015536785,0.04875575006008148,-0.3464430570602417,0.9368005990982056,0.0,0.0,0.0,0.0,0.0,0.0
252,1724559614860708598,-1.6937305927276611,0.26201167702674866,0.17858612537384033,-0.002358447527512908,0.04628122225403786,-0.34692686796188354,0.9367467164993286,0.0,0.0,0.0,0.0,0.0,0.0
254,1724559614871437910,-1.693467378616333,0.2617175579071045,0.17830665409564972,-0.0013708629412576556,0.04608059301972389,-0.3481330871582031,0.936310887336731,0.0,0.0,0.0,0.0,0.0,0.0
256,1724559614882154703,-1.6932542324066162,0.26138749718666077,0.17815040051937103,-0.0009728981531225145,0.04510362818837166,-0.3495761752128601,0.9358211755752563,0.0,0.0,0.0,0.0,0.0,0.0
258,1724559614898578380,-1.6931160688400269,0.26117920875549316,0.1781032234430313,-0.0011469859164208174,0.04495696723461151,-0.3508574068546295,0.9353484511375427,0.0,0.0,0.0,0.0,0.0,0.0
260,1724559614901930362,-1.693064570426941,0.26097702980041504,0.17804016172885895,-0.0009564278298057616,0.04483268782496452,-0.35196641087532043,0.9349378347396851,0.0,0.0,0.0,0.0,0.0,0.0
262,1724559614913719631,-1.6930173635482788,0.2609177529811859,0.17800012230873108,-0.0007207969902083278,0.0451635979115963,-0.3529631495475769,0.9345462918281555,0.0,0.0,0.0,0.0,0.0,0.0
264,1724559614924083098,-1.693068027496338,0.26083990931510925,0.17791999876499176,-0.0003226821427233517,0.045315053313970566,-0.3542340099811554,0.9340582489967346,0.0,0.0,0.0,0.0,0.0,0.0
266,1724559614931393320,-1.6931614875793457,0.26078328490257263,0.17768236994743347,0.0005199738661758602,0.04462825506925583,-0.35513758659362793,0.9337480068206787,0.0,0.0,0.0,0.0,0.0,0.0
268,1724559614940504893,-1.6932636499404907,0.2607874274253845,0.17745119333267212,0.0011444718111306429,0.043996259570121765,-0.3560861349105835,0.9334161281585693,0.0,0.0,0.0,0.0,0.0,0.0
270,1724559614952306916,-1.6934365034103394,0.2608387768268585,0.17724238336086273,0.0015968206571415067,0.04338698089122772,-0.35701897740364075,0.9330876469612122,0.0,0.0,0.0,0.0,0.0,0.0
272,1724559614961952035,-1.693621277809143,0.26103129982948303,0.17727765440940857,0.0022103367373347282,0.04445066675543785,-0.35872429609298706,0.9323819875717163,0.0,0.0,0.0,0.0,0.0,0.0
274,1724559614974642327,-1.6938165426254272,0.26119616627693176,0.17722931504249573,0.0024581672623753548,0.04440221190452576,-0.3600618243217468,0.9318679571151733,0.0,0.0,0.0,0.0,0.0,0.0
276,1724559614981041018,-1.694082260131836,0.2613837718963623,0.17724505066871643,0.002531635807827115,0.0445275641977787,-0.36162132024765015,0.9312577247619629,0.0,0.0,0.0,0.0,0.0,0.0
278,1724559614990442179,-1.6943442821502686,0.2616148591041565,0.17729584872722626,0.0024682290386408567,0.044793881475925446,-0.36333003640174866,0.9305798411369324,0.0,0.0,0.0,0.0,0.0,0.0
280,1724559615000683293,-1.694636344909668,0.2618262469768524,0.17728064954280853,0.0027556326240301132,0.044897645711898804,-0.36486417055130005,0.9299735426902771,0.0,0.0,0.0,0.0,0.0,0.0
282,1724559615011852048,-1.6948914527893066,0.2620125710964203,0.1771092414855957,0.003703547641634941,0.044831324368715286,-0.3659985363483429,0.9295276403427124,0.0,0.0,0.0,0.0,0.0,0.0
284,1724559615022389369,-1.695181131362915,0.262164443731308,0.17687687277793884,0.004569514654576778,0.04471900686621666,-0.3672369420528412,0.9290405511856079,0.0,0.0,0.0,0.0,0.0,0.0
286,1724559615030990980,-1.6955199241638184,0.26230230927467346,0.1766854077577591,0.005031975917518139,0.04449733346700668,-0.3683971166610718,0.9285893440246582,0.0,0.0,0.0,0.0,0.0,0.0
288,1724559615040723740,-1.6958141326904297,0.2623339891433716,0.17666089534759521,0.006127091124653816,0.04541715979576111,-0.3696193993091583,0.9280524849891663,0.0,0.0,0.0,0.0,0.0,0.0
290,1724559615052883995,-1.6961954832077026,0.2624657452106476,0.17653949558734894,0.005885046441107988,0.04616309329867363,-0.3710049092769623,0.9274641275405884,0.0,0.0,0.0,0.0,0.0,0.0
292,1724559615061854513,-1.6966971158981323,0.26259517669677734,0.17634519934654236,0.00481551606208086,0.04483317583799362,-0.3720844089984894,0.9271030426025391,0.0,0.0,0.0,0.0,0.0,0.0
294,1724559615072307359,-1.6971384286880493,0.26267674565315247,0.17623496055603027,0.005223929416388273,0.04445752128958702,-0.3734021484851837,0.9265890121459961,0.0,0.0,0.0,0.0,0.0,0.0
296,1724559615080558268,-1.697576642036438,0.2627016007900238,0.17618632316589355,0.005981835536658764,0.04436651989817619,-0.3744966983795166,0.926146924495697,0.0,0.0,0.0,0.0,0.0,0.0
298,1724559615090750431,-1.6980527639389038,0.26266318559646606,0.1760755032300949,0.007050457876175642,0.044562652707099915,-0.3759313225746155,0.9255485534667969,0.0,0.0,0.0,0.0,0.0,0.0
300,1724559615103160698,-1.6985628604888916,0.2626897394657135,0.1760808229446411,0.0071515790186822414,0.04508734866976738,-0.37775057554244995,0.924781322479248,0.0,0.0,0.0,0.0,0.0,0.0
302,1724559615111298280,-1.6991015672683716,0.2626459300518036,0.17617130279541016,0.007999288849532604,0.04694844037294388,-0.37930789589881897,0.9240440726280212,0.0,0.0,0.0,0.0,0.0,0.0
304,1724559615121608068,-1.6997182369232178,0.26261717081069946,0.17608226835727692,0.008951540105044842,0.04789961501955986,-0.38072991371154785,0.9234015345573425,0.0,0.0,0.0,0.0,0.0,0.0
306,1724559615130549683,-1.7004148960113525,0.2624185085296631,0.17585648596286774,0.009543229825794697,0.046527426689863205,-0.3820817768573761,0.9229071736335754,0.0,0.0,0.0,0.0,0.0,0.0
308,1724559615141398997,-1.7012724876403809,0.26212942600250244,0.1754297912120819,0.009963595308363438,0.04346782714128494,-0.383070170879364,0.9226421117782593,0.0,0.0,0.0,0.0,0.0,0.0
310,1724559615151317584,-1.7020833492279053,0.2619090974330902,0.17493830621242523,0.011383111588656902,0.04162771254777908,-0.3843444585800171,0.9221805334091187,0.0,0.0,0.0,0.0,0.0,0.0
312,1724559615160949953,-1.703016996383667,0.2617439925670624,0.17463362216949463,0.011316020973026752,0.04097585752606392,-0.38588234782218933,0.9215681552886963,0.0,0.0,0.0,0.0,0.0,0.0
314,1724559615171154326,-1.7040045261383057,0.26162806153297424,0.17454439401626587,0.01110182423144579,0.04186661168932915,-0.38770878314971924,0.9207637310028076,0.0,0.0,0.0,0.0,0.0,0.0
316,1724559615180342464,-1.705064058303833,0.26147469878196716,0.17433856427669525,0.01203873660415411,0.042934395372867584,-0.3892925977706909,0.9200342297554016,0.0,0.0,0.0,0.0,0.0,0.0
318,1724559615191105310,-1.7062294483184814,0.2612587511539459,0.1741938292980194,0.013344786129891872,0.042820483446121216,-0.3909226059913635,0.9193301200866699,0.0,0.0,0.0,0.0,0.0,0.0
320,1724559615201687068,-1.7075015306472778,0.26091083884239197,0.17399519681930542,0.015242510475218296,0.042093675583601,-0.3917945921421051,0.9189629554748535,0.0,0.0,0.0,0.0,0.0,0.0
322,1724559615211181531,-1.7089958190917969,0.2607312500476837,0.17397920787334442,0.017185991629958153,0.041238538920879364,-0.3937996029853821,0.9181098937988281,0.0,0.0,0.0,0.0,0.0,0.0
324,1724559615222324907,-1.710480809211731,0.26050618290901184,0.17398644983768463,0.020456720143556595,0.04138553887605667,-0.39573755860328674,0.9172025918960571,0.0,0.0,0.0,0.0,0.0,0.0
326,1724559615230816625,-1.7120120525360107,0.2602694630622864,0.17398953437805176,0.021489789709448814,0.039488811045885086,-0.39698922634124756,0.9167215824127197,0.0,0.0,0.0,0.0,0.0,0.0
328,1724559615241042935,-1.7134449481964111,0.26004645228385925,0.17391696572303772,0.023691007867455482,0.03834226727485657,-0.398121178150177,0.9162248969078064,0.0,0.0,0.0,0.0,0.0,0.0
330,1724559615252110564,-1.7149170637130737,0.25981953740119934,0.17373831570148468,0.024201663210988045,0.03629170358181,-0.39896732568740845,0.915926992893219,0.0,0.0,0.0,0.0,0.0,0.0
332,1724559615260524704,-1.716325044631958,0.25964611768722534,0.1741822063922882,0.025418320670723915,0.040252748876810074,-0.4010849595069885,0.9148030281066895,0.0,0.0,0.0,0.0,0.0,0.0
334,1724559615272243788,-1.717851161956787,0.25919756293296814,0.17399396002292633,0.02522415667772293,0.03673781454563141,-0.402116596698761,0.914503276348114,0.0,0.0,0.0,0.0,0.0,0.0
336,1724559615280244631,-1.719103455543518,0.25903555750846863,0.1739804893732071,0.026801979169249535,0.03893955796957016,-0.4040873646736145,0.9134981036186218,0.0,0.0,0.0,0.0,0.0,0.0
338,1724559615292225117,-1.7203073501586914,0.25881755352020264,0.17358846962451935,0.028060002252459526,0.039005350321531296,-0.40562859177589417,0.9127742052078247,0.0,0.0,0.0,0.0,0.0,0.0
340,1724559615301113969,-1.7215831279754639,0.2585763931274414,0.17309331893920898,0.029578179121017456,0.03807339444756508,-0.40707263350486755,0.9121225476264954,0.0,0.0,0.0,0.0,0.0,0.0
342,1724559615310274534,-1.7228083610534668,0.2582528293132782,0.17269377410411835,0.03103264607489109,0.03805239498615265,-0.4087875783443451,0.911307692527771,0.0,0.0,0.0,0.0,0.0,0.0
344,1724559615321374992,-1.7240605354309082,0.25790053606033325,0.17221219837665558,0.030884820967912674,0.03818322718143463,-0.41029053926467896,0.9106315970420837,0.0,0.0,0.0,0.0,0.0,0.0
346,1724559615330303407,-1.7252485752105713,0.2575359046459198,0.17165595293045044,0.033847518265247345,0.039935268461704254,-0.41185376048088074,0.9097450375556946,0.0,0.0,0.0,0.0,0.0,0.0
348,1724559615351853799,-1.7263702154159546,0.2570781409740448,0.1710197925567627,0.03690513223409653,0.04027882218360901,-0.41270768642425537,0.9092238545417786,0.0,0.0,0.0,0.0,0.0,0.0
350,1724559615352305880,-1.7274165153503418,0.2566524147987366,0.17056769132614136,0.03853879123926163,0.03963762894272804,-0.4143005311489105,0.9084595441818237,0.0,0.0,0.0,0.0,0.0,0.0
352,1724559615360276608,-1.728440523147583,0.25624313950538635,0.1697147935628891,0.03903912752866745,0.03828810527920723,-0.4156785011291504,0.9078664183616638,0.0,0.0,0.0,0.0,0.0,0.0
354,1724559615375068469,-1.7294912338256836,0.2557675838470459,0.1690109521150589,0.03944720700383186,0.03859223425388336,-0.41726428270339966,0.9071081280708313,0.0,0.0,0.0,0.0,0.0,0.0
356,1724559615381619542,-1.7303858995437622,0.25530385971069336,0.1684253215789795,0.040452197194099426,0.038251154124736786,-0.4183160066604614,0.9065937995910645,0.0,0.0,0.0,0.0,0.0,0.0
358,1724559615390893323,-1.7313045263290405,0.25494185090065,0.1680973768234253,0.042064081877470016,0.039215028285980225,-0.4202394187450409,0.9055891633033752,0.0,0.0,0.0,0.0,0.0,0.0
360,1724559615400770371,-1.7321921586990356,0.254600465297699,0.16793197393417358,0.043836817145347595,0.04084071144461632,-0.42221125960350037,0.9045153260231018,0.0,0.0,0.0,0.0,0.0,0.0
362,1724559615411187854,-1.7331348657608032,0.25423818826675415,0.16746458411216736,0.04447898268699646,0.041261933743953705,-0.4236104190349579,0.903810441493988,0.0,0.0,0.0,0.0,0.0,0.0
364,1724559615421815627,-1.7340538501739502,0.2539147436618805,0.16709625720977783,0.04450710117816925,0.042036134749650955,-0.4252178966999054,0.9030182361602783,0.0,0.0,0.0,0.0,0.0,0.0
366,1724559615430922869,-1.734907865524292,0.25376373529434204,0.16682679951190948,0.04522433504462242,0.04405335709452629,-0.4273622930049896,0.9018734097480774,0.0,0.0,0.0,0.0,0.0,0.0
368,1724559615441072911,-1.7359068393707275,0.25361552834510803,0.16633398830890656,0.044015541672706604,0.044134799391031265,-0.4288913309574127,0.9012031555175781,0.0,0.0,0.0,0.0,0.0,0.0
370,1724559615467767803,-1.736938714981079,0.25346940755844116,0.16591188311576843,0.04568474367260933,0.04511059820652008,-0.4306464195251465,0.9002341628074646,0.0,0.0,0.0,0.0,0.0,0.0
372,1724559615468170941,-1.7380303144454956,0.2530410587787628,0.16499583423137665,0.04767284542322159,0.04152848199009895,-0.4313502609729767,0.8999665379524231,0.0,0.0,0.0,0.0,0.0,0.0
374,1724559615470826632,-1.738974690437317,0.25284382700920105,0.16451139748096466,0.049857500940561295,0.04176533967256546,-0.43297824263572693,0.899055004119873,0.0,0.0,0.0,0.0,0.0,0.0
376,1724559615480451171,-1.7399410009384155,0.25279903411865234,0.1642056405544281,0.05101754516363144,0.043135859072208405,-0.43505197763442993,0.8979233503341675,0.0,0.0,0.0,0.0,0.0,0.0
378,1724559615490362247,-1.740936040878296,0.2527056336402893,0.1638459861278534,0.05267979949712753,0.0452565960586071,-0.43706026673316956,0.8967469334602356,0.0,0.0,0.0,0.0,0.0,0.0
380,1724559615504509597,-1.7419133186340332,0.2526250183582306,0.16360031068325043,0.05385126918554306,0.047160156071186066,-0.43907538056373596,0.8955941200256348,0.0,0.0,0.0,0.0,0.0,0.0
382,1724559615510693214,-1.7428334951400757,0.2525632083415985,0.16333453357219696,0.05534302443265915,0.04850354418158531,-0.4408571422100067,0.8945555090904236,0.0,0.0,0.0,0.0,0.0,0.0
384,1724559615520848493,-1.7437782287597656,0.2524482011795044,0.1628764420747757,0.05513620376586914,0.04754822701215744,-0.44276323914527893,0.8936777710914612,0.0,0.0,0.0,0.0,0.0,0.0
386,1724559615530295112,-1.7446860074996948,0.25240498781204224,0.1624792367219925,0.055283185094594955,0.04617628827691078,-0.44458118081092834,0.8928377628326416,0.0,0.0,0.0,0.0,0.0,0.0
388,1724559615541013923,-1.7455346584320068,0.25239241123199463,0.16221600770950317,0.055417951196432114,0.04537734389305115,-0.4464823007583618,0.8919211030006409,0.0,0.0,0.0,0.0,0.0,0.0
390,1724559615566228368,-1.7463874816894531,0.2523347735404968,0.1618235856294632,0.05494866520166397,0.043821126222610474,-0.4478207230567932,0.8913568258285522,0.0,0.0,0.0,0.0,0.0,0.0
392,1724559615566672052,-1.747164011001587,0.25242477655410767,0.16178932785987854,0.056089527904987335,0.04594631493091583,-0.44991177320480347,0.8901248574256897,0.0,0.0,0.0,0.0,0.0,0.0
394,1724559615589241046,-1.7480214834213257,0.252445250749588,0.16153085231781006,0.056699566543102264,0.0480366013944149,-0.4519847333431244,0.8889248371124268,0.0,0.0,0.0,0.0,0.0,0.0
396,1724559615592241388,-1.7494767904281616,0.2526387572288513,0.16090041399002075,0.05844590440392494,0.0518278144299984,-0.4560759365558624,0.8865059614181519,0.0,0.0,0.0,0.0,0.0,0.0
398,1724559615601083174,-1.7501519918441772,0.25279250741004944,0.1603354811668396,0.058820802718400955,0.052173539996147156,-0.4582814872264862,0.885322630405426,0.0,0.0,0.0,0.0,0.0,0.0
400,1724559615610728767,-1.7508424520492554,0.25305455923080444,0.1597045212984085,0.05914939567446709,0.052681419998407364,-0.4605860114097595,0.8840738534927368,0.0,0.0,0.0,0.0,0.0,0.0
402,1724559615621677921,-1.751554012298584,0.2533351182937622,0.15889155864715576,0.05897842347621918,0.05208352953195572,-0.46277254819869995,0.8829782009124756,0.0,0.0,0.0,0.0,0.0,0.0
404,1724559615630270541,-1.7522355318069458,0.2535753548145294,0.15805815160274506,0.05959907919168472,0.050859324634075165,-0.46488624811172485,0.8818969130516052,0.0,0.0,0.0,0.0,0.0,0.0
406,1724559615645949502,-1.7528597116470337,0.2536976933479309,0.15714523196220398,0.06160258129239082,0.048429567366838455,-0.46679824590682983,0.8808853626251221,0.0,0.0,0.0,0.0,0.0,0.0
408,1724559615651135338,-1.753465175628662,0.2539745569229126,0.15652523934841156,0.06291454285383224,0.04862599819898605,-0.46906694769859314,0.879575788974762,0.0,0.0,0.0,0.0,0.0,0.0
410,1724559615660740502,-1.754018783569336,0.2543725371360779,0.1558769941329956,0.06281321495771408,0.04947444796562195,-0.47180435061454773,0.8780703544616699,0.0,0.0,0.0,0.0,0.0,0.0
412,1724559615671785014,-1.754573941230774,0.2549021244049072,0.1551533341407776,0.06119371950626373,0.048669423907995224,-0.4742029011249542,0.8769369125366211,0.0,0.0,0.0,0.0,0.0,0.0
414,1724559615680426844,-1.754980444908142,0.2552933096885681,0.15482757985591888,0.061511166393756866,0.04849708825349808,-0.47609856724739075,0.8758965134620667,0.0,0.0,0.0,0.0,0.0,0.0
416,1724559615692269187,-1.7552682161331177,0.2555975019931793,0.1546127200126648,0.06113629415631294,0.04707770794630051,-0.4778055250644684,0.8750702738761902,0.0,0.0,0.0,0.0,0.0,0.0
418,1724559615701212935,-1.7554562091827393,0.25570976734161377,0.15444447100162506,0.06120995059609413,0.045415520668029785,-0.4794695973396301,0.8742424249649048,0.0,0.0,0.0,0.0,0.0,0.0
420,1724559615710339815,-1.7555488348007202,0.25574353337287903,0.1541767716407776,0.06108525022864342,0.0445530042052269,-0.4810822904109955,0.8734092116355896,0.0,0.0,0.0,0.0,0.0,0.0
422,1724559615721160270,-1.7555475234985352,0.2557563781738281,0.1539226770401001,0.06120123714208603,0.04385767877101898,-0.48250019550323486,0.8726537823677063,0.0,0.0,0.0,0.0,0.0,0.0
424,1724559615730348615,-1.7555204629898071,0.25577035546302795,0.15354587137699127,0.06104668602347374,0.04277942329645157,-0.4837439954280853,0.8720292448997498,0.0,0.0,0.0,0.0,0.0,0.0
426,1724559615742499582,-1.7554999589920044,0.25582757592201233,0.15319032967090607,0.06105390936136246,0.04209296032786369,-0.48537328839302063,0.8711563348770142,0.0,0.0,0.0,0.0,0.0,0.0
428,1724559615755403186,-1.7555452585220337,0.25589844584465027,0.152804434299469,0.060108527541160583,0.04092760756611824,-0.48697173595428467,0.8703851699829102,0.0,0.0,0.0,0.0,0.0,0.0
430,1724559615761273242,-1.7555729150772095,0.25577008724212646,0.15235573053359985,0.06098798289895058,0.03976036235690117,-0.48805001378059387,0.8697740435600281,0.0,0.0,0.0,0.0,0.0,0.0
432,1724559615773122244,-1.755630612373352,0.2558058798313141,0.15225310623645782,0.06107272207736969,0.03990527242422104,-0.49004003405570984,0.86864173412323,0.0,0.0,0.0,0.0,0.0,0.0
434,1724559615782495303,-1.7558233737945557,0.2557070553302765,0.15166707336902618,0.059599410742521286,0.03667370229959488,-0.490934818983078,0.8683812618255615,0.0,0.0,0.0,0.0,0.0,0.0
436,1724559615790755474,-1.7559047937393188,0.25570374727249146,0.1513654589653015,0.05945111811161041,0.03593095391988754,-0.4921579658985138,0.8677298426628113,0.0,0.0,0.0,0.0,0.0,0.0
438,1724559615800909191,-1.7559478282928467,0.25572094321250916,0.15110763907432556,0.059738073498010635,0.03573671728372574,-0.4937954545021057,0.8667873740196228,0.0,0.0,0.0,0.0,0.0,0.0
440,1724559615811139639,-1.7560275793075562,0.2557246685028076,0.15065781772136688,0.05919850990176201,0.03437894582748413,-0.49496591091156006,0.8662115335464478,0.0,0.0,0.0,0.0,0.0,0.0
442,1724559615821661677,-1.7560803890228271,0.2557871341705322,0.15043672919273376,0.05891229212284088,0.03411708027124405,-0.4964243769645691,0.865406334400177,0.0,0.0,0.0,0.0,0.0,0.0
444,1724559615830317327,-1.7562636137008667,0.2557514011859894,0.14990808069705963,0.05739514157176018,0.031410519033670425,-0.4972234070301056,0.8651521801948547,0.0,0.0,0.0,0.0,0.0,0.0
446,1724559615840426271,-1.7564418315887451,0.25580254197120667,0.14953243732452393,0.05777004361152649,0.03104589693248272,-0.4981296956539154,0.8646188378334045,0.0,0.0,0.0,0.0,0.0,0.0
448,1724559615850992154,-1.756626009941101,0.2560230791568756,0.14917238056659698,0.05819934979081154,0.031135356053709984,-0.49987611174583435,0.8635782599449158,0.0,0.0,0.0,0.0,0.0,0.0
450,1724559615861618461,-1.75679349899292,0.2562068700790405,0.14822030067443848,0.05707034096121788,0.028841016814112663,-0.5014272928237915,0.8628336191177368,0.0,0.0,0.0,0.0,0.0,0.0
452,1724559615874207379,-1.7569139003753662,0.2565840482711792,0.1471521407365799,0.054512180387973785,0.02610371634364128,-0.5032551884651184,0.8620216250419617,0.0,0.0,0.0,0.0,0.0,0.0
454,1724559615881634695,-1.7569499015808105,0.25738993287086487,0.14615067839622498,0.05173463374376297,0.024706410244107246,-0.5056588649749756,0.8608265519142151,0.0,0.0,0.0,0.0,0.0,0.0
456,1724559615890256242,-1.756868600845337,0.25783571600914,0.1446789652109146,0.04963639751076698,0.022429097443819046,-0.5075905323028564,0.8598750233650208,0.0,0.0,0.0,0.0,0.0,0.0
458,1724559615900983273,-1.7565726041793823,0.25836899876594543,0.14375323057174683,0.04592275992035866,0.01931975595653057,-0.5099649429321289,0.8587511777877808,0.0,0.0,0.0,0.0,0.0,0.0
460,1724559615910378440,-1.7561919689178467,0.2586769163608551,0.1431969702243805,0.045913197100162506,0.01730775088071823,-0.5122952461242676,0.8574066162109375,0.0,0.0,0.0,0.0,0.0,0.0
462,1724559615923206381,-1.7557584047317505,0.2587902247905731,0.14306040108203888,0.04628465697169304,0.016637900844216347,-0.5142003297805786,0.8562586903572083,0.0,0.0,0.0,0.0,0.0,0.0
464,1724559615930641766,-1.7553082704544067,0.25877514481544495,0.14338093996047974,0.04607643187046051,0.01785692758858204,-0.5162882804870605,0.8549880981445312,0.0,0.0,0.0,0.0,0.0,0.0
466,1724559615941141381,-1.7549247741699219,0.25875914096832275,0.14373239874839783,0.0462489053606987,0.02031661756336689,-0.5179899334907532,0.8538939356803894,0.0,0.0,0.0,0.0,0.0,0.0
468,1724559615951840776,-1.7547833919525146,0.2585541307926178,0.14372922480106354,0.04493586719036102,0.020395152270793915,-0.5187475681304932,0.8535021543502808,0.0,0.0,0.0,0.0,0.0,0.0
470,1724559615960504845,-1.754625678062439,0.25838613510131836,0.14381393790245056,0.04434139281511307,0.0210003349930048,-0.5196160078048706,0.8529900908470154,0.0,0.0,0.0,0.0,0.0,0.0
472,1724559616023235410,-1.7544492483139038,0.2582024335861206,0.1438906341791153,0.044280003756284714,0.02120269648730755,-0.5204853415489197,0.8524580001831055,0.0,0.0,0.0,0.0,0.0,0.0
474,1724559616023646257,-1.7542718648910522,0.2580163776874542,0.1439710408449173,0.04479962959885597,0.021467175334692,-0.5214893221855164,0.8518104553222656,0.0,0.0,0.0,0.0,0.0,0.0
476,1724559616024045748,-1.7540873289108276,0.2578257918357849,0.14410433173179626,0.04555552452802658,0.02178032137453556,-0.5225211977958679,0.8511298298835754,0.0,0.0,0.0,0.0,0.0,0.0
478,1724559616024402035,-1.7539036273956299,0.2575707733631134,0.14433689415454865,0.046917565166950226,0.021924985572695732,-0.5236889719963074,0.8503340482711792,0.0,0.0,0.0,0.0,0.0,0.0
480,1724559616024849650,-1.7537357807159424,0.2574504017829895,0.1442997008562088,0.047286901623010635,0.021737543866038322,-0.5243751406669617,0.8498953580856323,0.0,0.0,0.0,0.0,0.0,0.0
482,1724559616025226839,-1.7535043954849243,0.2573040723800659,0.144584059715271,0.04933851957321167,0.022202588617801666,-0.5259867906570435,0.8487700819969177,0.0,0.0,0.0,0.0,0.0,0.0
484,1724559616030326409,-1.753326416015625,0.2571229934692383,0.14510610699653625,0.051406681537628174,0.02268798090517521,-0.5276013612747192,0.8476316928863525,0.0,0.0,0.0,0.0,0.0,0.0
486,1724559616040409366,-1.753124713897705,0.25679799914360046,0.1452726423740387,0.05272262170910835,0.022577576339244843,-0.5285272598266602,0.8469766974449158,0.0,0.0,0.0,0.0,0.0,0.0
488,1724559616051721499,-1.752915859222412,0.2565789222717285,0.14539963006973267,0.05291521176695824,0.02331303246319294,-0.5293572545051575,0.846426248550415,0.0,0.0,0.0,0.0,0.0,0.0
490,1724559616079350105,-1.75269615650177,0.25630730390548706,0.14552602171897888,0.05314934253692627,0.023694979026913643,-0.5300819277763367,0.8459473252296448,0.0,0.0,0.0,0.0,0.0,0.0
492,1724559616079990354,-1.7524782419204712,0.2560911476612091,0.1458304077386856,0.053253963589668274,0.025306759402155876,-0.5310510396957397,0.845285952091217,0.0,0.0,0.0,0.0,0.0,0.0
494,1724559616080302047,-1.7522757053375244,0.25594645738601685,0.1459854543209076,0.052617721259593964,0.026017772033810616,-0.5316757559776306,0.8449114561080933,0.0,0.0,0.0,0.0,0.0,0.0
496,1724559616091040136,-1.7520607709884644,0.25585800409317017,0.14614303410053253,0.05181888863444328,0.026676183566451073,-0.5322988629341125,0.8445479273796082,0.0,0.0,0.0,0.0,0.0,0.0
498,1724559616100990027,-1.751852035522461,0.2557746171951294,0.14616115391254425,0.05110308900475502,0.027172734960913658,-0.5327379703521729,0.844298779964447,0.0,0.0,0.0,0.0,0.0,0.0
500,1724559616110825537,-1.751675009727478,0.2556712329387665,0.14622114598751068,0.050395410507917404,0.026903267949819565,-0.5330209136009216,0.844171404838562,0.0,0.0,0.0,0.0,0.0,0.0
502,1724559616121545681,-1.7514214515686035,0.25558561086654663,0.14649687707424164,0.051392048597335815,0.027765445411205292,-0.5337197184562683,0.8436416387557983,0.0,0.0,0.0,0.0,0.0,0.0
504,1724559616130382953,-1.7512096166610718,0.2555052638053894,0.14656591415405273,0.05169934034347534,0.02799558825790882,-0.5342346429824829,0.8432892560958862,0.0,0.0,0.0,0.0,0.0,0.0
506,1724559616140914717,-1.7510191202163696,0.2553999125957489,0.14650392532348633,0.05160907655954361,0.027535775676369667,-0.5345614552497864,0.8431028127670288,0.0,0.0,0.0,0.0,0.0,0.0
508,1724559616150568477,-1.75082528591156,0.2553144693374634,0.1465127170085907,0.05166598781943321,0.027352891862392426,-0.5351664423942566,0.8427214026451111,0.0,0.0,0.0,0.0,0.0,0.0
510,1724559616161335923,-1.7505995035171509,0.25519776344299316,0.14665625989437103,0.052081335335969925,0.02729782648384571,-0.5360379219055176,0.8421435356140137,0.0,0.0,0.0,0.0,0.0,0.0
512,1724559616173371088,-1.7504312992095947,0.25508978962898254,0.1465955525636673,0.05204656347632408,0.026832666248083115,-0.5364599227905273,0.841891884803772,0.0,0.0,0.0,0.0,0.0,0.0
514,1724559616181169093,-1.7502533197402954,0.2549285590648651,0.14666569232940674,0.05314739793539047,0.02670084312558174,-0.5371231436729431,0.841404378414154,0.0,0.0,0.0,0.0,0.0,0.0
516,1724559616194590811,-1.7501095533370972,0.2547851800918579,0.14677901566028595,0.05386887863278389,0.026934148743748665,-0.5377683043479919,0.8409387469291687,0.0,0.0,0.0,0.0,0.0,0.0
518,1724559616200365808,-1.7500221729278564,0.25460198521614075,0.14679451286792755,0.054331522434949875,0.02671636827290058,-0.5382014513015747,0.8406387567520142,0.0,0.0,0.0,0.0,0.0,0.0
520,1724559616211196958,-1.7499841451644897,0.25445055961608887,0.14685547351837158,0.05422163009643555,0.027017198503017426,-0.5386593341827393,0.8403429388999939,0.0,0.0,0.0,0.0,0.0,0.0
522,1724559616221795580,-1.7499638795852661,0.254258394241333,0.14697659015655518,0.05417216569185257,0.027567414566874504,-0.539104163646698,0.8400428891181946,0.0,0.0,0.0,0.0,0.0,0.0
524,1724559616240549666,-1.7499829530715942,0.2540481984615326,0.14707982540130615,0.05323583632707596,0.028318826109170914,-0.5398374199867249,0.8396068215370178,0.0,0.0,0.0,0.0,0.0,0.0
526,1724559616240835498,-1.7500014305114746,0.2537738084793091,0.14720989763736725,0.052273284643888474,0.028248276561498642,-0.5405929088592529,0.8391834497451782,0.0,0.0,0.0,0.0,0.0,0.0
528,1724559616250736602,-1.7499721050262451,0.25354424118995667,0.1473694145679474,0.05231383815407753,0.029164506122469902,-0.541201114654541,0.8387574553489685,0.0,0.0,0.0,0.0,0.0,0.0
530,1724559616260984688,-1.7499784231185913,0.2533169388771057,0.14755596220493317,0.05247525870800018,0.029995394870638847,-0.5419353246688843,0.838243842124939,0.0,0.0,0.0,0.0,0.0,0.0
532,1724559616270940250,-1.750009298324585,0.2530255615711212,0.1475072205066681,0.05282179266214371,0.03009049966931343,-0.5420989394187927,0.8381128907203674,0.0,0.0,0.0,0.0,0.0,0.0
534,1724559616281070989,-1.7499507665634155,0.25279897451400757,0.14771339297294617,0.0538155660033226,0.03093126229941845,-0.5429061055183411,0.8374964594841003,0.0,0.0,0.0,0.0,0.0,0.0
536,1724559616295398366,-1.7499430179595947,0.2525973618030548,0.1477467268705368,0.05439193546772003,0.031228726729750633,-0.5435373187065125,0.8370384573936462,0.0,0.0,0.0,0.0,0.0,0.0
538,1724559616302079428,-1.7500096559524536,0.25235554575920105,0.14761662483215332,0.05346665531396866,0.029647819697856903,-0.5437461733818054,0.8370200395584106,0.0,0.0,0.0,0.0,0.0,0.0
540,1724559616311618707,-1.7500211000442505,0.2521580755710602,0.14765307307243347,0.054174959659576416,0.030192140489816666,-0.5441703200340271,0.836679220199585,0.0,0.0,0.0,0.0,0.0,0.0
542,1724559616322888292,-1.7499903440475464,0.25204169750213623,0.14787231385707855,0.055024221539497375,0.03188988193869591,-0.5450015068054199,0.8360195159912109,0.0,0.0,0.0,0.0,0.0,0.0
544,1724559616330542564,-1.7500300407409668,0.2518155872821808,0.14785102009773254,0.05467312037944794,0.03136453777551651,-0.5453835129737854,0.8358133435249329,0.0,0.0,0.0,0.0,0.0,0.0
546,1724559616343798523,-1.7500267028808594,0.2516131103038788,0.14792868494987488,0.05467485636472702,0.03164913132786751,-0.5457635521888733,0.8355543613433838,0.0,0.0,0.0,0.0,0.0,0.0
548,1724559616351890647,-1.750035285949707,0.25138741731643677,0.1479823887348175,0.0545661635696888,0.031771257519721985,-0.5462120175361633,0.8352638483047485,0.0,0.0,0.0,0.0,0.0,0.0
550,1724559616361198135,-1.7499645948410034,0.25126099586486816,0.14815862476825714,0.05467725545167923,0.03270663321018219,-0.5469123721122742,0.8347619771957397,0.0,0.0,0.0,0.0,0.0,0.0
552,1724559616374960497,-1.7499958276748657,0.2511589825153351,0.14814935624599457,0.0524599514901638,0.03316115215420723,-0.5470775961875916,0.8347780108451843,0.0,0.0,0.0,0.0,0.0,0.0
554,1724559616380664968,-1.7499768733978271,0.2509543001651764,0.14835529029369354,0.052566587924957275,0.03482860326766968,-0.5476285219192505,0.8343420624732971,0.0,0.0,0.0,0.0,0.0,0.0
556,1724559616391185287,-1.7500224113464355,0.2506042420864105,0.1483859270811081,0.05252040922641754,0.03436971828341484,-0.5477818846702576,0.8342633247375488,0.0,0.0,0.0,0.0,0.0,0.0
558,1724559616401812473,-1.7500019073486328,0.25036630034446716,0.14852938055992126,0.05311724543571472,0.0354740284383297,-0.5483094453811646,0.8338326215744019,0.0,0.0,0.0,0.0,0.0,0.0
560,1724559616415128482,-1.7500628232955933,0.2501373291015625,0.14852365851402283,0.051952388137578964,0.03581085428595543,-0.5489510893821716,0.8334693908691406,0.0,0.0,0.0,0.0,0.0,0.0
562,1724559616422649278,-1.750095009803772,0.24990415573120117,0.1485450714826584,0.05124056339263916,0.03604985401034355,-0.5495557188987732,0.8331046104431152,0.0,0.0,0.0,0.0,0.0,0.0
564,1724559616430991595,-1.7501461505889893,0.24965403974056244,0.14857909083366394,0.051461879163980484,0.035731758922338486,-0.5496588945388794,0.8330366015434265,0.0,0.0,0.0,0.0,0.0,0.0
566,1724559616445035518,-1.7501953840255737,0.2494410276412964,0.14881287515163422,0.05202014371752739,0.03669879958033562,-0.5499876737594604,0.8327428698539734,0.0,0.0,0.0,0.0,0.0,0.0
568,1724559616451729675,-1.750345230102539,0.2491828054189682,0.1487872153520584,0.05148439481854439,0.03581693768501282,-0.5497376322746277,0.8329796195030212,0.0,0.0,0.0,0.0,0.0,0.0
570,1724559616460422886,-1.7503770589828491,0.24902376532554626,0.14895600080490112,0.051850028336048126,0.03634052723646164,-0.5499345660209656,0.8328042030334473,0.0,0.0,0.0,0.0,0.0,0.0
572,1724559616476677514,-1.7504111528396606,0.2488393783569336,0.14905714988708496,0.05219504237174988,0.03652330860495567,-0.5499544143676758,0.8327615857124329,0.0,0.0,0.0,0.0,0.0,0.0
574,1724559616480167685,-1.7504327297210693,0.24870167672634125,0.14910988509655,0.05236143618822098,0.037370502948760986,-0.5500303506851196,0.832663357257843,0.0,0.0,0.0,0.0,0.0,0.0
576,1724559616492566413,-1.7504651546478271,0.24854682385921478,0.14916829764842987,0.05215847119688988,0.038004860281944275,-0.550391674041748,0.832408607006073,0.0,0.0,0.0,0.0,0.0,0.0
578,1724559616501273060,-1.7504607439041138,0.2483528107404709,0.14899340271949768,0.052016668021678925,0.03819005563855171,-0.5506166219711304,0.832260251045227,0.0,0.0,0.0,0.0,0.0,0.0
580,1724559616510740696,-1.7505054473876953,0.24823115766048431,0.148723766207695,0.049075648188591,0.037359487265348434,-0.5505715012550354,0.8325064182281494,0.0,0.0,0.0,0.0,0.0,0.0
582,1724559616520554438,-1.7504849433898926,0.2480630874633789,0.14855681359767914,0.048445142805576324,0.03733694925904274,-0.5507171750068665,0.8324479460716248,0.0,0.0,0.0,0.0,0.0,0.0
584,1724559616540227859,-1.750527024269104,0.24784107506275177,0.14826010167598724,0.04672500491142273,0.037148017436265945,-0.5506169199943542,0.8326210379600525,0.0,0.0,0.0,0.0,0.0,0.0
586,1724559616540496077,-1.750542163848877,0.24766045808792114,0.14835351705551147,0.0463806688785553,0.0369269996881485,-0.5511916279792786,0.8322697877883911,0.0,0.0,0.0,0.0,0.0,0.0
588,1724559616551403684,-1.750570297241211,0.24743887782096863,0.14835026860237122,0.04593036323785782,0.03705066069960594,-0.5515754818916321,0.8320349454879761,0.0,0.0,0.0,0.0,0.0,0.0
590,1724559616564294171,-1.7506139278411865,0.24720057845115662,0.14827638864517212,0.04552752152085304,0.036958448588848114,-0.5517023801803589,0.8319770097732544,0.0,0.0,0.0,0.0,0.0,0.0
592,1724559616593528108,-1.7506505250930786,0.24695570766925812,0.14822553098201752,0.0449770949780941,0.03636432811617851,-0.5517396330833435,0.8320084810256958,0.0,0.0,0.0,0.0,0.0,0.0
594,1724559616594129459,-1.7506884336471558,0.24675601720809937,0.14824974536895752,0.04459681734442711,0.03603079169988632,-0.551975667476654,0.8318868279457092,0.0,0.0,0.0,0.0,0.0,0.0
596,1724559616594417491,-1.7506482601165771,0.24659518897533417,0.1483975499868393,0.04482235014438629,0.03593840077519417,-0.552047848701477,0.8318308591842651,0.0,0.0,0.0,0.0,0.0,0.0
598,1724559616601474027,-1.750634789466858,0.2464221566915512,0.14860281348228455,0.04466407746076584,0.03557760268449783,-0.552427351474762,0.831602931022644,0.0,0.0,0.0,0.0,0.0,0.0
600,1724559616621176804,-1.7504963874816895,0.24626277387142181,0.14946676790714264,0.04654530808329582,0.03698959946632385,-0.5540603995323181,0.8303507566452026,0.0,0.0,0.0,0.0,0.0,0.0
602,1724559616622882825,-1.7504887580871582,0.24609911441802979,0.14989879727363586,0.04650267958641052,0.03698911890387535,-0.5548272728919983,0.829840898513794,0.0,0.0,0.0,0.0,0.0,0.0
604,1724559616630384210,-1.750486969947815,0.24591197073459625,0.15017911791801453,0.046442724764347076,0.03648906946182251,-0.5551257133483887,0.8296668529510498,0.0,0.0,0.0,0.0,0.0,0.0
606,1724559616641856955,-1.750441312789917,0.24573734402656555,0.1504739224910736,0.046495478600263596,0.03621407598257065,-0.5553315877914429,0.8295382261276245,0.0,0.0,0.0,0.0,0.0,0.0
608,1724559616650771553,-1.7503782510757446,0.24558837711811066,0.1507136970758438,0.04663810878992081,0.03577311336994171,-0.5555257201194763,0.8294192552566528,0.0,0.0,0.0,0.0,0.0,0.0
610,1724559616660349545,-1.7502607107162476,0.24544782936573029,0.15110693871974945,0.04744817316532135,0.034919701516628265,-0.556119441986084,0.8290117383003235,0.0,0.0,0.0,0.0,0.0,0.0
612,1724559616671361759,-1.750165581703186,0.24537250399589539,0.15126462280750275,0.047365475445985794,0.03389938175678253,-0.5563567876815796,0.8288995027542114,0.0,0.0,0.0,0.0,0.0,0.0
614,1724559616680376166,-1.749942421913147,0.24539987742900848,0.15162256360054016,0.04760782793164253,0.033571671694517136,-0.5569546818733215,0.8284973502159119,0.0,0.0,0.0,0.0,0.0,0.0
616,1724559616694219951,-1.749729871749878,0.24538975954055786,0.15184547007083893,0.04734600707888603,0.03316539525985718,-0.557400107383728,0.8282291293144226,0.0,0.0,0.0,0.0,0.0,0.0
618,1724559616701269155,-1.749599814414978,0.2452734410762787,0.15188449621200562,0.046096380800008774,0.030886823311448097,-0.5571137070655823,0.8285803198814392,0.0,0.0,0.0,0.0,0.0,0.0
620,1724559616710404587,-1.7492263317108154,0.24525323510169983,0.15232421457767487,0.04788053035736084,0.0317094624042511,-0.5579392313957214,0.8278923630714417,0.0,0.0,0.0,0.0,0.0,0.0
622,1724559616722020935,-1.7488725185394287,0.24519234895706177,0.15255114436149597,0.04870517551898956,0.03090973198413849,-0.5582014322280884,0.8276976943016052,0.0,0.0,0.0,0.0,0.0,0.0
624,1724559616730318546,-1.7485274076461792,0.24511930346488953,0.1525803804397583,0.0494525246322155,0.03002837486565113,-0.5580614805221558,0.8277801871299744,0.0,0.0,0.0,0.0,0.0,0.0
626,1724559616772079851,-1.748162031173706,0.24505211412906647,0.15256637334823608,0.048972729593515396,0.028796715661883354,-0.5576892495155334,0.8281033039093018,0.0,0.0,0.0,0.0,0.0,0.0
628,1724559616772375099,-1.7476187944412231,0.24505263566970825,0.15279172360897064,0.05027730390429497,0.029585087671875954,-0.557854413986206,0.8278861045837402,0.0,0.0,0.0,0.0,0.0,0.0
630,1724559616772639765,-1.74704909324646,0.24508431553840637,0.15289859473705292,0.050813399255275726,0.02991761453449726,-0.5579336285591125,0.8277879953384399,0.0,0.0,0.0,0.0,0.0,0.0
632,1724559616772901786,-1.7464087009429932,0.24524584412574768,0.15312282741069794,0.050628527998924255,0.030501309782266617,-0.5586906671524048,0.8272672891616821,0.0,0.0,0.0,0.0,0.0,0.0
634,1724559616806631836,-1.7458055019378662,0.24531102180480957,0.1530916690826416,0.05015548691153526,0.029077677056193352,-0.5586515069007874,0.8273738622665405,0.0,0.0,0.0,0.0,0.0,0.0
636,1724559616806959276,-1.745103359222412,0.2455509901046753,0.15347649157047272,0.04966215416789055,0.02994346432387829,-0.5597478747367859,0.8266313672065735,0.0,0.0,0.0,0.0,0.0,0.0
638,1724559616807342619,-1.7444742918014526,0.24575239419937134,0.15368269383907318,0.04889686033129692,0.030160345137119293,-0.5603784322738647,0.8262417912483215,0.0,0.0,0.0,0.0,0.0,0.0
640,1724559616810923619,-1.743930697441101,0.2457946091890335,0.1535855233669281,0.04828393831849098,0.029148245230317116,-0.5600770711898804,0.8265184164047241,0.0,0.0,0.0,0.0,0.0,0.0
642,1724559616822018705,-1.7434338331222534,0.24575801193714142,0.15313634276390076,0.046853289008140564,0.026182228699326515,-0.5584059357643127,0.8278297781944275,0.0,0.0,0.0,0.0,0.0,0.0
644,1724559616833341565,-1.7425954341888428,0.24603594839572906,0.15392492711544037,0.047806933522224426,0.026312710717320442,-0.5596630573272705,0.8269216418266296,0.0,0.0,0.0,0.0,0.0,0.0
646,1724559616872770832,-1.7418432235717773,0.24608908593654633,0.15429499745368958,0.04915283992886543,0.025424109771847725,-0.5598265528678894,0.8267598748207092,0.0,0.0,0.0,0.0,0.0,0.0
648,1724559616873377513,-1.7410948276519775,0.24620869755744934,0.15451869368553162,0.050266947597265244,0.025139641016721725,-0.5598732829093933,0.8266698718070984,0.0,0.0,0.0,0.0,0.0,0.0
650,1724559616873811917,-1.740187168121338,0.24637845158576965,0.15490783751010895,0.052927277982234955,0.02677825652062893,-0.5605281591415405,0.8260083794593811,0.0,0.0,0.0,0.0,0.0,0.0
652,1724559616878177984,-1.7394273281097412,0.24652773141860962,0.1552090346813202,0.052658386528491974,0.026896042749285698,-0.5610389709472656,0.825674831867218,0.0,0.0,0.0,0.0,0.0,0.0
654,1724559616880306242,-1.7386733293533325,0.24656341969966888,0.15513063967227936,0.05176527425646782,0.025367621332406998,-0.5611305832862854,0.8257174491882324,0.0,0.0,0.0,0.0,0.0,0.0
656,1724559616892052703,-1.7378599643707275,0.24680174887180328,0.15525877475738525,0.05056142061948776,0.02644451893866062,-0.5615475177764893,0.825474739074707,0.0,0.0,0.0,0.0,0.0,0.0
658,1724559616900413620,-1.737166404724121,0.2470036745071411,0.1550840437412262,0.04753207415342331,0.026796504855155945,-0.5613836646080017,0.8257548213005066,0.0,0.0,0.0,0.0,0.0,0.0
660,1724559616911834306,-1.7366276979446411,0.2468881458044052,0.1545068621635437,0.044710900634527206,0.02420223131775856,-0.5596710443496704,0.8271539211273193,0.0,0.0,0.0,0.0,0.0,0.0
662,1724559616924532529,-1.735878348350525,0.24700041115283966,0.1544063538312912,0.043489009141922,0.024219999089837074,-0.5593709349632263,0.8274214267730713,0.0,0.0,0.0,0.0,0.0,0.0
664,1724559616930437198,-1.7350767850875854,0.247262105345726,0.15484200417995453,0.04214250668883324,0.024087967351078987,-0.5600214004516602,0.8270549774169922,0.0,0.0,0.0,0.0,0.0,0.0
666,1724559616943173628,-1.734182357788086,0.2476002275943756,0.15551979839801788,0.04323769733309746,0.025186829268932343,-0.5612227320671082,0.8261508345603943,0.0,0.0,0.0,0.0,0.0,0.0
668,1724559616950752151,-1.7334072589874268,0.24778634309768677,0.15591254830360413,0.044456422328948975,0.025307772681117058,-0.5616490840911865,0.8257926106452942,0.0,0.0,0.0,0.0,0.0,0.0
670,1724559616960994701,-1.7326993942260742,0.2478218823671341,0.15605562925338745,0.046447642147541046,0.024957258254289627,-0.5612857937812805,0.825940728187561,0.0,0.0,0.0,0.0,0.0,0.0
672,1724559616973154211,-1.7317767143249512,0.24812935292720795,0.15692557394504547,0.05046303570270538,0.027038630098104477,-0.5628449320793152,0.8245775103569031,0.0,0.0,0.0,0.0,0.0,0.0
674,1724559617005522111,-1.731036901473999,0.24841803312301636,0.157406747341156,0.05283529683947563,0.028545288369059563,-0.563103437423706,0.8242015242576599,0.0,0.0,0.0,0.0,0.0,0.0
676,1724559617005897780,-1.7305123805999756,0.24854768812656403,0.1569526493549347,0.05153442919254303,0.02479921281337738,-0.5616558790206909,0.8253920078277588,0.0,0.0,0.0,0.0,0.0,0.0
678,1724559617006467633,-1.730015754699707,0.24891988933086395,0.15653672814369202,0.04812832549214363,0.022980140522122383,-0.560510516166687,0.8264281153678894,0.0,0.0,0.0,0.0,0.0,0.0
680,1724559617010762200,-1.7293434143066406,0.24931222200393677,0.15647824108600616,0.04776153713464737,0.02264978364109993,-0.5598640441894531,0.826896607875824,0.0,0.0,0.0,0.0,0.0,0.0
682,1724559617022492952,-1.7288014888763428,0.24960805475711823,0.15627941489219666,0.04729153588414192,0.02152175083756447,-0.5587945580482483,0.8276769518852234,0.0,0.0,0.0,0.0,0.0,0.0
684,1724559617032729236,-1.728084683418274,0.25012895464897156,0.15693263709545135,0.04766114801168442,0.022754397243261337,-0.5600627660751343,0.8267649412155151,0.0,0.0,0.0,0.0,0.0,0.0
686,1724559617041848107,-1.727372169494629,0.250626802444458,0.15767356753349304,0.04753958433866501,0.02357412688434124,-0.5613181591033936,0.825897216796875,0.0,0.0,0.0,0.0,0.0,0.0
688,1724559617054493692,-1.7267389297485352,0.2508692741394043,0.15780843794345856,0.047558512538671494,0.023145293816924095,-0.5610384941101074,0.8260982632637024,0.0,0.0,0.0,0.0,0.0,0.0
690,1724559617060161279,-1.726256251335144,0.25113266706466675,0.15777161717414856,0.04599004238843918,0.022383147850632668,-0.5603148937225342,0.826698899269104,0.0,0.0,0.0,0.0,0.0,0.0
692,1724559617089975451,-1.7256766557693481,0.25141650438308716,0.15774038434028625,0.04657600447535515,0.02238200046122074,-0.5594881772994995,0.827225923538208,0.0,0.0,0.0,0.0,0.0,0.0
694,1724559617090529248,-1.7251139879226685,0.2518709599971771,0.15777996182441711,0.0457247830927372,0.02265353500843048,-0.5588406324386597,0.827703595161438,0.0,0.0,0.0,0.0,0.0,0.0
696,1724559617090930015,-1.7246601581573486,0.2521498203277588,0.15756377577781677,0.045423660427331924,0.02184223383665085,-0.5582266449928284,0.8281561136245728,0.0,0.0,0.0,0.0,0.0,0.0
698,1724559617100773369,-1.7240532636642456,0.2525462806224823,0.1578163057565689,0.04533332213759422,0.021698635071516037,-0.5581724047660828,0.828201413154602,0.0,0.0,0.0,0.0,0.0,0.0
700,1724559617110565701,-1.7235441207885742,0.252877801656723,0.1579715758562088,0.044564321637153625,0.02065211348235607,-0.5575770139694214,0.8286709189414978,0.0,0.0,0.0,0.0,0.0,0.0
702,1724559617123432625,-1.7229851484298706,0.2532447576522827,0.15807998180389404,0.04392583668231964,0.019427668303251266,-0.5565111637115479,0.829450786113739,0.0,0.0,0.0,0.0,0.0,0.0
704,1724559617130910347,-1.7222903966903687,0.25372686982154846,0.1583310216665268,0.04482744261622429,0.019233573228120804,-0.5568122267723083,0.8292048573493958,0.0,0.0,0.0,0.0,0.0,0.0
706,1724559617142039622,-1.7215420007705688,0.25431421399116516,0.15933795273303986,0.04670339077711105,0.019898952916264534,-0.558224081993103,0.8281357288360596,0.0,0.0,0.0,0.0,0.0,0.0
708,1724559617205472052,-1.7207789421081543,0.2547726333141327,0.15993037819862366,0.049022551625967026,0.020711375400424004,-0.5584166049957275,0.8278518319129944,0.0,0.0,0.0,0.0,0.0,0.0
710,1724559617206245065,-1.7200452089309692,0.2551535964012146,0.16038307547569275,0.05059089884161949,0.020482758060097694,-0.5583334565162659,0.827819287776947,0.0,0.0,0.0,0.0,0.0,0.0
712,1724559617206950440,-1.7193876504898071,0.2555074989795685,0.16011036932468414,0.05095307528972626,0.019607946276664734,-0.5570548176765442,0.8286791443824768,0.0,0.0,0.0,0.0,0.0,0.0
714,1724559617208384260,-1.7187538146972656,0.25592318177223206,0.16011260449886322,0.049814075231552124,0.017516769468784332,-0.5557712316513062,0.8296566605567932,0.0,0.0,0.0,0.0,0.0,0.0
716,1724559617209057489,-1.7177971601486206,0.2564980685710907,0.16078312695026398,0.0519622378051281,0.01832478865981102,-0.5563923120498657,0.8290908932685852,0.0,0.0,0.0,0.0,0.0,0.0
718,1724559617209623895,-1.716899037361145,0.25695890188217163,0.16120721399784088,0.05361836403608322,0.017510760575532913,-0.5564479827880859,0.8289657235145569,0.0,0.0,0.0,0.0,0.0,0.0
720,1724559617211005437,-1.7161487340927124,0.25747400522232056,0.1613367646932602,0.05280448496341705,0.016415607184171677,-0.5561824440956116,0.8292185068130493,0.0,0.0,0.0,0.0,0.0,0.0
722,1724559617226228703,-1.7152981758117676,0.2579953372478485,0.16173025965690613,0.05375538021326065,0.016878273338079453,-0.555901288986206,0.8293366432189941,0.0,0.0,0.0,0.0,0.0,0.0
724,1724559617230396201,-1.7144804000854492,0.2584637403488159,0.16185162961483002,0.053204476833343506,0.016181789338588715,-0.5553320050239563,0.8297672867774963,0.0,0.0,0.0,0.0,0.0,0.0
726,1724559617240681003,-1.7135370969772339,0.25903400778770447,0.1619110107421875,0.053284160792827606,0.017053624615073204,-0.5547868609428406,0.8301092982292175,0.0,0.0,0.0,0.0,0.0,0.0
728,1724559617250956092,-1.7127023935317993,0.2594105899333954,0.1616375595331192,0.052081938832998276,0.01623012125492096,-0.5538881421089172,0.8308020830154419,0.0,0.0,0.0,0.0,0.0,0.0
730,1724559617262969309,-1.7118163108825684,0.25983282923698425,0.16180720925331116,0.05033781751990318,0.014890198595821857,-0.553271472454071,0.8313453793525696,0.0,0.0,0.0,0.0,0.0,0.0
732,1724559617272119684,-1.7109700441360474,0.2602939307689667,0.16179366409778595,0.04880887269973755,0.014458874240517616,-0.5525531768798828,0.8319215774536133,0.0,0.0,0.0,0.0,0.0,0.0
734,1724559617280273760,-1.710016131401062,0.26081928610801697,0.16184712946414948,0.04870622605085373,0.014590995386242867,-0.552436351776123,0.8320029377937317,0.0,0.0,0.0,0.0,0.0,0.0
736,1724559617292370686,-1.7088583707809448,0.261473149061203,0.16241586208343506,0.05089225620031357,0.015620013698935509,-0.5535123348236084,0.8311378955841064,0.0,0.0,0.0,0.0,0.0,0.0
738,1724559617301150536,-1.70793879032135,0.26190972328186035,0.1622844934463501,0.051226500421762466,0.014335393905639648,-0.5525387525558472,0.8317880630493164,0.0,0.0,0.0,0.0,0.0,0.0
740,1724559617310563305,-1.7072820663452148,0.26215097308158875,0.16163156926631927,0.04920025169849396,0.011005180887877941,-0.5500612258911133,0.833601176738739,0.0,0.0,0.0,0.0,0.0,0.0
742,1724559617321537076,-1.7061880826950073,0.26282787322998047,0.16263702511787415,0.05067400634288788,0.01299405749887228,-0.5513231158256531,0.8326500654220581,0.0,0.0,0.0,0.0,0.0,0.0
744,1724559617333735543,-1.7053697109222412,0.26304101943969727,0.1623866707086563,0.05082482472062111,0.011720115318894386,-0.5492824912071228,0.8340073227882385,0.0,0.0,0.0,0.0,0.0,0.0
746,1724559617340379526,-1.7044692039489746,0.26345300674438477,0.16244857013225555,0.050742775201797485,0.011878978461027145,-0.5488197803497314,0.8343146443367004,0.0,0.0,0.0,0.0,0.0,0.0
748,1724559617351611671,-1.7034640312194824,0.26398277282714844,0.16298364102840424,0.050811827182769775,0.012475919909775257,-0.5497197508811951,0.8337090015411377,0.0,0.0,0.0,0.0,0.0,0.0
750,1724559617360735361,-1.702454686164856,0.26452988386154175,0.16340337693691254,0.050652485340833664,0.013283994980156422,-0.5501731634140015,0.8334070444107056,0.0,0.0,0.0,0.0,0.0,0.0
752,1724559617371245761,-1.7015085220336914,0.2649032473564148,0.16355662047863007,0.05005849152803421,0.012409346178174019,-0.5499441623687744,0.83360755443573,0.0,0.0,0.0,0.0,0.0,0.0
754,1724559617383732782,-1.7005239725112915,0.26531416177749634,0.1633608341217041,0.050110138952732086,0.012798450887203217,-0.5488612651824951,0.8343120217323303,0.0,0.0,0.0,0.0,0.0,0.0
756,1724559617391060909,-1.6997731924057007,0.26552900671958923,0.16284552216529846,0.048470791429281235,0.010312964208424091,-0.5468837022781372,0.8357407450675964,0.0,0.0,0.0,0.0,0.0,0.0
758,1724559617401779702,-1.6987313032150269,0.26594221591949463,0.1630776971578598,0.048829760402441025,0.01095498912036419,-0.5468902587890625,0.8357073664665222,0.0,0.0,0.0,0.0,0.0,0.0
760,1724559617413084166,-1.6977962255477905,0.2664051353931427,0.1635821908712387,0.048168305307626724,0.01160472258925438,-0.5471110939979553,0.8355923891067505,0.0,0.0,0.0,0.0,0.0,0.0
762,1724559617421850085,-1.696967601776123,0.26681336760520935,0.16367043554782867,0.04727139323949814,0.012015988118946552,-0.5462837219238281,0.8361788988113403,0.0,0.0,0.0,0.0,0.0,0.0
764,1724559617430553786,-1.6961137056350708,0.26718395948410034,0.16399188339710236,0.048005081713199615,0.011811111122369766,-0.5460827350616455,0.8362712860107422,0.0,0.0,0.0,0.0,0.0,0.0
766,1724559617442183357,-1.6952890157699585,0.2674284875392914,0.163927361369133,0.048098206520080566,0.010589981451630592,-0.5446823239326477,0.8371951580047607,0.0,0.0,0.0,0.0,0.0,0.0
768,1724559617450838461,-1.69438898563385,0.2678133249282837,0.1641550213098526,0.0479610413312912,0.010468386113643646,-0.5443258285522461,0.837436318397522,0.0,0.0,0.0,0.0,0.0,0.0
770,1724559617461213598,-1.6934702396392822,0.26823481917381287,0.16444031894207,0.04870675876736641,0.011295311152935028,-0.5441713333129883,0.8374828696250916,0.0,0.0,0.0,0.0,0.0,0.0
772,1724559617475142748,-1.6928563117980957,0.26822957396507263,0.16384795308113098,0.0461508147418499,0.007702092174440622,-0.5414953827857971,0.8394007086753845,0.0,0.0,0.0,0.0,0.0,0.0
774,1724559617480702259,-1.69193696975708,0.2686242461204529,0.1644136607646942,0.04676181450486183,0.008849970065057278,-0.5420322418212891,0.8390090465545654,0.0,0.0,0.0,0.0,0.0,0.0
776,1724559617491399307,-1.6910923719406128,0.2690211832523346,0.16517232358455658,0.04731139913201332,0.010469826869666576,-0.5424808859825134,0.83866947889328,0.0,0.0,0.0,0.0,0.0,0.0
778,1724559617500405477,-1.6903202533721924,0.26933419704437256,0.16584347188472748,0.047484710812568665,0.012254794128239155,-0.5430431962013245,0.8382715582847595,0.0,0.0,0.0,0.0,0.0,0.0
780,1724559617530205519,-1.6895707845687866,0.2695106565952301,0.16630837321281433,0.0475868321955204,0.01249757781624794,-0.5426684617996216,0.8385047912597656,0.0,0.0,0.0,0.0,0.0,0.0
782,1724559617530837361,-1.6890422105789185,0.2695007622241974,0.16610892117023468,0.04589810222387314,0.010123246349394321,-0.5409347414970398,0.8397502899169922,0.0,0.0,0.0,0.0,0.0,0.0
784,1724559617531392507,-1.6883301734924316,0.2696424424648285,0.16599157452583313,0.046788159757852554,0.010291028767824173,-0.539982795715332,0.840311586856842,0.0,0.0,0.0,0.0,0.0,0.0
786,1724559617542656073,-1.6876065731048584,0.26981085538864136,0.16596315801143646,0.04563482478260994,0.009499957785010338,-0.5393301248550415,0.840803325176239,0.0,0.0,0.0,0.0,0.0,0.0
788,1724559617550956296,-1.6871188879013062,0.2696598470211029,0.16508705914020538,0.04313759133219719,0.006799113936722279,-0.5367392301559448,0.8426173329353333,0.0,0.0,0.0,0.0,0.0,0.0
790,1724559617560916063,-1.6863664388656616,0.2698720097541809,0.16559316217899323,0.04346839711070061,0.007883192040026188,-0.5373345017433167,0.8422113656997681,0.0,0.0,0.0,0.0,0.0,0.0
792,1724559617575098622,-1.685770869255066,0.2699446678161621,0.16591353714466095,0.043197885155677795,0.008032931946218014,-0.5374449491500854,0.8421533703804016,0.0,0.0,0.0,0.0,0.0,0.0
794,1724559617580332692,-1.6851695775985718,0.26996713876724243,0.16621188819408417,0.04327769577503204,0.00817958265542984,-0.5373932719230652,0.8421808481216431,0.0,0.0,0.0,0.0,0.0,0.0
796,1724559617591179495,-1.6845502853393555,0.2699192464351654,0.16644996404647827,0.04504487290978432,0.007356410380452871,-0.5372176766395569,0.8422077894210815,0.0,0.0,0.0,0.0,0.0,0.0
798,1724559617606668716,-1.6840709447860718,0.2698322534561157,0.16646529734134674,0.04536290466785431,0.005610451102256775,-0.5363560914993286,0.8427531719207764,0.0,0.0,0.0,0.0,0.0,0.0
800,1724559617611232110,-1.68348228931427,0.269928514957428,0.16669517755508423,0.04540107399225235,0.006558110471814871,-0.5359428524971008,0.8430071473121643,0.0,0.0,0.0,0.0,0.0,0.0
802,1724559617620735995,-1.6827727556228638,0.2701580226421356,0.16733677685260773,0.04659736156463623,0.010397281497716904,-0.5366025567054749,0.842483401298523,0.0,0.0,0.0,0.0,0.0,0.0
804,1724559617642844042,-1.6824250221252441,0.2698405683040619,0.16659404337406158,0.043985817581415176,0.008046882227063179,-0.5348690748214722,0.8437510132789612,0.0,0.0,0.0,0.0,0.0,0.0
806,1724559617643137153,-1.6818571090698242,0.2698521614074707,0.16649597883224487,0.04175586998462677,0.007847241126000881,-0.5341140031814575,0.8443441390991211,0.0,0.0,0.0,0.0,0.0,0.0
808,1724559617651216562,-1.681254267692566,0.26997876167297363,0.16676492989063263,0.04046418517827988,0.008146359585225582,-0.5336900949478149,0.8446722030639648,0.0,0.0,0.0,0.0,0.0,0.0
810,1724559617660618946,-1.680651068687439,0.27005624771118164,0.16709375381469727,0.040746401995420456,0.009220940060913563,-0.5337429046630859,0.8446142077445984,0.0,0.0,0.0,0.0,0.0,0.0
812,1724559617672148403,-1.6801317930221558,0.2700433135032654,0.1669449359178543,0.03994014859199524,0.00873615127056837,-0.5323915481567383,0.8455103039741516,0.0,0.0,0.0,0.0,0.0,0.0
814,1724559617680450764,-1.6795881986618042,0.2700122892856598,0.16681386530399323,0.04037556052207947,0.008246706798672676,-0.5318608283996582,0.8458284735679626,0.0,0.0,0.0,0.0,0.0,0.0
816,1724559617690715173,-1.679099202156067,0.2699735462665558,0.16691038012504578,0.04081391915678978,0.00688134552910924,-0.5314801335334778,0.8460589647293091,0.0,0.0,0.0,0.0,0.0,0.0
818,1724559617719983515,-1.6785328388214111,0.2700153887271881,0.16702017188072205,0.0410696417093277,0.00687633641064167,-0.5315256714820862,0.8460180163383484,0.0,0.0,0.0,0.0,0.0,0.0
820,1724559617720428067,-1.6781424283981323,0.2700105905532837,0.16724923253059387,0.040056828409433365,0.005820939317345619,-0.5310807824134827,0.8463538289070129,0.0,0.0,0.0,0.0,0.0,0.0
822,1724559617721214745,-1.6777697801589966,0.2698250710964203,0.1670185923576355,0.039580926299095154,0.004966569598764181,-0.5295191407203674,0.8473595976829529,0.0,0.0,0.0,0.0,0.0,0.0
824,1724559617731417405,-1.6773277521133423,0.2697193920612335,0.16700895130634308,0.03911573067307472,0.005020247306674719,-0.528658926486969,0.8479177355766296,0.0,0.0,0.0,0.0,0.0,0.0
826,1724559617742489041,-1.6767646074295044,0.2696860134601593,0.16710737347602844,0.03883442282676697,0.005224226042628288,-0.5286466479301453,0.8479371070861816,0.0,0.0,0.0,0.0,0.0,0.0
828,1724559617756251621,-1.6762431859970093,0.26966506242752075,0.16728506982326508,0.037873733788728714,0.005186526570469141,-0.5289764404296875,0.8477751612663269,0.0,0.0,0.0,0.0,0.0,0.0
830,1724559617760754092,-1.6757086515426636,0.26959699392318726,0.1674513816833496,0.03759964555501938,0.0057276575826108456,-0.529159665107727,0.8476694226264954,0.0,0.0,0.0,0.0,0.0,0.0
832,1724559617771919535,-1.6751937866210938,0.2695326507091522,0.16765913367271423,0.037666793912649155,0.006425474304705858,-0.529275119304657,0.847589373588562,0.0,0.0,0.0,0.0,0.0,0.0
834,1724559617780586973,-1.6747167110443115,0.26941239833831787,0.16765642166137695,0.037643156945705414,0.006455100141465664,-0.5287036895751953,0.84794682264328,0.0,0.0,0.0,0.0,0.0,0.0
836,1724559617793203413,-1.6742525100708008,0.2692934572696686,0.16744635999202728,0.037069663405418396,0.00649456400424242,-0.5280544757843018,0.8483762145042419,0.0,0.0,0.0,0.0,0.0,0.0
838,1724559617801320528,-1.673797607421875,0.26907265186309814,0.1669141799211502,0.036020636558532715,0.005221943370997906,-0.526454746723175,0.8494237661361694,0.0,0.0,0.0,0.0,0.0,0.0
840,1724559617812217929,-1.673317790031433,0.2690528929233551,0.16725783050060272,0.034854501485824585,0.005359997041523457,-0.5268682241439819,0.8492150902748108,0.0,0.0,0.0,0.0,0.0,0.0
842,1724559617822028468,-1.6727102994918823,0.2689923048019409,0.16739465296268463,0.034851059317588806,0.006921994034200907,-0.5270476341247559,0.8490926623344421,0.0,0.0,0.0,0.0,0.0,0.0
844,1724559617830473930,-1.6721998453140259,0.268842488527298,0.16728803515434265,0.03435927629470825,0.006992038805037737,-0.526475727558136,0.8494668006896973,0.0,0.0,0.0,0.0,0.0,0.0
846,1724559617840626505,-1.6716722249984741,0.2686939239501953,0.16727478802204132,0.034009598195552826,0.0069293007254600525,-0.5260617733001709,0.8497377634048462,0.0,0.0,0.0,0.0,0.0,0.0
848,1724559617851810768,-1.6712406873703003,0.26853811740875244,0.16721689701080322,0.03327354043722153,0.006206867750734091,-0.5251567959785461,0.8503321409225464,0.0,0.0,0.0,0.0,0.0,0.0
850,1724559617897033913,-1.6708500385284424,0.26832085847854614,0.16697540879249573,0.03256732225418091,0.004870361182838678,-0.5234053134918213,0.8514474034309387,0.0,0.0,0.0,0.0,0.0,0.0
852,1724559617897705574,-1.6703402996063232,0.26819658279418945,0.16678206622600555,0.0320713147521019,0.003947933670133352,-0.522147536277771,0.8522428870201111,0.0,0.0,0.0,0.0,0.0,0.0
854,1724559617898176142,-1.6697970628738403,0.2682153284549713,0.16698116064071655,0.03137022629380226,0.004023565445095301,-0.5219048857688904,0.8524171113967896,0.0,0.0,0.0,0.0,0.0,0.0
856,1724559617898502473,-1.6692181825637817,0.2682570219039917,0.16750842332839966,0.03191829472780228,0.004325124900788069,-0.5222245454788208,0.8521994948387146,0.0,0.0,0.0,0.0,0.0,0.0
858,1724559617930371403,-1.668645977973938,0.2681843042373657,0.1674775928258896,0.031831298023462296,0.004122383426874876,-0.521173894405365,0.8528467416763306,0.0,0.0,0.0,0.0,0.0,0.0
860,1724559617930939601,-1.6679917573928833,0.2680055499076843,0.16775283217430115,0.034185294061899185,0.004774714354425669,-0.520006537437439,0.8534646034240723,0.0,0.0,0.0,0.0,0.0,0.0
862,1724559617931524732,-1.6672701835632324,0.268301784992218,0.16782918572425842,0.0320034883916378,0.007124336436390877,-0.5197010636329651,0.8537188768386841,0.0,0.0,0.0,0.0,0.0,0.0
864,1724559617933586106,-1.666592001914978,0.2681610584259033,0.16731414198875427,0.029665600508451462,0.006347408518195152,-0.5177496075630188,0.8549942970275879,0.0,0.0,0.0,0.0,0.0,0.0
866,1724559617940716989,-1.6658703088760376,0.2681427001953125,0.1667637974023819,0.026797033846378326,0.00518995663151145,-0.5159567594528198,0.8561797142028809,0.0,0.0,0.0,0.0,0.0,0.0
868,1724559617951814165,-1.664917230606079,0.2684541940689087,0.16710659861564636,0.025298627093434334,0.0063636768609285355,-0.5166084170341492,0.8558242917060852,0.0,0.0,0.0,0.0,0.0,0.0
870,1724559617961191793,-1.6637632846832275,0.26877060532569885,0.16727131605148315,0.02496650069952011,0.00782152358442545,-0.516919732093811,0.8556339740753174,0.0,0.0,0.0,0.0,0.0,0.0
872,1724559617974048898,-1.6627739667892456,0.26882851123809814,0.16707006096839905,0.024060916155576706,0.00784569513052702,-0.515324056148529,0.8566216826438904,0.0,0.0,0.0,0.0,0.0,0.0
874,1724559618012894955,-1.6616466045379639,0.2692110538482666,0.1672082245349884,0.024013357236981392,0.009181066416203976,-0.5153645873069763,0.8565853238105774,0.0,0.0,0.0,0.0,0.0,0.0
876,1724559618013690080,-1.6606141328811646,0.2692813575267792,0.1664440631866455,0.022798357531428337,0.007601508405059576,-0.5130272507667542,0.8580358624458313,0.0,0.0,0.0,0.0,0.0,0.0
878,1724559618019802333,-1.658050775527954,0.26997047662734985,0.16637544333934784,0.02276637963950634,0.007190719712525606,-0.5125877857208252,0.8583028316497803,0.0,0.0,0.0,0.0,0.0,0.0
880,1724559618021553147,-1.6569219827651978,0.27021896839141846,0.1664549708366394,0.020881764590740204,0.006266521755605936,-0.5115053653717041,0.8590035438537598,0.0,0.0,0.0,0.0,0.0,0.0
882,1724559618030864911,-1.655770182609558,0.27040114998817444,0.16670000553131104,0.02119986154139042,0.0065919398330152035,-0.5107758641242981,0.8594272136688232,0.0,0.0,0.0,0.0,0.0,0.0
884,1724559618040691193,-1.6544520854949951,0.27078330516815186,0.16736866533756256,0.021315481513738632,0.009256616234779358,-0.5109444260597229,0.8592996001243591,0.0,0.0,0.0,0.0,0.0,0.0
886,1724559618050957869,-1.6531611680984497,0.2710205614566803,0.1674555093050003,0.02007512003183365,0.010574751533567905,-0.5101770758628845,0.8597700595855713,0.0,0.0,0.0,0.0,0.0,0.0
888,1724559618061228524,-1.652001142501831,0.2709861099720001,0.16713161766529083,0.018358474597334862,0.00945545919239521,-0.5082723498344421,0.8609488010406494,0.0,0.0,0.0,0.0,0.0,0.0
890,1724559618071873011,-1.6508177518844604,0.2709886133670807,0.16725754737854004,0.017361508682370186,0.008562764152884483,-0.5072928667068481,0.861556351184845,0.0,0.0,0.0,0.0,0.0,0.0
892,1724559618080478935,-1.6494821310043335,0.270832359790802,0.1674206405878067,0.018062829971313477,0.007302375975996256,-0.5066174864768982,0.8619507551193237,0.0,0.0,0.0,0.0,0.0,0.0
894,1724559618090999533,-1.6481271982192993,0.27083003520965576,0.16744963824748993,0.018307633697986603,0.006698418874293566,-0.5060030221939087,0.8623113632202148,0.0,0.0,0.0,0.0,0.0,0.0
896,1724559618101571580,-1.6470204591751099,0.27069199085235596,0.16726817190647125,0.01630680449306965,0.005153740756213665,-0.5044477581977844,0.8632728457450867,0.0,0.0,0.0,0.0,0.0,0.0
898,1724559618125382822,-1.6459274291992188,0.27072304487228394,0.16715504229068756,0.014201459474861622,0.006759428419172764,-0.5033521056175232,0.8639382719993591,0.0,0.0,0.0,0.0,0.0,0.0
900,1724559618125739631,-1.6447023153305054,0.27057352662086487,0.1676243394613266,0.015463435091078281,0.006850138772279024,-0.5031827688217163,0.8640145063400269,0.0,0.0,0.0,0.0,0.0,0.0
902,1724559618130429827,-1.6435134410858154,0.27047625184059143,0.16774842143058777,0.016131047159433365,0.008082488551735878,-0.5028135180473328,0.8642065525054932,0.0,0.0,0.0,0.0,0.0,0.0
904,1724559618140804581,-1.6425052881240845,0.27040088176727295,0.16761106252670288,0.016074378043413162,0.008153858594596386,-0.5021599531173706,0.8645869493484497,0.0,0.0,0.0,0.0,0.0,0.0
906,1724559618150796136,-1.6416220664978027,0.27045929431915283,0.16748188436031342,0.013153096660971642,0.008544855751097202,-0.5015673637390137,0.8649764060974121,0.0,0.0,0.0,0.0,0.0,0.0
908,1724559618161409583,-1.6409410238265991,0.2699759602546692,0.1666174829006195,0.010836347006261349,0.005145371425896883,-0.49807581305503845,0.8670505881309509,0.0,0.0,0.0,0.0,0.0,0.0
910,1724559618172562151,-1.6401376724243164,0.2698456048965454,0.16702550649642944,0.011778819374740124,0.004660184029489756,-0.4983483850955963,0.8668844103813171,0.0,0.0,0.0,0.0,0.0,0.0
912,1724559618180427114,-1.6394580602645874,0.2698522210121155,0.1672115921974182,0.011614966206252575,0.005946774501353502,-0.49835458397865295,0.866875171661377,0.0,0.0,0.0,0.0,0.0,0.0
914,1724559618191814695,-1.6388905048370361,0.2698845863342285,0.1674351692199707,0.0116181131452322,0.007629797328263521,-0.49859684705734253,0.8667225241661072,0.0,0.0,0.0,0.0,0.0,0.0
916,1724559618201240837,-1.6383918523788452,0.26965707540512085,0.16751106083393097,0.012651612982153893,0.0071092890575528145,-0.49819108843803406,0.8669458627700806,0.0,0.0,0.0,0.0,0.0,0.0
918,1724559618210916258,-1.638012409210205,0.26945024728775024,0.16743090748786926,0.01312943734228611,0.006292997393757105,-0.4973216950893402,0.8674440383911133,0.0,0.0,0.0,0.0,0.0,0.0
920,1724559618221885518,-1.6376838684082031,0.26927757263183594,0.16745831072330475,0.01327944453805685,0.005989423952996731,-0.4969213008880615,0.867673397064209,0.0,0.0,0.0,0.0,0.0,0.0
922,1724559618231029406,-1.6373929977416992,0.26919057965278625,0.16752725839614868,0.013226402923464775,0.006444241851568222,-0.4970014989376068,0.8676248788833618,0.0,0.0,0.0,0.0,0.0,0.0
924,1724559618240570398,-1.6372931003570557,0.26894861459732056,0.1673593968153,0.011944320052862167,0.004808659199625254,-0.49616578221321106,0.8681324124336243,0.0,0.0,0.0,0.0,0.0,0.0
926,1724559618252263909,-1.6371268033981323,0.2688537836074829,0.1674499809741974,0.012086854316294193,0.005587204825133085,-0.4960574507713318,0.8681875467300415,0.0,0.0,0.0,0.0,0.0,0.0
928,1724559618261238318,-1.637014389038086,0.2687312364578247,0.16752740740776062,0.011968790553510189,0.0061523932963609695,-0.49576088786125183,0.8683547973632812,0.0,0.0,0.0,0.0,0.0,0.0
930,1724559618274844948,-1.6369538307189941,0.26864612102508545,0.16762761771678925,0.011744759045541286,0.006755923852324486,-0.49563348293304443,0.8684260845184326,0.0,0.0,0.0,0.0,0.0,0.0
932,1724559618281003852,-1.6368975639343262,0.26855170726776123,0.1677061915397644,0.011821530759334564,0.007113971281796694,-0.4957551062107086,0.8683527708053589,0.0,0.0,0.0,0.0,0.0,0.0
934,1724559618290299137,-1.6368623971939087,0.2684577703475952,0.16770900785923004,0.011907462030649185,0.00736317690461874,-0.49579906463623047,0.8683244585990906,0.0,0.0,0.0,0.0,0.0,0.0
936,1724559618301534936,-1.636859655380249,0.26835936307907104,0.16772091388702393,0.011655268259346485,0.00724942097440362,-0.49583709239959717,0.8683071136474609,0.0,0.0,0.0,0.0,0.0,0.0
938,1724559618340131674,-1.6368387937545776,0.2682499289512634,0.1676771193742752,0.011064949445426464,0.007287607993930578,-0.49588698148727417,0.8682859539985657,0.0,0.0,0.0,0.0,0.0,0.0
940,1724559618340526812,-1.6368131637573242,0.2681731879711151,0.167622908949852,0.010444073006510735,0.007437147665768862,-0.49563682079315186,0.8684352040290833,0.0,0.0,0.0,0.0,0.0,0.0
942,1724559618340842774,-1.636785864830017,0.2681323289871216,0.16758441925048828,0.009827956557273865,0.007601266726851463,-0.49536123871803284,0.868598222732544,0.0,0.0,0.0,0.0,0.0,0.0
944,1724559618343949285,-1.6367266178131104,0.26802945137023926,0.16759465634822845,0.009708854369819164,0.00734256487339735,-0.49528247117996216,0.8686466813087463,0.0,0.0,0.0,0.0,0.0,0.0
946,1724559618351075575,-1.6365642547607422,0.2679877281188965,0.1676517128944397,0.010542243719100952,0.007822686806321144,-0.4955314099788666,0.8684908151626587,0.0,0.0,0.0,0.0,0.0,0.0
948,1724559618360546900,-1.6364638805389404,0.2679157853126526,0.16764967143535614,0.010221418924629688,0.0076368423178792,-0.4957045018672943,0.8683975338935852,0.0,0.0,0.0,0.0,0.0,0.0
950,1724559618371340252,-1.6363484859466553,0.2677493393421173,0.16765610873699188,0.009992067702114582,0.006853808183223009,-0.4957631826400757,0.8683732748031616,0.0,0.0,0.0,0.0,0.0,0.0
952,1724559618380610629,-1.6362650394439697,0.26752984523773193,0.16752073168754578,0.009705801494419575,0.005899505689740181,-0.4952250123023987,0.8686904907226562,0.0,0.0,0.0,0.0,0.0,0.0
954,1724559618390908020,-1.636153221130371,0.2674199044704437,0.16766425967216492,0.009486454539000988,0.006777335423976183,-0.4954429864883423,0.8685622215270996,0.0,0.0,0.0,0.0,0.0,0.0
956,1724559618401041349,-1.636019229888916,0.26732608675956726,0.16767285764217377,0.008957203477621078,0.007357064634561539,-0.4953499734401703,0.8686162233352661,0.0,0.0,0.0,0.0,0.0,0.0
958,1724559618410436902,-1.635893702507019,0.2671397030353546,0.16761083900928497,0.008847363293170929,0.007020260207355022,-0.49522629380226135,0.8686906099319458,0.0,0.0,0.0,0.0,0.0,0.0
960,1724559618427002635,-1.6356797218322754,0.2670576870441437,0.16764593124389648,0.009288694709539413,0.007292693015187979,-0.49579259753227234,0.8683606386184692,0.0,0.0,0.0,0.0,0.0,0.0
962,1724559618430516621,-1.635558843612671,0.2669283449649811,0.1674928218126297,0.008614353835582733,0.006481401156634092,-0.4956979751586914,0.868428111076355,0.0,0.0,0.0,0.0,0.0,0.0
964,1724559618440926070,-1.635398030281067,0.26671531796455383,0.16741843521595,0.009020247496664524,0.005819318350404501,-0.49567902088165283,0.8684394359588623,0.0,0.0,0.0,0.0,0.0,0.0
966,1724559618452904458,-1.6352529525756836,0.266536146402359,0.16735871136188507,0.008925202302634716,0.005445624701678753,-0.4954724907875061,0.8685607314109802,0.0,0.0,0.0,0.0,0.0,0.0
968,1724559618461284882,-1.6351218223571777,0.26631754636764526,0.16727492213249207,0.008744104765355587,0.005132446531206369,-0.49512454867362976,0.8687628507614136,0.0,0.0,0.0,0.0,0.0,0.0
970,1724559618476501661,-1.6349469423294067,0.2660781741142273,0.1672763079404831,0.009100832976400852,0.0047065140679478645,-0.49508780241012573,0.8687825202941895,0.0,0.0,0.0,0.0,0.0,0.0
972,1724559618480852249,-1.634790301322937,0.2658385932445526,0.1671791821718216,0.009479048661887646,0.004188212100416422,-0.49485382437705994,0.8689144849777222,0.0,0.0,0.0,0.0,0.0,0.0
974,1724559618497308955,-1.6346150636672974,0.26566582918167114,0.16727495193481445,0.009961467236280441,0.00474131666123867,-0.4951253831386566,0.8687515258789062,0.0,0.0,0.0,0.0,0.0,0.0
976,1724559618500703869,-1.6344016790390015,0.2654663622379303,0.16733598709106445,0.010180063545703888,0.005090141203254461,-0.4954739511013031,0.8685482144355774,0.0,0.0,0.0,0.0,0.0,0.0
978,1724559618511312737,-1.6342809200286865,0.26515302062034607,0.16717882454395294,0.009385383687913418,0.0040473975241184235,-0.4949798882007599,0.8688443899154663,0.0,0.0,0.0,0.0,0.0,0.0
980,1724559618521391534,-1.6340672969818115,0.2649904191493988,0.16727788746356964,0.009227056056261063,0.005302133969962597,-0.49528825283050537,0.8686636090278625,0.0,0.0,0.0,0.0,0.0,0.0
982,1724559618530684196,-1.6338646411895752,0.2648060619831085,0.16731296479701996,0.008711704984307289,0.006151467561721802,-0.4956691563129425,0.8684459924697876,0.0,0.0,0.0,0.0,0.0,0.0
984,1724559618541262648,-1.633661150932312,0.2645305395126343,0.16721981763839722,0.008405763655900955,0.005962648894637823,-0.49567532539367676,0.8684467673301697,0.0,0.0,0.0,0.0,0.0,0.0
986,1724559618550626137,-1.633449673652649,0.2642357349395752,0.16715121269226074,0.008207505568861961,0.006168163847178221,-0.49586302042007446,0.8683400750160217,0.0,0.0,0.0,0.0,0.0,0.0
988,1724559618560989962,-1.6332818269729614,0.2639337480068207,0.16690599918365479,0.0066541945561766624,0.006321839056909084,-0.49584659934043884,0.8683616518974304,0.0,0.0,0.0,0.0,0.0,0.0
990,1724559618570470618,-1.6330842971801758,0.2636009752750397,0.16674086451530457,0.0052766515873372555,0.006254055071622133,-0.49589547514915466,0.8683436512947083,0.0,0.0,0.0,0.0,0.0,0.0
992,1724559618581792739,-1.6328529119491577,0.2631678581237793,0.16655921936035156,0.004986525513231754,0.004980935715138912,-0.4955165386199951,0.8685699105262756,0.0,0.0,0.0,0.0,0.0,0.0
994,1724559618591911579,-1.632534146308899,0.2627476453781128,0.16636092960834503,0.00634034164249897,0.003181851003319025,-0.49542099237442017,0.8686240315437317,0.0,0.0,0.0,0.0,0.0,0.0
996,1724559618600480617,-1.6322169303894043,0.26239120960235596,0.16622641682624817,0.0080838268622756,0.0014462739927694201,-0.49520936608314514,0.8687349557876587,0.0,0.0,0.0,0.0,0.0,0.0
998,1724559618610661306,-1.6319621801376343,0.26206523180007935,0.16609345376491547,0.008641825057566166,0.0002554421662352979,-0.4944218695163727,0.8691790699958801,0.0,0.0,0.0,0.0,0.0,0.0
1000,1724559618620478577,-1.6315782070159912,0.2619316279888153,0.1662646383047104,0.009678875096142292,0.0013736489927396178,-0.4946804940700531,0.8690199851989746,0.0,0.0,0.0,0.0,0.0,0.0
1002,1724559618630537372,-1.6311430931091309,0.261846125125885,0.16640162467956543,0.009431401267647743,0.0023249653168022633,-0.49473807215690613,0.8689877986907959,0.0,0.0,0.0,0.0,0.0,0.0
1004,1724559618640770543,-1.6307092905044556,0.2617844045162201,0.16650964319705963,0.008884935639798641,0.00291251833550632,-0.494764506816864,0.8689767718315125,0.0,0.0,0.0,0.0,0.0,0.0
1006,1724559618651335075,-1.630265474319458,0.2616310119628906,0.16647593677043915,0.008764959871768951,0.0026562982238829136,-0.4944683909416199,0.8691473603248596,0.0,0.0,0.0,0.0,0.0,0.0
1008,1724559618661262704,-1.629720687866211,0.2615374028682709,0.1664530634880066,0.009655551984906197,0.003040560521185398,-0.4945652186870575,0.8690815567970276,0.0,0.0,0.0,0.0,0.0,0.0
1010,1724559618675993829,-1.629291296005249,0.26172196865081787,0.16655638813972473,0.00584282586351037,0.005299803335219622,-0.49503782391548157,0.8688355684280396,0.0,0.0,0.0,0.0,0.0,0.0
1012,1724559618681947106,-1.6288572549819946,0.2612400949001312,0.1658616065979004,0.0030768425203859806,0.002868094714358449,-0.4920231103897095,0.870572030544281,0.0,0.0,0.0,0.0,0.0,0.0
1014,1724559618690525129,-1.6283613443374634,0.26094090938568115,0.16561351716518402,0.0020749354735016823,0.002121735131368041,-0.49013200402259827,0.8716432452201843,0.0,0.0,0.0,0.0,0.0,0.0
1016,1724559618701384991,-1.6277740001678467,0.26057758927345276,0.16525235772132874,0.001706632669083774,0.0014964172150939703,-0.4882885813713074,0.8726792931556702,0.0,0.0,0.0,0.0,0.0,0.0
1018,1724559618713012911,-1.6270709037780762,0.260494202375412,0.1652355045080185,0.0016790154622867703,0.0014835571637377143,-0.4876243472099304,0.8730506896972656,0.0,0.0,0.0,0.0,0.0,0.0
1020,1724559618721374489,-1.6263655424118042,0.26052069664001465,0.16533240675926208,0.0018690589349716902,0.0016245160950347781,-0.48741060495376587,0.8731693625450134,0.0,0.0,0.0,0.0,0.0,0.0
1022,1724559618730981914,-1.6256589889526367,0.26096996665000916,0.16614820063114166,0.003945993259549141,0.0026724033523350954,-0.4883909821510315,0.872611939907074,0.0,0.0,0.0,0.0,0.0,0.0
1024,1724559618741781362,-1.624945044517517,0.2610897719860077,0.1663890779018402,0.004400101490318775,0.0021283410023897886,-0.48831549286842346,0.8726535439491272,0.0,0.0,0.0,0.0,0.0,0.0
1026,1724559618751480951,-1.6240880489349365,0.2611813545227051,0.1664428412914276,0.004753757733851671,0.00225595710799098,-0.48807498812675476,0.8727858066558838,0.0,0.0,0.0,0.0,0.0,0.0
1028,1724559618760731696,-1.6233453750610352,0.2610890567302704,0.1662013828754425,0.004122525453567505,0.0013139398070052266,-0.4868713915348053,0.873462975025177,0.0,0.0,0.0,0.0,0.0,0.0
1030,1724559618771102642,-1.6227751970291138,0.2609856128692627,0.16604749858379364,0.0034794204402714968,0.0006886934861540794,-0.4854889512062073,0.8742356896400452,0.0,0.0,0.0,0.0,0.0,0.0
1032,1724559618780605390,-1.6221308708190918,0.26063987612724304,0.16557306051254272,0.0034984394442290068,0.00012786008301191032,-0.4833855926990509,0.8754005432128906,0.0,0.0,0.0,0.0,0.0,0.0
1034,1724559618792311618,-1.6214896440505981,0.26072314381599426,0.1658407747745514,0.0034324945881962776,0.0003855905379168689,-0.48289620876312256,0.8756707310676575,0.0,0.0,0.0,0.0,0.0,0.0
1036,1724559618801258692,-1.620786428451538,0.2608366310596466,0.1661926507949829,0.0035672762896865606,6.338197999866679e-05,-0.48238497972488403,0.8759520053863525,0.0,0.0,0.0,0.0,0.0,0.0
1038,1724559618810558236,-1.620038390159607,0.2610306441783905,0.16660776734352112,0.004542800597846508,0.0008658620645292103,-0.48283788561820984,0.8756975531578064,0.0,0.0,0.0,0.0,0.0,0.0
1040,1724559618821002008,-1.619317889213562,0.26118817925453186,0.16682162880897522,0.005236075725406408,0.001359382993541658,-0.48310956358909607,0.8755431771278381,0.0,0.0,0.0,0.0,0.0,0.0
1042,1724559618830578079,-1.6186532974243164,0.2610551118850708,0.16630735993385315,0.0047590406611561775,0.0003620378556661308,-0.4819270670413971,0.8761983513832092,0.0,0.0,0.0,0.0,0.0,0.0
1044,1724559618840535069,-1.6179054975509644,0.26110029220581055,0.16618798673152924,0.00488799624145031,-0.0004116466152481735,-0.48149344325065613,0.8764359951019287,0.0,0.0,0.0,0.0,0.0,0.0
1046,1724559618851359387,-1.6174033880233765,0.26108211278915405,0.16600532829761505,0.003840688383206725,-0.0017488470766693354,-0.48055022954940796,0.8769571185112,0.0,0.0,0.0,0.0,0.0,0.0
1048,1724559618861548660,-1.6169806718826294,0.2611622214317322,0.16605347394943237,0.0034061805345118046,-0.0023704057093709707,-0.47933995723724365,0.8776194453239441,0.0,0.0,0.0,0.0,0.0,0.0
1050,1724559618870862277,-1.6164534091949463,0.2613730728626251,0.1663283407688141,0.003920418675988913,-0.001619704533368349,-0.47917407751083374,0.8777096271514893,0.0,0.0,0.0,0.0,0.0,0.0
1052,1724559618881119640,-1.6159552335739136,0.2615821063518524,0.1666020005941391,0.004710664041340351,-0.001317578717134893,-0.47879472374916077,0.8779132962226868,0.0,0.0,0.0,0.0,0.0,0.0
1054,1724559618893701332,-1.6154636144638062,0.2617948055267334,0.16693106293678284,0.005818104837089777,-0.0010819117305800319,-0.47886624932289124,0.8778678774833679,0.0,0.0,0.0,0.0,0.0,0.0
1056,1724559618901811841,-1.6150178909301758,0.2619926333427429,0.1671057790517807,0.006431936752051115,-0.000962336256634444,-0.4786807596683502,0.8779650330543518,0.0,0.0,0.0,0.0,0.0,0.0
1058,1724559618911159822,-1.6145703792572021,0.26226165890693665,0.16741783916950226,0.007226928602904081,-0.0003974406572524458,-0.47903913259506226,0.8777637481689453,0.0,0.0,0.0,0.0,0.0,0.0
1060,1724559618921730262,-1.6141718626022339,0.2623843550682068,0.16733966767787933,0.006692121736705303,-0.0005836603231728077,-0.4785101115703583,0.8780563473701477,0.0,0.0,0.0,0.0,0.0,0.0
1062,1724559618931097791,-1.6137722730636597,0.26249369978904724,0.16724811494350433,0.006247540004551411,-0.0005866056308150291,-0.47804951667785645,0.8783104419708252,0.0,0.0,0.0,0.0,0.0,0.0
1064,1724559618941508972,-1.6134264469146729,0.2625593841075897,0.16706982254981995,0.0055630807764828205,-0.0010609915480017662,-0.4772847890853882,0.8787303566932678,0.0,0.0,0.0,0.0,0.0,0.0
1066,1724559618951901055,-1.613059639930725,0.262654185295105,0.16704300045967102,0.005428513512015343,-0.0011371021391823888,-0.4768097698688507,0.878989040851593,0.0,0.0,0.0,0.0,0.0,0.0
1068,1724559618960450472,-1.6126410961151123,0.26276662945747375,0.16703495383262634,0.005653636064380407,-0.001125818002037704,-0.47673797607421875,0.8790265321731567,0.0,0.0,0.0,0.0,0.0,0.0
1070,1724559618971720210,-1.6122472286224365,0.262845516204834,0.1670406609773636,0.005993340630084276,-0.0016015939181670547,-0.47614195942878723,0.8793465495109558,0.0,0.0,0.0,0.0,0.0,0.0
1072,1724559618980502544,-1.6119500398635864,0.262966513633728,0.16722549498081207,0.005602368153631687,-0.0017087847227230668,-0.47578758001327515,0.8795408010482788,0.0,0.0,0.0,0.0,0.0,0.0
1074,1724559618991995378,-1.6115480661392212,0.26316511631011963,0.16764378547668457,0.006313576363027096,-0.00039818199002183974,-0.4762750566005707,0.8792735934257507,0.0,0.0,0.0,0.0,0.0,0.0
1076,1724559619001162180,-1.6112017631530762,0.26314598321914673,0.16739153861999512,0.0056872195564210415,-0.0002288948599016294,-0.4752540588378906,0.8798301815986633,0.0,0.0,0.0,0.0,0.0,0.0
1078,1724559619012970291,-1.6108496189117432,0.26317957043647766,0.16744178533554077,0.005463449750095606,0.0004161311953794211,-0.47542330622673035,0.8797401189804077,0.0,0.0,0.0,0.0,0.0,0.0
1080,1724559619022462631,-1.6104965209960938,0.26331186294555664,0.16765247285366058,0.005298422649502754,0.001120557077229023,-0.4759211242198944,0.8794713616371155,0.0,0.0,0.0,0.0,0.0,0.0
1082,1724559619030459534,-1.6101752519607544,0.26329368352890015,0.16762006282806396,0.00476824538782239,0.0008303552167490125,-0.475754052400589,0.8795650601387024,0.0,0.0,0.0,0.0,0.0,0.0
1084,1724559619041176846,-1.6098697185516357,0.26329901814460754,0.16762568056583405,0.004898145329207182,0.000842313573230058,-0.47557368874549866,0.8796619176864624,0.0,0.0,0.0,0.0,0.0,0.0
1086,1724559619051582224,-1.6095751523971558,0.26332899928092957,0.1676752269268036,0.004799420479685068,0.0010436091106384993,-0.47558730840682983,0.8796547651290894,0.0,0.0,0.0,0.0,0.0,0.0
1088,1724559619060417312,-1.6092537641525269,0.263396292924881,0.16787633299827576,0.005525066517293453,0.0016921208007261157,-0.475770503282547,0.8795504570007324,0.0,0.0,0.0,0.0,0.0,0.0
1090,1724559619070967972,-1.6089626550674438,0.2633419632911682,0.16795626282691956,0.0058298190124332905,0.0016033693682402372,-0.4755384922027588,0.8796741366386414,0.0,0.0,0.0,0.0,0.0,0.0
1092,1724559619108725085,-1.608686089515686,0.2632201611995697,0.16793258488178253,0.005491973832249641,0.001412812969647348,-0.4751891493797302,0.8798654079437256,0.0,0.0,0.0,0.0,0.0,0.0
1094,1724559619109165697,-1.6084082126617432,0.26292359828948975,0.1677551567554474,0.004935971461236477,0.001113438862375915,-0.4744836091995239,0.8802497982978821,0.0,0.0,0.0,0.0,0.0,0.0
1096,1724559619109510183,-1.6081397533416748,0.2626350522041321,0.16769438982009888,0.004469656851142645,0.0005280881887301803,-0.4741031229496002,0.880457878112793,0.0,0.0,0.0,0.0,0.0,0.0
1098,1724559619110850967,-1.6078680753707886,0.26242002844810486,0.16773676872253418,0.003998043015599251,0.000525649928022176,-0.4740334749221802,0.8804975748062134,0.0,0.0,0.0,0.0,0.0,0.0
1100,1724559619127069892,-1.607594609260559,0.26219865679740906,0.16779333353042603,0.003611937165260315,0.0003253296890761703,-0.4738626480102539,0.8805913329124451,0.0,0.0,0.0,0.0,0.0,0.0
1102,1724559619146279489,-1.6072027683258057,0.2620193362236023,0.16796386241912842,0.003481105901300907,0.0010306179756298661,-0.4749266505241394,0.8800179362297058,0.0,0.0,0.0,0.0,0.0,0.0
1104,1724559619146582369,-1.6068665981292725,0.26178237795829773,0.16826322674751282,0.0028657412622123957,0.0013923506485298276,-0.47590556740760803,0.8794906139373779,0.0,0.0,0.0,0.0,0.0,0.0
1106,1724559619337763372,-1.6064932346343994,0.2616051137447357,0.16867709159851074,0.0032247547060251236,0.0026742294430732727,-0.4770665466785431,0.8788571953773499,0.0,0.0,0.0,0.0,0.0,0.0
1108,1724559619338179399,-1.6062054634094238,0.2613140940666199,0.16932013630867004,0.0035546855069696903,0.002650622744113207,-0.47828465700149536,0.878193736076355,0.0,0.0,0.0,0.0,0.0,0.0
1110,1724559619338563473,-1.6057636737823486,0.26087719202041626,0.16944359242916107,0.003791235154494643,0.0033454832155257463,-0.47851869463920593,0.8780627846717834,0.0,0.0,0.0,0.0,0.0,0.0
1112,1724559619338950975,-1.6053016185760498,0.2604074478149414,0.1694537103176117,0.004333743825554848,0.003701960202306509,-0.4785365164279938,0.8780491948127747,0.0,0.0,0.0,0.0,0.0,0.0
1114,1724559619339329759,-1.6048579216003418,0.25980910658836365,0.16916252672672272,0.0037931923288851976,0.003280515316873789,-0.4779660403728485,0.8783639669418335,0.0,0.0,0.0,0.0,0.0,0.0
1116,1724559619339707691,-1.6044042110443115,0.2592337727546692,0.16909725964069366,0.002939583733677864,0.0028595239855349064,-0.4780314266681671,0.8783331513404846,0.0,0.0,0.0,0.0,0.0,0.0
1118,1724559619340086116,-1.6038683652877808,0.25863611698150635,0.16914838552474976,0.0026778976898640394,0.002772062085568905,-0.47821861505508423,0.8782324194908142,0.0,0.0,0.0,0.0,0.0,0.0
1120,1724559619340465084,-1.6032816171646118,0.2580605745315552,0.16925130784511566,0.00273154373280704,0.0030714247841387987,-0.4785917401313782,0.8780279755592346,0.0,0.0,0.0,0.0,0.0,0.0
1122,1724559619341027622,-1.6027153730392456,0.2572803497314453,0.16858667135238647,0.0014427505666390061,0.0024441243149340153,-0.477187842130661,0.8787968158721924,0.0,0.0,0.0,0.0,0.0,0.0
1124,1724559619341715076,-1.602015495300293,0.25673776865005493,0.16841565072536469,0.0006488180952146649,0.0020771767012774944,-0.4773891270160675,0.8786893486976624,0.0,0.0,0.0,0.0,0.0,0.0
1126,1724559619342150277,-1.6013184785842896,0.2561967968940735,0.16857320070266724,0.0003492144460324198,0.002614533295854926,-0.47839677333831787,0.8781397938728333,0.0,0.0,0.0,0.0,0.0,0.0
1128,1724559619342558624,-1.6006911993026733,0.2555192708969116,0.1685076504945755,-0.0010047655086964369,0.0020650627557188272,-0.47832703590393066,0.8781788349151611,0.0,0.0,0.0,0.0,0.0,0.0
1130,1724559619343227435,-1.5999521017074585,0.25489166378974915,0.1683923602104187,-0.0006529628299176693,0.0014142573345452547,-0.4777635931968689,0.8784870505332947,0.0,0.0,0.0,0.0,0.0,0.0
1132,1724559619343651435,-1.599186897277832,0.25457608699798584,0.16868743300437927,-0.00022464249923359603,0.001596583635546267,-0.4782243072986603,0.8782362341880798,0.0,0.0,0.0,0.0,0.0,0.0
1134,1724559619344075812,-1.5982722043991089,0.2541886866092682,0.16892509162425995,0.0001282302982872352,0.002419333206489682,-0.47952213883399963,0.8775264620780945,0.0,0.0,0.0,0.0,0.0,0.0
1136,1724559619344501882,-1.5974832773208618,0.2538623511791229,0.16954247653484344,-0.00071383873000741,0.001959226094186306,-0.48044276237487793,0.8770236372947693,0.0,0.0,0.0,0.0,0.0,0.0
1138,1724559619345025471,-1.5965664386749268,0.253423273563385,0.1698358803987503,0.0008975723758339882,0.003325514495372772,-0.48021388053894043,0.8771446943283081,0.0,0.0,0.0,0.0,0.0,0.0
1140,1724559619346001571,-1.595552921295166,0.2529822587966919,0.1699981838464737,0.001999270636588335,0.004598229192197323,-0.47994759678840637,0.8772827982902527,0.0,0.0,0.0,0.0,0.0,0.0
1142,1724559619346559040,-1.5946847200393677,0.252279669046402,0.16936947405338287,-0.0005043272394686937,0.0020320217590779066,-0.4771858751773834,0.8787999153137207,0.0,0.0,0.0,0.0,0.0,0.0
1144,1724559619347004584,-1.5936155319213867,0.25158002972602844,0.1688292771577835,-0.0012636694591492414,0.0010869299294427037,-0.4752057194709778,0.8798732161521912,0.0,0.0,0.0,0.0,0.0,0.0
1146,1724559619351505587,-1.5926525592803955,0.25131258368492126,0.16907602548599243,-0.004161837510764599,0.002542568137869239,-0.47604021430015564,0.8794099688529968,0.0,0.0,0.0,0.0,0.0,0.0
1148,1724559619360557501,-1.5916316509246826,0.2510383427143097,0.16926605999469757,-0.005733662750571966,0.0024903258308768272,-0.47585809230804443,0.8794998526573181,0.0,0.0,0.0,0.0,0.0,0.0
1150,1724559619370823023,-1.590378999710083,0.25087854266166687,0.1693595051765442,-0.00493635842576623,0.003167823888361454,-0.47538790106773376,0.8797567486763,0.0,0.0,0.0,0.0,0.0,0.0
1152,1724559619380427597,-1.589240550994873,0.25062769651412964,0.16944266855716705,-0.00544035853818059,0.0035793425049632788,-0.47524428367614746,0.8798298239707947,0.0,0.0,0.0,0.0,0.0,0.0
1154,1724559619391630782,-1.5878831148147583,0.2504146099090576,0.16947394609451294,-0.0049074371345341206,0.0035895556211471558,-0.4748288691043854,0.880057156085968,0.0,0.0,0.0,0.0,0.0,0.0
1156,1724559619401093723,-1.5866777896881104,0.2502908408641815,0.16957661509513855,-0.0047724805772304535,0.00301380455493927,-0.4742114543914795,0.8803929090499878,0.0,0.0,0.0,0.0,0.0,0.0
1158,1724559619411887481,-1.5852627754211426,0.250216543674469,0.16985982656478882,-0.003251137677580118,0.0029857689514756203,-0.4753177762031555,0.8798031806945801,0.0,0.0,0.0,0.0,0.0,0.0
1160,1724559619420966816,-1.5840321779251099,0.25015050172805786,0.1701166033744812,-0.0023385214153677225,0.0023277071304619312,-0.4752528667449951,0.8798431158065796,0.0,0.0,0.0,0.0,0.0,0.0
1162,1724559619430808227,-1.5827405452728271,0.24994714558124542,0.17021684348583221,-0.0021999450400471687,0.002694922499358654,-0.4754752516746521,0.8797222375869751,0.0,0.0,0.0,0.0,0.0,0.0
1164,1724559619440743071,-1.5814096927642822,0.2500074505805969,0.1708311140537262,-0.0009493224788457155,0.004360573831945658,-0.4766424298286438,0.8790860176086426,0.0,0.0,0.0,0.0,0.0,0.0
1166,1724559619453254009,-1.580075740814209,0.249887153506279,0.17093203961849213,-0.0014643544564023614,0.004802433308213949,-0.47685644030570984,0.8789668083190918,0.0,0.0,0.0,0.0,0.0,0.0
1168,1724559619461276444,-1.5787140130996704,0.2496679574251175,0.1707664430141449,-0.0019988466519862413,0.0031284322030842304,-0.47564736008644104,0.8796282410621643,0.0,0.0,0.0,0.0,0.0,0.0
1170,1724559619474709673,-1.5773468017578125,0.2494952529668808,0.1706530749797821,-0.0019700261764228344,0.0030628619715571404,-0.4748300015926361,0.8800699710845947,0.0,0.0,0.0,0.0,0.0,0.0
1172,1724559619482370652,-1.5759037733078003,0.2494567334651947,0.1709263026714325,-0.0024214053992182016,0.003842101665213704,-0.4757591485977173,0.8795638680458069,0.0,0.0,0.0,0.0,0.0,0.0
1174,1724559619491276603,-1.5745692253112793,0.2491929531097412,0.17111420631408691,-0.002814625157043338,0.0026368044782429934,-0.4750075340270996,0.8799734115600586,0.0,0.0,0.0,0.0,0.0,0.0
1176,1724559619506501344,-1.5730918645858765,0.24909988045692444,0.17153438925743103,-0.0017827650299295783,0.004708634223788977,-0.4767105281352997,0.8790460228919983,0.0,0.0,0.0,0.0,0.0,0.0
1178,1724559619510471445,-1.571665644645691,0.24915678799152374,0.1719953864812851,-0.0018273727037012577,0.004351097624748945,-0.47673991322517395,0.879031777381897,0.0,0.0,0.0,0.0,0.0,0.0
1180,1724559619521046792,-1.5702134370803833,0.24915622174739838,0.17247337102890015,-0.0019193365005776286,0.004640108905732632,-0.4769400358200073,0.8789215087890625,0.0,0.0,0.0,0.0,0.0,0.0
1182,1724559619532427905,-1.5687843561172485,0.2489432543516159,0.17256179451942444,-0.0014982563443481922,0.004625960253179073,-0.47635477781295776,0.8792396783828735,0.0,0.0,0.0,0.0,0.0,0.0
1184,1724559619544243609,-1.567265272140503,0.24858859181404114,0.17242561280727386,-0.0019107403932139277,0.004230403807014227,-0.47539445757865906,0.8797605037689209,0.0,0.0,0.0,0.0,0.0,0.0
1186,1724559619551600263,-1.565688133239746,0.24854989349842072,0.1726693958044052,-0.0018550705863162875,0.003822511062026024,-0.47562694549560547,0.879636824131012,0.0,0.0,0.0,0.0,0.0,0.0
1188,1724559619561105811,-1.5642260313034058,0.2483663409948349,0.17294807732105255,-0.0030949029605835676,0.004148160573095083,-0.47581249475479126,0.8795315027236938,0.0,0.0,0.0,0.0,0.0,0.0
1190,1724559619570847966,-1.5627511739730835,0.24837136268615723,0.17326077818870544,-0.002915087388828397,0.004304383881390095,-0.4757762849330902,0.8795509338378906,0.0,0.0,0.0,0.0,0.0,0.0
1192,1724559619581028878,-1.5610613822937012,0.24829086661338806,0.17359481751918793,-0.0033231882844120264,0.0051465826109051704,-0.4768982231616974,0.8789371848106384,0.0,0.0,0.0,0.0,0.0,0.0
1194,1724559619590446070,-1.559765100479126,0.24809964001178741,0.17380668222904205,-0.004895304329693317,0.003639731789007783,-0.47647491097450256,0.8791669011116028,0.0,0.0,0.0,0.0,0.0,0.0
1196,1724559619601110215,-1.558232069015503,0.247998908162117,0.1742105334997177,-0.006569739896804094,0.004878088366240263,-0.47725430130958557,0.87872713804245,0.0,0.0,0.0,0.0,0.0,0.0
1198,1724559619610615486,-1.556414008140564,0.24788834154605865,0.17462219297885895,-0.005618024617433548,0.005351655650883913,-0.47828635573387146,0.8781697154045105,0.0,0.0,0.0,0.0,0.0,0.0
1200,1724559619623252016,-1.5549787282943726,0.24770422279834747,0.17476631700992584,-0.006411885377019644,0.005066617392003536,-0.4785274863243103,0.8780345916748047,0.0,0.0,0.0,0.0,0.0,0.0
1202,1724559619630599104,-1.5534824132919312,0.24755550920963287,0.17511245608329773,-0.007736322470009327,0.005171868484467268,-0.47922635078430176,0.8776420950889587,0.0,0.0,0.0,0.0,0.0,0.0
1204,1724559619640564976,-1.5519205331802368,0.2473931908607483,0.1755104660987854,-0.007623147219419479,0.004503321368247271,-0.47960880398750305,0.8774377107620239,0.0,0.0,0.0,0.0,0.0,0.0
1206,1724559619678908391,-1.5503356456756592,0.247342050075531,0.17572225630283356,-0.007636120077222586,0.004550789017230272,-0.48009419441223145,0.8771718740463257,0.0,0.0,0.0,0.0,0.0,0.0
1208,1724559619679340421,-1.5487244129180908,0.24729517102241516,0.17628635466098785,-0.008318719454109669,0.005340110510587692,-0.48220452666282654,0.876002848148346,0.0,0.0,0.0,0.0,0.0,0.0
1210,1724559619679726428,-1.5470367670059204,0.24718500673770905,0.17626552283763885,-0.008341643959283829,0.004559819586575031,-0.48176923394203186,0.8762465715408325,0.0,0.0,0.0,0.0,0.0,0.0
1212,1724559619680251913,-1.545274019241333,0.24720817804336548,0.17639274895191193,-0.007235128432512283,0.004802496638149023,-0.48313164710998535,0.875504732131958,0.0,0.0,0.0,0.0,0.0,0.0
1214,1724559619690404386,-1.543683409690857,0.24728195369243622,0.17655324935913086,-0.007751902099698782,0.004133772104978561,-0.48409637808799744,0.874970555305481,0.0,0.0,0.0,0.0,0.0,0.0
1216,1724559619700988979,-1.5421018600463867,0.24723407626152039,0.17679446935653687,-0.008416805416345596,0.003039415692910552,-0.48440107703208923,0.8748003244400024,0.0,0.0,0.0,0.0,0.0,0.0
1218,1724559619713712911,-1.540358066558838,0.247198686003685,0.1770678609609604,-0.007879111915826797,0.0033340260852128267,-0.48523104190826416,0.8743441104888916,0.0,0.0,0.0,0.0,0.0,0.0
1220,1724559619721828185,-1.5386656522750854,0.24719102680683136,0.17742572724819183,-0.008504316210746765,0.0036686735693365335,-0.48614922165870667,0.8738267421722412,0.0,0.0,0.0,0.0,0.0,0.0
1222,1724559619730348645,-1.5368379354476929,0.2470134049654007,0.17759504914283752,-0.007744199596345425,0.00321424868889153,-0.4864150881767273,0.8736876249313354,0.0,0.0,0.0,0.0,0.0,0.0
1224,1724559619741580711,-1.5350077152252197,0.24696701765060425,0.17770381271839142,-0.006831672508269548,0.0032311275135725737,-0.48652535676956177,0.8736338019371033,0.0,0.0,0.0,0.0,0.0,0.0
1226,1724559619751063732,-1.5334724187850952,0.2468174397945404,0.17800113558769226,-0.00816315971314907,0.003265643259510398,-0.48683008551597595,0.8734524250030518,0.0,0.0,0.0,0.0,0.0,0.0
1228,1724559619760523589,-1.531744122505188,0.24666932225227356,0.17855702340602875,-0.008000768721103668,0.004860214423388243,-0.4884805977344513,0.8725245594978333,0.0,0.0,0.0,0.0,0.0,0.0
1230,1724559619771484255,-1.5299097299575806,0.24660761654376984,0.17899161577224731,-0.007347114384174347,0.006824917625635862,-0.4897773265838623,0.8717898726463318,0.0,0.0,0.0,0.0,0.0,0.0
1232,1724559619780654322,-1.5284266471862793,0.24617113173007965,0.17876821756362915,-0.00878881011158228,0.005062249954789877,-0.4881623685359955,0.8726938962936401,0.0,0.0,0.0,0.0,0.0,0.0
1234,1724559619791191940,-1.5267223119735718,0.24593961238861084,0.17891287803649902,-0.010530373081564903,0.0070511712692677975,-0.4889287054538727,0.8722317218780518,0.0,0.0,0.0,0.0,0.0,0.0
1236,1724559619800686991,-1.5250468254089355,0.24584916234016418,0.17943213880062103,-0.010496742092072964,0.007482792716473341,-0.4891963303089142,0.8720784187316895,0.0,0.0,0.0,0.0,0.0,0.0
1238,1724559619811633018,-1.523383378982544,0.24570780992507935,0.17988280951976776,-0.012121845968067646,0.008572530932724476,-0.4903128445148468,0.8714200258255005,0.0,0.0,0.0,0.0,0.0,0.0
1240,1724559619821332924,-1.521724820137024,0.2453625500202179,0.17978450655937195,-0.014108415693044662,0.008331294171512127,-0.49003204703330994,0.8715505003929138,0.0,0.0,0.0,0.0,0.0,0.0
1242,1724559619830805581,-1.520076870918274,0.24510520696640015,0.1798313856124878,-0.013964137062430382,0.009144235402345657,-0.4900808334350586,0.8715171813964844,0.0,0.0,0.0,0.0,0.0,0.0
1244,1724559619841087496,-1.5185765027999878,0.24492722749710083,0.18008336424827576,-0.014677208848297596,0.00983678363263607,-0.49109408259391785,0.8709272742271423,0.0,0.0,0.0,0.0,0.0,0.0
1246,1724559619850800604,-1.5169942378997803,0.24471935629844666,0.18038378655910492,-0.015320273116230965,0.009807433933019638,-0.492042601108551,0.8703810572624207,0.0,0.0,0.0,0.0,0.0,0.0
1248,1724559619861474254,-1.5153000354766846,0.2444010078907013,0.18040040135383606,-0.014563972130417824,0.010749837383627892,-0.4930407404899597,0.869817852973938,0.0,0.0,0.0,0.0,0.0,0.0
1250,1724559619872952918,-1.513779640197754,0.24415278434753418,0.18041904270648956,-0.014802247285842896,0.01065736636519432,-0.49321576952934265,0.8697158098220825,0.0,0.0,0.0,0.0,0.0,0.0
1252,1724559619880366373,-1.5123836994171143,0.2438012808561325,0.1804516464471817,-0.015538462437689304,0.010288741439580917,-0.49357494711875916,0.8695035576820374,0.0,0.0,0.0,0.0,0.0,0.0
1254,1724559619890809452,-1.5108582973480225,0.24346181750297546,0.1808217167854309,-0.014741111546754837,0.011894005350768566,-0.49594542384147644,0.868147075176239,0.0,0.0,0.0,0.0,0.0,0.0
1256,1724559619910353462,-1.5094163417816162,0.24295751750469208,0.18059073388576508,-0.014860894531011581,0.012171865440905094,-0.49578261375427246,0.8682342171669006,0.0,0.0,0.0,0.0,0.0,0.0
1258,1724559619926330704,-1.5066709518432617,0.24227561056613922,0.18043279647827148,-0.015281827189028263,0.01330256462097168,-0.4965379536151886,0.8677785992622375,0.0,0.0,0.0,0.0,0.0,0.0
1260,1724559619931181953,-1.505323886871338,0.24196717143058777,0.180665522813797,-0.016166815534234047,0.014844976365566254,-0.49893081188201904,0.8663638830184937,0.0,0.0,0.0,0.0,0.0,0.0
1262,1724559619946120936,-1.5039961338043213,0.24146431684494019,0.18047112226486206,-0.01671569049358368,0.014316286891698837,-0.4994986355304718,0.8660351037979126,0.0,0.0,0.0,0.0,0.0,0.0
1264,1724559619954095749,-1.5026732683181763,0.2409268319606781,0.18013586103916168,-0.016695847734808922,0.014160972088575363,-0.5000057220458984,0.8657454252243042,0.0,0.0,0.0,0.0,0.0,0.0
1266,1724559619960370099,-1.5013980865478516,0.24056045711040497,0.18001115322113037,-0.015958242118358612,0.014833567664027214,-0.5010611414909363,0.86513751745224,0.0,0.0,0.0,0.0,0.0,0.0
1268,1724559619977931453,-1.5002096891403198,0.24010348320007324,0.17985805869102478,-0.01607307232916355,0.014074273407459259,-0.5010301470756531,0.8651660680770874,0.0,0.0,0.0,0.0,0.0,0.0
1270,1724559619980736452,-1.4989477396011353,0.23956243693828583,0.1796705275774002,-0.016998691484332085,0.01470568310469389,-0.5019106268882751,0.8646273612976074,0.0,0.0,0.0,0.0,0.0,0.0
1272,1724559619990634838,-1.4976959228515625,0.23914599418640137,0.17949636280536652,-0.017620515078306198,0.014808574691414833,-0.5023751258850098,0.8643433451652527,0.0,0.0,0.0,0.0,0.0,0.0
1274,1724559620002098668,-1.4965441226959229,0.23875156044960022,0.17937634885311127,-0.018011633306741714,0.014134773053228855,-0.5026100873947144,0.8642100095748901,0.0,0.0,0.0,0.0,0.0,0.0
1276,1724559620010379184,-1.4953323602676392,0.23837727308273315,0.1792018711566925,-0.017815887928009033,0.01479526050388813,-0.5032005310058594,0.8638593554496765,0.0,0.0,0.0,0.0,0.0,0.0
1278,1724559620020863109,-1.4940202236175537,0.23802095651626587,0.17913192510604858,-0.017682978883385658,0.015043286606669426,-0.5035101175308228,0.8636773824691772,0.0,0.0,0.0,0.0,0.0,0.0
1280,1724559620030580326,-1.492814540863037,0.23772987723350525,0.178961381316185,-0.01615900918841362,0.014661053195595741,-0.502945601940155,0.8640426397323608,0.0,0.0,0.0,0.0,0.0,0.0
