seq,stamp,px,py,pz,ox,oy,oz,ow,lx,ly,lz,ax,ay,az
20,1724820559625520846,-1.508756399154663,0.25161322951316833,0.12772879004478455,0.014823236502707005,0.05092740058898926,0.39891207218170166,-0.9154539108276367,0.0,0.0,0.0,0.0,0.0,0.0
22,1724820559635543342,-1.5087037086486816,0.25117963552474976,0.12741263210773468,0.015142166055738926,0.05216702073812485,0.3986835777759552,-0.9154783487319946,0.0,0.0,0.0,0.0,0.0,0.0
24,1724820559646150492,-1.50856614112854,0.25079455971717834,0.12728627026081085,0.014683734625577927,0.052359092980623245,0.3988381624221802,-0.915407657623291,0.0,0.0,0.0,0.0,0.0,0.0
26,1724820559655461722,-1.5084552764892578,0.25041377544403076,0.1272066980600357,0.014752576127648354,0.05233519896864891,0.39857375621795654,-0.9155230522155762,0.0,0.0,0.0,0.0,0.0,0.0
28,1724820559665902739,-1.5083744525909424,0.2499820441007614,0.12710025906562805,0.015498552471399307,0.05212637409567833,0.398804247379303,-0.9154222011566162,0.0,0.0,0.0,0.0,0.0,0.0
30,1724820559675525025,-1.5082882642745972,0.2496301680803299,0.12707558274269104,0.01602909155189991,0.05158687382936478,0.39931154251098633,-0.9152224659919739,0.0,0.0,0.0,0.0,0.0,0.0
32,1724820559685415299,-1.5081919431686401,0.2493038773536682,0.1270313411951065,0.016597650945186615,0.05146300420165062,0.3991428315639496,-0.9152929782867432,0.0,0.0,0.0,0.0,0.0,0.0
34,1724820559695635304,-1.5080503225326538,0.2489670366048813,0.1270570009946823,0.01615920662879944,0.0516749732196331,0.39951032400131226,-0.9151285290718079,0.0,0.0,0.0,0.0,0.0,0.0
36,1724820559705371927,-1.5079281330108643,0.24865782260894775,0.12707959115505219,0.01622338593006134,0.05157895386219025,0.3997360169887543,-0.9150341749191284,0.0,0.0,0.0,0.0,0.0,0.0
38,1724820559716946564,-1.5078349113464355,0.24839583039283752,0.12712743878364563,0.016905300319194794,0.05151701718568802,0.4001550078392029,-0.9148421883583069,0.0,0.0,0.0,0.0,0.0,0.0
40,1724820559725565510,-1.5076146125793457,0.2480861246585846,0.1271752268075943,0.01572364568710327,0.05161738395690918,0.4007687270641327,-0.9145889282226562,0.0,0.0,0.0,0.0,0.0,0.0
42,1724820559737011548,-1.5074485540390015,0.2477915734052658,0.12723073363304138,0.016243014484643936,0.05182437598705292,0.4009976089000702,-0.9144678115844727,0.0,0.0,0.0,0.0,0.0,0.0
44,1724820559745407933,-1.5072550773620605,0.24746914207935333,0.1272335648536682,0.015845658257603645,0.05200257897377014,0.4013082981109619,-0.9143283367156982,0.0,0.0,0.0,0.0,0.0,0.0
46,1724820559762357081,-1.5070878267288208,0.24718280136585236,0.1272871494293213,0.015568610280752182,0.052602555602788925,0.4016273319721222,-0.9141587018966675,0.0,0.0,0.0,0.0,0.0,0.0
48,1724820559765603186,-1.5069173574447632,0.24691131711006165,0.12728551030158997,0.016294198110699654,0.05260307714343071,0.4017992913722992,-0.9140704274177551,0.0,0.0,0.0,0.0,0.0,0.0
50,1724820559775740064,-1.5067238807678223,0.2466474026441574,0.1273210048675537,0.01613793522119522,0.052697595208883286,0.40221142768859863,-0.9138864874839783,0.0,0.0,0.0,0.0,0.0,0.0
52,1724820559787797233,-1.5065863132476807,0.24638469517230988,0.12730786204338074,0.016884908080101013,0.05250890180468559,0.40233907103538513,-0.913827657699585,0.0,0.0,0.0,0.0,0.0,0.0
54,1724820559795555073,-1.5063226222991943,0.24612337350845337,0.12737183272838593,0.01572321727871895,0.052382174879312515,0.4032163619995117,-0.9134689569473267,0.0,0.0,0.0,0.0,0.0,0.0
56,1724820559805556110,-1.5061932802200317,0.24593715369701385,0.1274620145559311,0.015832841396331787,0.0518195815384388,0.40344780683517456,-0.9133968949317932,0.0,0.0,0.0,0.0,0.0,0.0
58,1724820559815968966,-1.5060691833496094,0.24572230875492096,0.1275247484445572,0.015319746918976307,0.05146656557917595,0.4036582112312317,-0.9133326411247253,0.0,0.0,0.0,0.0,0.0,0.0
60,1724820559825510574,-1.5059797763824463,0.2455386221408844,0.12763293087482452,0.015661435201764107,0.05073875933885574,0.4037187993526459,-0.9133408069610596,0.0,0.0,0.0,0.0,0.0,0.0
62,1724820559841428916,-1.505861520767212,0.24534310400485992,0.12771330773830414,0.015057356096804142,0.050104737281799316,0.4037240147590637,-0.9133836627006531,0.0,0.0,0.0,0.0,0.0,0.0
64,1724820559845577944,-1.5057915449142456,0.2451673001050949,0.12778347730636597,0.01513486634939909,0.049263861030340195,0.4038722515106201,-0.9133626222610474,0.0,0.0,0.0,0.0,0.0,0.0
66,1724820559856158399,-1.505509853363037,0.24497222900390625,0.1279471218585968,0.014098433777689934,0.048207998275756836,0.4044950008392334,-0.9131599068641663,0.0,0.0,0.0,0.0,0.0,0.0
68,1724820559867729473,-1.5053142309188843,0.2448888123035431,0.12811002135276794,0.014047468081116676,0.047116346657276154,0.4047963321208954,-0.9130841493606567,0.0,0.0,0.0,0.0,0.0,0.0
70,1724820559876919247,-1.505115270614624,0.24480389058589935,0.12824071943759918,0.013728856109082699,0.046097323298454285,0.4051446318626404,-0.9129865169525146,0.0,0.0,0.0,0.0,0.0,0.0
72,1724820559887399376,-1.5049481391906738,0.24468740820884705,0.12829115986824036,0.01332145743072033,0.04549603536725044,0.405110627412796,-0.9130378365516663,0.0,0.0,0.0,0.0,0.0,0.0
74,1724820559896657871,-1.504773736000061,0.24454453587532043,0.12839536368846893,0.012903409078717232,0.044638123363256454,0.40496575832366943,-0.913150429725647,0.0,0.0,0.0,0.0,0.0,0.0
76,1724820559906184505,-1.5045450925827026,0.24452994763851166,0.12862126529216766,0.011891872622072697,0.04237153008580208,0.4056476354598999,-0.9129694700241089,0.0,0.0,0.0,0.0,0.0,0.0
78,1724820559916862083,-1.5044087171554565,0.24434584379196167,0.1286909580230713,0.011767968535423279,0.0416540652513504,0.40549761056900024,-0.9130707383155823,0.0,0.0,0.0,0.0,0.0,0.0
80,1724820559928470586,-1.5042632818222046,0.2441626340150833,0.12877851724624634,0.011375730857253075,0.04116612300276756,0.4055052101612091,-0.9130944609642029,0.0,0.0,0.0,0.0,0.0,0.0
82,1724820559937468285,-1.504186749458313,0.2438480108976364,0.12870992720127106,0.01188510749489069,0.04143436253070831,0.4044678211212158,-0.9135358929634094,0.0,0.0,0.0,0.0,0.0,0.0
84,1724820559945820188,-1.5040345191955566,0.2436162829399109,0.12875187397003174,0.011887246742844582,0.04081743210554123,0.40442001819610596,-0.91358482837677,0.0,0.0,0.0,0.0,0.0,0.0
86,1724820559955517616,-1.5037921667099,0.24343807995319366,0.12885263562202454,0.011204422451555729,0.04031982272863388,0.4046722650527954,-0.9135037660598755,0.0,0.0,0.0,0.0,0.0,0.0
88,1724820559965639017,-1.5035758018493652,0.24329949915409088,0.12904351949691772,0.010805276222527027,0.039340127259492874,0.405010849237442,-0.9134013056755066,0.0,0.0,0.0,0.0,0.0,0.0
90,1724820559977443081,-1.5033512115478516,0.24307149648666382,0.12912197411060333,0.01051449216902256,0.03834544122219086,0.40516191720962524,-0.9133799076080322,0.0,0.0,0.0,0.0,0.0,0.0
92,1724820559987176775,-1.5031218528747559,0.24281416833400726,0.1292683482170105,0.010246425867080688,0.03745488449931145,0.4055602252483368,-0.9132431745529175,0.0,0.0,0.0,0.0,0.0,0.0
94,1724820559995719865,-1.5028953552246094,0.24256233870983124,0.12938910722732544,0.01038424763828516,0.03647632524371147,0.4058780372142792,-0.9131399989128113,0.0,0.0,0.0,0.0,0.0,0.0
96,1724820560006399495,-1.5026453733444214,0.24220995604991913,0.1295614093542099,0.00989685021340847,0.03589311242103577,0.4062286615371704,-0.9130125641822815,0.0,0.0,0.0,0.0,0.0,0.0
98,1724820560015792376,-1.502419114112854,0.24179807305335999,0.1295955926179886,0.009350797161459923,0.03573537990450859,0.40625280141830444,-0.9130138754844666,0.0,0.0,0.0,0.0,0.0,0.0
100,1724820560026195404,-1.5021755695343018,0.24131175875663757,0.1296061873435974,0.009152831509709358,0.035928353667259216,0.40593549609184265,-0.913149356842041,0.0,0.0,0.0,0.0,0.0,0.0
102,1724820560038084747,-1.501916766166687,0.24088475108146667,0.12970514595508575,0.008747627027332783,0.035231366753578186,0.4060900807380676,-0.9131117463111877,0.0,0.0,0.0,0.0,0.0,0.0
104,1724820560045798974,-1.5016233921051025,0.24049822986125946,0.12984520196914673,0.008504891768097878,0.03469853475689888,0.4064631462097168,-0.9129684567451477,0.0,0.0,0.0,0.0,0.0,0.0
106,1724820560056360092,-1.5013079643249512,0.24009382724761963,0.12997417151927948,0.008166071027517319,0.033866338431835175,0.4068446159362793,-0.9128328561782837,0.0,0.0,0.0,0.0,0.0,0.0
108,1724820560066322462,-1.5009280443191528,0.23968331515789032,0.13007861375808716,0.007157470099627972,0.033042434602975845,0.4072376787662506,-0.9126963019371033,0.0,0.0,0.0,0.0,0.0,0.0
110,1724820560075528794,-1.5005571842193604,0.23928305506706238,0.1301904022693634,0.006733119487762451,0.03262541815638542,0.4076308310031891,-0.9125389456748962,0.0,0.0,0.0,0.0,0.0,0.0
112,1724820560090937687,-1.5003957748413086,0.23862552642822266,0.13014335930347443,0.008956906385719776,0.032742489129304886,0.4078746438026428,-0.9124066829681396,0.0,0.0,0.0,0.0,0.0,0.0
114,1724820560095735037,-1.5000505447387695,0.23828616738319397,0.1304517537355423,0.010743603110313416,0.030446838587522507,0.4089454412460327,-0.9119874835014343,0.0,0.0,0.0,0.0,0.0,0.0
116,1724820560105798267,-1.4995505809783936,0.23775117099285126,0.1306622475385666,0.009887885302305222,0.029382776468992233,0.409591943025589,-0.9117419719696045,0.0,0.0,0.0,0.0,0.0,0.0
118,1724820560116763647,-1.4990750551223755,0.2372743785381317,0.13075529038906097,0.010466421023011208,0.02841012366116047,0.4103081226348877,-0.9114441871643066,0.0,0.0,0.0,0.0,0.0,0.0
120,1724820560125827047,-1.498282551765442,0.2365877777338028,0.13064514100551605,0.009893027134239674,0.02893020771443844,0.4102330803871155,-0.9114680886268616,0.0,0.0,0.0,0.0,0.0,0.0
122,1724820560136685862,-1.4974664449691772,0.23653362691402435,0.13120460510253906,0.009539829567074776,0.026212040334939957,0.4121566116809845,-0.9106859564781189,0.0,0.0,0.0,0.0,0.0,0.0
124,1724820560146697799,-1.4966567754745483,0.2357988953590393,0.13106787204742432,0.009380750358104706,0.026837509125471115,0.4121599495410919,-0.910667896270752,0.0,0.0,0.0,0.0,0.0,0.0
126,1724820560157610049,-1.4957925081253052,0.23514553904533386,0.13121047616004944,0.008608236908912659,0.0267514456063509,0.4126491844654083,-0.9104564785957336,0.0,0.0,0.0,0.0,0.0,0.0
128,1724820560166280993,-1.4948761463165283,0.2344062477350235,0.13138660788536072,0.007768374402076006,0.026644287630915642,0.41290631890296936,-0.9103505611419678,0.0,0.0,0.0,0.0,0.0,0.0
130,1724820560175689623,-1.4939385652542114,0.23357756435871124,0.13148364424705505,0.008028695359826088,0.026628296822309494,0.4137146770954132,-0.9099816679954529,0.0,0.0,0.0,0.0,0.0,0.0
132,1724820560196406689,-1.4929708242416382,0.23284953832626343,0.13184039294719696,0.006979633588343859,0.02627018839120865,0.4142720699310303,-0.9097471237182617,0.0,0.0,0.0,0.0,0.0,0.0
134,1724820560196817056,-1.4918781518936157,0.2318069040775299,0.13186828792095184,0.006336759310215712,0.026494111865758896,0.4140341281890869,-0.9098536968231201,0.0,0.0,0.0,0.0,0.0,0.0
136,1724820560205655372,-1.4909743070602417,0.23104417324066162,0.13242796063423157,0.006376934237778187,0.02399531938135624,0.4160076975822449,-0.9090221524238586,0.0,0.0,0.0,0.0,0.0,0.0
138,1724820560215833204,-1.489878535270691,0.2299114167690277,0.1327323317527771,0.006470826454460621,0.023040777072310448,0.41681674122810364,-0.908675491809845,0.0,0.0,0.0,0.0,0.0,0.0
140,1724820560226774005,-1.4885467290878296,0.22835807502269745,0.13250041007995605,0.00602479325607419,0.02384704165160656,0.4160007834434509,-0.9090315699577332,0.0,0.0,0.0,0.0,0.0,0.0
142,1724820560235884193,-1.4872865676879883,0.22754567861557007,0.13305801153182983,0.0050771464593708515,0.021770596504211426,0.4177630543708801,-0.9082809686660767,0.0,0.0,0.0,0.0,0.0,0.0
144,1724820560245555453,-1.486006259918213,0.22617915272712708,0.13314497470855713,0.005113561172038317,0.021893152967095375,0.41694098711013794,-0.9086554646492004,0.0,0.0,0.0,0.0,0.0,0.0
146,1724820560255937575,-1.4847276210784912,0.22476297616958618,0.1331258863210678,0.005140301305800676,0.02292248234152794,0.41534432768821716,-0.9093608856201172,0.0,0.0,0.0,0.0,0.0,0.0
148,1724820560265987187,-1.4833043813705444,0.2235303372144699,0.13318979740142822,0.004087420646101236,0.02194954827427864,0.4160197675228119,-0.9090814590454102,0.0,0.0,0.0,0.0,0.0,0.0
150,1724820560276092443,-1.4818930625915527,0.22212326526641846,0.13330082595348358,0.00507075572386384,0.021620646119117737,0.4170364439487457,-0.9086185097694397,0.0,0.0,0.0,0.0,0.0,0.0
152,1724820560285972669,-1.4803574085235596,0.2209346443414688,0.13365134596824646,0.005977774038910866,0.018731150776147842,0.4181749224662781,-0.908153772354126,0.0,0.0,0.0,0.0,0.0,0.0
154,1724820560295653225,-1.4787921905517578,0.21946951746940613,0.13367445766925812,0.0058039953000843525,0.018619995564222336,0.4174481928348541,-0.9084913730621338,0.0,0.0,0.0,0.0,0.0,0.0
156,1724820560305899081,-1.4770838022232056,0.21809746325016022,0.13388903439044952,0.0037868742365390062,0.01754070818424225,0.4180034399032593,-0.9082682728767395,0.0,0.0,0.0,0.0,0.0,0.0
158,1724820560316405435,-1.4753477573394775,0.21662884950637817,0.13404162228107452,0.004015758633613586,0.016541043296456337,0.4185018837451935,-0.9080564379692078,0.0,0.0,0.0,0.0,0.0,0.0
160,1724820560329259272,-1.4735984802246094,0.21500732004642487,0.13393190503120422,0.0032071536406874657,0.01580999232828617,0.4189390540122986,-0.9078710675239563,0.0,0.0,0.0,0.0,0.0,0.0
162,1724820560341359770,-1.471771478652954,0.2134079933166504,0.1339128315448761,0.003400095971301198,0.015377070754766464,0.4195798337459564,-0.9075818061828613,0.0,0.0,0.0,0.0,0.0,0.0
164,1724820560345976751,-1.4698715209960938,0.21196088194847107,0.13407942652702332,0.002526560565456748,0.014255447313189507,0.42028021812438965,-0.9072788953781128,0.0,0.0,0.0,0.0,0.0,0.0
166,1724820560357262517,-1.4680014848709106,0.21053314208984375,0.13434375822544098,0.0018679355271160603,0.0134428720921278,0.42192354798316956,-0.9065298438072205,0.0,0.0,0.0,0.0,0.0,0.0
168,1724820560367246802,-1.4656354188919067,0.20884087681770325,0.13417845964431763,0.0010952921584248543,0.011270055547356606,0.4224609434604645,-0.9063104391098022,0.0,0.0,0.0,0.0,0.0,0.0
170,1724820560375818671,-1.4634524583816528,0.2072620391845703,0.13408778607845306,-0.0001638493122300133,0.010647657327353954,0.42333561182022095,-0.9059104323387146,0.0,0.0,0.0,0.0,0.0,0.0
172,1724820560388931538,-1.4611289501190186,0.20567724108695984,0.13443835079669952,-0.002456814516335726,0.007476379629224539,0.4253133535385132,-0.9050119519233704,0.0,0.0,0.0,0.0,0.0,0.0
174,1724820560397750697,-1.4589602947235107,0.2041492760181427,0.13454267382621765,-0.0035627377219498158,0.0067965746857225895,0.4258260726928711,-0.9047725796699524,0.0,0.0,0.0,0.0,0.0,0.0
176,1724820560405628153,-1.4564303159713745,0.20224040746688843,0.13420477509498596,-0.005146647337824106,0.004487469792366028,0.4260677099227905,-0.9046655297279358,0.0,0.0,0.0,0.0,0.0,0.0
178,1724820560415722407,-1.4539810419082642,0.20050078630447388,0.1341724544763565,-0.00672359112650156,0.002990678185597062,0.4267008602619171,-0.9043628573417664,0.0,0.0,0.0,0.0,0.0,0.0
180,1724820560425709796,-1.451622486114502,0.19893629848957062,0.13417527079582214,-0.008126180619001389,0.0009170375997200608,0.42800334095954895,-0.9037402272224426,0.0,0.0,0.0,0.0,0.0,0.0
182,1724820560438763317,-1.4489580392837524,0.1969671994447708,0.13371632993221283,-0.008409945294260979,-0.0016118013300001621,0.42887288331985474,-0.9033243060112,0.0,0.0,0.0,0.0,0.0,0.0
184,1724820560446054665,-1.4463744163513184,0.19503995776176453,0.13327930867671967,-0.012211687862873077,-0.0032771488185971975,0.42875614762306213,-0.9033318161964417,0.0,0.0,0.0,0.0,0.0,0.0
186,1724820560455513953,-1.4437423944473267,0.19309571385383606,0.1328655481338501,-0.01503054704517126,-0.00554360868409276,0.4299945533275604,-0.9026893973350525,0.0,0.0,0.0,0.0,0.0,0.0
188,1724820560465746315,-1.4411884546279907,0.1912933588027954,0.13282516598701477,-0.013952766545116901,-0.010136636905372143,0.4315844774246216,-0.9019076824188232,0.0,0.0,0.0,0.0,0.0,0.0
190,1724820560477074695,-1.4384783506393433,0.1891167312860489,0.1324518471956253,-0.017681119963526726,-0.012347572483122349,0.432358056306839,-0.9014440774917603,0.0,0.0,0.0,0.0,0.0,0.0
192,1724820560486258537,-1.4360462427139282,0.18751652538776398,0.1325005292892456,-0.017103759571909904,-0.014340111054480076,0.4337764382362366,-0.9007440805435181,0.0,0.0,0.0,0.0,0.0,0.0
194,1724820560495739970,-1.433556318283081,0.18557824194431305,0.13302676379680634,-0.01714564673602581,-0.014338119886815548,0.43487662076950073,-0.9002126455307007,0.0,0.0,0.0,0.0,0.0,0.0
196,1724820560506611064,-1.4311131238937378,0.18390536308288574,0.1336047649383545,-0.019148070365190506,-0.016340220347046852,0.4369432330131531,-0.8991368412971497,0.0,0.0,0.0,0.0,0.0,0.0
198,1724820560515741446,-1.4286236763000488,0.18191803991794586,0.13333772122859955,-0.018892934545874596,-0.015895221382379532,0.43650946021080017,-0.8993608951568604,0.0,0.0,0.0,0.0,0.0,0.0
200,1724820560526262049,-1.4264960289001465,0.18053674697875977,0.1335763931274414,-0.018061192706227303,-0.016004569828510284,0.43728694319725037,-0.8989982008934021,0.0,0.0,0.0,0.0,0.0,0.0
202,1724820560539380046,-1.4241586923599243,0.17886462807655334,0.13320021331310272,-0.019017640501260757,-0.01572183147072792,0.43830424547195435,-0.8984879851341248,0.0,0.0,0.0,0.0,0.0,0.0
204,1724820560545963936,-1.4222322702407837,0.1776183545589447,0.13300949335098267,-0.018920358270406723,-0.014045938849449158,0.43928980827331543,-0.8980363011360168,0.0,0.0,0.0,0.0,0.0,0.0
206,1724820560556883977,-1.4202080965042114,0.17613813281059265,0.1319923847913742,-0.018302569165825844,-0.012077191844582558,0.4372807741165161,-0.8990576863288879,0.0,0.0,0.0,0.0,0.0,0.0
208,1724820560566477178,-1.41827392578125,0.17497436702251434,0.1316576898097992,-0.019668929278850555,-0.010736520402133465,0.43836691975593567,-0.8985167741775513,0.0,0.0,0.0,0.0,0.0,0.0
210,1724820560575489967,-1.4167628288269043,0.17397496104240417,0.13099700212478638,-0.019946632906794548,-0.008482489734888077,0.4385219216346741,-0.8984591364860535,0.0,0.0,0.0,0.0,0.0,0.0
212,1724820560586290835,-1.4151861667633057,0.17298872768878937,0.13061891496181488,-0.018343767151236534,-0.007834888063371181,0.4393116235733032,-0.8981132507324219,0.0,0.0,0.0,0.0,0.0,0.0
214,1724820560596181666,-1.4136123657226562,0.17183230817317963,0.13042603433132172,-0.018952053040266037,-0.007469247095286846,0.4396023154258728,-0.8979614973068237,0.0,0.0,0.0,0.0,0.0,0.0
216,1724820560605913135,-1.4120280742645264,0.1709265559911728,0.13030001521110535,-0.01976015232503414,-0.0077926237136125565,0.43918752670288086,-0.8981442451477051,0.0,0.0,0.0,0.0,0.0,0.0
218,1724820560616398740,-1.410776138305664,0.17023219168186188,0.13043969869613647,-0.020645111799240112,-0.0075806197710335255,0.43902987241744995,-0.8982033133506775,0.0,0.0,0.0,0.0,0.0,0.0
220,1724820560625463573,-1.4096331596374512,0.16949938237667084,0.1304812878370285,-0.022874435409903526,-0.006591374054551125,0.43859171867370605,-0.898371160030365,0.0,0.0,0.0,0.0,0.0,0.0
222,1724820560635620867,-1.4086533784866333,0.16896042227745056,0.13062404096126556,-0.023901136592030525,-0.006826241500675678,0.43914517760276794,-0.8980722427368164,0.0,0.0,0.0,0.0,0.0,0.0
224,1724820560645679243,-1.4079580307006836,0.16864575445652008,0.13052472472190857,-0.02357647567987442,-0.0064295087940990925,0.4384830892086029,-0.8984071612358093,0.0,0.0,0.0,0.0,0.0,0.0
226,1724820560655439860,-1.4074090719223022,0.16841337084770203,0.13042624294757843,-0.02382894791662693,-0.0059795137494802475,0.43783095479011536,-0.8987215757369995,0.0,0.0,0.0,0.0,0.0,0.0
228,1724820560665924452,-1.4069569110870361,0.16831888258457184,0.13033345341682434,-0.02502342499792576,-0.005241553299129009,0.43721991777420044,-0.8989912867546082,0.0,0.0,0.0,0.0,0.0,0.0
230,1724820560675530483,-1.4066226482391357,0.168379545211792,0.13020727038383484,-0.025237150490283966,-0.004551450721919537,0.4366663098335266,-0.8992579579353333,0.0,0.0,0.0,0.0,0.0,0.0
232,1724820560688752389,-1.4064427614212036,0.1685670167207718,0.130252867937088,-0.02620980702340603,-0.0038581830449402332,0.4367113709449768,-0.899211585521698,0.0,0.0,0.0,0.0,0.0,0.0
234,1724820560695844478,-1.4062856435775757,0.1688196212053299,0.13015945255756378,-0.025395143777132034,-0.0038919157814234495,0.4358036518096924,-0.8996750712394714,0.0,0.0,0.0,0.0,0.0,0.0
236,1724820560705645063,-1.4060947895050049,0.16910520195960999,0.13023991882801056,-0.025303790345788002,-0.003963496536016464,0.4355722665786743,-0.8997893333435059,0.0,0.0,0.0,0.0,0.0,0.0
238,1724820560715666818,-1.4057537317276,0.16946697235107422,0.13039366900920868,-0.025774510577321053,-0.005506027489900589,0.4359782934188843,-0.8995712399482727,0.0,0.0,0.0,0.0,0.0,0.0
240,1724820560726955922,-1.405617117881775,0.16969291865825653,0.13041648268699646,-0.024914247915148735,-0.005298572592437267,0.43506282567977905,-0.9000397324562073,0.0,0.0,0.0,0.0,0.0,0.0
242,1724820560736018242,-1.4053996801376343,0.16995646059513092,0.13056397438049316,-0.02446792460978031,-0.005997334141284227,0.4353034496307373,-0.8999311923980713,0.0,0.0,0.0,0.0,0.0,0.0
244,1724820560745729507,-1.4051398038864136,0.17022985219955444,0.13066110014915466,-0.0250781811773777,-0.006119303405284882,0.4351864457130432,-0.8999702334403992,0.0,0.0,0.0,0.0,0.0,0.0
246,1724820560755923199,-1.404921293258667,0.17059895396232605,0.13083289563655853,-0.026397010311484337,-0.0055321077816188335,0.4353225529193878,-0.8998705148696899,0.0,0.0,0.0,0.0,0.0,0.0
248,1724820560766178514,-1.4046943187713623,0.17086395621299744,0.13083261251449585,-0.02684396132826805,-0.005354956723749638,0.43545758724212646,-0.8997929692268372,0.0,0.0,0.0,0.0,0.0,0.0
250,1724820560775823590,-1.4044252634048462,0.1711547076702118,0.13083675503730774,-0.02836853824555874,-0.004889301024377346,0.43555060029029846,-0.8997039198875427,0.0,0.0,0.0,0.0,0.0,0.0
252,1724820560786333349,-1.4041534662246704,0.17146648466587067,0.1308804303407669,-0.028995968401432037,-0.00474116625264287,0.43565744161605835,-0.8996328711509705,0.0,0.0,0.0,0.0,0.0,0.0
254,1724820560796080197,-1.4039117097854614,0.17173805832862854,0.130916029214859,-0.029331978410482407,-0.004616744350641966,0.43573635816574097,-0.8995844721794128,0.0,0.0,0.0,0.0,0.0,0.0
256,1724820560807129220,-1.4036402702331543,0.17192135751247406,0.13087919354438782,-0.030295327305793762,-0.004531396087259054,0.4355068802833557,-0.899664044380188,0.0,0.0,0.0,0.0,0.0,0.0
258,1724820560815900178,-1.4034205675125122,0.17213290929794312,0.13088937103748322,-0.030514134094119072,-0.004605406895279884,0.43539461493492126,-0.8997106552124023,0.0,0.0,0.0,0.0,0.0,0.0
260,1724820560825537009,-1.403220295906067,0.17232003808021545,0.13093434274196625,-0.030449049547314644,-0.004405552987009287,0.43521323800086975,-0.8998015522956848,0.0,0.0,0.0,0.0,0.0,0.0
262,1724820560842071624,-1.4029316902160645,0.17261549830436707,0.1311168074607849,-0.03097015991806984,-0.005341106094419956,0.4358956813812256,-0.8994483351707458,0.0,0.0,0.0,0.0,0.0,0.0
264,1724820560845538114,-1.4027546644210815,0.1728009432554245,0.13110122084617615,-0.031033631414175034,-0.005391389597207308,0.43567290902137756,-0.8995537757873535,0.0,0.0,0.0,0.0,0.0,0.0
266,1724820560855740299,-1.4025602340698242,0.17300839722156525,0.13117407262325287,-0.03129523992538452,-0.00553473923355341,0.4358886778354645,-0.89943927526474,0.0,0.0,0.0,0.0,0.0,0.0
268,1724820560866348297,-1.4025682210922241,0.17318397760391235,0.13099122047424316,-0.02960135042667389,-0.004879702348262072,0.43475836515426636,-0.9000473022460938,0.0,0.0,0.0,0.0,0.0,0.0
270,1724820560875484656,-1.402451515197754,0.1733749806880951,0.13099491596221924,-0.028206342831254005,-0.0049171894788742065,0.4346309304237366,-0.900153398513794,0.0,0.0,0.0,0.0,0.0,0.0
272,1724820560889365575,-1.4022365808486938,0.1735629439353943,0.13100674748420715,-0.028315216302871704,-0.005037914961576462,0.4343404471874237,-0.9002895355224609,0.0,0.0,0.0,0.0,0.0,0.0
274,1724820560896489749,-1.402020812034607,0.17375437915325165,0.13116079568862915,-0.02858942747116089,-0.004798026755452156,0.43442007899284363,-0.9002437591552734,0.0,0.0,0.0,0.0,0.0,0.0
276,1724820560906757563,-1.4017008543014526,0.17390623688697815,0.13122791051864624,-0.029273593798279762,-0.004926950205117464,0.43438681960105896,-0.9002371430397034,0.0,0.0,0.0,0.0,0.0,0.0
278,1724820560916063026,-1.4014228582382202,0.17409777641296387,0.1312520056962967,-0.0300470981746912,-0.005148123484104872,0.43403923511505127,-0.9003780484199524,0.0,0.0,0.0,0.0,0.0,0.0
280,1724820560928185377,-1.4011296033859253,0.17432287335395813,0.13138532638549805,-0.031963448971509933,-0.004794064909219742,0.4339975416660309,-0.9003341197967529,0.0,0.0,0.0,0.0,0.0,0.0
282,1724820560936050648,-1.4008798599243164,0.17452506721019745,0.1314372718334198,-0.032177187502384186,-0.004606620874255896,0.43388068675994873,-0.9003838300704956,0.0,0.0,0.0,0.0,0.0,0.0
284,1724820560945820096,-1.400572657585144,0.17475368082523346,0.13154256343841553,-0.03384746238589287,-0.004357723519206047,0.43381282687187195,-0.9003565907478333,0.0,0.0,0.0,0.0,0.0,0.0
286,1724820560955484705,-1.4003499746322632,0.1749812364578247,0.13156621158123016,-0.03385937586426735,-0.004442906938493252,0.43360307812690735,-0.9004566073417664,0.0,0.0,0.0,0.0,0.0,0.0
288,1724820560966366232,-1.4000413417816162,0.17520295083522797,0.13171851634979248,-0.035581737756729126,-0.0038139219395816326,0.43369680643081665,-0.9003479480743408,0.0,0.0,0.0,0.0,0.0,0.0
290,1724820560976478013,-1.399796962738037,0.175424724817276,0.1317494958639145,-0.03621608391404152,-0.0034946666564792395,0.4335401654243469,-0.900399386882782,0.0,0.0,0.0,0.0,0.0,0.0
292,1724820560987307623,-1.3995283842086792,0.17568306624889374,0.13181164860725403,-0.03630247339606285,-0.0033127842471003532,0.43333229422569275,-0.9004966616630554,0.0,0.0,0.0,0.0,0.0,0.0
294,1724820560995907517,-1.3992493152618408,0.17589585483074188,0.13192710280418396,-0.036897238343954086,-0.0030990384984761477,0.43308740854263306,-0.9005910754203796,0.0,0.0,0.0,0.0,0.0,0.0
296,1724820561007213944,-1.3989723920822144,0.17610667645931244,0.13201314210891724,-0.03731207177042961,-0.003092302707955241,0.43275681138038635,-0.9007329344749451,0.0,0.0,0.0,0.0,0.0,0.0
298,1724820561015613638,-1.3987327814102173,0.17630775272846222,0.13208363950252533,-0.03639021888375282,-0.003612024709582329,0.43233880400657654,-0.900969386100769,0.0,0.0,0.0,0.0,0.0,0.0
300,1724820561026319151,-1.3984485864639282,0.17648877203464508,0.13213247060775757,-0.0357021801173687,-0.004186511971056461,0.43184739351272583,-0.9012301564216614,0.0,0.0,0.0,0.0,0.0,0.0
302,1724820561036415256,-1.3981596231460571,0.17663276195526123,0.132191464304924,-0.03578661009669304,-0.004193010739982128,0.4314620792865753,-0.901411235332489,0.0,0.0,0.0,0.0,0.0,0.0
304,1724820561045811043,-1.39792001247406,0.1768539547920227,0.1324382871389389,-0.03603874146938324,-0.004203706048429012,0.4316297173500061,-0.9013208746910095,0.0,0.0,0.0,0.0,0.0,0.0
306,1724820561057141275,-1.397661566734314,0.1769517958164215,0.13243183493614197,-0.03669048845767975,-0.0038461952935904264,0.4311717748641968,-0.9015154242515564,0.0,0.0,0.0,0.0,0.0,0.0
308,1724820561068520050,-1.397390365600586,0.1770925521850586,0.13244131207466125,-0.0378463976085186,-0.003985364455729723,0.4306844174861908,-0.9016999006271362,0.0,0.0,0.0,0.0,0.0,0.0
310,1724820561075782270,-1.3971686363220215,0.17722587287425995,0.1324385106563568,-0.03843182325363159,-0.0036521456204354763,0.43001148104667664,-0.9019976854324341,0.0,0.0,0.0,0.0,0.0,0.0
312,1724820561086447131,-1.3968855142593384,0.1774018555879593,0.1325143724679947,-0.039761733263731,-0.0032243961468338966,0.4296770691871643,-0.9021010398864746,0.0,0.0,0.0,0.0,0.0,0.0
314,1724820561095787047,-1.3965940475463867,0.17755380272865295,0.13243062794208527,-0.04054868221282959,-0.003017434850335121,0.42886030673980713,-0.9024553894996643,0.0,0.0,0.0,0.0,0.0,0.0
316,1724820561106868429,-1.3962321281433105,0.17780350148677826,0.1324906349182129,-0.04257221892476082,-0.002623006934300065,0.42817920446395874,-0.9026867747306824,0.0,0.0,0.0,0.0,0.0,0.0
318,1724820561116182867,-1.3959522247314453,0.1780441403388977,0.13251875340938568,-0.04263113811612129,-0.002583489753305912,0.4275991916656494,-0.9029589891433716,0.0,0.0,0.0,0.0,0.0,0.0
320,1724820561138636858,-1.3956738710403442,0.1783001869916916,0.1326093226671219,-0.04287886247038841,-0.0024419324472546577,0.42723748087882996,-0.9031187891960144,0.0,0.0,0.0,0.0,0.0,0.0
322,1724820561139028628,-1.3953408002853394,0.1785653531551361,0.13261525332927704,-0.04392175003886223,-0.0021664449013769627,0.4266047775745392,-0.9033684730529785,0.0,0.0,0.0,0.0,0.0,0.0
324,1724820561146489980,-1.3950272798538208,0.17883020639419556,0.13270577788352966,-0.04401976987719536,-0.0021800510585308075,0.42631202936172485,-0.9035018682479858,0.0,0.0,0.0,0.0,0.0,0.0
326,1724820561155567974,-1.3947854042053223,0.1791122555732727,0.13278180360794067,-0.04353829473257065,-0.002176721580326557,0.4260575771331787,-0.9036452174186707,0.0,0.0,0.0,0.0,0.0,0.0
328,1724820561166366680,-1.3945478200912476,0.17940948903560638,0.13287629187107086,-0.04344387724995613,-0.0023234684485942125,0.42581605911254883,-0.9037632942199707,0.0,0.0,0.0,0.0,0.0,0.0
330,1724820561177513530,-1.394321322441101,0.17975006997585297,0.13286225497722626,-0.04393337666988373,-0.0023020836524665356,0.42544907331466675,-0.903912365436554,0.0,0.0,0.0,0.0,0.0,0.0
332,1724820561188290200,-1.3941468000411987,0.1800675094127655,0.13290297985076904,-0.043793197721242905,-0.002320877043530345,0.4252783954143524,-0.9039995670318604,0.0,0.0,0.0,0.0,0.0,0.0
334,1724820561195916103,-1.3939588069915771,0.18035434186458588,0.13303080201148987,-0.0441293939948082,-0.0023842453956604004,0.42550593614578247,-0.9038758873939514,0.0,0.0,0.0,0.0,0.0,0.0
336,1724820561205510935,-1.3938536643981934,0.18067996203899384,0.13316603004932404,-0.044293131679296494,-0.002285045338794589,0.4255808889865875,-0.9038327932357788,0.0,0.0,0.0,0.0,0.0,0.0
338,1724820561216852489,-1.3936926126480103,0.18095970153808594,0.13322032988071442,-0.044725656509399414,-0.0026730673853307962,0.42536813020706177,-0.9039106369018555,0.0,0.0,0.0,0.0,0.0,0.0
340,1724820561227284055,-1.3935273885726929,0.18122483789920807,0.13321863114833832,-0.04452527314424515,-0.002441421616822481,0.42489513754844666,-0.9041435718536377,0.0,0.0,0.0,0.0,0.0,0.0
342,1724820561236190145,-1.3933770656585693,0.18146131932735443,0.13324511051177979,-0.04425983503460884,-0.002291325246915221,0.42470061779022217,-0.9042484760284424,0.0,0.0,0.0,0.0,0.0,0.0
344,1724820561245606124,-1.3931760787963867,0.1817021667957306,0.13329535722732544,-0.04459303617477417,-0.0020506216678768396,0.4244345426559448,-0.9043575525283813,0.0,0.0,0.0,0.0,0.0,0.0
346,1724820561255495697,-1.3930178880691528,0.18192866444587708,0.13328465819358826,-0.044187139719724655,-0.0022525284439325333,0.42425039410591125,-0.9044634103775024,0.0,0.0,0.0,0.0,0.0,0.0
348,1724820561265717077,-1.3928165435791016,0.18215540051460266,0.133329838514328,-0.044345077127218246,-0.0022821982856839895,0.42400380969047546,-0.9045712947845459,0.0,0.0,0.0,0.0,0.0,0.0
350,1724820561276245247,-1.3925753831863403,0.18236957490444183,0.1333390176296234,-0.04574277997016907,-0.0017813884187489748,0.4238114655017853,-0.9045929312705994,0.0,0.0,0.0,0.0,0.0,0.0
352,1724820561286038182,-1.3922955989837646,0.18254707753658295,0.1333056390285492,-0.0470840260386467,-0.0016313758678734303,0.4235787093639374,-0.9046333432197571,0.0,0.0,0.0,0.0,0.0,0.0
354,1724820561295627417,-1.392082691192627,0.18273629248142242,0.13329243659973145,-0.04759348928928375,-0.001325514749623835,0.4231113791465759,-0.9048258662223816,0.0,0.0,0.0,0.0,0.0,0.0
356,1724820561305818181,-1.3918265104293823,0.1829363852739334,0.13322801887989044,-0.048277195543050766,-0.0012908411445096135,0.4225906729698181,-0.9050329923629761,0.0,0.0,0.0,0.0,0.0,0.0
358,1724820561315965657,-1.3916051387786865,0.1831136792898178,0.13324220478534698,-0.048295002430677414,-0.001160069601610303,0.42202267050743103,-0.9052972197532654,0.0,0.0,0.0,0.0,0.0,0.0
360,1724820561325602330,-1.391363263130188,0.1832297295331955,0.13323327898979187,-0.04863687977194786,-0.0008631579112261534,0.421598345041275,-0.905476987361908,0.0,0.0,0.0,0.0,0.0,0.0
362,1724820561340786371,-1.3910928964614868,0.1832958608865738,0.1332399547100067,-0.04849594086408615,-0.0005373077583499253,0.42105478048324585,-0.9057377576828003,0.0,0.0,0.0,0.0,0.0,0.0
364,1724820561345480958,-1.3907673358917236,0.1833590418100357,0.1332389861345291,-0.04898049309849739,-0.00012603028153534979,0.4208243191242218,-0.9058189392089844,0.0,0.0,0.0,0.0,0.0,0.0
366,1724820561355693288,-1.3904410600662231,0.18336787819862366,0.13320748507976532,-0.04859408736228943,0.00045560149010270834,0.4204115569591522,-0.9060312509536743,0.0,0.0,0.0,0.0,0.0,0.0
368,1724820561366191618,-1.390135645866394,0.18331488966941833,0.13312655687332153,-0.04777555540204048,0.0008659394807182252,0.4200425148010254,-0.9062455892562866,0.0,0.0,0.0,0.0,0.0,0.0
370,1724820561375487461,-1.389796257019043,0.1833161562681198,0.13312388956546783,-0.04728570953011513,0.0009417986730113626,0.4197959005832672,-0.9063854217529297,0.0,0.0,0.0,0.0,0.0,0.0
372,1724820561390991105,-1.3894368410110474,0.18329110741615295,0.13318943977355957,-0.046768415719270706,0.0009580432088114321,0.41926905512809753,-0.9066560864448547,0.0,0.0,0.0,0.0,0.0,0.0
374,1724820561396393058,-1.3890907764434814,0.18323038518428802,0.13333864510059357,-0.04804361239075661,0.0012382485438138247,0.41895484924316406,-0.9067342877388,0.0,0.0,0.0,0.0,0.0,0.0
376,1724820561406749133,-1.3888133764266968,0.18312928080558777,0.1334790736436844,-0.04785371571779251,0.002010551281273365,0.4182529151439667,-0.9070670008659363,0.0,0.0,0.0,0.0,0.0,0.0
378,1724820561415970872,-1.3884177207946777,0.18303391337394714,0.13363470137119293,-0.04940019175410271,0.0030007108580321074,0.41767725348472595,-0.9072466492652893,0.0,0.0,0.0,0.0,0.0,0.0
380,1724820561425736827,-1.3880319595336914,0.18294665217399597,0.13382583856582642,-0.04993395879864693,0.004007350187748671,0.41718530654907227,-0.9074398279190063,0.0,0.0,0.0,0.0,0.0,0.0
382,1724820561437315867,-1.3876484632492065,0.1828627735376358,0.13402575254440308,-0.04929646477103233,0.004258769564330578,0.4166926145553589,-0.9076998233795166,0.0,0.0,0.0,0.0,0.0,0.0
384,1724820561451316549,-1.3872920274734497,0.18282665312290192,0.13423308730125427,-0.04913043603301048,0.004475356079638004,0.41636398434638977,-0.9078586101531982,0.0,0.0,0.0,0.0,0.0,0.0
386,1724820561455380717,-1.3869400024414062,0.18272700905799866,0.1344238817691803,-0.048622723668813705,0.004822190850973129,0.4158526360988617,-0.9081184267997742,0.0,0.0,0.0,0.0,0.0,0.0
388,1724820561465991999,-1.38663911819458,0.18271827697753906,0.1346956193447113,-0.048805393278598785,0.0053669121116399765,0.4154241681098938,-0.9083017110824585,0.0,0.0,0.0,0.0,0.0,0.0
390,1724820561493755929,-1.3862837553024292,0.1826409101486206,0.13485409319400787,-0.04947888106107712,0.005912115331739187,0.41486358642578125,-0.9085180759429932,0.0,0.0,0.0,0.0,0.0,0.0
392,1724820561494250676,-1.385880470275879,0.18257860839366913,0.13502606749534607,-0.05177910625934601,0.007142563816159964,0.41400665044784546,-0.9087719321250916,0.0,0.0,0.0,0.0,0.0,0.0
394,1724820561495738555,-1.3854955434799194,0.18253152072429657,0.13524828851222992,-0.053094618022441864,0.008061949163675308,0.41338780522346497,-0.908970057964325,0.0,0.0,0.0,0.0,0.0,0.0
396,1724820561506044514,-1.3851346969604492,0.18254129588603973,0.13552208244800568,-0.052843090146780014,0.008567040786147118,0.4127523899078369,-0.9092687368392944,0.0,0.0,0.0,0.0,0.0,0.0
398,1724820561516081318,-1.3847514390945435,0.18258406221866608,0.13581602275371552,-0.052738189697265625,0.008619727566838264,0.4121905267238617,-0.9095292091369629,0.0,0.0,0.0,0.0,0.0,0.0
400,1724820561525506816,-1.3843982219696045,0.18264397978782654,0.1361028105020523,-0.05246718227863312,0.008880984969437122,0.41178616881370544,-0.9097254872322083,0.0,0.0,0.0,0.0,0.0,0.0
402,1724820561539532759,-1.384001612663269,0.18265162408351898,0.13629254698753357,-0.05199127271771431,0.008982428349554539,0.41111499071121216,-0.9100553393363953,0.0,0.0,0.0,0.0,0.0,0.0
404,1724820561545441898,-1.3835630416870117,0.1827242523431778,0.13652998208999634,-0.053193215280771255,0.00946462620049715,0.410705029964447,-0.9101661443710327,0.0,0.0,0.0,0.0,0.0,0.0
406,1724820561556295474,-1.3831732273101807,0.18281669914722443,0.1367725133895874,-0.05361154302954674,0.009542414918541908,0.4105245769023895,-0.9102221131324768,0.0,0.0,0.0,0.0,0.0,0.0
408,1724820561565773878,-1.3827940225601196,0.18289035558700562,0.13697241246700287,-0.05482838302850723,0.010569725185632706,0.4095696210861206,-0.9105684757232666,0.0,0.0,0.0,0.0,0.0,0.0
410,1724820561575633525,-1.382373332977295,0.1830044984817505,0.13724210858345032,-0.056073520332574844,0.01121770590543747,0.40887629985809326,-0.9107964038848877,0.0,0.0,0.0,0.0,0.0,0.0
412,1724820561587411002,-1.3818633556365967,0.18313628435134888,0.13759472966194153,-0.057364802807569504,0.011511951684951782,0.40855100750923157,-0.9108583331108093,0.0,0.0,0.0,0.0,0.0,0.0
414,1724820561595583350,-1.3813501596450806,0.1832687258720398,0.13803622126579285,-0.0582081638276577,0.011758665554225445,0.40831226110458374,-0.9109087586402893,0.0,0.0,0.0,0.0,0.0,0.0
416,1724820561605987973,-1.3809480667114258,0.18337389826774597,0.13836129009723663,-0.0580788291990757,0.01186006236821413,0.4080376625061035,-0.9110386371612549,0.0,0.0,0.0,0.0,0.0,0.0
418,1724820561615885055,-1.3805408477783203,0.18342596292495728,0.1386396586894989,-0.058636438101530075,0.012148224748671055,0.40797048807144165,-0.9110292792320251,0.0,0.0,0.0,0.0,0.0,0.0
420,1724820561626479688,-1.3801075220108032,0.1834685355424881,0.13880354166030884,-0.05879008397459984,0.01250144001096487,0.40765514969825745,-0.9111557006835938,0.0,0.0,0.0,0.0,0.0,0.0
422,1724820561635417093,-1.3797394037246704,0.18349355459213257,0.13900290429592133,-0.058912962675094604,0.012676308862864971,0.40729817748069763,-0.9113050103187561,0.0,0.0,0.0,0.0,0.0,0.0
424,1724820561646704181,-1.3793998956680298,0.1835755705833435,0.1392555683851242,-0.05876072496175766,0.0127100870013237,0.4069824516773224,-0.9114553928375244,0.0,0.0,0.0,0.0,0.0,0.0
426,1724820561655711738,-1.3790112733840942,0.1836579442024231,0.13955162465572357,-0.05873112007975578,0.013024590909481049,0.40635353326797485,-0.9117333889007568,0.0,0.0,0.0,0.0,0.0,0.0
428,1724820561665889419,-1.3786635398864746,0.18378449976444244,0.13992677628993988,-0.058583036065101624,0.012963928282260895,0.4063941240310669,-0.9117257595062256,0.0,0.0,0.0,0.0,0.0,0.0
430,1724820561677063660,-1.3782259225845337,0.18385152518749237,0.14021112024784088,-0.05891532450914383,0.013063465245068073,0.4062458872795105,-0.9117689728736877,0.0,0.0,0.0,0.0,0.0,0.0
432,1724820561685557928,-1.377843976020813,0.18385671079158783,0.14046405255794525,-0.05903717875480652,0.013301803730428219,0.40599024295806885,-0.9118715524673462,0.0,0.0,0.0,0.0,0.0,0.0
434,1724820561695743582,-1.377457857131958,0.18385674059391022,0.14067871868610382,-0.06070733442902565,0.014025012031197548,0.40560904145240784,-0.9119206666946411,0.0,0.0,0.0,0.0,0.0,0.0
436,1724820561705474232,-1.3771271705627441,0.1838483214378357,0.14088213443756104,-0.06095372885465622,0.014469628222286701,0.4049666225910187,-0.9121828079223633,0.0,0.0,0.0,0.0,0.0,0.0
438,1724820561715551841,-1.3768107891082764,0.1838245391845703,0.14114610850811005,-0.061415720731019974,0.014533843845129013,0.4045526087284088,-0.9123343825340271,0.0,0.0,0.0,0.0,0.0,0.0
440,1724820561728665074,-1.3765045404434204,0.18378908932209015,0.14134462177753448,-0.06170688569545746,0.014668039977550507,0.4040888845920563,-0.9125180840492249,0.0,0.0,0.0,0.0,0.0,0.0
442,1724820561738282409,-1.376175880432129,0.18373440206050873,0.14158904552459717,-0.06143265590071678,0.014289043843746185,0.4039658010005951,-0.912597119808197,0.0,0.0,0.0,0.0,0.0,0.0
444,1724820561745824188,-1.375731348991394,0.18363119661808014,0.14178407192230225,-0.06223750114440918,0.014496913179755211,0.4034055471420288,-0.912787139415741,0.0,0.0,0.0,0.0,0.0,0.0
446,1724820561756027334,-1.375409722328186,0.18353919684886932,0.14196759462356567,-0.06136641651391983,0.01407446525990963,0.40284353494644165,-0.9131008386611938,0.0,0.0,0.0,0.0,0.0,0.0
448,1724820561765872461,-1.3750598430633545,0.18345144391059875,0.142141655087471,-0.06211104989051819,0.013953550718724728,0.40239250659942627,-0.9132512211799622,0.0,0.0,0.0,0.0,0.0,0.0
450,1724820561775763844,-1.374696969985962,0.18336468935012817,0.14235614240169525,-0.06249602884054184,0.014258062466979027,0.402065247297287,-0.9133644104003906,0.0,0.0,0.0,0.0,0.0,0.0
452,1724820561786044042,-1.3743467330932617,0.18327456712722778,0.1425522267818451,-0.0620831660926342,0.014549615792930126,0.4015845060348511,-0.91359943151474,0.0,0.0,0.0,0.0,0.0,0.0
454,1724820561796000598,-1.3739787340164185,0.18317541480064392,0.14273755252361298,-0.06254993379116058,0.01524266880005598,0.4011251926422119,-0.9137580990791321,0.0,0.0,0.0,0.0,0.0,0.0
456,1724820561808396320,-1.373579740524292,0.18308138847351074,0.14292843639850616,-0.06282421946525574,0.015528939664363861,0.40067368745803833,-0.9139325022697449,0.0,0.0,0.0,0.0,0.0,0.0
458,1724820561815779745,-1.373186469078064,0.18295830488204956,0.14308108389377594,-0.06184903532266617,0.015500465407967567,0.4004576802253723,-0.9140941500663757,0.0,0.0,0.0,0.0,0.0,0.0
460,1724820561826019474,-1.372713565826416,0.18280266225337982,0.14329972863197327,-0.0618792288005352,0.015528148040175438,0.40022096037864685,-0.9141953587532043,0.0,0.0,0.0,0.0,0.0,0.0
462,1724820561837129966,-1.3722413778305054,0.18263472616672516,0.14352448284626007,-0.06210941821336746,0.015506228432059288,0.400050550699234,-0.9142546057701111,0.0,0.0,0.0,0.0,0.0,0.0
464,1724820561870254714,-1.3718143701553345,0.18245664238929749,0.14383746683597565,-0.06151725351810455,0.015360363759100437,0.4000207781791687,-0.9143101572990417,0.0,0.0,0.0,0.0,0.0,0.0
466,1724820561870599859,-1.371429204940796,0.1822170913219452,0.14407730102539062,-0.06044311448931694,0.015470519661903381,0.3994896709918976,-0.9146120548248291,0.0,0.0,0.0,0.0,0.0,0.0
468,1724820561871773122,-1.3709684610366821,0.1819770634174347,0.14443406462669373,-0.05999871715903282,0.015345405787229538,0.39923956990242004,-0.914752721786499,0.0,0.0,0.0,0.0,0.0,0.0
470,1724820561875616821,-1.3705663681030273,0.1817856729030609,0.14469216763973236,-0.05855368822813034,0.015178168192505836,0.39878764748573303,-0.9150461554527283,0.0,0.0,0.0,0.0,0.0,0.0
472,1724820561887668245,-1.3701460361480713,0.1815996766090393,0.1448797881603241,-0.05828577280044556,0.015435711480677128,0.3980347514152527,-0.9153867959976196,0.0,0.0,0.0,0.0,0.0,0.0
474,1724820561895629493,-1.3696682453155518,0.1814318746328354,0.14517512917518616,-0.05751587077975273,0.015429886989295483,0.3977165222167969,-0.9155738949775696,0.0,0.0,0.0,0.0,0.0,0.0
476,1724820561905653346,-1.3692034482955933,0.18130430579185486,0.1454501450061798,-0.05748266354203224,0.015642859041690826,0.39718198776245117,-0.915804386138916,0.0,0.0,0.0,0.0,0.0,0.0
478,1724820561918735389,-1.368739128112793,0.1811310201883316,0.14571307599544525,-0.057914476841688156,0.016088608652353287,0.39668843150138855,-0.9159833192825317,0.0,0.0,0.0,0.0,0.0,0.0
480,1724820561926923393,-1.3683091402053833,0.18100717663764954,0.14600519835948944,-0.05787815898656845,0.016235534101724625,0.396153062582016,-0.9162145853042603,0.0,0.0,0.0,0.0,0.0,0.0
482,1724820561940132768,-1.3678574562072754,0.1808854043483734,0.14630725979804993,-0.05719268321990967,0.01637209579348564,0.39586976170539856,-0.9163777232170105,0.0,0.0,0.0,0.0,0.0,0.0
484,1724820561945542374,-1.367430329322815,0.18077412247657776,0.14657418429851532,-0.0555575005710125,0.015660246834158897,0.3962491452693939,-0.9163267612457275,0.0,0.0,0.0,0.0,0.0,0.0
486,1724820561955703762,-1.366929054260254,0.18070057034492493,0.1468065083026886,-0.05540547892451286,0.015442467294633389,0.3964868485927582,-0.9162368178367615,0.0,0.0,0.0,0.0,0.0,0.0
488,1724820561966002980,-1.3664774894714355,0.18072275817394257,0.1472034603357315,-0.05670536309480667,0.015742026269435883,0.3968253433704376,-0.9160057306289673,0.0,0.0,0.0,0.0,0.0,0.0
490,1724820561976152177,-1.366034746170044,0.18068382143974304,0.14740489423274994,-0.056337010115385056,0.015500144101679325,0.39691102504730225,-0.9159954190254211,0.0,0.0,0.0,0.0,0.0,0.0
492,1724820561986054010,-1.3655338287353516,0.18068282306194305,0.14763328433036804,-0.05703064799308777,0.01577889360487461,0.39691996574401855,-0.9159438014030457,0.0,0.0,0.0,0.0,0.0,0.0
494,1724820561995812218,-1.3650811910629272,0.18074214458465576,0.14777766168117523,-0.05563708394765854,0.015354610048234463,0.39663219451904297,-0.9161613583564758,0.0,0.0,0.0,0.0,0.0,0.0
496,1724820562006003932,-1.364590048789978,0.18079662322998047,0.14788296818733215,-0.05529879406094551,0.015614460222423077,0.39648839831352234,-0.9162397384643555,0.0,0.0,0.0,0.0,0.0,0.0
498,1724820562015667762,-1.3639967441558838,0.18090234696865082,0.14795468747615814,-0.05487161874771118,0.015621664002537727,0.3963632881641388,-0.9163193702697754,0.0,0.0,0.0,0.0,0.0,0.0
500,1724820562026210837,-1.3633533716201782,0.18102340400218964,0.14800295233726501,-0.05520560219883919,0.015816494822502136,0.3960827589035034,-0.9164173007011414,0.0,0.0,0.0,0.0,0.0,0.0
502,1724820562036232117,-1.3627150058746338,0.18117889761924744,0.14808931946754456,-0.056180600076913834,0.016305791214108467,0.3960312306880951,-0.916371762752533,0.0,0.0,0.0,0.0,0.0,0.0
504,1724820562045831140,-1.3621249198913574,0.18139921128749847,0.14823384582996368,-0.05680595710873604,0.016186196357011795,0.39613789319992065,-0.9162891507148743,0.0,0.0,0.0,0.0,0.0,0.0
506,1724820562074324514,-1.361578106880188,0.18158403038978577,0.14825767278671265,-0.05505579337477684,0.0159459188580513,0.395717054605484,-0.9165820479393005,0.0,0.0,0.0,0.0,0.0,0.0
508,1724820562074864771,-1.360998272895813,0.1818137764930725,0.14831961691379547,-0.05407015606760979,0.01601354591548443,0.3954761028289795,-0.9167435765266418,0.0,0.0,0.0,0.0,0.0,0.0
510,1724820562075946367,-1.3604190349578857,0.18199409544467926,0.14826427400112152,-0.05374322459101677,0.016405636444687843,0.39499571919441223,-0.9169628620147705,0.0,0.0,0.0,0.0,0.0,0.0
512,1724820562086454599,-1.3597559928894043,0.1821879744529724,0.1484144926071167,-0.05486154183745384,0.017180828377604485,0.39485281705856323,-0.9169440865516663,0.0,0.0,0.0,0.0,0.0,0.0
514,1724820562095656436,-1.3591727018356323,0.18239110708236694,0.14856068789958954,-0.05495331063866615,0.017201974987983704,0.3948979377746582,-0.9169187545776367,0.0,0.0,0.0,0.0,0.0,0.0
516,1724820562105911173,-1.3585169315338135,0.18254072964191437,0.1486484557390213,-0.05525935813784599,0.017743509262800217,0.39478275179862976,-0.9169395565986633,0.0,0.0,0.0,0.0,0.0,0.0
518,1724820562116040738,-1.3578453063964844,0.18264755606651306,0.14856627583503723,-0.055148184299468994,0.018246695399284363,0.39448556303977966,-0.9170643091201782,0.0,0.0,0.0,0.0,0.0,0.0
520,1724820562125591322,-1.357134222984314,0.18280501663684845,0.14865495264530182,-0.05518300458788872,0.01825634390115738,0.3947823941707611,-0.9169342517852783,0.0,0.0,0.0,0.0,0.0,0.0
522,1724820562139071796,-1.3563451766967773,0.18292108178138733,0.14875267446041107,-0.054511282593011856,0.018035538494586945,0.3950701653957367,-0.9168549180030823,0.0,0.0,0.0,0.0,0.0,0.0
524,1724820562145829325,-1.355603814125061,0.183072030544281,0.14881570637226105,-0.05379115790128708,0.01782440021634102,0.3947885036468506,-0.9170227646827698,0.0,0.0,0.0,0.0,0.0,0.0
526,1724820562155620214,-1.3548977375030518,0.18330074846744537,0.14908549189567566,-0.05297527089715004,0.017857495695352554,0.39467352628707886,-0.9171191453933716,0.0,0.0,0.0,0.0,0.0,0.0
528,1724820562165717644,-1.3541401624679565,0.1834602952003479,0.14912474155426025,-0.050693079829216,0.016796497628092766,0.3942147493362427,-0.9174655079841614,0.0,0.0,0.0,0.0,0.0,0.0
530,1724820562176885309,-1.3532923460006714,0.18369998037815094,0.14941653609275818,-0.050934117287397385,0.01631035842001438,0.39417070150375366,-0.9174798130989075,0.0,0.0,0.0,0.0,0.0,0.0
532,1724820562185955506,-1.35252845287323,0.183948814868927,0.1497741937637329,-0.04983828589320183,0.015395363792777061,0.39420634508132935,-0.9175404906272888,0.0,0.0,0.0,0.0,0.0,0.0
534,1724820562195971879,-1.3519504070281982,0.1843176633119583,0.15030677616596222,-0.04704374074935913,0.014118751510977745,0.3946291506290436,-0.9175268411636353,0.0,0.0,0.0,0.0,0.0,0.0
536,1724820562205514037,-1.3511570692062378,0.18453247845172882,0.15065236389636993,-0.04734906181693077,0.014006327837705612,0.3939509391784668,-0.9178041815757751,0.0,0.0,0.0,0.0,0.0,0.0
538,1724820562215608996,-1.350373387336731,0.1847386360168457,0.15098430216312408,-0.04701540991663933,0.013439154252409935,0.3937535583972931,-0.9179145097732544,0.0,0.0,0.0,0.0,0.0,0.0
540,1724820562230011213,-1.3496077060699463,0.1849951446056366,0.1513841450214386,-0.045160189270973206,0.012122116051614285,0.3938159942626953,-0.9179992079734802,0.0,0.0,0.0,0.0,0.0,0.0
542,1724820562240467687,-1.348947525024414,0.18516995012760162,0.15176834166049957,-0.04204246401786804,0.010690327733755112,0.3937557637691498,-0.9181909561157227,0.0,0.0,0.0,0.0,0.0,0.0
544,1724820562245538655,-1.3483079671859741,0.18532519042491913,0.15200740098953247,-0.03989795967936516,0.009713825769722462,0.3928487300872803,-0.9186859130859375,0.0,0.0,0.0,0.0,0.0,0.0
546,1724820562256491942,-1.3475706577301025,0.1854221224784851,0.1523338109254837,-0.038714006543159485,0.009073430672287941,0.39256879687309265,-0.9188627004623413,0.0,0.0,0.0,0.0,0.0,0.0
548,1724820562265610338,-1.3467918634414673,0.18552863597869873,0.15280009806156158,-0.038349736481904984,0.008090276271104813,0.39252904057502747,-0.9189041256904602,0.0,0.0,0.0,0.0,0.0,0.0
550,1724820562275956644,-1.3461390733718872,0.18559236824512482,0.153070867061615,-0.03537192940711975,0.006839692126959562,0.3920687735080719,-0.9192302227020264,0.0,0.0,0.0,0.0,0.0,0.0
552,1724820562286037108,-1.3455160856246948,0.18561269342899323,0.15331757068634033,-0.03403232991695404,0.00652284873649478,0.39123570919036865,-0.91963791847229,0.0,0.0,0.0,0.0,0.0,0.0
554,1724820562297106324,-1.3449816703796387,0.1856720745563507,0.15366026759147644,-0.032145336270332336,0.005928619299083948,0.39107033610343933,-0.9197801351547241,0.0,0.0,0.0,0.0,0.0,0.0
556,1724820562313213683,-1.3441745042800903,0.1856563240289688,0.15389589965343475,-0.032498620450496674,0.005589886102825403,0.39088374376296997,-0.9198492169380188,0.0,0.0,0.0,0.0,0.0,0.0
558,1724820562316060548,-1.3435074090957642,0.18570691347122192,0.15421460568904877,-0.031793951988220215,0.004802670329809189,0.39073383808135986,-0.9199419021606445,0.0,0.0,0.0,0.0,0.0,0.0
560,1724820562326290358,-1.3429319858551025,0.185740664601326,0.15444712340831757,-0.030266914516687393,0.004167253151535988,0.3900400698184967,-0.9202909469604492,0.0,0.0,0.0,0.0,0.0,0.0
562,1724820562336619824,-1.3423415422439575,0.18577447533607483,0.1546996533870697,-0.028823252767324448,0.002898516831919551,0.38959506154060364,-0.9205306172370911,0.0,0.0,0.0,0.0,0.0,0.0
564,1724820562345707824,-1.3418067693710327,0.18574990332126617,0.15483932197093964,-0.026813356205821037,0.0024686274118721485,0.38883689045906067,-0.9209131598472595,0.0,0.0,0.0,0.0,0.0,0.0
566,1724820562356036088,-1.3413567543029785,0.1857283115386963,0.15512356162071228,-0.024959834292531013,0.0020491676405072212,0.3883873224258423,-0.9211558103561401,0.0,0.0,0.0,0.0,0.0,0.0
568,1724820562366872107,-1.340842843055725,0.18574227392673492,0.15541212260723114,-0.022921817377209663,0.0011186759220436215,0.388016015291214,-0.9213669300079346,0.0,0.0,0.0,0.0,0.0,0.0
570,1724820562380207700,-1.3402581214904785,0.18574175238609314,0.1557142436504364,-0.022714314982295036,0.0006771656917408109,0.3875926434993744,-0.9215506315231323,0.0,0.0,0.0,0.0,0.0,0.0
572,1724820562390850961,-1.3396302461624146,0.18563120067119598,0.15593405067920685,-0.0214267298579216,7.09761370671913e-05,0.3872584104537964,-0.9217222332954407,0.0,0.0,0.0,0.0,0.0,0.0
574,1724820562398760930,-1.3390120267868042,0.18560755252838135,0.15623195469379425,-0.02023765631020069,-0.0003394560771994293,0.38702404499053955,-0.9218474626541138,0.0,0.0,0.0,0.0,0.0,0.0
576,1724820562405863395,-1.3382785320281982,0.18561683595180511,0.15666019916534424,-0.02149570919573307,-0.0010459134355187416,0.3877458870410919,-0.9215151071548462,0.0,0.0,0.0,0.0,0.0,0.0
578,1724820562416377163,-1.3376797437667847,0.18557371199131012,0.1568835973739624,-0.01942974515259266,-0.002282855100929737,0.3882141709327698,-0.9213615655899048,0.0,0.0,0.0,0.0,0.0,0.0
580,1724820562425684057,-1.3369767665863037,0.18551909923553467,0.15705963969230652,-0.018811367452144623,-0.0023937365040183067,0.3878976106643677,-0.9215073585510254,0.0,0.0,0.0,0.0,0.0,0.0
582,1724820562445326368,-1.3364335298538208,0.18551068007946014,0.15725131332874298,-0.01750943809747696,-0.002809785306453705,0.38757026195526123,-0.9216696619987488,0.0,0.0,0.0,0.0,0.0,0.0
584,1724820562445819322,-1.3357856273651123,0.18541297316551208,0.15732325613498688,-0.016766346991062164,-0.002904304536059499,0.38708823919296265,-0.92188560962677,0.0,0.0,0.0,0.0,0.0,0.0
586,1724820562455402390,-1.3351541757583618,0.1853758543729782,0.157382532954216,-0.015816660597920418,-0.0031769161578267813,0.3867906928062439,-0.9220263957977295,0.0,0.0,0.0,0.0,0.0,0.0
588,1724820562466579064,-1.3345425128936768,0.18541155755519867,0.1574777513742447,-0.015073409304022789,-0.004104808438569307,0.38640037178993225,-0.9221987724304199,0.0,0.0,0.0,0.0,0.0,0.0
590,1724820562477359092,-1.3339853286743164,0.18541939556598663,0.1575363725423813,-0.012700093910098076,-0.005451546981930733,0.3859621584415436,-0.9224111437797546,0.0,0.0,0.0,0.0,0.0,0.0
592,1724820562486384894,-1.3333905935287476,0.18549983203411102,0.15768828988075256,-0.0119341304525733,-0.0059209829196333885,0.38557755947113037,-0.9225792288780212,0.0,0.0,0.0,0.0,0.0,0.0
594,1724820562495598994,-1.3327741622924805,0.18564189970493317,0.1577993780374527,-0.010900154709815979,-0.0063337176106870174,0.38466405868530273,-0.9229705929756165,0.0,0.0,0.0,0.0,0.0,0.0
596,1724820562506545352,-1.3321384191513062,0.18576809763908386,0.15789839625358582,-0.008691772818565369,-0.0071059768088161945,0.3841468095779419,-0.9232037663459778,0.0,0.0,0.0,0.0,0.0,0.0
598,1724820562515755139,-1.3314168453216553,0.18600966036319733,0.15813884139060974,-0.00743328919634223,-0.008106186985969543,0.3841075897216797,-0.9232227802276611,0.0,0.0,0.0,0.0,0.0,0.0
600,1724820562527167517,-1.3305522203445435,0.18642792105674744,0.15834204852581024,-0.007983212359249592,-0.008901131339371204,0.38383200764656067,-0.9233255386352539,0.0,0.0,0.0,0.0,0.0,0.0
602,1724820562540207882,-1.329789638519287,0.18688735365867615,0.15852044522762299,-0.005588735453784466,-0.009603315964341164,0.3839324414730072,-0.9232943654060364,0.0,0.0,0.0,0.0,0.0,0.0
604,1724820562545329884,-1.3287020921707153,0.18726874887943268,0.15857167541980743,-0.0042053163051605225,-0.010570977814495564,0.38346368074417114,-0.9234859347343445,0.0,0.0,0.0,0.0,0.0,0.0
606,1724820562556006292,-1.3275995254516602,0.18773867189884186,0.15866927802562714,-0.003139369422569871,-0.011931453831493855,0.3823893368244171,-0.9239189624786377,0.0,0.0,0.0,0.0,0.0,0.0
608,1724820562569503923,-1.3266041278839111,0.18826192617416382,0.1587253212928772,-0.00015788766904734075,-0.012739491648972034,0.38157761096954346,-0.924248993396759,0.0,0.0,0.0,0.0,0.0,0.0
610,1724820562584662783,-1.3254033327102661,0.188894584774971,0.1591159850358963,0.0010296093532815576,-0.014235844835639,0.38165345788002014,-0.9241952300071716,0.0,0.0,0.0,0.0,0.0,0.0
612,1724820562586970040,-1.3241626024246216,0.18961894512176514,0.1594630777835846,0.002684247912839055,-0.015160132199525833,0.38081058859825134,-0.9245249032974243,0.0,0.0,0.0,0.0,0.0,0.0
614,1724820562595887385,-1.3226970434188843,0.190301775932312,0.15975897014141083,0.0031720648985356092,-0.015774162486195564,0.3803962469100952,-0.9246836304664612,0.0,0.0,0.0,0.0,0.0,0.0
616,1724820562606206715,-1.3212947845458984,0.19099277257919312,0.15973535180091858,0.007419290021061897,-0.01707385666668415,0.37984713912010193,-0.9248619079589844,0.0,0.0,0.0,0.0,0.0,0.0
618,1724820562618205636,-1.3197256326675415,0.19179879128932953,0.1600087583065033,0.006288261618465185,-0.018089130520820618,0.37924981117248535,-0.9250961542129517,0.0,0.0,0.0,0.0,0.0,0.0
620,1724820562625603552,-1.3179600238800049,0.19268698990345,0.15995217859745026,0.008231861516833305,-0.018336588516831398,0.3783928155899048,-0.9254268407821655,0.0,0.0,0.0,0.0,0.0,0.0
622,1724820562638922051,-1.3160736560821533,0.19363179802894592,0.16016539931297302,0.011336855590343475,-0.020379310473799706,0.37925985455513,-0.9249963164329529,0.0,0.0,0.0,0.0,0.0,0.0
624,1724820562658580095,-1.3138850927352905,0.19449524581432343,0.16026602685451508,0.011013314127922058,-0.021264785900712013,0.37912946939468384,-0.925033688545227,0.0,0.0,0.0,0.0,0.0,0.0
626,1724820562658847944,-1.311731219291687,0.19540318846702576,0.1601720005273819,0.010776764713227749,-0.021415064111351967,0.3785378932952881,-0.9252753257751465,0.0,0.0,0.0,0.0,0.0,0.0
628,1724820562666431076,-1.3094958066940308,0.19646130502223969,0.1601482480764389,0.015946954488754272,-0.022446732968091965,0.37841951847076416,-0.9252246618270874,0.0,0.0,0.0,0.0,0.0,0.0
630,1724820562676007615,-1.3067127466201782,0.19760781526565552,0.16050395369529724,0.016670873388648033,-0.023712070658802986,0.379159539937973,-0.9248772263526917,0.0,0.0,0.0,0.0,0.0,0.0
632,1724820562687769466,-1.304221272468567,0.19857577979564667,0.1604025661945343,0.01946594938635826,-0.025523332878947258,0.37802812457084656,-0.9252374768257141,0.0,0.0,0.0,0.0,0.0,0.0
634,1724820562695648338,-1.3015340566635132,0.1998087763786316,0.16046223044395447,0.018046317622065544,-0.0243990421295166,0.37745997309684753,-0.9255285859107971,0.0,0.0,0.0,0.0,0.0,0.0
636,1724820562707076824,-1.2986572980880737,0.20111684501171112,0.1606277972459793,0.021802280098199844,-0.025340385735034943,0.3778432011604309,-0.9252659678459167,0.0,0.0,0.0,0.0,0.0,0.0
638,1724820562716068615,-1.2956840991973877,0.20246750116348267,0.1604764312505722,0.024986494332551956,-0.027919810265302658,0.3781018853187561,-0.9250055551528931,0.0,0.0,0.0,0.0,0.0,0.0
640,1724820562726253833,-1.2924939393997192,0.203770250082016,0.1604810506105423,0.02790146879851818,-0.02930447645485401,0.3774079382419586,-0.925162672996521,0.0,0.0,0.0,0.0,0.0,0.0
642,1724820562735949192,-1.2894160747528076,0.2052319496870041,0.1602957546710968,0.02573998272418976,-0.028929248452186584,0.37623435258865356,-0.9257149696350098,0.0,0.0,0.0,0.0,0.0,0.0
644,1724820562745504625,-1.2860263586044312,0.2069048434495926,0.16029991209506989,0.0284629724919796,-0.031286370009183884,0.37803250551223755,-0.9248256683349609,0.0,0.0,0.0,0.0,0.0,0.0
646,1724820562756893513,-1.2826327085494995,0.20840507745742798,0.16003751754760742,0.03273477777838707,-0.034268785268068314,0.3776501715183258,-0.9247348308563232,0.0,0.0,0.0,0.0,0.0,0.0
648,1724820562765943290,-1.27931547164917,0.2100195586681366,0.15977385640144348,0.032517340034246445,-0.03262139484286308,0.3756074011325836,-0.9256336688995361,0.0,0.0,0.0,0.0,0.0,0.0
650,1724820562775825245,-1.2757492065429688,0.21181614696979523,0.1595517098903656,0.035728394985198975,-0.03554745763540268,0.37641414999961853,-0.9250795245170593,0.0,0.0,0.0,0.0,0.0,0.0
652,1724820562788942217,-1.272478461265564,0.2131335288286209,0.1591522991657257,0.035034023225307465,-0.034926723688840866,0.3754845857620239,-0.9255074262619019,0.0,0.0,0.0,0.0,0.0,0.0
654,1724820562796659957,-1.269094705581665,0.21496592462062836,0.1589287519454956,0.037351228296756744,-0.03660445287823677,0.37474462389945984,-0.9256519079208374,0.0,0.0,0.0,0.0,0.0,0.0
656,1724820562806937236,-1.2654584646224976,0.21674440801143646,0.1585489958524704,0.03795363008975983,-0.03736245259642601,0.37462207674980164,-0.9256467819213867,0.0,0.0,0.0,0.0,0.0,0.0
658,1724820562817167311,-1.261823058128357,0.21848708391189575,0.1581496298313141,0.04270095378160477,-0.04023837298154831,0.37458404898643494,-0.9253347516059875,0.0,0.0,0.0,0.0,0.0,0.0
660,1724820562825497636,-1.2584302425384521,0.2199346274137497,0.157536581158638,0.042122989892959595,-0.04039959982037544,0.3736840486526489,-0.9257179498672485,0.0,0.0,0.0,0.0,0.0,0.0
662,1724820562842422381,-1.255003809928894,0.22175118327140808,0.15712705254554749,0.04369967803359032,-0.0413033552467823,0.37304818630218506,-0.9258615374565125,0.0,0.0,0.0,0.0,0.0,0.0
664,1724820562845244850,-1.251335859298706,0.22351408004760742,0.15655873715877533,0.04681950435042381,-0.044057197868824005,0.3730534315109253,-0.925579845905304,0.0,0.0,0.0,0.0,0.0,0.0
666,1724820562856039720,-1.2481063604354858,0.22510217130184174,0.15599089860916138,0.049462441354990005,-0.04397233575582504,0.3713655173778534,-0.9261249899864197,0.0,0.0,0.0,0.0,0.0,0.0
668,1724820562870114793,-1.2449312210083008,0.22652174532413483,0.1553705632686615,0.04931666702032089,-0.045557901263237,0.37135595083236694,-0.9260600209236145,0.0,0.0,0.0,0.0,0.0,0.0
670,1724820562875430714,-1.241633415222168,0.2281791865825653,0.15474849939346313,0.05093346908688545,-0.046936407685279846,0.37044844031333923,-0.926267147064209,0.0,0.0,0.0,0.0,0.0,0.0
672,1724820562886298794,-1.238315224647522,0.22976046800613403,0.1541518121957779,0.05264145880937576,-0.04862423241138458,0.3701838254928589,-0.9261903762817383,0.0,0.0,0.0,0.0,0.0,0.0
674,1724820562896100390,-1.2351500988006592,0.2311224639415741,0.1531791239976883,0.05437213182449341,-0.05039345100522041,0.36940231919288635,-0.9263077974319458,0.0,0.0,0.0,0.0,0.0,0.0
676,1724820562906798966,-1.2323555946350098,0.2323213368654251,0.1525294929742813,0.05346067622303963,-0.04905111715197563,0.3687167167663574,-0.9267060160636902,0.0,0.0,0.0,0.0,0.0,0.0
678,1724820562915810717,-1.2295236587524414,0.23357151448726654,0.1517612636089325,0.05575920641422272,-0.050363413989543915,0.36814138293266296,-0.9267289042472839,0.0,0.0,0.0,0.0,0.0,0.0
680,1724820562925740554,-1.2265385389328003,0.23488514125347137,0.15150921046733856,0.05914859101176262,-0.0515918992459774,0.36799827218055725,-0.9265080094337463,0.0,0.0,0.0,0.0,0.0,0.0
682,1724820562936431265,-1.2240170240402222,0.23591142892837524,0.15068942308425903,0.058259911835193634,-0.05257246270775795,0.36651501059532166,-0.9270969033241272,0.0,0.0,0.0,0.0,0.0,0.0
684,1724820562953093025,-1.2215732336044312,0.23691529035568237,0.15016546845436096,0.05647950619459152,-0.05194343999028206,0.36693912744522095,-0.9270747900009155,0.0,0.0,0.0,0.0,0.0,0.0
686,1724820562958908349,-1.2194105386734009,0.23778626322746277,0.14955630898475647,0.06036863103508949,-0.05392132326960564,0.3662135899066925,-0.9270036816596985,0.0,0.0,0.0,0.0,0.0,0.0
688,1724820562966238455,-1.2174112796783447,0.23862947523593903,0.14904789626598358,0.06378971040248871,-0.054884664714336395,0.3648068904876709,-0.927272617816925,0.0,0.0,0.0,0.0,0.0,0.0
690,1724820562977735911,-1.215431571006775,0.23931238055229187,0.1484714299440384,0.06212051212787628,-0.05394226685166359,0.36410844326019287,-0.9277157187461853,0.0,0.0,0.0,0.0,0.0,0.0
692,1724820562986757686,-1.2135744094848633,0.2401989847421646,0.1479480117559433,0.06294523924589157,-0.05700434371829033,0.36376985907554626,-0.9276098608970642,0.0,0.0,0.0,0.0,0.0,0.0
694,1724820562997000519,-1.2118244171142578,0.24107079207897186,0.14763890206813812,0.06555893272161484,-0.05816550552845001,0.363468199968338,-0.9274749755859375,0.0,0.0,0.0,0.0,0.0,0.0
696,1724820563006433627,-1.2105507850646973,0.24170823395252228,0.14714789390563965,0.0694265365600586,-0.05929442122578621,0.3635921776294708,-0.9270733594894409,0.0,0.0,0.0,0.0,0.0,0.0
698,1724820563016204415,-1.2092111110687256,0.24221999943256378,0.1467450112104416,0.06792929768562317,-0.060208167880773544,0.36230576038360596,-0.927628755569458,0.0,0.0,0.0,0.0,0.0,0.0
700,1724820563026310657,-1.2078436613082886,0.24284566938877106,0.14641091227531433,0.06723431497812271,-0.060199156403541565,0.3611249327659607,-0.9281402826309204,0.0,0.0,0.0,0.0,0.0,0.0
702,1724820563036693692,-1.206842303276062,0.24323153495788574,0.14595738053321838,0.06831754744052887,-0.06041982024908066,0.3601493835449219,-0.9284259080886841,0.0,0.0,0.0,0.0,0.0,0.0
704,1724820563047942399,-1.206132173538208,0.2434779852628708,0.14562645554542542,0.06985576450824738,-0.06050730124115944,0.35952550172805786,-0.9285475611686707,0.0,0.0,0.0,0.0,0.0,0.0
706,1724820563055843104,-1.2054436206817627,0.24377982318401337,0.14545857906341553,0.07083127647638321,-0.06141839176416397,0.3598579168319702,-0.9282850027084351,0.0,0.0,0.0,0.0,0.0,0.0
708,1724820563065766549,-1.2048652172088623,0.2439340204000473,0.14512833952903748,0.07080124318599701,-0.06245113164186478,0.35944849252700806,-0.9283769726753235,0.0,0.0,0.0,0.0,0.0,0.0
710,1724820563085576598,-1.2043582201004028,0.24424991011619568,0.14498282968997955,0.07143782824277878,-0.06296147406101227,0.3586215078830719,-0.928613543510437,0.0,0.0,0.0,0.0,0.0,0.0
712,1724820563087535724,-1.2039164304733276,0.2444368451833725,0.14489755034446716,0.07097674161195755,-0.0639377012848854,0.35840117931365967,-0.9286673069000244,0.0,0.0,0.0,0.0,0.0,0.0
714,1724820563095879384,-1.2036482095718384,0.244597390294075,0.14481329917907715,0.07171463966369629,-0.06464222818613052,0.3584757149219513,-0.9285330176353455,0.0,0.0,0.0,0.0,0.0,0.0
716,1724820563106726184,-1.2034562826156616,0.24472789466381073,0.14463087916374207,0.0708853080868721,-0.06474293768405914,0.3575775921344757,-0.9289358854293823,0.0,0.0,0.0,0.0,0.0,0.0
718,1724820563117796466,-1.2033807039260864,0.24483424425125122,0.14458483457565308,0.07119331508874893,-0.0652904212474823,0.3576650619506836,-0.9288403391838074,0.0,0.0,0.0,0.0,0.0,0.0
720,1724820563126111359,-1.2033443450927734,0.24485155940055847,0.14458908140659332,0.07059314101934433,-0.06515558809041977,0.3574097752571106,-0.9289939403533936,0.0,0.0,0.0,0.0,0.0,0.0
722,1724820563139823981,-1.2033008337020874,0.24500377476215363,0.14475181698799133,0.07046579569578171,-0.06552818417549133,0.3574535548686981,-0.9289605021476746,0.0,0.0,0.0,0.0,0.0,0.0
724,1724820563146066063,-1.2032880783081055,0.24508212506771088,0.1448066085577011,0.0705532506108284,-0.06547436118125916,0.35729479789733887,-0.9290187358856201,0.0,0.0,0.0,0.0,0.0,0.0
726,1724820563156022546,-1.2031842470169067,0.2451908439397812,0.14488205313682556,0.07046270370483398,-0.06543325632810593,0.35753175616264343,-0.9289373755455017,0.0,0.0,0.0,0.0,0.0,0.0
728,1724820563166149469,-1.2030739784240723,0.2453036606311798,0.14493940770626068,0.06945671886205673,-0.06522517651319504,0.3574827015399933,-0.929046630859375,0.0,0.0,0.0,0.0,0.0,0.0
730,1724820563177718901,-1.202964425086975,0.24541977047920227,0.1449563056230545,0.0691145732998848,-0.06520776450634003,0.35726025700569153,-0.9291588664054871,0.0,0.0,0.0,0.0,0.0,0.0
732,1724820563216033609,-1.2028611898422241,0.245530903339386,0.14499691128730774,0.06913980841636658,-0.06508792191743851,0.3573768138885498,-0.9291206002235413,0.0,0.0,0.0,0.0,0.0,0.0
734,1724820563216318171,-1.202709674835205,0.24561020731925964,0.14497828483581543,0.06889654695987701,-0.06499435007572174,0.35725805163383484,-0.9291908740997314,0.0,0.0,0.0,0.0,0.0,0.0
736,1724820563216851562,-1.2025893926620483,0.24568654596805573,0.1449761837720871,0.0689479410648346,-0.06468909978866577,0.35744816064834595,-0.9291353225708008,0.0,0.0,0.0,0.0,0.0,0.0
738,1724820563217275122,-1.2024701833724976,0.24575479328632355,0.145005002617836,0.06979349255561829,-0.06453555077314377,0.35789772868156433,-0.9289097785949707,0.0,0.0,0.0,0.0,0.0,0.0
740,1724820563226973227,-1.2023096084594727,0.24577413499355316,0.14501088857650757,0.07098989933729172,-0.06444018334150314,0.3584943413734436,-0.9285955429077148,0.0,0.0,0.0,0.0,0.0,0.0
742,1724820563236010251,-1.2020134925842285,0.24581971764564514,0.14491945505142212,0.07034265249967575,-0.06528735160827637,0.3587054908275604,-0.9285041689872742,0.0,0.0,0.0,0.0,0.0,0.0
744,1724820563245782668,-1.2018051147460938,0.24581190943717957,0.14469082653522491,0.07042568922042847,-0.06441798061132431,0.3584344685077667,-0.9286631941795349,0.0,0.0,0.0,0.0,0.0,0.0
746,1724820563255657347,-1.201528549194336,0.24578016996383667,0.1445973664522171,0.07122991979122162,-0.06366828083992004,0.35860368609428406,-0.9285882115364075,0.0,0.0,0.0,0.0,0.0,0.0
748,1724820563265696132,-1.2011442184448242,0.24583326280117035,0.14450722932815552,0.07003665715456009,-0.06325574219226837,0.3588385283946991,-0.9286165237426758,0.0,0.0,0.0,0.0,0.0,0.0
750,1724820563276074540,-1.2007783651351929,0.24587689340114594,0.14447803795337677,0.06992590427398682,-0.0631411075592041,0.3593175411224365,-0.9284473061561584,0.0,0.0,0.0,0.0,0.0,0.0
752,1724820563288108800,-1.2002899646759033,0.24589602649211884,0.1445317417383194,0.06943737715482712,-0.06304798275232315,0.35998666286468506,-0.9282311797142029,0.0,0.0,0.0,0.0,0.0,0.0
754,1724820563295953354,-1.1998541355133057,0.2458926886320114,0.1445823460817337,0.06955206394195557,-0.06308489292860031,0.3605700731277466,-0.927993655204773,0.0,0.0,0.0,0.0,0.0,0.0
756,1724820563306236532,-1.1994198560714722,0.24582409858703613,0.1445728987455368,0.06981702148914337,-0.06312097609043121,0.36105453968048096,-0.9277828335762024,0.0,0.0,0.0,0.0,0.0,0.0
758,1724820563315785986,-1.1990282535552979,0.2457685023546219,0.14469872415065765,0.07209128141403198,-0.06309772282838821,0.36252647638320923,-0.9270362854003906,0.0,0.0,0.0,0.0,0.0,0.0
760,1724820563325574805,-1.1986050605773926,0.24559816718101501,0.1446850299835205,0.0729227364063263,-0.06263025104999542,0.363254189491272,-0.9267179369926453,0.0,0.0,0.0,0.0,0.0,0.0
762,1724820563340183084,-1.1980785131454468,0.24537724256515503,0.14472855627536774,0.07230420410633087,-0.06192849203944206,0.36377453804016113,-0.9266093969345093,0.0,0.0,0.0,0.0,0.0,0.0
764,1724820563345387400,-1.197646975517273,0.24509604275226593,0.1447511464357376,0.07237957417964935,-0.061587702482938766,0.36480578780174255,-0.926220715045929,0.0,0.0,0.0,0.0,0.0,0.0
766,1724820563368948279,-1.1972641944885254,0.2448405623435974,0.14473457634449005,0.07254567742347717,-0.06121951714158058,0.36513757705688477,-0.9261013865470886,0.0,0.0,0.0,0.0,0.0,0.0
768,1724820563369209858,-1.1968549489974976,0.2446141391992569,0.14478623867034912,0.07211020588874817,-0.061255715787410736,0.3658212125301361,-0.9258632659912109,0.0,0.0,0.0,0.0,0.0,0.0
770,1724820563375697852,-1.1964714527130127,0.24441780149936676,0.14479875564575195,0.0716933012008667,-0.06151190027594566,0.3662187159061432,-0.9257215261459351,0.0,0.0,0.0,0.0,0.0,0.0
772,1724820563391623892,-1.1961190700531006,0.24417254328727722,0.14477868378162384,0.07231446355581284,-0.061185576021671295,0.3666693866252899,-0.9255163669586182,0.0,0.0,0.0,0.0,0.0,0.0
774,1724820563395524817,-1.1957873106002808,0.24396640062332153,0.14474497735500336,0.07214461266994476,-0.06102212518453598,0.36678647994995117,-0.9254939556121826,0.0,0.0,0.0,0.0,0.0,0.0
776,1724820563406035076,-1.1954931020736694,0.2438122183084488,0.14472773671150208,0.07183641940355301,-0.0608786940574646,0.3670528531074524,-0.9254217743873596,0.0,0.0,0.0,0.0,0.0,0.0
778,1724820563417048068,-1.1951977014541626,0.2436678111553192,0.14464585483074188,0.07156053185462952,-0.06053907796740532,0.3668268322944641,-0.9255550503730774,0.0,0.0,0.0,0.0,0.0,0.0
780,1724820563425448193,-1.1949483156204224,0.24348990619182587,0.1445898413658142,0.07166776061058044,-0.06010375916957855,0.3670002222061157,-0.9255064129829407,0.0,0.0,0.0,0.0,0.0,0.0
782,1724820563439562621,-1.194680094718933,0.24336765706539154,0.14458723366260529,0.07210323959589005,-0.05983930826187134,0.3674180805683136,-0.9253239035606384,0.0,0.0,0.0,0.0,0.0,0.0
784,1724820563445718726,-1.1944516897201538,0.24322526156902313,0.14455591142177582,0.07237538695335388,-0.05942610651254654,0.36752259731292725,-0.9252877831459045,0.0,0.0,0.0,0.0,0.0,0.0
786,1724820563456165493,-1.194163203239441,0.2431095391511917,0.14467191696166992,0.07276108860969543,-0.05939823389053345,0.36851903796195984,-0.9248629808425903,0.0,0.0,0.0,0.0,0.0,0.0
788,1724820563465633657,-1.1938918828964233,0.24294555187225342,0.14467039704322815,0.0733865350484848,-0.059016283601522446,0.36922770738601685,-0.924555242061615,0.0,0.0,0.0,0.0,0.0,0.0
790,1724820563477095343,-1.1936343908309937,0.2428394854068756,0.14469482004642487,0.07414700835943222,-0.05901257321238518,0.37013402581214905,-0.9241323471069336,0.0,0.0,0.0,0.0,0.0,0.0
792,1724820563486929014,-1.1933547258377075,0.24271930754184723,0.14444828033447266,0.07438745349645615,-0.05858652666211128,0.3695269525051117,-0.9243830442428589,0.0,0.0,0.0,0.0,0.0,0.0
794,1724820563495627194,-1.1930996179580688,0.24262577295303345,0.1443995237350464,0.07439276576042175,-0.058391448110342026,0.3697710931301117,-0.9242973923683167,0.0,0.0,0.0,0.0,0.0,0.0
796,1724820563507690234,-1.1928035020828247,0.2426021844148636,0.14449501037597656,0.07433118671178818,-0.05852014571428299,0.3703765869140625,-0.9240516424179077,0.0,0.0,0.0,0.0,0.0,0.0
798,1724820563516017627,-1.1925585269927979,0.24260303378105164,0.14449858665466309,0.07406014204025269,-0.05865831300616264,0.370503693819046,-0.9240136742591858,0.0,0.0,0.0,0.0,0.0,0.0
800,1724820563525960263,-1.19222092628479,0.24259619414806366,0.14473013579845428,0.07324014604091644,-0.05894047021865845,0.3715283274650574,-0.9236496090888977,0.0,0.0,0.0,0.0,0.0,0.0
802,1724820563539130716,-1.1919677257537842,0.24255652725696564,0.1447630077600479,0.07347161322832108,-0.05904384329915047,0.372245728969574,-0.9233357906341553,0.0,0.0,0.0,0.0,0.0,0.0
804,1724820563545650431,-1.1916940212249756,0.24252650141716003,0.14476251602172852,0.07315947115421295,-0.058747317641973495,0.3724522292613983,-0.9232961535453796,0.0,0.0,0.0,0.0,0.0,0.0
806,1724820563555934096,-1.1914680004119873,0.24249529838562012,0.14480872452259064,0.07307254523038864,-0.05881365388631821,0.37288424372673035,-0.9231244325637817,0.0,0.0,0.0,0.0,0.0,0.0
808,1724820563589644241,-1.1912648677825928,0.2424645572900772,0.14485447108745575,0.0734894722700119,-0.058794789016246796,0.3735552132129669,-0.9228212237358093,0.0,0.0,0.0,0.0,0.0,0.0
810,1724820563589977097,-1.1910781860351562,0.24237580597400665,0.14480048418045044,0.07437744736671448,-0.05870285630226135,0.37383711338043213,-0.9226417541503906,0.0,0.0,0.0,0.0,0.0,0.0
812,1724820563590634704,-1.190866231918335,0.24231208860874176,0.14475780725479126,0.07397160679101944,-0.05856925621628761,0.3739092946052551,-0.9226536154747009,0.0,0.0,0.0,0.0,0.0,0.0
814,1724820563595731801,-1.1906276941299438,0.24220892786979675,0.14477738738059998,0.07375205308198929,-0.05837278068065643,0.3741033971309662,-0.9226049184799194,0.0,0.0,0.0,0.0,0.0,0.0
816,1724820563605774484,-1.1904470920562744,0.2420845329761505,0.1446898877620697,0.07268242537975311,-0.058307163417339325,0.3741964101791382,-0.922656238079071,0.0,0.0,0.0,0.0,0.0,0.0
818,1724820563619248978,-1.190276026725769,0.2420053333044052,0.14471055567264557,0.07234039902687073,-0.058315176516771317,0.3744202256202698,-0.9225919246673584,0.0,0.0,0.0,0.0,0.0,0.0
820,1724820563625843928,-1.190201759338379,0.24196141958236694,0.14470717310905457,0.07373733073472977,-0.0585792250931263,0.37463438510894775,-0.9223775863647461,0.0,0.0,0.0,0.0,0.0,0.0
822,1724820563636538417,-1.1900634765625,0.24190320074558258,0.14472909271717072,0.07296520471572876,-0.05830630660057068,0.37502822279930115,-0.9222962260246277,0.0,0.0,0.0,0.0,0.0,0.0
824,1724820563646108016,-1.1899068355560303,0.24187560379505157,0.14479467272758484,0.07279893755912781,-0.05850587040185928,0.37553590536117554,-0.9220901131629944,0.0,0.0,0.0,0.0,0.0,0.0
826,1724820563655834608,-1.1897794008255005,0.24183636903762817,0.14479386806488037,0.07270943373441696,-0.058547068387269974,0.3757791519165039,-0.9219954609870911,0.0,0.0,0.0,0.0,0.0,0.0
828,1724820563666194830,-1.189685583114624,0.24181872606277466,0.1448054313659668,0.07258778065443039,-0.058432772755622864,0.3758353888988495,-0.921989381313324,0.0,0.0,0.0,0.0,0.0,0.0
830,1724820563676183598,-1.1896129846572876,0.24178601801395416,0.14485180377960205,0.07322506606578827,-0.058398306369781494,0.3761492073535919,-0.9218131303787231,0.0,0.0,0.0,0.0,0.0,0.0
832,1724820563685589785,-1.189558506011963,0.24174286425113678,0.14481881260871887,0.07330156117677689,-0.05820869281888008,0.3760049641132355,-0.921877920627594,0.0,0.0,0.0,0.0,0.0,0.0
834,1724820563695661204,-1.189512014389038,0.2417324036359787,0.14483746886253357,0.07338565587997437,-0.05832739174365997,0.3761056363582611,-0.9218226075172424,0.0,0.0,0.0,0.0,0.0,0.0
836,1724820563706021312,-1.1894872188568115,0.24172432720661163,0.14481288194656372,0.07320789992809296,-0.05805341526865959,0.37616413831710815,-0.9218302369117737,0.0,0.0,0.0,0.0,0.0,0.0
838,1724820563715814625,-1.1894487142562866,0.24171456694602966,0.1448093205690384,0.07339474558830261,-0.05791822448372841,0.37626901268959045,-0.9217811226844788,0.0,0.0,0.0,0.0,0.0,0.0
840,1724820563726469630,-1.1894183158874512,0.2417297512292862,0.14478732645511627,0.0732448399066925,-0.05793948471546173,0.3764382004737854,-0.9217226505279541,0.0,0.0,0.0,0.0,0.0,0.0
842,1724820563737432977,-1.1893978118896484,0.2417517751455307,0.1447426676750183,0.07336261868476868,-0.057930584996938705,0.37657809257507324,-0.921656608581543,0.0,0.0,0.0,0.0,0.0,0.0
844,1724820563745660274,-1.189328908920288,0.24176833033561707,0.14471863210201263,0.07306588441133499,-0.05789564177393913,0.3767489194869995,-0.921612560749054,0.0,0.0,0.0,0.0,0.0,0.0
846,1724820563757991182,-1.189265251159668,0.24179865419864655,0.14471173286437988,0.07310469448566437,-0.05783946439623833,0.37716957926750183,-0.9214408993721008,0.0,0.0,0.0,0.0,0.0,0.0
848,1724820563794694161,-1.1891897916793823,0.24185717105865479,0.14474567770957947,0.07321572303771973,-0.05783085152506828,0.37742486596107483,-0.9213281273841858,0.0,0.0,0.0,0.0,0.0,0.0
850,1724820563794988961,-1.1891189813613892,0.2419065535068512,0.14467331767082214,0.07301845401525497,-0.0578150600194931,0.37751302123069763,-0.921308696269989,0.0,0.0,0.0,0.0,0.0,0.0
852,1724820563795301828,-1.1890244483947754,0.2419538050889969,0.1446589082479477,0.07330384850502014,-0.05712544173002243,0.3779343366622925,-0.9211562275886536,0.0,0.0,0.0,0.0,0.0,0.0
854,1724820563796164866,-1.1888763904571533,0.24204903841018677,0.14466284215450287,0.07302430272102356,-0.056986354291439056,0.3784206211566925,-0.9209874868392944,0.0,0.0,0.0,0.0,0.0,0.0
856,1724820563807317358,-1.1887500286102295,0.24211359024047852,0.1445467174053192,0.0729503184556961,-0.056818533688783646,0.3785346746444702,-0.9209568500518799,0.0,0.0,0.0,0.0,0.0,0.0
858,1724820563816221516,-1.188611626625061,0.24216558039188385,0.14442330598831177,0.07372372597455978,-0.056333862245082855,0.37866613268852234,-0.9208709001541138,0.0,0.0,0.0,0.0,0.0,0.0
860,1724820563826397176,-1.1884368658065796,0.24224798381328583,0.14431440830230713,0.0736735537648201,-0.05601240694522858,0.37874677777290344,-0.9208613634109497,0.0,0.0,0.0,0.0,0.0,0.0
862,1724820563838707115,-1.1882871389389038,0.24233950674533844,0.14430518448352814,0.07375264912843704,-0.0562676340341568,0.37920284271240234,-0.9206517934799194,0.0,0.0,0.0,0.0,0.0,0.0
864,1724820563845937259,-1.1881754398345947,0.24241195619106293,0.14421901106834412,0.07316863536834717,-0.056292176246643066,0.3793017864227295,-0.920656144618988,0.0,0.0,0.0,0.0,0.0,0.0
866,1724820563856433003,-1.1880820989608765,0.24249394237995148,0.1441972404718399,0.0733615830540657,-0.05609852075576782,0.37956956028938293,-0.9205422401428223,0.0,0.0,0.0,0.0,0.0,0.0
868,1724820563869633674,-1.1880371570587158,0.2425771802663803,0.14408524334430695,0.07332169264554977,-0.05593882501125336,0.37945467233657837,-0.9206025004386902,0.0,0.0,0.0,0.0,0.0,0.0
870,1724820563876097222,-1.187966227531433,0.2426322102546692,0.14403633773326874,0.07336019724607468,-0.05577179789543152,0.379655122756958,-0.920526921749115,0.0,0.0,0.0,0.0,0.0,0.0
872,1724820563886897732,-1.1878917217254639,0.24270674586296082,0.1439586877822876,0.07387809455394745,-0.05641288682818413,0.3791968524456024,-0.9206352829933167,0.0,0.0,0.0,0.0,0.0,0.0
874,1724820563896248470,-1.1878241300582886,0.2427213340997696,0.14390581846237183,0.07347492128610611,-0.05603530630469322,0.37946707010269165,-0.9205793142318726,0.0,0.0,0.0,0.0,0.0,0.0
876,1724820563911382791,-1.1878107786178589,0.24272918701171875,0.14387433230876923,0.07356549799442291,-0.05590532720088959,0.3796522617340088,-0.9205036759376526,0.0,0.0,0.0,0.0,0.0,0.0
878,1724820563915773511,-1.1877914667129517,0.24273227155208588,0.14379532635211945,0.07341109961271286,-0.055591367185115814,0.37949350476264954,-0.9206004738807678,0.0,0.0,0.0,0.0,0.0,0.0
880,1724820563926234138,-1.1877812147140503,0.24273580312728882,0.14374291896820068,0.07331369817256927,-0.05552181974053383,0.3794231414794922,-0.9206413626670837,0.0,0.0,0.0,0.0,0.0,0.0
882,1724820563936151492,-1.1877520084381104,0.24276921153068542,0.14369289577007294,0.07379164546728134,-0.05604366585612297,0.3787703514099121,-0.9208403825759888,0.0,0.0,0.0,0.0,0.0,0.0
884,1724820563945619120,-1.1877403259277344,0.24275512993335724,0.1436760574579239,0.07308614999055862,-0.05588284134864807,0.3792248070240021,-0.9207192659378052,0.0,0.0,0.0,0.0,0.0,0.0
886,1724820563955789637,-1.1877297163009644,0.24275998771190643,0.1436324417591095,0.07376086711883545,-0.056026145815849304,0.378829687833786,-0.9208194613456726,0.0,0.0,0.0,0.0,0.0,0.0
888,1724820563966619270,-1.1877031326293945,0.24274463951587677,0.143685981631279,0.07328590005636215,-0.055864982306957245,0.37955063581466675,-0.9205702543258667,0.0,0.0,0.0,0.0,0.0,0.0
890,1724820563976393589,-1.1876685619354248,0.24275346100330353,0.1435898393392563,0.07371461391448975,-0.055848293006420135,0.37888631224632263,-0.9208106398582458,0.0,0.0,0.0,0.0,0.0,0.0
892,1724820563986924709,-1.1876509189605713,0.2427278310060501,0.14357425272464752,0.07338827103376389,-0.05562286823987961,0.37951385974884033,-0.9205918908119202,0.0,0.0,0.0,0.0,0.0,0.0
894,1724820563998796802,-1.1876189708709717,0.24275068938732147,0.1435243934392929,0.0737493708729744,-0.055640820413827896,0.3789379298686981,-0.920799195766449,0.0,0.0,0.0,0.0,0.0,0.0
896,1724820564006622506,-1.187596321105957,0.242780864238739,0.1434771716594696,0.07351473718881607,-0.055742520838975906,0.37873217463493347,-0.9208964705467224,0.0,0.0,0.0,0.0,0.0,0.0
898,1724820564029534614,-1.1875652074813843,0.24280010163784027,0.1434360146522522,0.07326193898916245,-0.05546708032488823,0.3786703050136566,-0.9209586381912231,0.0,0.0,0.0,0.0,0.0,0.0
900,1724820564029792205,-1.1875383853912354,0.24281510710716248,0.14338979125022888,0.07315641641616821,-0.055263057351112366,0.37896302342414856,-0.9208589792251587,0.0,0.0,0.0,0.0,0.0,0.0
902,1724820564038043808,-1.1875053644180298,0.2428330034017563,0.143366277217865,0.07359718531370163,-0.055191341787576675,0.3793335258960724,-0.92067551612854,0.0,0.0,0.0,0.0,0.0,0.0
904,1724820564045690352,-1.1874788999557495,0.24287471175193787,0.1433289796113968,0.07402077317237854,-0.05501987785100937,0.3794957399368286,-0.9205849766731262,0.0,0.0,0.0,0.0,0.0,0.0
906,1724820564056175496,-1.187409520149231,0.2429216057062149,0.14327260851860046,0.07403606176376343,-0.05488194525241852,0.37951943278312683,-0.9205821752548218,0.0,0.0,0.0,0.0,0.0,0.0
908,1724820564066183148,-1.1873042583465576,0.2429470270872116,0.14326411485671997,0.07416021823883057,-0.054732680320739746,0.3796320855617523,-0.9205346703529358,0.0,0.0,0.0,0.0,0.0,0.0
910,1724820564075868727,-1.187232494354248,0.24295267462730408,0.14319053292274475,0.07402991503477097,-0.05468660593032837,0.37977904081344604,-0.9204872846603394,0.0,0.0,0.0,0.0,0.0,0.0
912,1724820564086843909,-1.1871702671051025,0.2429894208908081,0.14313502609729767,0.07412178814411163,-0.054617609828710556,0.3798893988132477,-0.9204384088516235,0.0,0.0,0.0,0.0,0.0,0.0
914,1724820564095395746,-1.187114953994751,0.24302715063095093,0.14311444759368896,0.07449156790971756,-0.054498348385095596,0.3802308440208435,-0.9202746152877808,0.0,0.0,0.0,0.0,0.0,0.0
916,1724820564106287700,-1.1870557069778442,0.24311842024326324,0.14311011135578156,0.07438715547323227,-0.0543840192258358,0.3805587887763977,-0.920154333114624,0.0,0.0,0.0,0.0,0.0,0.0
918,1724820564119147257,-1.1869902610778809,0.24324549734592438,0.14307668805122375,0.07424791902303696,-0.05445845052599907,0.3810063898563385,-0.9199758768081665,0.0,0.0,0.0,0.0,0.0,0.0
920,1724820564132021763,-1.1869264841079712,0.2433634102344513,0.14308913052082062,0.07403355836868286,-0.054301731288433075,0.3814997375011444,-0.919797956943512,0.0,0.0,0.0,0.0,0.0,0.0
922,1724820564140340583,-1.1868230104446411,0.24347813427448273,0.14310528337955475,0.07380710542201996,-0.05402588099241257,0.3818501830101013,-0.919687032699585,0.0,0.0,0.0,0.0,0.0,0.0
924,1724820564145481952,-1.1866778135299683,0.24364812672138214,0.14317363500595093,0.07342642545700073,-0.05389903113245964,0.38253143429756165,-0.9194417595863342,0.0,0.0,0.0,0.0,0.0,0.0
926,1724820564156436033,-1.18653404712677,0.2437913417816162,0.14325973391532898,0.07305563986301422,-0.053509671241045,0.383068710565567,-0.9192702770233154,0.0,0.0,0.0,0.0,0.0,0.0
928,1724820564167471252,-1.1863914728164673,0.2439257949590683,0.14327505230903625,0.07306016981601715,-0.053165409713983536,0.3836892247200012,-0.9190310835838318,0.0,0.0,0.0,0.0,0.0,0.0
930,1724820564175340861,-1.1862248182296753,0.24406231939792633,0.14322300255298615,0.07256722450256348,-0.052795443683862686,0.38402578234672546,-0.9189509749412537,0.0,0.0,0.0,0.0,0.0,0.0
932,1724820564186468235,-1.1860440969467163,0.24418869614601135,0.1432276964187622,0.07268869876861572,-0.052288468927145004,0.3847636878490448,-0.9186616539955139,0.0,0.0,0.0,0.0,0.0,0.0
934,1724820564195805701,-1.1858487129211426,0.24437473714351654,0.1432085931301117,0.07205143570899963,-0.05201363191008568,0.38532117009162903,-0.9184937477111816,0.0,0.0,0.0,0.0,0.0,0.0
936,1724820564205601957,-1.1855762004852295,0.24452674388885498,0.1432560682296753,0.07106377184391022,-0.05165484920144081,0.38612088561058044,-0.9182550311088562,0.0,0.0,0.0,0.0,0.0,0.0
938,1724820564215676108,-1.1853129863739014,0.2446955144405365,0.14325515925884247,0.06957794725894928,-0.051088616251945496,0.38682860136032104,-0.9181026816368103,0.0,0.0,0.0,0.0,0.0,0.0
940,1724820564226290224,-1.185080885887146,0.2448391318321228,0.14327579736709595,0.06892417371273041,-0.05087893828749657,0.3876578211784363,-0.917813777923584,0.0,0.0,0.0,0.0,0.0,0.0
942,1724820564237940001,-1.1848571300506592,0.24493573606014252,0.14332199096679688,0.06898058205842972,-0.050659291446208954,0.38846349716186523,-0.917481005191803,0.0,0.0,0.0,0.0,0.0,0.0
944,1724820564245502667,-1.184630036354065,0.24510523676872253,0.14331461489200592,0.0678500235080719,-0.05005406588315964,0.38933876156806946,-0.9172276258468628,0.0,0.0,0.0,0.0,0.0,0.0
946,1724820564256600645,-1.1843533515930176,0.24526676535606384,0.14331308007240295,0.06621933728456497,-0.049286022782325745,0.39008647203445435,-0.9170705676078796,0.0,0.0,0.0,0.0,0.0,0.0
948,1724820564265666939,-1.1841132640838623,0.24542354047298431,0.14336293935775757,0.0663277879357338,-0.04876165837049484,0.39098647236824036,-0.9167075157165527,0.0,0.0,0.0,0.0,0.0,0.0
950,1724820564305705488,-1.1839157342910767,0.2455575168132782,0.14328370988368988,0.06673003733158112,-0.048480208963155746,0.391519695520401,-0.9164656400680542,0.0,0.0,0.0,0.0,0.0,0.0
952,1724820564306147340,-1.1837464570999146,0.2457050383090973,0.14309412240982056,0.06622642278671265,-0.047626543790102005,0.39164137840270996,-0.9164949059486389,0.0,0.0,0.0,0.0,0.0,0.0
954,1724820564306398551,-1.183547854423523,0.24584272503852844,0.1430843472480774,0.06619295477867126,-0.04717512056231499,0.39256107807159424,-0.9161270260810852,0.0,0.0,0.0,0.0,0.0,0.0
956,1724820564306673328,-1.1833062171936035,0.24595925211906433,0.14304794371128082,0.06598221510648727,-0.046569421887397766,0.3935486376285553,-0.9157494902610779,0.0,0.0,0.0,0.0,0.0,0.0
958,1724820564334394640,-1.1830320358276367,0.2461080402135849,0.1430240124464035,0.06457184255123138,-0.04574408754706383,0.39424970746040344,-0.9155901670455933,0.0,0.0,0.0,0.0,0.0,0.0
960,1724820564334728500,-1.1827569007873535,0.24627946317195892,0.14299383759498596,0.06388898193836212,-0.045201376080513,0.39493170380592346,-0.9153710007667542,0.0,0.0,0.0,0.0,0.0,0.0
962,1724820564337363165,-1.1825016736984253,0.24637308716773987,0.14292950928211212,0.06339718401432037,-0.04442698881030083,0.39555102586746216,-0.9151756763458252,0.0,0.0,0.0,0.0,0.0,0.0
964,1724820564345737672,-1.1822210550308228,0.24648751318454742,0.1429474651813507,0.06284399330615997,-0.04414781183004379,0.39653369784355164,-0.9148020148277283,0.0,0.0,0.0,0.0,0.0,0.0
966,1724820564356092354,-1.1818989515304565,0.24658244848251343,0.14301477372646332,0.06223170459270477,-0.043400391936302185,0.39729660749435425,-0.9145485758781433,0.0,0.0,0.0,0.0,0.0,0.0
968,1724820564367138012,-1.1816494464874268,0.2466656118631363,0.1431538611650467,0.061744872480630875,-0.043168604373931885,0.39850082993507385,-0.9140684604644775,0.0,0.0,0.0,0.0,0.0,0.0
970,1724820564375601491,-1.1813926696777344,0.24673105776309967,0.14322175085544586,0.06057073548436165,-0.042145535349845886,0.3990432918071747,-0.9139581322669983,0.0,0.0,0.0,0.0,0.0,0.0
972,1724820564408669708,-1.1811418533325195,0.24680566787719727,0.14341649413108826,0.058978065848350525,-0.04137066751718521,0.3998812735080719,-0.9137314558029175,0.0,0.0,0.0,0.0,0.0,0.0
974,1724820564409053960,-1.1809223890304565,0.24684463441371918,0.1436546891927719,0.057831794023513794,-0.040410351008176804,0.40078186988830566,-0.9134530425071716,0.0,0.0,0.0,0.0,0.0,0.0
976,1724820564409452384,-1.1806997060775757,0.2468855082988739,0.14394418895244598,0.05645580589771271,-0.0393756628036499,0.40167903900146484,-0.9131902456283569,0.0,0.0,0.0,0.0,0.0,0.0
978,1724820564418942096,-1.1805882453918457,0.24679933488368988,0.14418265223503113,0.055232055485248566,-0.03798597306013107,0.40178874135017395,-0.9132756590843201,0.0,0.0,0.0,0.0,0.0,0.0
980,1724820564425615437,-1.1804118156433105,0.24673651158809662,0.14448952674865723,0.054679155349731445,-0.03713689744472504,0.4028064012527466,-0.9128954410552979,0.0,0.0,0.0,0.0,0.0,0.0
982,1724820564439148017,-1.1801178455352783,0.24676284193992615,0.14496557414531708,0.05321391671895981,-0.03649972751736641,0.4049093723297119,-0.9120771288871765,0.0,0.0,0.0,0.0,0.0,0.0
984,1724820564447801810,-1.1799461841583252,0.24673707783222198,0.14527656137943268,0.0524536594748497,-0.03559527173638344,0.40615740418434143,-0.9116018414497375,0.0,0.0,0.0,0.0,0.0,0.0
986,1724820564458354074,-1.1798118352890015,0.2466937154531479,0.14553558826446533,0.05191274732351303,-0.034105073660612106,0.40725094079971313,-0.9112017750740051,0.0,0.0,0.0,0.0,0.0,0.0
988,1724820564465967428,-1.1796494722366333,0.24665698409080505,0.14581121504306793,0.05015316605567932,-0.032950058579444885,0.40829989314079285,-0.9108732342720032,0.0,0.0,0.0,0.0,0.0,0.0
990,1724820564477320612,-1.1794592142105103,0.24661505222320557,0.1460459977388382,0.048730310052633286,-0.03154661878943443,0.4089711010456085,-0.9106990694999695,0.0,0.0,0.0,0.0,0.0,0.0
992,1724820564486441004,-1.1792430877685547,0.2466011792421341,0.14653664827346802,0.047131773084402084,-0.03098183684051037,0.41067731380462646,-0.9100346565246582,0.0,0.0,0.0,0.0,0.0,0.0
994,1724820564495808448,-1.1790910959243774,0.24662362039089203,0.14679154753684998,0.04636837914586067,-0.030043555423617363,0.4118618965148926,-0.9095697999000549,0.0,0.0,0.0,0.0,0.0,0.0
996,1724820564509577492,-1.1789034605026245,0.24653680622577667,0.14696761965751648,0.04419545456767082,-0.029058530926704407,0.412982702255249,-0.9092016220092773,0.0,0.0,0.0,0.0,0.0,0.0
998,1724820564515948839,-1.1787751913070679,0.2464783489704132,0.1470937728881836,0.04321785271167755,-0.02813403122127056,0.41417649388313293,-0.9087346196174622,0.0,0.0,0.0,0.0,0.0,0.0
1000,1724820564525965565,-1.178654432296753,0.24638807773590088,0.14705656468868256,0.04199470952153206,-0.027376586571335793,0.41514286398887634,-0.9083740711212158,0.0,0.0,0.0,0.0,0.0,0.0
1002,1724820564537060937,-1.1784396171569824,0.2463470995426178,0.14711733162403107,0.040341224521398544,-0.02661658637225628,0.41663962602615356,-0.9077861309051514,0.0,0.0,0.0,0.0,0.0,0.0
1004,1724820564545722000,-1.1782946586608887,0.2462214082479477,0.14694438874721527,0.0395500548183918,-0.025731338188052177,0.4176523685455322,-0.9073809385299683,0.0,0.0,0.0,0.0,0.0,0.0
1006,1724820564555649699,-1.1781563758850098,0.24611853063106537,0.1467674821615219,0.03863358125090599,-0.024983173236250877,0.41871780157089233,-0.9069502949714661,0.0,0.0,0.0,0.0,0.0,0.0
1008,1724820564565851244,-1.177987813949585,0.2459838092327118,0.14662760496139526,0.03753171116113663,-0.024765921756625175,0.42015892267227173,-0.9063357710838318,0.0,0.0,0.0,0.0,0.0,0.0
1010,1724820564575985787,-1.1778749227523804,0.24584484100341797,0.14641526341438293,0.036060769110918045,-0.024045327678322792,0.4214078187942505,-0.9058349132537842,0.0,0.0,0.0,0.0,0.0,0.0
1012,1724820564591410675,-1.1777703762054443,0.24562117457389832,0.1462555229663849,0.03499195724725723,-0.023648159578442574,0.42290210723876953,-0.905190646648407,0.0,0.0,0.0,0.0,0.0,0.0
1014,1724820564595757625,-1.177638292312622,0.24541610479354858,0.14600300788879395,0.03228490799665451,-0.023707740008831024,0.4237731099128723,-0.9048822522163391,0.0,0.0,0.0,0.0,0.0,0.0
1016,1724820564606567481,-1.1776034832000732,0.24509842693805695,0.14577887952327728,0.03180115297436714,-0.022877661511301994,0.42494693398475647,-0.9043701887130737,0.0,0.0,0.0,0.0,0.0,0.0
1018,1724820564618821642,-1.1774659156799316,0.24477383494377136,0.1456308811903,0.029714470729231834,-0.021977482363581657,0.42603829503059387,-0.9039498567581177,0.0,0.0,0.0,0.0,0.0,0.0
1020,1724820564625528437,-1.1772387027740479,0.24447131156921387,0.14556525647640228,0.028827665373682976,-0.0213333573192358,0.4271608293056488,-0.9034641981124878,0.0,0.0,0.0,0.0,0.0,0.0
1022,1724820564636091399,-1.1770727634429932,0.24417588114738464,0.1453879475593567,0.02751658856868744,-0.020674072206020355,0.4276283383369446,-0.9032992720603943,0.0,0.0,0.0,0.0,0.0,0.0
1024,1724820564646785591,-1.176976203918457,0.24397873878479004,0.14536580443382263,0.02770654857158661,-0.020279567688703537,0.4286261796951294,-0.9028292298316956,0.0,0.0,0.0,0.0,0.0,0.0
1026,1724820564656786599,-1.1768207550048828,0.2436361014842987,0.14526326954364777,0.027101917192339897,-0.019862066954374313,0.42943745851516724,-0.9024713039398193,0.0,0.0,0.0,0.0,0.0,0.0
1028,1724820564665978355,-1.1767076253890991,0.2434072643518448,0.14519818127155304,0.026279667392373085,-0.019180651754140854,0.4303710162639618,-0.902065634727478,0.0,0.0,0.0,0.0,0.0,0.0
1030,1724820564676491825,-1.1766537427902222,0.24323104321956635,0.14510934054851532,0.02540908195078373,-0.018642622977495193,0.43116533756256104,-0.9017224907875061,0.0,0.0,0.0,0.0,0.0,0.0
1032,1724820564686513184,-1.1766301393508911,0.24304801225662231,0.1449836939573288,0.025934064760804176,-0.018438071012496948,0.4317528307437897,-0.9014305472373962,0.0,0.0,0.0,0.0,0.0,0.0
1034,1724820564695700063,-1.1765401363372803,0.24289575219154358,0.14515544474124908,0.025646386668086052,-0.018597926944494247,0.43348339200019836,-0.9006044864654541,0.0,0.0,0.0,0.0,0.0,0.0
1036,1724820564706268524,-1.1764869689941406,0.24272684752941132,0.14499227702617645,0.025922182947397232,-0.018306080251932144,0.4341212213039398,-0.9002954363822937,0.0,0.0,0.0,0.0,0.0,0.0
1038,1724820564715864072,-1.1764432191848755,0.24259713292121887,0.1449006050825119,0.02528308890759945,-0.01800479181110859,0.43461114168167114,-0.9000831842422485,0.0,0.0,0.0,0.0,0.0,0.0
1040,1724820564727710797,-1.1764203310012817,0.24248911440372467,0.14488354325294495,0.025420313701033592,-0.017928743734955788,0.4355451464653015,-0.8996292352676392,0.0,0.0,0.0,0.0,0.0,0.0
1042,1724820564736904252,-1.1763890981674194,0.2423640787601471,0.14478081464767456,0.025329435244202614,-0.0175151489675045,0.4360155761241913,-0.8994120955467224,0.0,0.0,0.0,0.0,0.0,0.0
1044,1724820564745623602,-1.1763499975204468,0.24228094518184662,0.14469222724437714,0.025320149958133698,-0.017178155481815338,0.4364926815032959,-0.8991873860359192,0.0,0.0,0.0,0.0,0.0,0.0
1046,1724820564755564387,-1.1763229370117188,0.24220065772533417,0.1446284055709839,0.025795476511120796,-0.01705978997051716,0.4371132552623749,-0.8988746404647827,0.0,0.0,0.0,0.0,0.0,0.0
1048,1724820564765835336,-1.1762851476669312,0.2421688288450241,0.1446353942155838,0.02565874718129635,-0.016917385160923004,0.4379369616508484,-0.8984801769256592,0.0,0.0,0.0,0.0,0.0,0.0
1050,1724820564782275553,-1.1762076616287231,0.24210497736930847,0.14458023011684418,0.02587307058274746,-0.016689764335751534,0.43842822313308716,-0.8982387185096741,0.0,0.0,0.0,0.0,0.0,0.0
1052,1724820564786960422,-1.176088809967041,0.2420322149991989,0.14455632865428925,0.02589324489235878,-0.016543660312891006,0.4388444721698761,-0.8980376124382019,0.0,0.0,0.0,0.0,0.0,0.0
1054,1724820564795796699,-1.1759508848190308,0.2419731169939041,0.144512340426445,0.025196408852934837,-0.01605772040784359,0.43881362676620483,-0.8980812430381775,0.0,0.0,0.0,0.0,0.0,0.0
1056,1724820564806050575,-1.1758184432983398,0.24189187586307526,0.14444607496261597,0.025113830342888832,-0.01588471420109272,0.4387813210487366,-0.8981024026870728,0.0,0.0,0.0,0.0,0.0,0.0
1058,1724820564815590909,-1.1756484508514404,0.2418052703142166,0.14450153708457947,0.024797510355710983,-0.015802547335624695,0.4391712248325348,-0.8979220986366272,0.0,0.0,0.0,0.0,0.0,0.0
1060,1724820564825628311,-1.1755409240722656,0.24161124229431152,0.14426782727241516,0.02523108758032322,-0.015275637619197369,0.4387935996055603,-0.898103654384613,0.0,0.0,0.0,0.0,0.0,0.0
1062,1724820564837381876,-1.1753990650177002,0.2413577288389206,0.1441541463136673,0.02470693737268448,-0.014497688040137291,0.4383111000061035,-0.8983667492866516,0.0,0.0,0.0,0.0,0.0,0.0
1064,1724820564845632167,-1.175274133682251,0.24116306006908417,0.1441156268119812,0.024909375235438347,-0.01408317219465971,0.438332200050354,-0.8983573913574219,0.0,0.0,0.0,0.0,0.0,0.0
1066,1724820564857256605,-1.1751869916915894,0.24093425273895264,0.1440557986497879,0.025363855063915253,-0.013981426134705544,0.4384406507015228,-0.8982934355735779,0.0,0.0,0.0,0.0,0.0,0.0
1068,1724820564866772926,-1.175072431564331,0.24071823060512543,0.14399483799934387,0.02513354830443859,-0.013500465080142021,0.43827274441719055,-0.8983891606330872,0.0,0.0,0.0,0.0,0.0,0.0
1070,1724820564875569621,-1.1749672889709473,0.24045917391777039,0.14392830431461334,0.025099320337176323,-0.013239745050668716,0.4383270740509033,-0.8983675241470337,0.0,0.0,0.0,0.0,0.0,0.0
1072,1724820564889147685,-1.1748615503311157,0.24018675088882446,0.14387482404708862,0.025673789903521538,-0.013315265998244286,0.43867027759552,-0.8981826305389404,0.0,0.0,0.0,0.0,0.0,0.0
1074,1724820564895505325,-1.1747384071350098,0.23989379405975342,0.14377333223819733,0.025136906653642654,-0.013257519342005253,0.4385816752910614,-0.8982418775558472,0.0,0.0,0.0,0.0,0.0,0.0
1076,1724820564906403882,-1.1745973825454712,0.23955488204956055,0.1436833292245865,0.024967780336737633,-0.01309836097061634,0.4386373460292816,-0.8982217907905579,0.0,0.0,0.0,0.0,0.0,0.0
1078,1724820564916433981,-1.1744519472122192,0.23920606076717377,0.14355945587158203,0.024862317368388176,-0.012829720973968506,0.4385527968406677,-0.8982698321342468,0.0,0.0,0.0,0.0,0.0,0.0
1080,1724820564925462425,-1.1742364168167114,0.2388649880886078,0.1436581015586853,0.02414190210402012,-0.01295220386236906,0.439475417137146,-0.8978367447853088,0.0,0.0,0.0,0.0,0.0,0.0
1082,1724820564937583095,-1.174088478088379,0.23845697939395905,0.1435735821723938,0.024596167728304863,-0.012951185926795006,0.44009894132614136,-0.8975189328193665,0.0,0.0,0.0,0.0,0.0,0.0
1084,1724820564945643120,-1.1737831830978394,0.23804445564746857,0.1435772031545639,0.02360081672668457,-0.013083608821034431,0.44038671255111694,-0.8974025845527649,0.0,0.0,0.0,0.0,0.0,0.0
1086,1724820564955776415,-1.1735920906066895,0.23754574358463287,0.1435440182685852,0.02418334037065506,-0.012573032639920712,0.44124531745910645,-0.8969725370407104,0.0,0.0,0.0,0.0,0.0,0.0
1088,1724820564965832849,-1.1733702421188354,0.23706819117069244,0.1435125321149826,0.023936720564961433,-0.011715860106050968,0.4411201477050781,-0.8970522880554199,0.0,0.0,0.0,0.0,0.0,0.0
1090,1724820564976792527,-1.1731797456741333,0.23664669692516327,0.14345893263816833,0.024142980575561523,-0.011348392814397812,0.4412260055541992,-0.8969994783401489,0.0,0.0,0.0,0.0,0.0,0.0
1092,1724820564986857121,-1.1729904413223267,0.2362871617078781,0.14341869950294495,0.024485958740115166,-0.010977562516927719,0.44121769070625305,-0.8969988822937012,0.0,0.0,0.0,0.0,0.0,0.0
1094,1724820564996028558,-1.1728031635284424,0.23595115542411804,0.14350979030132294,0.024495156481862068,-0.0109958341345191,0.4418843686580658,-0.8966701030731201,0.0,0.0,0.0,0.0,0.0,0.0
1096,1724820565006899855,-1.17264986038208,0.23565825819969177,0.14341600239276886,0.024599995464086533,-0.010540343821048737,0.44183704257011414,-0.8966960906982422,0.0,0.0,0.0,0.0,0.0,0.0
1098,1724820565015904708,-1.172497034072876,0.2354096621274948,0.14347437024116516,0.024488359689712524,-0.010393965989351273,0.44232070446014404,-0.8964623808860779,0.0,0.0,0.0,0.0,0.0,0.0
1100,1724820565026059141,-1.1723154783248901,0.2351529449224472,0.14347484707832336,0.023752335458993912,-0.010027332231402397,0.4423910677433014,-0.8964516520500183,0.0,0.0,0.0,0.0,0.0,0.0
1102,1724820565037307733,-1.1721218824386597,0.23491039872169495,0.14343734085559845,0.023504791781306267,-0.009865670464932919,0.44252386689186096,-0.8963943719863892,0.0,0.0,0.0,0.0,0.0,0.0
1104,1724820565045773713,-1.1719520092010498,0.23465575277805328,0.14341628551483154,0.023736799135804176,-0.009466463699936867,0.44250568747520447,-0.8964015245437622,0.0,0.0,0.0,0.0,0.0,0.0
1106,1724820565060154152,-1.1717841625213623,0.23442548513412476,0.14340399205684662,0.023915734142065048,-0.009495719335973263,0.4429156482219696,-0.8961939215660095,0.0,0.0,0.0,0.0,0.0,0.0
1108,1724820565065678242,-1.171662449836731,0.23424981534481049,0.1434285193681717,0.024027181789278984,-0.009240655228495598,0.44345396757125854,-0.895927369594574,0.0,0.0,0.0,0.0,0.0,0.0
1110,1724820565075836959,-1.1715306043624878,0.23400799930095673,0.14337070286273956,0.024225972592830658,-0.008982773870229721,0.4436468780040741,-0.8958292007446289,0.0,0.0,0.0,0.0,0.0,0.0
1112,1724820565086753925,-1.1713696718215942,0.23383089900016785,0.14333823323249817,0.02427912876009941,-0.00897014606744051,0.4440227448940277,-0.8956416249275208,0.0,0.0,0.0,0.0,0.0,0.0
1114,1724820565096304644,-1.171230435371399,0.23363152146339417,0.14333762228488922,0.024574337527155876,-0.00897153839468956,0.44433513283729553,-0.8954786062240601,0.0,0.0,0.0,0.0,0.0,0.0
1116,1724820565108148472,-1.1710801124572754,0.2334137111902237,0.1433408409357071,0.024577416479587555,-0.008599317632615566,0.4443240165710449,-0.8954876661300659,0.0,0.0,0.0,0.0,0.0,0.0
1118,1724820565116234569,-1.1709272861480713,0.2331964075565338,0.14338165521621704,0.024253906682133675,-0.008569696918129921,0.44480061531066895,-0.8952601552009583,0.0,0.0,0.0,0.0,0.0,0.0
1120,1724820565125401121,-1.1707215309143066,0.2329147756099701,0.14331868290901184,0.023582397028803825,-0.008574217557907104,0.4448758661746979,-0.8952406644821167,0.0,0.0,0.0,0.0,0.0,0.0
1122,1724820565140022162,-1.170548915863037,0.2328023612499237,0.14355815947055817,0.02263019047677517,-0.008512182161211967,0.44533291459083557,-0.8950386047363281,0.0,0.0,0.0,0.0,0.0,0.0
1124,1724820565145942702,-1.170508623123169,0.2326279580593109,0.14330138266086578,0.023149732500314713,-0.007769896648824215,0.44443508982658386,-0.8954781889915466,0.0,0.0,0.0,0.0,0.0,0.0
1126,1724820565155904927,-1.1704027652740479,0.2325098216533661,0.14357683062553406,0.02241106703877449,-0.008168027736246586,0.44526955485343933,-0.8950788378715515,0.0,0.0,0.0,0.0,0.0,0.0
1128,1724820565168144840,-1.1703667640686035,0.23236387968063354,0.14358662068843842,0.02259029448032379,-0.007861709222197533,0.445390909910202,-0.8950166702270508,0.0,0.0,0.0,0.0,0.0,0.0
1130,1724820565175577970,-1.1703521013259888,0.232255220413208,0.143636092543602,0.022202420979738235,-0.007668816950172186,0.44533011317253113,-0.895058274269104,0.0,0.0,0.0,0.0,0.0,0.0
1132,1724820565186365623,-1.1703580617904663,0.23214076459407806,0.14369742572307587,0.021548962220549583,-0.0073652626015245914,0.4453534781932831,-0.895065188407898,0.0,0.0,0.0,0.0,0.0,0.0
1134,1724820565196193256,-1.170453667640686,0.2321014553308487,0.14384479820728302,0.02185453288257122,-0.007359680254012346,0.4456062912940979,-0.894931972026825,0.0,0.0,0.0,0.0,0.0,0.0
1136,1724820565213972005,-1.170568823814392,0.2320510447025299,0.14389853179454803,0.021277353167533875,-0.007051180582493544,0.44524067640304565,-0.8951302766799927,0.0,0.0,0.0,0.0,0.0,0.0
1138,1724820565216543237,-1.1707535982131958,0.23198992013931274,0.143920436501503,0.021148759871721268,-0.006619627587497234,0.444880872964859,-0.8953155279159546,0.0,0.0,0.0,0.0,0.0,0.0
1140,1724820565226370732,-1.1709145307540894,0.23190875351428986,0.14404521882534027,0.020137032493948936,-0.006303487811237574,0.44475066661834717,-0.8954058885574341,0.0,0.0,0.0,0.0,0.0,0.0
1142,1724820565236227379,-1.1710855960845947,0.23180590569972992,0.14420509338378906,0.019565334543585777,-0.005912100430577993,0.44451120495796204,-0.8955400586128235,0.0,0.0,0.0,0.0,0.0,0.0
1144,1724820565246311490,-1.1712925434112549,0.23168238997459412,0.1443263441324234,0.01851358450949192,-0.0053243073634803295,0.44409218430519104,-0.8957740068435669,0.0,0.0,0.0,0.0,0.0,0.0
1146,1724820565256472789,-1.1714835166931152,0.23152199387550354,0.1445406973361969,0.01733740232884884,-0.004541305359452963,0.4439767599105835,-0.8958591222763062,0.0,0.0,0.0,0.0,0.0,0.0
1148,1724820565266851240,-1.1717534065246582,0.23139484226703644,0.14470969140529633,0.016915855929255486,-0.0039590997621417046,0.44379180669784546,-0.8959615230560303,0.0,0.0,0.0,0.0,0.0,0.0
1150,1724820565276161634,-1.1720421314239502,0.23125606775283813,0.1448727548122406,0.016677001491189003,-0.0035595805384218693,0.44367745518684387,-0.8960242867469788,0.0,0.0,0.0,0.0,0.0,0.0
1152,1724820565287081172,-1.1722543239593506,0.23116222023963928,0.14506228268146515,0.015590640716254711,-0.003299231408163905,0.4435838460922241,-0.8960911631584167,0.0,0.0,0.0,0.0,0.0,0.0
1154,1724820565295844470,-1.172558069229126,0.23098650574684143,0.14533372223377228,0.016060756519436836,-0.003165139816701412,0.4439643323421478,-0.8958948850631714,0.0,0.0,0.0,0.0,0.0,0.0
1156,1724820565306805095,-1.172738790512085,0.2308027595281601,0.14562848210334778,0.014301808550953865,-0.0022248674649745226,0.443786084651947,-0.8960159420967102,0.0,0.0,0.0,0.0,0.0,0.0
1158,1724820565315872606,-1.1729155778884888,0.23064130544662476,0.14598897099494934,0.012317351065576077,-0.0017744583310559392,0.443927139043808,-0.8959765434265137,0.0,0.0,0.0,0.0,0.0,0.0
1160,1724820565325786403,-1.17312490940094,0.23047950863838196,0.14626240730285645,0.012043004855513573,-0.0011288521345704794,0.4436340630054474,-0.896126389503479,0.0,0.0,0.0,0.0,0.0,0.0
1162,1724820565337295891,-1.1733336448669434,0.2303408831357956,0.14678923785686493,0.009283100254833698,-0.0009189685806632042,0.444548636674881,-0.8957061767578125,0.0,0.0,0.0,0.0,0.0,0.0
1164,1724820565345670038,-1.1735678911209106,0.2302500307559967,0.14723902940750122,0.007985777221620083,-0.0005550406640395522,0.4453706741333008,-0.8953104615211487,0.0,0.0,0.0,0.0,0.0,0.0
1166,1724820565356352451,-1.173833966255188,0.23013967275619507,0.1475798636674881,0.008267153054475784,0.0002864934504032135,0.44542402029037476,-0.8952815532684326,0.0,0.0,0.0,0.0,0.0,0.0
1168,1724820565369209201,-1.1741541624069214,0.22994783520698547,0.14778703451156616,0.008210553787648678,0.0011312272399663925,0.44497182965278625,-0.8955062031745911,0.0,0.0,0.0,0.0,0.0,0.0
1170,1724820565375730295,-1.174466848373413,0.2297365963459015,0.14780977368354797,0.007934102788567543,0.002315487014129758,0.44411933422088623,-0.8959295153617859,0.0,0.0,0.0,0.0,0.0,0.0
1172,1724820565386526719,-1.1746490001678467,0.22954250872135162,0.14819175004959106,0.0052907816134393215,0.0026466664858162403,0.4446359872817993,-0.8956918716430664,0.0,0.0,0.0,0.0,0.0,0.0
1174,1724820565396058876,-1.174852967262268,0.22936655580997467,0.14843808114528656,0.00422359025105834,0.0033296155743300915,0.4447054862976074,-0.8956607580184937,0.0,0.0,0.0,0.0,0.0,0.0
1176,1724820565405415635,-1.1750460863113403,0.2291860580444336,0.14862164855003357,0.0034004286862909794,0.004080156795680523,0.4446928799152374,-0.895667314529419,0.0,0.0,0.0,0.0,0.0,0.0
1178,1724820565417016547,-1.1752187013626099,0.22902047634124756,0.14880800247192383,0.002105016727000475,0.004652042407542467,0.444896399974823,-0.8955675363540649,0.0,0.0,0.0,0.0,0.0,0.0
1180,1724820565426008412,-1.1754484176635742,0.22884303331375122,0.14887160062789917,0.001126176561228931,0.005963979288935661,0.44458743929862976,-0.8957149386405945,0.0,0.0,0.0,0.0,0.0,0.0
1182,1724820565436296558,-1.1756454706192017,0.22867970168590546,0.1489725112915039,0.0002791318402159959,0.006829433608800173,0.44459909200668335,-0.8957036733627319,0.0,0.0,0.0,0.0,0.0,0.0
1184,1724820565445624822,-1.1757969856262207,0.22854019701480865,0.14913518726825714,-0.00042848841985687613,0.007326613646000624,0.4446282982826233,-0.8956851363182068,0.0,0.0,0.0,0.0,0.0,0.0
1186,1724820565455881286,-1.1759521961212158,0.22838346660137177,0.14930208027362823,-0.0012638948392122984,0.007872181013226509,0.4448099434375763,-0.8955894708633423,0.0,0.0,0.0,0.0,0.0,0.0
1188,1724820565466044571,-1.1760655641555786,0.22822090983390808,0.14964184165000916,-0.001995297847315669,0.007886952720582485,0.4452558755874634,-0.8953664898872375,0.0,0.0,0.0,0.0,0.0,0.0
1190,1724820565476242537,-1.1761397123336792,0.22802570462226868,0.1497926563024521,-0.002980065532028675,0.008442490361630917,0.44537708163261414,-0.8952983617782593,0.0,0.0,0.0,0.0,0.0,0.0
1192,1724820565486355922,-1.1762850284576416,0.22785045206546783,0.1498899608850479,-0.0027290440630167723,0.008499279618263245,0.44531381130218506,-0.8953300714492798,0.0,0.0,0.0,0.0,0.0,0.0
1194,1724820565495801679,-1.1764097213745117,0.22763782739639282,0.14994321763515472,-0.002102993195876479,0.008703374303877354,0.4451562762260437,-0.8954081535339355,0.0,0.0,0.0,0.0,0.0,0.0
1196,1724820565506087935,-1.1764789819717407,0.22748826444149017,0.15003904700279236,-0.0025208841543644667,0.008742370642721653,0.44509750604629517,-0.8954358696937561,0.0,0.0,0.0,0.0,0.0,0.0
1198,1724820565517079279,-1.1765532493591309,0.22734323143959045,0.1501462757587433,-0.0027264459058642387,0.009178548119962215,0.44505518674850464,-0.8954520225524902,0.0,0.0,0.0,0.0,0.0,0.0
1200,1724820565529121321,-1.1765987873077393,0.2271636426448822,0.1502102017402649,-0.0031612340826541185,0.009384018369019032,0.44506514072418213,-0.8954434394836426,0.0,0.0,0.0,0.0,0.0,0.0
1202,1724820565537252243,-1.1766337156295776,0.2269737869501114,0.15036599338054657,-0.003802791005000472,0.009777091443538666,0.4452606439590454,-0.8953395485877991,0.0,0.0,0.0,0.0,0.0,0.0
1204,1724820565545569774,-1.1766963005065918,0.22677046060562134,0.15046076476573944,-0.004216828383505344,0.01021808385848999,0.44524261355400085,-0.8953417539596558,0.0,0.0,0.0,0.0,0.0,0.0
1206,1724820565556352590,-1.1767635345458984,0.22657012939453125,0.15058565139770508,-0.00423921924084425,0.010519372299313545,0.4453910291194916,-0.8952643275260925,0.0,0.0,0.0,0.0,0.0,0.0
1208,1724820565566157010,-1.1768287420272827,0.22637403011322021,0.15071319043636322,-0.003919410519301891,0.010395165532827377,0.44567519426345825,-0.8951258063316345,0.0,0.0,0.0,0.0,0.0,0.0
1210,1724820565575531159,-1.1769022941589355,0.2262364774942398,0.15096813440322876,-0.0037176948972046375,0.010691503994166851,0.4461458623409271,-0.8948886394500732,0.0,0.0,0.0,0.0,0.0,0.0
1212,1724820565586072515,-1.1769310235977173,0.22599440813064575,0.1510806530714035,-0.004589426331222057,0.011200329288840294,0.4461306631565094,-0.8948860168457031,0.0,0.0,0.0,0.0,0.0,0.0
1214,1724820565595686842,-1.1769402027130127,0.22579355537891388,0.151258185505867,-0.004769760649651289,0.011560223065316677,0.4462626278400421,-0.8948147296905518,0.0,0.0,0.0,0.0,0.0,0.0
1216,1724820565605848486,-1.1769564151763916,0.22561334073543549,0.15151746571063995,-0.005081577226519585,0.011406049132347107,0.44683006405830383,-0.8945317268371582,0.0,0.0,0.0,0.0,0.0,0.0
1218,1724820565616921464,-1.1769049167633057,0.2253914326429367,0.15167656540870667,-0.005854764021933079,0.011878861114382744,0.4471876621246338,-0.8943421244621277,0.0,0.0,0.0,0.0,0.0,0.0
1220,1724820565625740698,-1.176884651184082,0.2251633256673813,0.15176334977149963,-0.006329696625471115,0.012072541750967503,0.4473437964916229,-0.8942582011222839,0.0,0.0,0.0,0.0,0.0,0.0
1222,1724820565636329355,-1.176875352859497,0.22491981089115143,0.1517760455608368,-0.006765587255358696,0.012506893835961819,0.44727128744125366,-0.8942853212356567,0.0,0.0,0.0,0.0,0.0,0.0
1224,1724820565645980996,-1.176859974861145,0.22468867897987366,0.15177977085113525,-0.007505279500037432,0.012882824055850506,0.44732579588890076,-0.8942467570304871,0.0,0.0,0.0,0.0,0.0,0.0
1226,1724820565655825267,-1.1768532991409302,0.22449131309986115,0.15178580582141876,-0.007437509950250387,0.01318022795021534,0.4472428560256958,-0.8942845463752747,0.0,0.0,0.0,0.0,0.0,0.0
1228,1724820565665859428,-1.176830530166626,0.224312424659729,0.15170149505138397,-0.00697979936376214,0.013150366954505444,0.4467928409576416,-0.8945136070251465,0.0,0.0,0.0,0.0,0.0,0.0
1230,1724820565676389061,-1.1767613887786865,0.22415365278720856,0.15168428421020508,-0.006922674365341663,0.013409458100795746,0.44664469361305237,-0.8945841789245605,0.0,0.0,0.0,0.0,0.0,0.0
1232,1724820565686194879,-1.1766003370285034,0.22392916679382324,0.15160055458545685,-0.008518167771399021,0.013766753487288952,0.44647082686424255,-0.8946517705917358,0.0,0.0,0.0,0.0,0.0,0.0
1234,1724820565695814812,-1.1764512062072754,0.22383281588554382,0.15161678194999695,-0.00827656127512455,0.014088240452110767,0.4462743401527405,-0.8947470784187317,0.0,0.0,0.0,0.0,0.0,0.0
1236,1724820565706018704,-1.1762917041778564,0.22371912002563477,0.15165160596370697,-0.008988950401544571,0.014312979765236378,0.44637182354927063,-0.8946880102157593,0.0,0.0,0.0,0.0,0.0,0.0
1238,1724820565715831187,-1.1761118173599243,0.22366298735141754,0.15174436569213867,-0.009506159462034702,0.01423873845487833,0.44667330384254456,-0.8945333361625671,0.0,0.0,0.0,0.0,0.0,0.0
1240,1724820565726213809,-1.1759346723556519,0.2235855758190155,0.15179023146629333,-0.009431892074644566,0.014304961077868938,0.4467270076274872,-0.8945062160491943,0.0,0.0,0.0,0.0,0.0,0.0
1242,1724820565736663753,-1.175808310508728,0.22352737188339233,0.15186645090579987,-0.009630572982132435,0.014438726007938385,0.446867436170578,-0.8944318294525146,0.0,0.0,0.0,0.0,0.0,0.0
1244,1724820565746374545,-1.1756792068481445,0.2234828919172287,0.15193714201450348,-0.009594482369720936,0.01450307760387659,0.4469977617263794,-0.8943660259246826,0.0,0.0,0.0,0.0,0.0,0.0
1246,1724820565756670030,-1.1755110025405884,0.22338959574699402,0.15203288197517395,-0.010091652162373066,0.014585094526410103,0.44732409715652466,-0.894196093082428,0.0,0.0,0.0,0.0,0.0,0.0
1248,1724820565765655371,-1.1753945350646973,0.2233208864927292,0.1521165817975998,-0.009849738329648972,0.014320652931928635,0.44762444496154785,-0.8940527439117432,0.0,0.0,0.0,0.0,0.0,0.0
1250,1724820565776034018,-1.175298810005188,0.22323402762413025,0.15215471386909485,-0.009684491902589798,0.014391823671758175,0.44775527715682983,-0.8939879536628723,0.0,0.0,0.0,0.0,0.0,0.0
1252,1724820565787394830,-1.1751854419708252,0.2231447845697403,0.1522345393896103,-0.009608042426407337,0.01442642044275999,0.44777464866638184,-0.8939784169197083,0.0,0.0,0.0,0.0,0.0,0.0
1254,1724820565795807682,-1.175089716911316,0.2230108082294464,0.1522531360387802,-0.009793706238269806,0.01468596700578928,0.4476791024208069,-0.8940200209617615,0.0,0.0,0.0,0.0,0.0,0.0
1256,1724820565806016995,-1.1750297546386719,0.22288623452186584,0.1523384302854538,-0.009026368148624897,0.014051220379769802,0.4479624330997467,-0.8938964009284973,0.0,0.0,0.0,0.0,0.0,0.0
1258,1724820565819335358,-1.174936056137085,0.22274887561798096,0.1523807942867279,-0.008639764040708542,0.013988613151013851,0.4481367766857147,-0.8938137888908386,0.0,0.0,0.0,0.0,0.0,0.0
1260,1724820565825572797,-1.174824595451355,0.22257117927074432,0.1524045765399933,-0.008655250072479248,0.014057899825274944,0.44823962450027466,-0.8937609791755676,0.0,0.0,0.0,0.0,0.0,0.0
1262,1724820565837378535,-1.174747347831726,0.2223830372095108,0.15239185094833374,-0.00817166455090046,0.01414212491363287,0.44819197058677673,-0.8937880992889404,0.0,0.0,0.0,0.0,0.0,0.0
1264,1724820565845825022,-1.174659013748169,0.22216491401195526,0.15240979194641113,-0.007798000238835812,0.013942775316536427,0.44829848408699036,-0.8937411308288574,0.0,0.0,0.0,0.0,0.0,0.0
1266,1724820565855809691,-1.1745487451553345,0.22196169197559357,0.1525058150291443,-0.007680431008338928,0.014019609428942204,0.4484475255012512,-0.8936662077903748,0.0,0.0,0.0,0.0,0.0,0.0
1268,1724820565866115143,-1.1744294166564941,0.2217300832271576,0.15253831446170807,-0.00795362051576376,0.014016540721058846,0.44855448603630066,-0.8936101198196411,0.0,0.0,0.0,0.0,0.0,0.0
1270,1724820565875754468,-1.1742744445800781,0.22149978578090668,0.15278159081935883,-0.008600907400250435,0.013802126049995422,0.4493878483772278,-0.8931887149810791,0.0,0.0,0.0,0.0,0.0,0.0
1272,1724820565890979837,-1.1741278171539307,0.22124594449996948,0.15287461876869202,-0.009198948740959167,0.014063269831240177,0.44961822032928467,-0.8930627703666687,0.0,0.0,0.0,0.0,0.0,0.0
1274,1724820565895998265,-1.1739696264266968,0.2209705114364624,0.1529889702796936,-0.009871713817119598,0.014136034995317459,0.4502924084663391,-0.8927146792411804,0.0,0.0,0.0,0.0,0.0,0.0
1276,1724820565905836906,-1.1738172769546509,0.2206779271364212,0.1530640721321106,-0.0106464559212327,0.014333576895296574,0.4506244957447052,-0.8925349712371826,0.0,0.0,0.0,0.0,0.0,0.0
1278,1724820565916199521,-1.1736098527908325,0.2203667312860489,0.15304288268089294,-0.01128218974918127,0.01470976136624813,0.45041555166244507,-0.8926265239715576,0.0,0.0,0.0,0.0,0.0,0.0
1280,1724820565927150061,-1.1734751462936401,0.22006379067897797,0.15307097136974335,-0.010759858414530754,0.014430690556764603,0.4505379796028137,-0.8925758600234985,0.0,0.0,0.0,0.0,0.0,0.0
1282,1724820565937046103,-1.1733404397964478,0.21973200142383575,0.1531088650226593,-0.01022286992520094,0.014467129483819008,0.45079949498176575,-0.8924494385719299,0.0,0.0,0.0,0.0,0.0,0.0
