seq,stamp,px,py,pz,ox,oy,oz,ow,lx,ly,lz,ax,ay,az
650,1724812200364057170,-1.99495530128479,-0.41080039739608765,0.16712825000286102,-0.03249761462211609,-0.013637744821608067,-0.395870566368103,0.9176297783851624,0.0,0.0,0.0,0.0,0.0,0.0
652,1724812200373513022,-1.9949564933776855,-0.41125044226646423,0.16859406232833862,-0.02941320277750492,-0.013672789558768272,-0.39614710211753845,0.9176139831542969,0.0,0.0,0.0,0.0,0.0,0.0
654,1724812200383712778,-1.9949877262115479,-0.41174155473709106,0.16976550221443176,-0.029929742217063904,-0.013827592134475708,-0.3957914412021637,0.9177484512329102,0.0,0.0,0.0,0.0,0.0,0.0
656,1724812200392693092,-1.9949661493301392,-0.41223376989364624,0.17112566530704498,-0.027968883514404297,-0.013858722522854805,-0.3960926830768585,0.9176799058914185,0.0,0.0,0.0,0.0,0.0,0.0
658,1724812200420334773,-1.994948148727417,-0.41283172369003296,0.1721520870923996,-0.023650916293263435,-0.01526062935590744,-0.3964911997318268,0.9176068902015686,0.0,0.0,0.0,0.0,0.0,0.0
660,1724812200420736390,-1.9950639009475708,-0.4132227599620819,0.17341186106204987,-0.020260462537407875,-0.01490727998316288,-0.3968845307826996,0.9175238609313965,0.0,0.0,0.0,0.0,0.0,0.0
662,1724812200425955000,-1.9951850175857544,-0.4136311709880829,0.17461517453193665,-0.01947677694261074,-0.0148219745606184,-0.3971174955368042,0.9174414277076721,0.0,0.0,0.0,0.0,0.0,0.0
664,1724812200433280879,-1.9953382015228271,-0.41409894824028015,0.17567813396453857,-0.019045541062951088,-0.014710892923176289,-0.39688968658447266,0.917550802230835,0.0,0.0,0.0,0.0,0.0,0.0
666,1724812200443843964,-1.9953892230987549,-0.4145953357219696,0.17680183053016663,-0.01601121574640274,-0.015444757416844368,-0.3973290026187897,0.9174066185951233,0.0,0.0,0.0,0.0,0.0,0.0
668,1724812200453219884,-1.9955525398254395,-0.4150152802467346,0.17775720357894897,-0.016246095299720764,-0.01471677515655756,-0.3972833454608917,0.9174341559410095,0.0,0.0,0.0,0.0,0.0,0.0
670,1724812200463418276,-1.995826244354248,-0.41576313972473145,0.17870551347732544,-0.013212560676038265,-0.015376046299934387,-0.3957347273826599,0.9181411266326904,0.0,0.0,0.0,0.0,0.0,0.0
672,1724812200473989533,-1.9959282875061035,-0.41582316160202026,0.17954066395759583,-0.012606317177414894,-0.014985505491495132,-0.3976047933101654,0.9173478484153748,0.0,0.0,0.0,0.0,0.0,0.0
674,1724812200483451662,-1.9960927963256836,-0.41617605090141296,0.18011927604675293,-0.012787314131855965,-0.014720911160111427,-0.3974616229534149,0.9174116253852844,0.0,0.0,0.0,0.0,0.0,0.0
676,1724812200493298551,-1.9962162971496582,-0.41651469469070435,0.18060708045959473,-0.01215519942343235,-0.015065929852426052,-0.39742040634155273,0.9174324870109558,0.0,0.0,0.0,0.0,0.0,0.0
678,1724812200508613609,-1.9963066577911377,-0.41674771904945374,0.18109793961048126,-0.010691581293940544,-0.015418541617691517,-0.39795005321502686,0.9172152876853943,0.0,0.0,0.0,0.0,0.0,0.0
680,1724812200513050857,-1.9963103532791138,-0.4170038402080536,0.18119513988494873,-0.00978177972137928,-0.016183877363801003,-0.39713597297668457,0.9175649881362915,0.0,0.0,0.0,0.0,0.0,0.0
682,1724812200523691476,-1.9963722229003906,-0.4171351492404938,0.1813848912715912,-0.009081991389393806,-0.016243426129221916,-0.39703965187072754,0.9176127910614014,0.0,0.0,0.0,0.0,0.0,0.0
684,1724812200533464974,-1.996387243270874,-0.41715389490127563,0.18152962625026703,-0.009348069317638874,-0.016006359830498695,-0.3971695601940155,0.9175580143928528,0.0,0.0,0.0,0.0,0.0,0.0
686,1724812200543365760,-1.9964033365249634,-0.41716915369033813,0.18150700628757477,-0.009271027520298958,-0.01619332656264305,-0.39702722430229187,0.91761714220047,0.0,0.0,0.0,0.0,0.0,0.0
688,1724812200554073095,-1.9963939189910889,-0.4170883893966675,0.18145380914211273,-0.009245087392628193,-0.016221728175878525,-0.39701372385025024,0.9176227450370789,0.0,0.0,0.0,0.0,0.0,0.0
690,1724812200562695213,-1.9964011907577515,-0.41698551177978516,0.18130673468112946,-0.009426538832485676,-0.016342462971806526,-0.3970974385738373,0.9175825119018555,0.0,0.0,0.0,0.0,0.0,0.0
692,1724812200573999321,-1.9963866472244263,-0.41689634323120117,0.181077241897583,-0.0094224214553833,-0.016933254897594452,-0.3969128131866455,0.9176517724990845,0.0,0.0,0.0,0.0,0.0,0.0
694,1724812200584208419,-1.9964454174041748,-0.41670164465904236,0.18109826743602753,-0.009750560857355595,-0.01637212745845318,-0.39725351333618164,0.9175110459327698,0.0,0.0,0.0,0.0,0.0,0.0
696,1724812200736673833,-1.996448278427124,-0.41650140285491943,0.1810518503189087,-0.010228937491774559,-0.0155719555914402,-0.39757072925567627,0.9173824191093445,0.0,0.0,0.0,0.0,0.0,0.0
698,1724812200736942676,-1.9964414834976196,-0.41638779640197754,0.18094541132450104,-0.010582932271063328,-0.015281572937965393,-0.39762356877326965,0.9173603057861328,0.0,0.0,0.0,0.0,0.0,0.0
700,1724812200737183925,-1.9964547157287598,-0.41628676652908325,0.1809024214744568,-0.011021971702575684,-0.014742773026227951,-0.39777156710624695,0.9172998666763306,0.0,0.0,0.0,0.0,0.0,0.0
702,1724812200737424197,-1.99643075466156,-0.4161815941333771,0.18095673620700836,-0.010834713466465473,-0.013922108337283134,-0.398122638463974,0.9171625375747681,0.0,0.0,0.0,0.0,0.0,0.0
704,1724812200737676807,-1.9963836669921875,-0.41613826155662537,0.18105898797512054,-0.010794566944241524,-0.013304057531058788,-0.3984683156013489,0.9170220494270325,0.0,0.0,0.0,0.0,0.0,0.0
706,1724812200737927738,-1.996328353881836,-0.41613712906837463,0.18114420771598816,-0.010192587971687317,-0.012998482212424278,-0.39860162138938904,0.9169754385948181,0.0,0.0,0.0,0.0,0.0,0.0
708,1724812200738164550,-1.9962915182113647,-0.4161345064640045,0.18123947083950043,-0.010303365997970104,-0.012493484653532505,-0.39886337518692017,0.9168674349784851,0.0,0.0,0.0,0.0,0.0,0.0
710,1724812200738438550,-1.996244192123413,-0.41616228222846985,0.18125391006469727,-0.010252667590975761,-0.0128898024559021,-0.3988877236843109,0.916851818561554,0.0,0.0,0.0,0.0,0.0,0.0
712,1724812200738711616,-1.996181845664978,-0.4162093698978424,0.1812555193901062,-0.010033175349235535,-0.013132940046489239,-0.39879319071769714,0.9168919920921326,0.0,0.0,0.0,0.0,0.0,0.0
714,1724812200739072696,-1.9961837530136108,-0.41620737314224243,0.1813107281923294,-0.010473948903381824,-0.012544149532914162,-0.3989352285861969,0.9168334603309631,0.0,0.0,0.0,0.0,0.0,0.0
716,1724812200739374527,-1.9961835145950317,-0.41621336340904236,0.18125316500663757,-0.01036425493657589,-0.0128788435831666,-0.3988523781299591,0.9168661236763,0.0,0.0,0.0,0.0,0.0,0.0
718,1724812200739634280,-1.9961706399917603,-0.4161934554576874,0.18120715022087097,-0.010332194156944752,-0.013012020848691463,-0.3988228440284729,0.9168774485588074,0.0,0.0,0.0,0.0,0.0,0.0
720,1724812200739965727,-1.9962167739868164,-0.4161846935749054,0.18116432428359985,-0.010555999353528023,-0.012883768416941166,-0.3987577557563782,0.9169051051139832,0.0,0.0,0.0,0.0,0.0,0.0
722,1724812200740228984,-1.9962369203567505,-0.41615912318229675,0.18109148740768433,-0.010577303357422352,-0.013128737919032574,-0.39875826239585876,0.9169011116027832,0.0,0.0,0.0,0.0,0.0,0.0
724,1724812200740510757,-1.9962615966796875,-0.4161441922187805,0.18102408945560455,-0.010260675102472305,-0.013509322889149189,-0.3985411524772644,0.9169936180114746,0.0,0.0,0.0,0.0,0.0,0.0
726,1724812200743534334,-1.9963141679763794,-0.41611549258232117,0.1809777468442917,-0.010335312224924564,-0.013288521207869053,-0.39857184886932373,0.9169825911521912,0.0,0.0,0.0,0.0,0.0,0.0
728,1724812200753607172,-1.9963289499282837,-0.41605013608932495,0.1809956133365631,-0.010371939279139042,-0.012983893044292927,-0.39860349893569946,0.9169727563858032,0.0,0.0,0.0,0.0,0.0,0.0
730,1724812200762968955,-1.9963494539260864,-0.4160476326942444,0.18102161586284637,-0.010326817631721497,-0.012966659851372242,-0.3985939919948578,0.9169777631759644,0.0,0.0,0.0,0.0,0.0,0.0
732,1724812200773489259,-1.9963479042053223,-0.4160377085208893,0.1809910386800766,-0.010419150814414024,-0.013111994601786137,-0.3985130190849304,0.9170097708702087,0.0,0.0,0.0,0.0,0.0,0.0
734,1724812200783363639,-1.9963487386703491,-0.4160498082637787,0.18100634217262268,-0.010307203978300095,-0.01305726170539856,-0.39860808849334717,0.9169705510139465,0.0,0.0,0.0,0.0,0.0,0.0
736,1724812200793277847,-1.9963103532791138,-0.41606518626213074,0.1810268610715866,-0.010063262656331062,-0.013173830695450306,-0.3985931873321533,0.9169780611991882,0.0,0.0,0.0,0.0,0.0,0.0
738,1724812200805407055,-1.9963001012802124,-0.4160972535610199,0.18102066218852997,-0.009900044649839401,-0.013171026483178139,-0.3984701931476593,0.917033314704895,0.0,0.0,0.0,0.0,0.0,0.0
740,1724812200813263827,-1.9963024854660034,-0.41614285111427307,0.18105411529541016,-0.0103375855833292,-0.013310547918081284,-0.39854374527931213,0.9169943928718567,0.0,0.0,0.0,0.0,0.0,0.0
742,1724812200823495237,-1.9962964057922363,-0.4161755442619324,0.18108853697776794,-0.010347546078264713,-0.013091580010950565,-0.39863163232803345,0.9169593453407288,0.0,0.0,0.0,0.0,0.0,0.0
744,1724812200835422577,-1.9962974786758423,-0.41620486974716187,0.18110089004039764,-0.010260085575282574,-0.013044465333223343,-0.3986107409000397,0.9169700741767883,0.0,0.0,0.0,0.0,0.0,0.0
746,1724812200843122843,-1.9962860345840454,-0.4162241220474243,0.18108071386814117,-0.01005067490041256,-0.013251437805593014,-0.3985092043876648,0.9170135259628296,0.0,0.0,0.0,0.0,0.0,0.0
748,1724812200853786993,-1.9963005781173706,-0.41620901226997375,0.1811390519142151,-0.010282411240041256,-0.013017847202718258,-0.39856138825416565,0.9169915914535522,0.0,0.0,0.0,0.0,0.0,0.0
750,1724812200862896407,-1.9963303804397583,-0.4162253439426422,0.1811078041791916,-0.01036854088306427,-0.012988010421395302,-0.398495078086853,0.9170198440551758,0.0,0.0,0.0,0.0,0.0,0.0
752,1724812200872932183,-1.9962965250015259,-0.4161885976791382,0.18104249238967896,-0.01013380941003561,-0.01331442128866911,-0.3984339237213135,0.917044460773468,0.0,0.0,0.0,0.0,0.0,0.0
754,1724812200883538270,-1.9963048696517944,-0.41616857051849365,0.18100832402706146,-0.010046413168311119,-0.013434619642794132,-0.398419588804245,0.9170499444007874,0.0,0.0,0.0,0.0,0.0,0.0
756,1724812200892842712,-1.9962884187698364,-0.4161604940891266,0.18101069331169128,-0.009977538138628006,-0.013463597744703293,-0.39840149879455566,0.917057991027832,0.0,0.0,0.0,0.0,0.0,0.0
758,1724812200903215696,-1.996313214302063,-0.41615304350852966,0.18101496994495392,-0.010281002148985863,-0.013441349379718304,-0.39829954504966736,0.9170992970466614,0.0,0.0,0.0,0.0,0.0,0.0
760,1724812200915151152,-1.9962873458862305,-0.4161595404148102,0.18100909888744354,-0.010034210979938507,-0.013570795767009258,-0.3983319401741028,0.9170860648155212,0.0,0.0,0.0,0.0,0.0,0.0
762,1724812200923150607,-1.9963161945343018,-0.4161878228187561,0.1810322105884552,-0.01028937567025423,-0.013515686616301537,-0.3982991576194763,0.9170982837677002,0.0,0.0,0.0,0.0,0.0,0.0
764,1724812200933478908,-1.9963253736495972,-0.4162132441997528,0.18111181259155273,-0.010461284779012203,-0.013404680415987968,-0.39828217029571533,0.9171053171157837,0.0,0.0,0.0,0.0,0.0,0.0
766,1724812200942806571,-1.9963088035583496,-0.41625431180000305,0.18114499747753143,-0.010140092112123966,-0.013348075561225414,-0.39832523465156555,0.9170910716056824,0.0,0.0,0.0,0.0,0.0,0.0
768,1724812200958399549,-1.9962857961654663,-0.41628000140190125,0.18117310106754303,-0.010123340412974358,-0.013425363227725029,-0.39825016260147095,0.9171227216720581,0.0,0.0,0.0,0.0,0.0,0.0
770,1724812200963813725,-1.9962786436080933,-0.416290283203125,0.18124499917030334,-0.009852231480181217,-0.013267641887068748,-0.3983694016933441,0.9170762300491333,0.0,0.0,0.0,0.0,0.0,0.0
772,1724812200973121029,-1.996293306350708,-0.41629382967948914,0.18133868277072906,-0.009989310055971146,-0.012961178086698055,-0.3983624279499054,0.9170821309089661,0.0,0.0,0.0,0.0,0.0,0.0
774,1724812200983315537,-1.9962648153305054,-0.4162951409816742,0.18135911226272583,-0.009814075194299221,-0.013203367590904236,-0.39843329787254333,0.917049765586853,0.0,0.0,0.0,0.0,0.0,0.0
776,1724812200993817346,-1.9962801933288574,-0.4163394570350647,0.18131887912750244,-0.009814422577619553,-0.013302618637681007,-0.3982895612716675,0.917110800743103,0.0,0.0,0.0,0.0,0.0,0.0
778,1724812201003215117,-1.9962784051895142,-0.416350394487381,0.18139173090457916,-0.010012228041887283,-0.012990232557058334,-0.39835670590400696,0.9170839190483093,0.0,0.0,0.0,0.0,0.0,0.0
780,1724812201031055364,-1.996255874633789,-0.4163764715194702,0.18138381838798523,-0.009677584283053875,-0.013053285889327526,-0.3982944190502167,0.917113721370697,0.0,0.0,0.0,0.0,0.0,0.0
782,1724812201031538500,-1.9962503910064697,-0.4163600206375122,0.1815129667520523,-0.009815220721065998,-0.01280765701085329,-0.3984605371952057,0.9170435070991516,0.0,0.0,0.0,0.0,0.0,0.0
784,1724812201033333785,-1.9962629079818726,-0.4163764715194702,0.18148356676101685,-0.00956567469984293,-0.01305554062128067,-0.3983192443847656,0.9171040654182434,0.0,0.0,0.0,0.0,0.0,0.0
786,1724812201043222877,-1.9962780475616455,-0.4163948893547058,0.18152348697185516,-0.009684762917459011,-0.013006114400923252,-0.3983837962150574,0.917075514793396,0.0,0.0,0.0,0.0,0.0,0.0
788,1724812201056147153,-1.996267318725586,-0.416401743888855,0.18156494200229645,-0.009315998293459415,-0.013041150756180286,-0.39837124943733215,0.9170843362808228,0.0,0.0,0.0,0.0,0.0,0.0
790,1724812201062518744,-1.9962950944900513,-0.41642454266548157,0.18159662187099457,-0.009487210772931576,-0.012780645862221718,-0.3983704745769501,0.9170865416526794,0.0,0.0,0.0,0.0,0.0,0.0
792,1724812201073786245,-1.9962915182113647,-0.4164559245109558,0.18162062764167786,-0.00925345066934824,-0.012876270338892937,-0.3983008861541748,0.9171178340911865,0.0,0.0,0.0,0.0,0.0,0.0
794,1724812201084822206,-1.9962908029556274,-0.4164925813674927,0.1816270500421524,-0.009264420717954636,-0.013181883841753006,-0.3981548547744751,0.9171767830848694,0.0,0.0,0.0,0.0,0.0,0.0
796,1724812201092995591,-1.9962631464004517,-0.4165717363357544,0.18161417543888092,-0.009280194528400898,-0.013349995948374271,-0.39807015657424927,0.9172108769416809,0.0,0.0,0.0,0.0,0.0,0.0
798,1724812201103306991,-1.9962941408157349,-0.4165143370628357,0.18180760741233826,-0.008918614126741886,-0.012996414676308632,-0.3982629179954529,0.9171358942985535,0.0,0.0,0.0,0.0,0.0,0.0
800,1724812201112882187,-1.9962921142578125,-0.4166018068790436,0.1816784143447876,-0.008319735527038574,-0.013650909066200256,-0.3981357216835022,0.9171872138977051,0.0,0.0,0.0,0.0,0.0,0.0
802,1724812201122854020,-1.9962869882583618,-0.41660282015800476,0.18164977431297302,-0.008103112690150738,-0.014068514108657837,-0.3982596695423126,0.9171290397644043,0.0,0.0,0.0,0.0,0.0,0.0
804,1724812201133762629,-1.996256947517395,-0.4165785610675812,0.18162919580936432,-0.007325454615056515,-0.014507337473332882,-0.39852282404899597,0.917014479637146,0.0,0.0,0.0,0.0,0.0,0.0
806,1724812201142846085,-1.996266484260559,-0.41651153564453125,0.1815290004014969,-0.006833618972450495,-0.015233106911182404,-0.39874425530433655,0.9169102311134338,0.0,0.0,0.0,0.0,0.0,0.0
808,1724812201153588978,-1.9962424039840698,-0.41631171107292175,0.18152321875095367,-0.00637516425922513,-0.015501908026635647,-0.39943936467170715,0.9166063666343689,0.0,0.0,0.0,0.0,0.0,0.0
810,1724812201164180773,-1.9962000846862793,-0.4161475598812103,0.18142282962799072,-0.0058938926085829735,-0.016062041744589806,-0.39978671073913574,0.9164485335350037,0.0,0.0,0.0,0.0,0.0,0.0
812,1724812201175383917,-1.9962071180343628,-0.4159652590751648,0.18126091361045837,-0.00533443596214056,-0.01714489422738552,-0.4003913998603821,0.9161682724952698,0.0,0.0,0.0,0.0,0.0,0.0
814,1724812201183192384,-1.9961788654327393,-0.41576793789863586,0.1811290979385376,-0.0043279919773340225,-0.018236158415675163,-0.4008360803127289,0.9159581065177917,0.0,0.0,0.0,0.0,0.0,0.0
816,1724812201193902339,-1.9961862564086914,-0.41557472944259644,0.1809733361005783,-0.003931737504899502,-0.0189010389149189,-0.40145567059516907,0.9156749248504639,0.0,0.0,0.0,0.0,0.0,0.0
818,1724812201203290199,-1.9961127042770386,-0.41536813974380493,0.18080773949623108,-0.0030376941431313753,-0.019857235252857208,-0.4018361270427704,0.9154912829399109,0.0,0.0,0.0,0.0,0.0,0.0
820,1724812201213923940,-1.9960840940475464,-0.4151853621006012,0.18068282306194305,-0.002534738276153803,-0.02045213244855404,-0.40220943093299866,0.9153157472610474,0.0,0.0,0.0,0.0,0.0,0.0
822,1724812201225332588,-1.9959523677825928,-0.4149831533432007,0.1806044578552246,-0.0016017332673072815,-0.021238235756754875,-0.4025290906429291,0.9151594042778015,0.0,0.0,0.0,0.0,0.0,0.0
824,1724812201233294616,-1.9958789348602295,-0.41480764746665955,0.18057961761951447,-0.0016251070192083716,-0.021799176931381226,-0.40276721119880676,0.9150413870811462,0.0,0.0,0.0,0.0,0.0,0.0
826,1724812201246088985,-1.9958690404891968,-0.4149460792541504,0.18042434751987457,-0.0017736172303557396,-0.02394028753042221,-0.40139973163604736,0.91558837890625,0.0,0.0,0.0,0.0,0.0,0.0
828,1724812201255358887,-1.9956793785095215,-0.41457289457321167,0.18104270100593567,-0.001113799517042935,-0.02143878862261772,-0.4033578038215637,0.9147905707359314,0.0,0.0,0.0,0.0,0.0,0.0
830,1724812201263841640,-1.995686650276184,-0.4148023724555969,0.18104854226112366,-0.001337005291134119,-0.023191863670945168,-0.4020752012729645,0.9153119325637817,0.0,0.0,0.0,0.0,0.0,0.0
832,1724812201273013315,-1.9955047369003296,-0.4145760238170624,0.18173915147781372,-0.0006592424469999969,-0.020607950165867805,-0.4037402868270874,0.9146413207054138,0.0,0.0,0.0,0.0,0.0,0.0
834,1724812201284324305,-1.9954105615615845,-0.4146222472190857,0.18218375742435455,-0.0002945647283922881,-0.019822005182504654,-0.4040743112564087,0.9145113825798035,0.0,0.0,0.0,0.0,0.0,0.0
836,1724812201292813113,-1.9954755306243896,-0.4150007665157318,0.18224582076072693,-0.0008899449603632092,-0.021592266857624054,-0.40204891562461853,0.9153631329536438,0.0,0.0,0.0,0.0,0.0,0.0
838,1724812201303590676,-1.9953806400299072,-0.4151570200920105,0.18261660635471344,-0.0009135077707469463,-0.021099310368299484,-0.40175947546958923,0.9155016541481018,0.0,0.0,0.0,0.0,0.0,0.0
840,1724812201312927733,-1.995265245437622,-0.4153287708759308,0.18305137753486633,-0.0003593208093661815,-0.02063748799264431,-0.4018746316432953,0.9154620170593262,0.0,0.0,0.0,0.0,0.0,0.0
842,1724812201323267371,-1.995188593864441,-0.4155103862285614,0.18337488174438477,3.990041295764968e-05,-0.020473426207900047,-0.4017985165119171,0.9154992699623108,0.0,0.0,0.0,0.0,0.0,0.0
844,1724812201334401733,-1.9951508045196533,-0.4156951606273651,0.1836586445569992,-9.981714356399607e-06,-0.02017504908144474,-0.4017333686351776,0.9155344367027283,0.0,0.0,0.0,0.0,0.0,0.0
846,1724812201343250387,-1.9950001239776611,-0.41591960191726685,0.1838562935590744,0.0002465957368258387,-0.01997528411448002,-0.40206027030944824,0.9153952598571777,0.0,0.0,0.0,0.0,0.0,0.0
848,1724812201353559466,-1.9949407577514648,-0.41606828570365906,0.18405136466026306,0.0005254113930277526,-0.019741958007216454,-0.40194880962371826,0.9154490828514099,0.0,0.0,0.0,0.0,0.0,0.0
850,1724812201363698337,-1.9949312210083008,-0.4161652624607086,0.18425853550434113,0.0002941261336673051,-0.01938449963927269,-0.4019598066806793,0.9154521226882935,0.0,0.0,0.0,0.0,0.0,0.0
852,1724812201372972259,-1.9949601888656616,-0.416257381439209,0.1843729168176651,0.0006179647753015161,-0.01910911500453949,-0.40196898579597473,0.9154536724090576,0.0,0.0,0.0,0.0,0.0,0.0
854,1724812201383562647,-1.994987964630127,-0.4163329005241394,0.18441426753997803,0.0006528617814183235,-0.019228484481573105,-0.40170106291770935,0.9155687093734741,0.0,0.0,0.0,0.0,0.0,0.0
856,1724812201392874654,-1.995004415512085,-0.416384756565094,0.1844160109758377,0.0008516883244737983,-0.0194076057523489,-0.401482492685318,0.9156607389450073,0.0,0.0,0.0,0.0,0.0,0.0
858,1724812201403270626,-1.994942545890808,-0.4160612225532532,0.18458114564418793,0.0010141389211639762,-0.018041545525193214,-0.40317025780677795,0.9149466156959534,0.0,0.0,0.0,0.0,0.0,0.0
860,1724812201413218951,-1.9950037002563477,-0.4159949719905853,0.1844102293252945,0.0010108128190040588,-0.018517443910241127,-0.40293195843696594,0.9150421023368835,0.0,0.0,0.0,0.0,0.0,0.0
862,1724812201449604105,-1.9950686693191528,-0.4159150719642639,0.18427108228206635,0.0009007242042571306,-0.01890620030462742,-0.40279683470726013,0.9150936603546143,0.0,0.0,0.0,0.0,0.0,0.0
864,1724812201450084384,-1.995143175125122,-0.4157969653606415,0.1841694414615631,0.0007384205819107592,-0.018912509083747864,-0.4026991128921509,0.9151366949081421,0.0,0.0,0.0,0.0,0.0,0.0
866,1724812201450404028,-1.9953242540359497,-0.41603174805641174,0.18386465311050415,6.67534040985629e-05,-0.020535022020339966,-0.40062516927719116,0.9160119891166687,0.0,0.0,0.0,0.0,0.0,0.0
868,1724812201453098675,-1.9952468872070312,-0.4156936705112457,0.1839865744113922,0.0005277763120830059,-0.019177693873643875,-0.40238046646118164,0.915271520614624,0.0,0.0,0.0,0.0,0.0,0.0
870,1724812201463170873,-1.9952685832977295,-0.4156203866004944,0.18401527404785156,0.00038604449946433306,-0.0187220461666584,-0.4026278257369995,0.915172278881073,0.0,0.0,0.0,0.0,0.0,0.0
872,1724812201475426806,-1.9954168796539307,-0.4158709943294525,0.18376313149929047,-0.0001906025572679937,-0.020317288115620613,-0.40082162618637085,0.9159308075904846,0.0,0.0,0.0,0.0,0.0,0.0
874,1724812201483733230,-1.9952995777130127,-0.4156024754047394,0.18409235775470734,0.0005505229346454144,-0.018298504874110222,-0.4027321934700012,0.9151349067687988,0.0,0.0,0.0,0.0,0.0,0.0
876,1724812201494015274,-1.9953066110610962,-0.41564351320266724,0.1841769516468048,0.0008168412023223937,-0.018113326281309128,-0.4027653634548187,0.9151236414909363,0.0,0.0,0.0,0.0,0.0,0.0
878,1724812201504015858,-1.9952675104141235,-0.41567209362983704,0.184352308511734,0.0007295730756595731,-0.017347874119877815,-0.403104305267334,0.9149892926216125,0.0,0.0,0.0,0.0,0.0,0.0
880,1724812201513515694,-1.9951934814453125,-0.4157562255859375,0.1845160275697708,0.0007473659934476018,-0.017042364925146103,-0.40359336137771606,0.9147794246673584,0.0,0.0,0.0,0.0,0.0,0.0
882,1724812201523846926,-1.9951761960983276,-0.41586047410964966,0.18460936844348907,0.0010285743046551943,-0.01690642163157463,-0.40343472361564636,0.9148516654968262,0.0,0.0,0.0,0.0,0.0,0.0
884,1724812201534501316,-1.9951375722885132,-0.4159379005432129,0.1846993863582611,0.000856033933814615,-0.016935506835579872,-0.40353450179100037,0.9148072600364685,0.0,0.0,0.0,0.0,0.0,0.0
886,1724812201543868566,-1.9951081275939941,-0.41600316762924194,0.18482601642608643,0.0007550598820671439,-0.016570907086133957,-0.40369051694869995,0.9147452116012573,0.0,0.0,0.0,0.0,0.0,0.0
888,1724812201553828306,-1.9950436353683472,-0.41602784395217896,0.18487422168254852,0.0013098543277010322,-0.016619667410850525,-0.4036400616168976,0.9147660732269287,0.0,0.0,0.0,0.0,0.0,0.0
890,1724812201562726349,-1.9950103759765625,-0.4160216450691223,0.18490585684776306,0.0011916455114260316,-0.016516918316483498,-0.40357381105422974,0.9147971868515015,0.0,0.0,0.0,0.0,0.0,0.0
892,1724812201573815422,-1.9949904680252075,-0.4160231351852417,0.18487443029880524,0.0011057801311835647,-0.016798928380012512,-0.4033999741077423,0.9148688316345215,0.0,0.0,0.0,0.0,0.0,0.0
894,1724812201583036225,-1.9949872493743896,-0.4160061776638031,0.18488647043704987,0.0008809062419459224,-0.01683802716434002,-0.4034121036529541,0.9148630499839783,0.0,0.0,0.0,0.0,0.0,0.0
896,1724812201592906969,-1.9949917793273926,-0.415978342294693,0.18492470681667328,0.0008085244917310774,-0.016732683405280113,-0.4034126102924347,0.9148648381233215,0.0,0.0,0.0,0.0,0.0,0.0
898,1724812201603941042,-1.995002031326294,-0.4159519672393799,0.18488769233226776,0.001032350235618651,-0.016772152855992317,-0.40327003598213196,0.9149267077445984,0.0,0.0,0.0,0.0,0.0,0.0
900,1724812201614234557,-1.9950485229492188,-0.4159444570541382,0.18483436107635498,0.0008156304247677326,-0.016925085335969925,-0.4031989872455597,0.9149554371833801,0.0,0.0,0.0,0.0,0.0,0.0
902,1724812201623943067,-1.9950891733169556,-0.41591164469718933,0.18479852378368378,0.0007742965826764703,-0.016793906688690186,-0.40326428413391113,0.914929211139679,0.0,0.0,0.0,0.0,0.0,0.0
904,1724812201633168512,-1.9950971603393555,-0.41591304540634155,0.18474966287612915,0.0007003880455158651,-0.016924098134040833,-0.40316998958587646,0.9149684309959412,0.0,0.0,0.0,0.0,0.0,0.0
906,1724812201678431572,-1.9951140880584717,-0.4158662259578705,0.1847253292798996,0.00023654615506529808,-0.01685790903866291,-0.403229683637619,0.9149435758590698,0.0,0.0,0.0,0.0,0.0,0.0
908,1724812201678768661,-1.99509859085083,-0.41581401228904724,0.18471887707710266,0.00044819904724135995,-0.016947075724601746,-0.40318500995635986,0.9149614572525024,0.0,0.0,0.0,0.0,0.0,0.0
910,1724812201679126003,-1.9951092004776,-0.4157865643501282,0.18462637066841125,0.0005889871972613037,-0.016998687759041786,-0.40319016575813293,0.914958119392395,0.0,0.0,0.0,0.0,0.0,0.0
912,1724812201679423280,-1.9951112270355225,-0.415767639875412,0.18459796905517578,0.0003949739912059158,-0.017068762332201004,-0.403219997882843,0.9149437546730042,0.0,0.0,0.0,0.0,0.0,0.0
914,1724812201682952575,-1.9952232837677002,-0.4160422384738922,0.18427807092666626,-0.0006346740410663188,-0.019036415964365005,-0.4015852212905884,0.9156236052513123,0.0,0.0,0.0,0.0,0.0,0.0
916,1724812201693195280,-1.995121717453003,-0.4158002436161041,0.18455544114112854,0.0004546582349576056,-0.017220446839928627,-0.4030851721763611,0.915000319480896,0.0,0.0,0.0,0.0,0.0,0.0
918,1724812201703339332,-1.9952291250228882,-0.41604554653167725,0.18425984680652618,-0.00010720561840571463,-0.019357796758413315,-0.4014955759048462,0.9156564474105835,0.0,0.0,0.0,0.0,0.0,0.0
920,1724812201713025590,-1.9951311349868774,-0.4158044457435608,0.18453349173069,0.00033847810118459165,-0.01748064160346985,-0.4029473662376404,0.9150561690330505,0.0,0.0,0.0,0.0,0.0,0.0
922,1724812201723274301,-1.9951790571212769,-0.41578251123428345,0.18462017178535461,0.0006113472045399249,-0.01712273247539997,-0.4029693007469177,0.915053129196167,0.0,0.0,0.0,0.0,0.0,0.0
924,1724812201734200194,-1.9951900243759155,-0.41578543186187744,0.18463100492954254,0.0006719610537402332,-0.017063189297914505,-0.40299752354621887,0.9150418043136597,0.0,0.0,0.0,0.0,0.0,0.0
926,1724812201744233047,-1.9951603412628174,-0.41579556465148926,0.18463216722011566,0.00034657790092751384,-0.017001139000058174,-0.4031651020050049,0.9149692058563232,0.0,0.0,0.0,0.0,0.0,0.0
928,1724812201753452872,-1.9951659440994263,-0.41580402851104736,0.18462038040161133,0.00033190357498824596,-0.017043424770236015,-0.40326106548309326,0.9149262309074402,0.0,0.0,0.0,0.0,0.0,0.0
930,1724812201763954328,-1.9951467514038086,-0.41580528020858765,0.184644877910614,0.00030094810063019395,-0.017113931477069855,-0.4031703770160675,0.9149648547172546,0.0,0.0,0.0,0.0,0.0,0.0
932,1724812201773849885,-1.9951363801956177,-0.4158208668231964,0.18465833365917206,0.00043206498958170414,-0.017040906473994255,-0.4032306671142578,0.9149395823478699,0.0,0.0,0.0,0.0,0.0,0.0
934,1724812201783425502,-1.9951255321502686,-0.4158208668231964,0.184670552611351,0.0003968859964516014,-0.016985611990094185,-0.4032667577266693,0.9149247407913208,0.0,0.0,0.0,0.0,0.0,0.0
936,1724812201793691380,-1.9951074123382568,-0.4158236086368561,0.1846473664045334,0.0002888002200052142,-0.016985371708869934,-0.4031994044780731,0.9149545431137085,0.0,0.0,0.0,0.0,0.0,0.0
938,1724812201804011231,-1.9951083660125732,-0.4158250093460083,0.1846645176410675,0.000144776378874667,-0.01693090982735157,-0.4032115340232849,0.9149501323699951,0.0,0.0,0.0,0.0,0.0,0.0
940,1724812201812937374,-1.9950933456420898,-0.4158213138580322,0.18463508784770966,0.00011486230505397543,-0.017084352672100067,-0.40320146083831787,0.914951741695404,0.0,0.0,0.0,0.0,0.0,0.0
942,1724812201823389255,-1.9951030015945435,-0.41580528020858765,0.18462657928466797,0.0002337811019970104,-0.017132161185145378,-0.4031558334827423,0.9149709343910217,0.0,0.0,0.0,0.0,0.0,0.0
944,1724812201834414968,-1.995209813117981,-0.4160715341567993,0.18433555960655212,-0.0003061962779611349,-0.019177839159965515,-0.40153762698173523,0.9156417846679688,0.0,0.0,0.0,0.0,0.0,0.0
946,1724812201842952581,-1.9952445030212402,-0.41609206795692444,0.1842879056930542,-0.0005854769260622561,-0.019155891612172127,-0.40128767490386963,0.9157516360282898,0.0,0.0,0.0,0.0,0.0,0.0
948,1724812201853572696,-1.9952518939971924,-0.4161195755004883,0.18423928320407867,-0.0005633613327518106,-0.01944044977426529,-0.40099766850471497,0.9158726930618286,0.0,0.0,0.0,0.0,0.0,0.0
950,1724812201863003555,-1.9953086376190186,-0.4161301553249359,0.18423102796077728,-0.0006257917266339064,-0.019300110638141632,-0.40067973732948303,0.9160147309303284,0.0,0.0,0.0,0.0,0.0,0.0
952,1724812201872839109,-1.995254635810852,-0.41615694761276245,0.18426483869552612,-0.000517730659339577,-0.019347209483385086,-0.40084561705589294,0.9159411787986755,0.0,0.0,0.0,0.0,0.0,0.0
954,1724812201893312080,-1.9952239990234375,-0.4161625802516937,0.18429483473300934,-0.000383022241294384,-0.019312817603349686,-0.4009467363357544,0.9158976674079895,0.0,0.0,0.0,0.0,0.0,0.0
956,1724812201893669477,-1.99519944190979,-0.416151225566864,0.1843133270740509,-0.0003821756108663976,-0.01925712265074253,-0.40090277791023254,0.9159181118011475,0.0,0.0,0.0,0.0,0.0,0.0
958,1724812201903929180,-1.995055913925171,-0.41583603620529175,0.1845598667860031,-0.0001907233672682196,-0.0178360715508461,-0.40303412079811096,0.9150111079216003,0.0,0.0,0.0,0.0,0.0,0.0
960,1724812201914346919,-1.9950498342514038,-0.41582632064819336,0.18459396064281464,4.6433156967395917e-05,-0.017705081030726433,-0.4031042158603668,0.914982795715332,0.0,0.0,0.0,0.0,0.0,0.0
962,1724812201933603911,-1.9950419664382935,-0.4157927334308624,0.18466006219387054,-6.68144493829459e-05,-0.017270101234316826,-0.40327200293540955,0.9149171113967896,0.0,0.0,0.0,0.0,0.0,0.0
964,1724812201944925433,-1.9950273036956787,-0.41579577326774597,0.1848265677690506,-0.00016099105414468795,-0.016566889360547066,-0.40345802903175354,0.9148482084274292,0.0,0.0,0.0,0.0,0.0,0.0
966,1724812201953652063,-1.9949977397918701,-0.41580599546432495,0.18483851850032806,0.00012332448386587203,-0.01665494218468666,-0.40342816710472107,0.9148597717285156,0.0,0.0,0.0,0.0,0.0,0.0
968,1724812201963107843,-1.994984745979309,-0.4158300459384918,0.18484482169151306,-6.210954597918317e-05,-0.016720198094844818,-0.4033026695251465,0.9149138331413269,0.0,0.0,0.0,0.0,0.0,0.0
970,1724812201973510685,-1.9949496984481812,-0.41582873463630676,0.18490388989448547,4.360947059467435e-05,-0.016382133588194847,-0.4034802317619324,0.9148417115211487,0.0,0.0,0.0,0.0,0.0,0.0
972,1724812201983427166,-1.9949283599853516,-0.41586369276046753,0.184967502951622,7.684393494855613e-05,-0.016175342723727226,-0.40354597568511963,0.9148163795471191,0.0,0.0,0.0,0.0,0.0,0.0
974,1724812201995586851,-1.9949004650115967,-0.41586044430732727,0.18493014574050903,0.00015031143266241997,-0.01653476431965828,-0.40339651703834534,0.9148758053779602,0.0,0.0,0.0,0.0,0.0,0.0
976,1724812202007703997,-1.9948846101760864,-0.4158966839313507,0.1849151849746704,0.0002411639434285462,-0.01675262115895748,-0.4032920300960541,0.9149179458618164,0.0,0.0,0.0,0.0,0.0,0.0
978,1724812202013161406,-1.994857668876648,-0.4158839285373688,0.18496151268482208,0.0003383647126611322,-0.016501737758517265,-0.40337029099464417,0.9148879647254944,0.0,0.0,0.0,0.0,0.0,0.0
980,1724812202024956755,-1.9948413372039795,-0.41588184237480164,0.18496084213256836,0.0002100480633089319,-0.016583552584052086,-0.4033414423465729,0.9148992896080017,0.0,0.0,0.0,0.0,0.0,0.0
982,1724812202034817304,-1.9948394298553467,-0.41589972376823425,0.18497532606124878,0.00016331867664121091,-0.016615699976682663,-0.40335512161254883,0.9148926734924316,0.0,0.0,0.0,0.0,0.0,0.0
984,1724812202047531616,-1.9948261976242065,-0.415879487991333,0.18497823178768158,0.00014478326193057,-0.016665948554873466,-0.40329933166503906,0.9149163365364075,0.0,0.0,0.0,0.0,0.0,0.0
986,1724812202056250048,-1.9948294162750244,-0.4158921539783478,0.1849590539932251,0.00034671660978347063,-0.016711421310901642,-0.4032719135284424,0.9149274826049805,0.0,0.0,0.0,0.0,0.0,0.0
988,1724812202064309997,-1.9948320388793945,-0.41587790846824646,0.18497712910175323,-9.831398529058788e-06,-0.016563238576054573,-0.40340203046798706,0.914872944355011,0.0,0.0,0.0,0.0,0.0,0.0
990,1724812202075736934,-1.994841456413269,-0.4158892333507538,0.18498677015304565,-1.1633957001322415e-05,-0.01659834012389183,-0.4033951759338379,0.914875328540802,0.0,0.0,0.0,0.0,0.0,0.0
992,1724812202085000588,-1.994827389717102,-0.4159042537212372,0.18495701253414154,0.00012192179565317929,-0.016745449975132942,-0.4032313823699951,0.9149448871612549,0.0,0.0,0.0,0.0,0.0,0.0
994,1724812202093475113,-1.9948351383209229,-0.4158910810947418,0.1849684864282608,-3.1123869121074677e-05,-0.016714192926883698,-0.40332040190696716,0.9149061441421509,0.0,0.0,0.0,0.0,0.0,0.0
996,1724812202103523227,-1.994826316833496,-0.41590747237205505,0.1850181370973587,0.00019721148419193923,-0.016483204439282417,-0.4033566117286682,0.9148944020271301,0.0,0.0,0.0,0.0,0.0,0.0
998,1724812202112795272,-1.9948452711105347,-0.4159294068813324,0.1850234866142273,-0.0003378817636985332,-0.015709109604358673,-0.40340548753738403,0.9148864150047302,0.0,0.0,0.0,0.0,0.0,0.0
1000,1724812202123028953,-1.9947760105133057,-0.41594111919403076,0.18501509726047516,-0.0006222139927558601,-0.014377214014530182,-0.4034202992916107,0.9149016737937927,0.0,0.0,0.0,0.0,0.0,0.0
1002,1724812202133695382,-1.9946832656860352,-0.4159567058086395,0.18488286435604095,-0.0018148539820685983,-0.013213047757744789,-0.402890145778656,0.9151511788368225,0.0,0.0,0.0,0.0,0.0,0.0
1004,1724812202166801740,-1.9945595264434814,-0.41592201590538025,0.18477827310562134,-0.0026104042772203684,-0.011594811454415321,-0.402264267206192,0.9154464602470398,0.0,0.0,0.0,0.0,0.0,0.0
1006,1724812202167096197,-1.994537115097046,-0.4158001244068146,0.18476757407188416,-0.0037207461427897215,-0.009886431507766247,-0.4018096625804901,0.9156622886657715,0.0,0.0,0.0,0.0,0.0,0.0
1008,1724812202167366870,-1.9945329427719116,-0.4157136082649231,0.18457798659801483,-0.004989502020180225,-0.008859812282025814,-0.4010976254940033,0.9159788489341736,0.0,0.0,0.0,0.0,0.0,0.0
1010,1724812202175193593,-1.994646668434143,-0.41569042205810547,0.18402333557605743,-0.006888058502227068,-0.009422341361641884,-0.39970195293426514,0.9165709018707275,0.0,0.0,0.0,0.0,0.0,0.0
1012,1724812202183547885,-1.9947340488433838,-0.4155566394329071,0.18367862701416016,-0.00873209536075592,-0.008454658091068268,-0.39883583784103394,0.9169418811798096,0.0,0.0,0.0,0.0,0.0,0.0
1014,1724812202195690438,-1.9947582483291626,-0.4152732789516449,0.18352220952510834,-0.00978454016149044,-0.004750565625727177,-0.39876577258110046,0.9169882535934448,0.0,0.0,0.0,0.0,0.0,0.0
1016,1724812202207918913,-1.9949119091033936,-0.4151657521724701,0.18305684626102448,-0.011741997674107552,-0.0034826421178877354,-0.39775875210762024,0.9174083471298218,0.0,0.0,0.0,0.0,0.0,0.0
1018,1724812202213058607,-1.9950777292251587,-0.4150410592556,0.18251703679561615,-0.012746295891702175,-0.0024759704247117043,-0.39663931727409363,0.9178827404975891,0.0,0.0,0.0,0.0,0.0,0.0
1020,1724812202223425114,-1.995331883430481,-0.4149039387702942,0.18194012343883514,-0.014263935387134552,-0.0013718551490455866,-0.3953864872455597,0.9184030890464783,0.0,0.0,0.0,0.0,0.0,0.0
1022,1724812202234057597,-1.995674967765808,-0.41479042172431946,0.18132825195789337,-0.01631043665111065,-0.0004695234529208392,-0.3938853144645691,0.9190148711204529,0.0,0.0,0.0,0.0,0.0,0.0
1024,1724812202244148583,-1.99596107006073,-0.41471609473228455,0.1806716024875641,-0.017580874264240265,-0.0001926854602061212,-0.3923785984516144,0.9196357727050781,0.0,0.0,0.0,0.0,0.0,0.0
1026,1724812202253976026,-1.9962654113769531,-0.414580374956131,0.18003219366073608,-0.018783945590257645,0.00044698460260406137,-0.3911350965499878,0.9201415777206421,0.0,0.0,0.0,0.0,0.0,0.0
1028,1724812202263050364,-1.9966073036193848,-0.414376437664032,0.17957115173339844,-0.0197911337018013,0.0022723840083926916,-0.3901384174823761,0.9205406308174133,0.0,0.0,0.0,0.0,0.0,0.0
1030,1724812202273418941,-1.99690580368042,-0.4142306447029114,0.1789875626564026,-0.020012468099594116,0.003409250872209668,-0.3893982470035553,0.9208457469940186,0.0,0.0,0.0,0.0,0.0,0.0
1032,1724812202283888582,-1.9973517656326294,-0.41408494114875793,0.178503155708313,-0.02054336667060852,0.0037851748056709766,-0.388496071100235,0.9212136268615723,0.0,0.0,0.0,0.0,0.0,0.0
1034,1724812202292922207,-1.9978218078613281,-0.41398197412490845,0.17806240916252136,-0.021146541461348534,0.003250192617997527,-0.3877826929092407,0.9215025305747986,0.0,0.0,0.0,0.0,0.0,0.0
1036,1724812202303987756,-1.9982919692993164,-0.41376936435699463,0.1778438836336136,-0.02162271924316883,0.0030354554764926434,-0.38760823011398315,0.921565592288971,0.0,0.0,0.0,0.0,0.0,0.0
1038,1724812202313468198,-1.9987545013427734,-0.41369926929473877,0.17752674221992493,-0.02201632782816887,0.002485530683770776,-0.3875811994075775,0.9215692281723022,0.0,0.0,0.0,0.0,0.0,0.0
1040,1724812202324246445,-1.9991364479064941,-0.41378721594810486,0.1768275946378708,-0.021261321380734444,-0.00018592772539705038,-0.38723286986351013,0.9217368364334106,0.0,0.0,0.0,0.0,0.0,0.0
1042,1724812202334178910,-1.999485969543457,-0.41381117701530457,0.17639954388141632,-0.020890716463327408,-0.0019280321430414915,-0.3872602581977844,0.9217318296432495,0.0,0.0,0.0,0.0,0.0,0.0
1044,1724812202371374253,-1.999760389328003,-0.41382187604904175,0.17604532837867737,-0.019810231402516365,-0.0035405054222792387,-0.38752180337905884,0.9216408133506775,0.0,0.0,0.0,0.0,0.0,0.0
1046,1724812202371719099,-1.999993920326233,-0.4138132333755493,0.17584487795829773,-0.01872292160987854,-0.004583342000842094,-0.38851892948150635,0.9212391376495361,0.0,0.0,0.0,0.0,0.0,0.0
1048,1724812202372002238,-2.000143051147461,-0.41377443075180054,0.17566418647766113,-0.018118951469659805,-0.005686590448021889,-0.389181524515152,0.920965313911438,0.0,0.0,0.0,0.0,0.0,0.0
1050,1724812202375133607,-2.0002317428588867,-0.41366466879844666,0.17545312643051147,-0.017279012128710747,-0.007198826875537634,-0.3899238109588623,0.9206569194793701,0.0,0.0,0.0,0.0,0.0,0.0
1052,1724812202383550918,-2.0002825260162354,-0.41349995136260986,0.17524094879627228,-0.016896111890673637,-0.008519702591001987,-0.3907707631587982,0.9202936291694641,0.0,0.0,0.0,0.0,0.0,0.0
1054,1724812202392728171,-2.0001885890960693,-0.4132232367992401,0.17559663951396942,-0.016234910115599632,-0.007741181179881096,-0.3922785222530365,0.9196706414222717,0.0,0.0,0.0,0.0,0.0,0.0
1056,1724812202403344799,-2.000037670135498,-0.41302064061164856,0.1753259003162384,-0.01609521545469761,-0.009358885698020458,-0.3923635184764862,0.9196218252182007,0.0,0.0,0.0,0.0,0.0,0.0
1058,1724812202412897384,-2.000011444091797,-0.41308820247650146,0.17501452565193176,-0.0161718912422657,-0.010840418748557568,-0.391152024269104,0.9201201796531677,0.0,0.0,0.0,0.0,0.0,0.0
1060,1724812202423101902,-1.9995671510696411,-0.41253864765167236,0.1749202311038971,-0.015280060470104218,-0.010185246355831623,-0.3937491774559021,0.9190345406532288,0.0,0.0,0.0,0.0,0.0,0.0
1062,1724812202433827056,-1.9992367029190063,-0.412183552980423,0.17491477727890015,-0.014795628376305103,-0.009246690198779106,-0.39472338557243347,0.9186344146728516,0.0,0.0,0.0,0.0,0.0,0.0
1064,1724812202445619564,-1.9989027976989746,-0.4118283987045288,0.17497308552265167,-0.015038194134831429,-0.008080136962234974,-0.3954605460166931,0.91832435131073,0.0,0.0,0.0,0.0,0.0,0.0
1066,1724812202453314645,-1.9985836744308472,-0.4116610884666443,0.17486539483070374,-0.015029970556497574,-0.007891183719038963,-0.3956582844257355,0.9182409048080444,0.0,0.0,0.0,0.0,0.0,0.0
1068,1724812202519119456,-1.9982712268829346,-0.4114748537540436,0.1749114692211151,-0.015130936168134212,-0.007018169388175011,-0.3961583971977234,0.9180306792259216,0.0,0.0,0.0,0.0,0.0,0.0
1070,1724812202519404625,-1.9980430603027344,-0.4114324152469635,0.17481087148189545,-0.015145395882427692,-0.007452733349055052,-0.3960426449775696,0.9180769920349121,0.0,0.0,0.0,0.0,0.0,0.0
1072,1724812202519647181,-1.9978959560394287,-0.4113899767398834,0.17485330998897552,-0.01551841665059328,-0.007266579195857048,-0.39624297618865967,0.9179858565330505,0.0,0.0,0.0,0.0,0.0,0.0
1074,1724812202519994549,-1.9977821111679077,-0.4114479720592499,0.17493514716625214,-0.015355046838521957,-0.007243840489536524,-0.3964286148548126,0.9179084897041321,0.0,0.0,0.0,0.0,0.0,0.0
1076,1724812202520247455,-1.9977082014083862,-0.41152238845825195,0.17496676743030548,-0.015519518405199051,-0.0074847424402832985,-0.3964354991912842,0.9179008603096008,0.0,0.0,0.0,0.0,0.0,0.0
1078,1724812202520499422,-1.9976720809936523,-0.4116179347038269,0.17502988874912262,-0.015370483510196209,-0.007627557963132858,-0.3964795768260956,0.9178832173347473,0.0,0.0,0.0,0.0,0.0,0.0
1080,1724812202523924434,-1.9977084398269653,-0.41172951459884644,0.1751127541065216,-0.015327729284763336,-0.00771885272115469,-0.3968701958656311,0.9177142977714539,0.0,0.0,0.0,0.0,0.0,0.0
1082,1724812202533340404,-1.9977190494537354,-0.41181299090385437,0.17522357404232025,-0.015142431482672691,-0.007774745114147663,-0.39686501026153564,0.9177191257476807,0.0,0.0,0.0,0.0,0.0,0.0
1084,1724812202543127137,-1.9977600574493408,-0.41185569763183594,0.17540495097637177,-0.015050421468913555,-0.00737734604626894,-0.3968943655490875,0.9177113175392151,0.0,0.0,0.0,0.0,0.0,0.0
1086,1724812202554002346,-1.9977829456329346,-0.4119453430175781,0.175447478890419,-0.01483598817139864,-0.007720175664871931,-0.39671939611434937,0.9177876114845276,0.0,0.0,0.0,0.0,0.0,0.0
1088,1724812202562686777,-1.99782395362854,-0.4119716286659241,0.1754906177520752,-0.014703894965350628,-0.0076926033943891525,-0.3966418206691742,0.9178234338760376,0.0,0.0,0.0,0.0,0.0,0.0
1090,1724812202576200338,-1.9978677034378052,-0.4119635820388794,0.1756189465522766,-0.014750323258340359,-0.0071891616098582745,-0.39683008193969727,0.9177454113960266,0.0,0.0,0.0,0.0,0.0,0.0
1092,1724812202583954364,-1.9978952407836914,-0.4119311571121216,0.1756531000137329,-0.014420217834413052,-0.006953738629817963,-0.39692768454551697,0.9177103042602539,0.0,0.0,0.0,0.0,0.0,0.0
1094,1724812202592845132,-1.9979034662246704,-0.4119003117084503,0.17577312886714935,-0.014568299055099487,-0.006662257947027683,-0.39695486426353455,0.917698323726654,0.0,0.0,0.0,0.0,0.0,0.0
1096,1724812202603504275,-1.9978959560394287,-0.41190505027770996,0.1757510006427765,-0.013998736627399921,-0.006721530109643936,-0.3968989849090576,0.917730987071991,0.0,0.0,0.0,0.0,0.0,0.0
1098,1724812202612941644,-1.9978548288345337,-0.4118916988372803,0.17573902010917664,-0.01408972404897213,-0.006859106943011284,-0.39695584774017334,0.9177039861679077,0.0,0.0,0.0,0.0,0.0,0.0
1100,1724812202623243572,-1.9978114366531372,-0.41191190481185913,0.17567822337150574,-0.01426872331649065,-0.007234051823616028,-0.3967851400375366,0.917772114276886,0.0,0.0,0.0,0.0,0.0,0.0
1102,1724812202632929624,-1.9977864027023315,-0.4119069278240204,0.17567230761051178,-0.014215435832738876,-0.007039304822683334,-0.3968419134616852,0.9177499413490295,0.0,0.0,0.0,0.0,0.0,0.0
1104,1724812202642814016,-1.9977387189865112,-0.411892294883728,0.17566920816898346,-0.013986063189804554,-0.007037555333226919,-0.3969513177871704,0.9177060723304749,0.0,0.0,0.0,0.0,0.0,0.0
1106,1724812202653625800,-1.9976670742034912,-0.41188883781433105,0.17564424872398376,-0.013885433785617352,-0.007231404073536396,-0.39698347449302673,0.9176921844482422,0.0,0.0,0.0,0.0,0.0,0.0
1108,1724812202663828372,-1.9976153373718262,-0.41189688444137573,0.1756725162267685,-0.01402775663882494,-0.007267800625413656,-0.39703992009162903,0.917665421962738,0.0,0.0,0.0,0.0,0.0,0.0
1110,1724812202672997217,-1.997572422027588,-0.41191139817237854,0.1757611334323883,-0.01391038578003645,-0.007085471414029598,-0.397076815366745,0.9176526665687561,0.0,0.0,0.0,0.0,0.0,0.0
1112,1724812202682931967,-1.9975496530532837,-0.41192951798439026,0.17581285536289215,-0.013967880047857761,-0.007024535909295082,-0.397091805934906,0.9176457524299622,0.0,0.0,0.0,0.0,0.0,0.0
1114,1724812202695167456,-1.997528076171875,-0.41196006536483765,0.17592735588550568,-0.01397621352225542,-0.006901965010911226,-0.3971345126628876,0.9176280498504639,0.0,0.0,0.0,0.0,0.0,0.0
1116,1724812202704198640,-1.9974974393844604,-0.4119744598865509,0.175999715924263,-0.013620459474623203,-0.0068537588231265545,-0.39715564250946045,0.9176246523857117,0.0,0.0,0.0,0.0,0.0,0.0
1118,1724812202715287657,-1.9974818229675293,-0.4119504392147064,0.17614641785621643,-0.013871010392904282,-0.00615351228043437,-0.39753374457359314,0.9174620509147644,0.0,0.0,0.0,0.0,0.0,0.0
1120,1724812202723169848,-1.9974673986434937,-0.4120144248008728,0.1761331558227539,-0.013694223016500473,-0.006749554071575403,-0.3973352909088135,0.9175465703010559,0.0,0.0,0.0,0.0,0.0,0.0
1122,1724812202733804887,-1.9974327087402344,-0.4120306670665741,0.17618820071220398,-0.013743962161242962,-0.006890535820275545,-0.3973420262336731,0.9175418615341187,0.0,0.0,0.0,0.0,0.0,0.0
1124,1724812202743823318,-1.9973747730255127,-0.4120413362979889,0.176284059882164,-0.013354162685573101,-0.0066484264098107815,-0.39748746156692505,0.9174863696098328,0.0,0.0,0.0,0.0,0.0,0.0
1126,1724812202753612495,-1.9973407983779907,-0.4120815396308899,0.1763327419757843,-0.013066441752016544,-0.006658006925135851,-0.39742615818977356,0.9175169467926025,0.0,0.0,0.0,0.0,0.0,0.0
1128,1724812202795407623,-1.9973084926605225,-0.41206449270248413,0.1763431429862976,-0.013310425914824009,-0.006756573915481567,-0.3975505232810974,0.9174588322639465,0.0,0.0,0.0,0.0,0.0,0.0
1130,1724812202795765648,-1.9972821474075317,-0.4120802581310272,0.17638953030109406,-0.01315306220203638,-0.0067392135970294476,-0.39753952622413635,0.9174659848213196,0.0,0.0,0.0,0.0,0.0,0.0
1132,1724812202796155601,-1.9972621202468872,-0.4120827615261078,0.17637179791927338,-0.013028135523200035,-0.007092817220836878,-0.39752906560897827,0.9174696803092957,0.0,0.0,0.0,0.0,0.0,0.0
1134,1724812202796473673,-1.997220754623413,-0.4120710492134094,0.1764019876718521,-0.012836120091378689,-0.007029369473457336,-0.39754703640937805,0.917465090751648,0.0,0.0,0.0,0.0,0.0,0.0
1136,1724812202805708015,-1.9971873760223389,-0.41204503178596497,0.17648166418075562,-0.012795280665159225,-0.006597681902348995,-0.39768341183662415,0.9174097180366516,0.0,0.0,0.0,0.0,0.0,0.0
1138,1724812202812920076,-1.9971833229064941,-0.4120570123195648,0.1764894425868988,-0.0130402697250247,-0.006729100830852985,-0.3977097272872925,0.9173940420150757,0.0,0.0,0.0,0.0,0.0,0.0
1140,1724812202823138423,-1.997186541557312,-0.41205093264579773,0.17657266557216644,-0.013136308640241623,-0.006435854826122522,-0.3978060483932495,0.9173529148101807,0.0,0.0,0.0,0.0,0.0,0.0
1142,1724812202833352546,-1.9972069263458252,-0.41204360127449036,0.1766103208065033,-0.012929942458868027,-0.006114629562944174,-0.39801302552223206,0.9172682762145996,0.0,0.0,0.0,0.0,0.0,0.0
1144,1724812202843688176,-1.9971927404403687,-0.4120393693447113,0.17662513256072998,-0.01254590880125761,-0.006096625234931707,-0.3979428708553314,0.9173041582107544,0.0,0.0,0.0,0.0,0.0,0.0
1146,1724812202855169163,-1.9971967935562134,-0.4120801091194153,0.17662382125854492,-0.012781469151377678,-0.006475102622061968,-0.3977509140968323,0.9173815250396729,0.0,0.0,0.0,0.0,0.0,0.0
1148,1724812202862882528,-1.997200608253479,-0.41212716698646545,0.17654971778392792,-0.012436416931450367,-0.0067774527706205845,-0.39766764640808105,0.9174202084541321,0.0,0.0,0.0,0.0,0.0,0.0
1150,1724812202873662774,-1.9972281455993652,-0.41212397813796997,0.17653636634349823,-0.012564031407237053,-0.006701435428112745,-0.39770445227622986,0.9174031615257263,0.0,0.0,0.0,0.0,0.0,0.0
1152,1724812202884059091,-1.997252345085144,-0.4121101200580597,0.1765499711036682,-0.013165651820600033,-0.006563324946910143,-0.3977697193622589,0.9173673391342163,0.0,0.0,0.0,0.0,0.0,0.0
1154,1724812202892797396,-1.9972327947616577,-0.41204696893692017,0.17658983170986176,-0.012720460072159767,-0.006233695428818464,-0.3979162275791168,0.9173123836517334,0.0,0.0,0.0,0.0,0.0,0.0
1156,1724812202903619941,-1.9972670078277588,-0.41206440329551697,0.17654484510421753,-0.012801465578377247,-0.006472044158726931,-0.3977120816707611,0.9173981547355652,0.0,0.0,0.0,0.0,0.0,0.0
1158,1724812202913153378,-1.9972699880599976,-0.4120729863643646,0.1764926165342331,-0.012725301086902618,-0.006644570268690586,-0.39769312739372253,0.9174062013626099,0.0,0.0,0.0,0.0,0.0,0.0
1160,1724812202923246611,-1.9972771406173706,-0.412060022354126,0.17651121318340302,-0.01277079712599516,-0.006524078547954559,-0.397735059261322,0.9173882007598877,0.0,0.0,0.0,0.0,0.0,0.0
1162,1724812202933644849,-1.9972732067108154,-0.4120318591594696,0.17652347683906555,-0.012895427644252777,-0.006558747496455908,-0.3976503610610962,0.9174229502677917,0.0,0.0,0.0,0.0,0.0,0.0
1164,1724812202943518404,-1.9972606897354126,-0.4120509922504425,0.17648430168628693,-0.012902181595563889,-0.006853085942566395,-0.39755213260650635,0.9174633026123047,0.0,0.0,0.0,0.0,0.0,0.0
1166,1724812202953330626,-1.9972692728042603,-0.41203421354293823,0.17652161419391632,-0.012905816547572613,-0.00643547996878624,-0.39772269129753113,0.9173923134803772,0.0,0.0,0.0,0.0,0.0,0.0
1168,1724812202963116917,-1.997243881225586,-0.41205498576164246,0.17652392387390137,-0.012773553840816021,-0.006506941746920347,-0.3977193236351013,0.9173951745033264,0.0,0.0,0.0,0.0,0.0,0.0
1170,1724812202975374631,-1.9972319602966309,-0.4120425581932068,0.1765650361776352,-0.01281366404145956,-0.00636523962020874,-0.3977755308151245,0.9173711538314819,0.0,0.0,0.0,0.0,0.0,0.0
1172,1724812202983242890,-1.9972392320632935,-0.4120514988899231,0.17660675942897797,-0.012744173407554626,-0.006266724318265915,-0.3977563679218292,0.917381227016449,0.0,0.0,0.0,0.0,0.0,0.0
1174,1724812202994026213,-1.997240424156189,-0.4120582640171051,0.1766091138124466,-0.012505311518907547,-0.006322937551885843,-0.3978196382522583,0.9173566102981567,0.0,0.0,0.0,0.0,0.0,0.0
1176,1724812203004047746,-1.9972492456436157,-0.4121074378490448,0.17657184600830078,-0.012779959477484226,-0.00674628559499979,-0.39762675762176514,0.917433500289917,0.0,0.0,0.0,0.0,0.0,0.0
1178,1724812203013403919,-1.997200846672058,-0.4120936095714569,0.17656968533992767,-0.012450337409973145,-0.006503071635961533,-0.39773547649383545,0.9173926115036011,0.0,0.0,0.0,0.0,0.0,0.0
1180,1724812203023839806,-1.9972249269485474,-0.41206085681915283,0.1766057163476944,-0.012686064466834068,-0.006277431268244982,-0.39784830808639526,0.9173420667648315,0.0,0.0,0.0,0.0,0.0,0.0
1182,1724812203033227524,-1.9972304105758667,-0.4120747745037079,0.1764575093984604,-0.01299856137484312,-0.006813150364905596,-0.3976189196109772,0.9174332618713379,0.0,0.0,0.0,0.0,0.0,0.0
1184,1724812203043654502,-1.9972200393676758,-0.4120447635650635,0.17646394670009613,-0.012726308777928352,-0.006777605507522821,-0.3976520001888275,0.9174230098724365,0.0,0.0,0.0,0.0,0.0,0.0
1186,1724812203155852117,-1.9972491264343262,-0.4120156764984131,0.1764673888683319,-0.012889654375612736,-0.00666892621666193,-0.39768823981285095,0.917405903339386,0.0,0.0,0.0,0.0,0.0,0.0
1188,1724812203156236398,-1.9972543716430664,-0.41201937198638916,0.1764339655637741,-0.012854721397161484,-0.006812890525907278,-0.3975987732410431,0.9174439907073975,0.0,0.0,0.0,0.0,0.0,0.0
1190,1724812203156485498,-1.997252345085144,-0.4120241701602936,0.17643973231315613,-0.012792307883501053,-0.006806657183915377,-0.3976033627986908,0.9174429774284363,0.0,0.0,0.0,0.0,0.0,0.0
1192,1724812203156731530,-1.9972825050354004,-0.41202783584594727,0.1764463484287262,-0.013135352171957493,-0.006808412726968527,-0.397661954164505,0.9174126982688904,0.0,0.0,0.0,0.0,0.0,0.0
1194,1724812203156977170,-1.9972813129425049,-0.41204920411109924,0.1764177829027176,-0.0127785075455904,-0.006814106367528439,-0.39761239290237427,0.9174391627311707,0.0,0.0,0.0,0.0,0.0,0.0
1196,1724812203157223101,-1.9972676038742065,-0.41203540563583374,0.17636729776859283,-0.012708380818367004,-0.006981987040489912,-0.39753738045692444,0.9174714088439941,0.0,0.0,0.0,0.0,0.0,0.0
1198,1724812203157468827,-1.9972739219665527,-0.41201725602149963,0.17631125450134277,-0.013190795667469501,-0.0071242088451981544,-0.39752066135406494,0.9174708127975464,0.0,0.0,0.0,0.0,0.0,0.0
1200,1724812203157718488,-1.9972517490386963,-0.41199007630348206,0.1762990951538086,-0.013087148778140545,-0.007129040081053972,-0.39757856726646423,0.9174470901489258,0.0,0.0,0.0,0.0,0.0,0.0
1202,1724812203157963220,-1.9972500801086426,-0.4119974672794342,0.17629410326480865,-0.013014161959290504,-0.007108079269528389,-0.3975432813167572,0.9174636006355286,0.0,0.0,0.0,0.0,0.0,0.0
1204,1724812203158213578,-1.9972257614135742,-0.41200441122055054,0.17628386616706848,-0.013005147688090801,-0.0072692083194851875,-0.3975162208080292,0.9174742102622986,0.0,0.0,0.0,0.0,0.0,0.0
1206,1724812203158459427,-1.9972227811813354,-0.41198423504829407,0.17634400725364685,-0.01304993499070406,-0.007158290129154921,-0.39761579036712646,0.9174312353134155,0.0,0.0,0.0,0.0,0.0,0.0
1208,1724812203163343224,-1.9972269535064697,-0.41199031472206116,0.17636528611183167,-0.012964442372322083,-0.006961125414818525,-0.39765357971191406,0.9174176454544067,0.0,0.0,0.0,0.0,0.0,0.0
1210,1724812203185722774,-1.9972362518310547,-0.4119884967803955,0.17635366320610046,-0.012653017416596413,-0.007086371537297964,-0.397553414106369,0.9174644947052002,0.0,0.0,0.0,0.0,0.0,0.0
1212,1724812203186017139,-1.9972690343856812,-0.41202855110168457,0.17634132504463196,-0.013013288378715515,-0.007112901192158461,-0.39751702547073364,0.9174749255180359,0.0,0.0,0.0,0.0,0.0,0.0
1214,1724812203194054457,-1.997283935546875,-0.41204315423965454,0.17632006108760834,-0.013010358437895775,-0.007207518443465233,-0.39753395318984985,0.9174669981002808,0.0,0.0,0.0,0.0,0.0,0.0
1216,1724812203207070373,-1.99727463722229,-0.4120250940322876,0.176319420337677,-0.012967762537300587,-0.007053155452013016,-0.3975636959075928,0.9174558520317078,0.0,0.0,0.0,0.0,0.0,0.0
1218,1724812203212915934,-1.9972838163375854,-0.4120420813560486,0.17637871205806732,-0.012923944741487503,-0.006751838140189648,-0.3976801931858063,0.917408287525177,0.0,0.0,0.0,0.0,0.0,0.0
1220,1724812203224169453,-1.9972516298294067,-0.4120228588581085,0.17639224231243134,-0.012744178995490074,-0.006920307874679565,-0.3976263105869293,0.9174328446388245,0.0,0.0,0.0,0.0,0.0,0.0
1222,1724812203233505727,-1.9972295761108398,-0.4120069742202759,0.17647233605384827,-0.012759773060679436,-0.006634655874222517,-0.39775556325912476,0.9173786640167236,0.0,0.0,0.0,0.0,0.0,0.0
1224,1724812203244179413,-1.997232437133789,-0.4120233952999115,0.17639966309070587,-0.012815806083381176,-0.007037226110696793,-0.3976365327835083,0.9174265265464783,0.0,0.0,0.0,0.0,0.0,0.0
1226,1724812203253463160,-1.997246265411377,-0.41198834776878357,0.1764560341835022,-0.0129013080149889,-0.006638778373599052,-0.39774951338768005,0.9173793196678162,0.0,0.0,0.0,0.0,0.0,0.0
1228,1724812203263150524,-1.9972352981567383,-0.412001371383667,0.17638429999351501,-0.01297823153436184,-0.006983471103012562,-0.397724986076355,0.9173862934112549,0.0,0.0,0.0,0.0,0.0,0.0
1230,1724812203297103087,-1.9972450733184814,-0.41196829080581665,0.17627453804016113,-0.01306356955319643,-0.0071737938560545444,-0.3977012038230896,0.9173939228057861,0.0,0.0,0.0,0.0,0.0,0.0
1232,1724812203297655093,-1.9972760677337646,-0.4118959307670593,0.1761944442987442,-0.013472748920321465,-0.00707016047090292,-0.39768895506858826,0.9173941612243652,0.0,0.0,0.0,0.0,0.0,0.0
1234,1724812203297923274,-1.9973002672195435,-0.4118407964706421,0.17604020237922668,-0.013862976804375648,-0.007105578202754259,-0.39773207902908325,0.9173693656921387,0.0,0.0,0.0,0.0,0.0,0.0
1236,1724812203305357491,-1.9972608089447021,-0.4118122160434723,0.17575186491012573,-0.013804541900753975,-0.007720489986240864,-0.3969818353652954,0.9176902174949646,0.0,0.0,0.0,0.0,0.0,0.0
1238,1724812203313104207,-1.9972935914993286,-0.41179656982421875,0.1755761057138443,-0.014005796983838081,-0.00787341222167015,-0.3967055678367615,0.9178053736686707,0.0,0.0,0.0,0.0,0.0,0.0
1240,1724812203323446569,-1.997327208518982,-0.4117426574230194,0.17550384998321533,-0.013989151455461979,-0.00792848039418459,-0.3967440128326416,0.9177885055541992,0.0,0.0,0.0,0.0,0.0,0.0
1242,1724812203334527554,-1.9973456859588623,-0.41172724962234497,0.17545641958713531,-0.01379262562841177,-0.008231529034674168,-0.39652523398399353,0.9178832769393921,0.0,0.0,0.0,0.0,0.0,0.0
1244,1724812203342742056,-1.997360348701477,-0.41168633103370667,0.17547468841075897,-0.01403969619423151,-0.007930750958621502,-0.396587073802948,0.9178555011749268,0.0,0.0,0.0,0.0,0.0,0.0
1246,1724812203353769422,-1.9973722696304321,-0.41165125370025635,0.17543207108974457,-0.014250277541577816,-0.007831416092813015,-0.3967568874359131,0.9177796840667725,0.0,0.0,0.0,0.0,0.0,0.0
1248,1724812203362894344,-1.9973852634429932,-0.41163867712020874,0.17529572546482086,-0.014433091506361961,-0.007967517711222172,-0.39674174785614014,0.917782187461853,0.0,0.0,0.0,0.0,0.0,0.0
1250,1724812203373345192,-1.997363805770874,-0.4116317629814148,0.17511050403118134,-0.014748983085155487,-0.008295770734548569,-0.3968624472618103,0.9177221059799194,0.0,0.0,0.0,0.0,0.0,0.0
1252,1724812203393558079,-1.9973160028457642,-0.41157564520835876,0.1749340295791626,-0.014970870688557625,-0.008293813094496727,-0.396980345249176,0.9176675081253052,0.0,0.0,0.0,0.0,0.0,0.0
1254,1724812203393799872,-1.9972907304763794,-0.41152071952819824,0.1746913194656372,-0.015299675986170769,-0.008876552805304527,-0.3967747688293457,0.9177455306053162,0.0,0.0,0.0,0.0,0.0,0.0
1256,1724812203403302836,-1.9972443580627441,-0.41144323348999023,0.17450033128261566,-0.015690302476286888,-0.008988860994577408,-0.3967828154563904,0.9177343845367432,0.0,0.0,0.0,0.0,0.0,0.0
1258,1724812203413220570,-1.9972131252288818,-0.4112893342971802,0.1743433028459549,-0.01633048988878727,-0.008756119757890701,-0.39698895812034607,0.9176363945007324,0.0,0.0,0.0,0.0,0.0,0.0
1260,1724812203423817942,-1.997165322303772,-0.4111190140247345,0.1740201860666275,-0.016582636162638664,-0.009112909436225891,-0.39713427424430847,0.9175654053688049,0.0,0.0,0.0,0.0,0.0,0.0
1262,1724812203433872759,-1.9971259832382202,-0.4111539423465729,0.17306436598300934,-0.016612429171800613,-0.012096978724002838,-0.3960517644882202,0.917998194694519,0.0,0.0,0.0,0.0,0.0,0.0
1264,1724812203444259206,-1.9971494674682617,-0.4110559821128845,0.17248670756816864,-0.016998019069433212,-0.013997219502925873,-0.3954624831676483,0.9182181358337402,0.0,0.0,0.0,0.0,0.0,0.0
1266,1724812203456245835,-1.9971743822097778,-0.41089221835136414,0.17203615605831146,-0.017220012843608856,-0.014794700779020786,-0.39547204971313477,0.9181973934173584,0.0,0.0,0.0,0.0,0.0,0.0
1268,1724812203464333959,-1.9972089529037476,-0.4107069671154022,0.17154580354690552,-0.017587117850780487,-0.015695378184318542,-0.39563772082328796,0.9181041121482849,0.0,0.0,0.0,0.0,0.0,0.0
1270,1724812203474339403,-1.9972697496414185,-0.4104680120944977,0.17109231650829315,-0.01805652305483818,-0.016348300501704216,-0.3957633078098297,0.9180295467376709,0.0,0.0,0.0,0.0,0.0,0.0
1272,1724812203483403448,-1.9973779916763306,-0.4103021025657654,0.1704220324754715,-0.01836993545293808,-0.017574971541762352,-0.3954283595085144,0.9181450009346008,0.0,0.0,0.0,0.0,0.0,0.0
1274,1724812203493411180,-1.9974180459976196,-0.40995559096336365,0.17019568383693695,-0.017863227054476738,-0.017155133187770844,-0.3969823718070984,0.9174920916557312,0.0,0.0,0.0,0.0,0.0,0.0
1276,1724812203504216270,-1.9974912405014038,-0.4096457362174988,0.16941992938518524,-0.018233466893434525,-0.018385203555226326,-0.39740070700645447,0.9172797799110413,0.0,0.0,0.0,0.0,0.0,0.0
1278,1724812203513137700,-1.9976434707641602,-0.40933895111083984,0.16849765181541443,-0.018981454893946648,-0.019940273836255074,-0.3971638083457947,0.917334794998169,0.0,0.0,0.0,0.0,0.0,0.0
1280,1724812203527477437,-1.997758150100708,-0.409030556678772,0.1676640659570694,-0.01930142752826214,-0.02106967382133007,-0.39691296219825745,0.9174113869667053,0.0,0.0,0.0,0.0,0.0,0.0
1282,1724812203533575839,-1.9978712797164917,-0.4087197184562683,0.16672742366790771,-0.019705956801772118,-0.02272600308060646,-0.3964017331600189,0.9175843596458435,0.0,0.0,0.0,0.0,0.0,0.0
1284,1724812203543359569,-1.9982117414474487,-0.40891069173812866,0.16536591947078705,-0.020919078961014748,-0.02505195513367653,-0.3930136561393738,0.9189533591270447,0.0,0.0,0.0,0.0,0.0,0.0
1286,1724812203554270414,-1.998307228088379,-0.40837714076042175,0.16451121866703033,-0.021397780627012253,-0.026478208601474762,-0.3946274220943451,0.9182103276252747,0.0,0.0,0.0,0.0,0.0,0.0
1288,1724812203563302226,-1.9985201358795166,-0.408151239156723,0.16375280916690826,-0.021807854995131493,-0.0271372739225626,-0.39430007338523865,0.9183220863342285,0.0,0.0,0.0,0.0,0.0,0.0
1290,1724812203574732684,-1.9987465143203735,-0.40794411301612854,0.16309253871440887,-0.022643400356173515,-0.027750730514526367,-0.39402326941490173,0.9184023141860962,0.0,0.0,0.0,0.0,0.0,0.0
1292,1724812203601547809,-1.9990962743759155,-0.4080013930797577,0.16289053857326508,-0.02392289601266384,-0.026174966245889664,-0.39238694310188293,0.9191164970397949,0.0,0.0,0.0,0.0,0.0,0.0
1294,1724812203601987226,-1.9992563724517822,-0.40752124786376953,0.1623624861240387,-0.024825232103466988,-0.027093369513750076,-0.3940826952457428,0.9183400869369507,0.0,0.0,0.0,0.0,0.0,0.0
1296,1724812203603655951,-1.9994720220565796,-0.40739309787750244,0.16169996559619904,-0.026031695306301117,-0.02798715978860855,-0.3937302529811859,0.9184311032295227,0.0,0.0,0.0,0.0,0.0,0.0
1298,1724812203612970557,-1.9996391534805298,-0.4071996212005615,0.1611635982990265,-0.027142778038978577,-0.02802847884595394,-0.3936314880847931,0.918440043926239,0.0,0.0,0.0,0.0,0.0,0.0
1300,1724812203622890060,-1.9998152256011963,-0.40700581669807434,0.16075408458709717,-0.028034865856170654,-0.027579989284276962,-0.3938430845737457,0.9183359742164612,0.0,0.0,0.0,0.0,0.0,0.0
1302,1724812203632984966,-1.9999374151229858,-0.40684080123901367,0.16029828786849976,-0.028360038995742798,-0.02780984342098236,-0.3937428295612335,0.9183621406555176,0.0,0.0,0.0,0.0,0.0,0.0
1304,1724812203645431752,-2.000042200088501,-0.40672165155410767,0.15983864665031433,-0.02872973494231701,-0.028106356039643288,-0.3934851288795471,0.9184520244598389,0.0,0.0,0.0,0.0,0.0,0.0
1306,1724812203653147870,-2.0001211166381836,-0.40663865208625793,0.1593015193939209,-0.0292058065533638,-0.02903200127184391,-0.3931240439414978,0.9185628294944763,0.0,0.0,0.0,0.0,0.0,0.0
1308,1724812203673177782,-2.0002386569976807,-0.40654611587524414,0.15884405374526978,-0.029494285583496094,-0.02980479598045349,-0.3926909565925598,0.918714165687561,0.0,0.0,0.0,0.0,0.0,0.0
1310,1724812203673446710,-2.0003538131713867,-0.4064284563064575,0.15849296748638153,-0.029792185872793198,-0.030250217765569687,-0.39256587624549866,0.9187433123588562,0.0,0.0,0.0,0.0,0.0,0.0
1312,1724812203682847162,-2.000424861907959,-0.40630802512168884,0.15807728469371796,-0.03018805757164955,-0.03080800361931324,-0.3923553228378296,0.9188019037246704,0.0,0.0,0.0,0.0,0.0,0.0
1314,1724812203693928164,-2.0004656314849854,-0.4061431288719177,0.15769392251968384,-0.030340490862727165,-0.03086545690894127,-0.39237847924232483,0.9187849760055542,0.0,0.0,0.0,0.0,0.0,0.0
1316,1724812203706784141,-2.0005178451538086,-0.40599778294563293,0.1573314666748047,-0.030862119048833847,-0.031170649453997612,-0.39223381876945496,0.9188191294670105,0.0,0.0,0.0,0.0,0.0,0.0
1318,1724812203713707581,-2.0005478858947754,-0.4058539569377899,0.1570296734571457,-0.031110180541872978,-0.03116949461400509,-0.3921979069709778,0.918826162815094,0.0,0.0,0.0,0.0,0.0,0.0
1320,1724812203727442450,-2.000596523284912,-0.4057343602180481,0.15673178434371948,-0.031555887311697006,-0.03149346262216568,-0.39210212230682373,0.918840765953064,0.0,0.0,0.0,0.0,0.0,0.0
1322,1724812203733248687,-2.000669240951538,-0.40558481216430664,0.15653647482395172,-0.032138559967279434,-0.031037328764796257,-0.3920639157295227,0.9188523888587952,0.0,0.0,0.0,0.0,0.0,0.0
1324,1724812203743975303,-2.000789165496826,-0.4054086208343506,0.1564171314239502,-0.032638296484947205,-0.030719511210918427,-0.3922409117221832,0.918769896030426,0.0,0.0,0.0,0.0,0.0,0.0
1326,1724812203753675611,-2.0008704662323,-0.40528377890586853,0.1562734842300415,-0.03319592401385307,-0.03002718649804592,-0.3924914300441742,0.9186658263206482,0.0,0.0,0.0,0.0,0.0,0.0
1328,1724812203763003891,-2.0009214878082275,-0.4051966071128845,0.15600423514842987,-0.033571936190128326,-0.030341897159814835,-0.3923422694206238,0.9187055230140686,0.0,0.0,0.0,0.0,0.0,0.0
1330,1724812203773587156,-2.000994920730591,-0.4051375091075897,0.15573731064796448,-0.03407896310091019,-0.03043416514992714,-0.39232176542282104,0.9186925888061523,0.0,0.0,0.0,0.0,0.0,0.0
1332,1724812203785448829,-2.0010604858398438,-0.40507403016090393,0.15541505813598633,-0.03404415398836136,-0.030822698026895523,-0.3920711278915405,0.9187878966331482,0.0,0.0,0.0,0.0,0.0,0.0
1334,1724812203794352338,-2.0010933876037598,-0.4049959182739258,0.15512417256832123,-0.03457345813512802,-0.031112687662243843,-0.3918725848197937,0.9188430309295654,0.0,0.0,0.0,0.0,0.0,0.0
1336,1724812203805571205,-2.001131534576416,-0.40488630533218384,0.1548810750246048,-0.03453955799341202,-0.03135295584797859,-0.39185723662376404,0.9188426733016968,0.0,0.0,0.0,0.0,0.0,0.0
1338,1724812203813109599,-2.001133441925049,-0.4047248661518097,0.15461616218090057,-0.03416971489787102,-0.03130311891436577,-0.3918769657611847,0.9188498258590698,0.0,0.0,0.0,0.0,0.0,0.0
1340,1724812203825493084,-2.0011675357818604,-0.4046022891998291,0.15433666110038757,-0.03483717143535614,-0.03145553171634674,-0.3918828070163727,0.9188171029090881,0.0,0.0,0.0,0.0,0.0,0.0
1342,1724812203833554250,-2.001278877258301,-0.4044518768787384,0.1540903002023697,-0.03560084477066994,-0.03131582587957382,-0.3924235701560974,0.9185617566108704,0.0,0.0,0.0,0.0,0.0,0.0
1344,1724812203842706287,-2.001251697540283,-0.4042486250400543,0.15375658869743347,-0.03574717044830322,-0.03145264461636543,-0.39198148250579834,0.9187400937080383,0.0,0.0,0.0,0.0,0.0,0.0
1346,1724812203853461835,-2.0013086795806885,-0.4040645956993103,0.1535130739212036,-0.036650579422712326,-0.03113197349011898,-0.3921861946582794,0.9186280369758606,0.0,0.0,0.0,0.0,0.0,0.0
1348,1724812203960156079,-2.001378059387207,-0.4038647413253784,0.15342697501182556,-0.03701413795351982,-0.029749982059001923,-0.3926069438457489,0.9184796214103699,0.0,0.0,0.0,0.0,0.0,0.0
1350,1724812203960546280,-2.0014960765838623,-0.40362468361854553,0.15343132615089417,-0.03782252222299576,-0.028388360515236855,-0.3935774564743042,0.9180742502212524,0.0,0.0,0.0,0.0,0.0,0.0
1352,1724812203960940894,-2.001565933227539,-0.403455525636673,0.1533164083957672,-0.03808991238474846,-0.027641916647553444,-0.39377403259277344,0.9180017113685608,0.0,0.0,0.0,0.0,0.0,0.0
1354,1724812203961191191,-2.001622438430786,-0.40325555205345154,0.15337587893009186,-0.039060335606336594,-0.026440368965268135,-0.39454060792922974,0.9176670908927917,0.0,0.0,0.0,0.0,0.0,0.0
1356,1724812203961423799,-2.0016655921936035,-0.4031575918197632,0.1532721370458603,-0.03980914503335953,-0.026160093024373055,-0.3948397934436798,0.9175142645835876,0.0,0.0,0.0,0.0,0.0,0.0
1358,1724812203961659322,-2.00169038772583,-0.40308287739753723,0.15327146649360657,-0.03989241272211075,-0.02554594911634922,-0.3954397439956665,0.9172696471214294,0.0,0.0,0.0,0.0,0.0,0.0
1360,1724812203961903320,-2.001702070236206,-0.40296700596809387,0.15332545340061188,-0.03977321833372116,-0.024892976507544518,-0.39617106318473816,0.916977047920227,0.0,0.0,0.0,0.0,0.0,0.0
1362,1724812203962192513,-2.001538038253784,-0.4035184681415558,0.15220488607883453,-0.03690555319190025,-0.030724290758371353,-0.3924686312675476,0.9185110330581665,0.0,0.0,0.0,0.0,0.0,0.0
1364,1724812203962475900,-2.001575231552124,-0.40351274609565735,0.15193544328212738,-0.038492802530527115,-0.031068814918398857,-0.39229318499565125,0.9185092449188232,0.0,0.0,0.0,0.0,0.0,0.0
1366,1724812203963552794,-2.001619338989258,-0.4033927619457245,0.15181246399879456,-0.03893929719924927,-0.030851250514388084,-0.3925064206123352,0.9184066653251648,0.0,0.0,0.0,0.0,0.0,0.0
1368,1724812203964208901,-2.0017101764678955,-0.402975469827652,0.15213081240653992,-0.04023317992687225,-0.028410539031028748,-0.39453595876693726,0.9175595045089722,0.0,0.0,0.0,0.0,0.0,0.0
1370,1724812203975250394,-2.0017290115356445,-0.40256357192993164,0.152356818318367,-0.04026821628212929,-0.02598734013736248,-0.39613077044487,0.9169424772262573,0.0,0.0,0.0,0.0,0.0,0.0
1372,1724812203983447608,-2.0017905235290527,-0.40217360854148865,0.15275660157203674,-0.0391736663877964,-0.021657608449459076,-0.3987852931022644,0.9159513115882874,0.0,0.0,0.0,0.0,0.0,0.0
1374,1724812203993440688,-2.00174880027771,-0.402398943901062,0.1519513726234436,-0.04020855575799942,-0.026620585471391678,-0.3960982859134674,0.9169409871101379,0.0,0.0,0.0,0.0,0.0,0.0
1376,1724812204002958938,-2.001634120941162,-0.4029090702533722,0.15081556141376495,-0.03839805722236633,-0.032300177961587906,-0.39237239956855774,0.9184369444847107,0.0,0.0,0.0,0.0,0.0,0.0
1378,1724812204013198431,-2.001654863357544,-0.4028399586677551,0.15051104128360748,-0.03871982544660568,-0.03299444168806076,-0.3922802805900574,0.9184379577636719,0.0,0.0,0.0,0.0,0.0,0.0
1380,1724812204024251600,-2.0017576217651367,-0.40258151292800903,0.15051956474781036,-0.04021633788943291,-0.03152436763048172,-0.3932999074459076,0.9179890751838684,0.0,0.0,0.0,0.0,0.0,0.0
1382,1724812204033518215,-2.0017659664154053,-0.4025321900844574,0.15011528134346008,-0.04041050001978874,-0.03259935975074768,-0.3929907977581024,0.9180755019187927,0.0,0.0,0.0,0.0,0.0,0.0
1384,1724812204045374516,-2.001707077026367,-0.4024747312068939,0.1496952474117279,-0.04040442407131195,-0.03283115103840828,-0.3930416405200958,0.9180457592010498,0.0,0.0,0.0,0.0,0.0,0.0
1386,1724812204054249222,-2.0017096996307373,-0.40231767296791077,0.14930829405784607,-0.04084328934550285,-0.03325580060482025,-0.39310285449028015,0.9179847240447998,0.0,0.0,0.0,0.0,0.0,0.0
1388,1724812204062738184,-2.0016236305236816,-0.4021936058998108,0.14883647859096527,-0.040391869843006134,-0.03333432972431183,-0.3930516541004181,0.9180238246917725,0.0,0.0,0.0,0.0,0.0,0.0
1390,1724812204076318699,-2.001519203186035,-0.40207788348197937,0.14840686321258545,-0.03909426927566528,-0.03415200114250183,-0.3933561146259308,0.9179195761680603,0.0,0.0,0.0,0.0,0.0,0.0
1392,1724812204084116565,-2.001444101333618,-0.4019624888896942,0.147936150431633,-0.03972722217440605,-0.034673430025577545,-0.3932936191558838,0.9178995490074158,0.0,0.0,0.0,0.0,0.0,0.0
1394,1724812204092875529,-2.001223087310791,-0.4018491804599762,0.14742548763751984,-0.03946496173739433,-0.03556051477789879,-0.39257046580314636,0.9181864857673645,0.0,0.0,0.0,0.0,0.0,0.0
1396,1724812204104008687,-2.001127243041992,-0.4017769992351532,0.14691461622714996,-0.039813004434108734,-0.03642905130982399,-0.3925257921218872,0.9181564450263977,0.0,0.0,0.0,0.0,0.0,0.0
1398,1724812204117099648,-2.001020669937134,-0.4016883671283722,0.1464879959821701,-0.04009251669049263,-0.03700657933950424,-0.392533540725708,0.9181180000305176,0.0,0.0,0.0,0.0,0.0,0.0
1400,1724812204126488915,-2.0009188652038574,-0.4015887975692749,0.14619483053684235,-0.03999850153923035,-0.037282731384038925,-0.392679363489151,0.9180485606193542,0.0,0.0,0.0,0.0,0.0,0.0
1402,1724812204133872175,-2.000823497772217,-0.40151652693748474,0.14590638875961304,-0.04027116298675537,-0.03733116015791893,-0.3929009735584259,0.9179397225379944,0.0,0.0,0.0,0.0,0.0,0.0
1404,1724812204142899176,-2.0007224082946777,-0.40144938230514526,0.14561843872070312,-0.0402480885386467,-0.03722640872001648,-0.3929479420185089,0.9179250001907349,0.0,0.0,0.0,0.0,0.0,0.0
1406,1724812204153451046,-2.0006487369537354,-0.40142661333084106,0.14518481492996216,-0.04022325202822685,-0.03827837109565735,-0.3927405774593353,0.9179714918136597,0.0,0.0,0.0,0.0,0.0,0.0
1408,1724812204179071476,-2.000613212585449,-0.40133535861968994,0.14493443071842194,-0.040636952966451645,-0.038400594145059586,-0.39288103580474854,0.9178881049156189,0.0,0.0,0.0,0.0,0.0,0.0
1410,1724812204179620408,-2.0005643367767334,-0.40125980973243713,0.14469608664512634,-0.0405796617269516,-0.03861159831285477,-0.39287295937538147,0.9178851842880249,0.0,0.0,0.0,0.0,0.0,0.0
1412,1724812204183677074,-2.0005223751068115,-0.4011954665184021,0.1444738209247589,-0.04070420563220978,-0.03890299052000046,-0.39296701550483704,0.9178271889686584,0.0,0.0,0.0,0.0,0.0,0.0
1414,1724812204207345500,-2.000504493713379,-0.40111687779426575,0.14434035122394562,-0.040505994111299515,-0.038870953023433685,-0.3930722177028656,0.9177922010421753,0.0,0.0,0.0,0.0,0.0,0.0
1416,1724812204207614763,-2.0005075931549072,-0.40108105540275574,0.14422444999217987,-0.04078030586242676,-0.039109811186790466,-0.3930341899394989,0.917786180973053,0.0,0.0,0.0,0.0,0.0,0.0
1418,1724812204214595539,-2.0004794597625732,-0.4010469317436218,0.14407798647880554,-0.04082980379462242,-0.03931358829140663,-0.3930031657218933,0.9177886247634888,0.0,0.0,0.0,0.0,0.0,0.0
1420,1724812204223266673,-2.000502586364746,-0.4010138511657715,0.14401882886886597,-0.04114878177642822,-0.03936867415904999,-0.3930506110191345,0.917751669883728,0.0,0.0,0.0,0.0,0.0,0.0
1422,1724812204233248071,-2.000511884689331,-0.4009837508201599,0.14392173290252686,-0.041109081357717514,-0.0393238365650177,-0.39302414655685425,0.9177666902542114,0.0,0.0,0.0,0.0,0.0,0.0
1424,1724812204243336124,-2.0005128383636475,-0.40094223618507385,0.14386585354804993,-0.04124581813812256,-0.03915610536932945,-0.39319106936454773,0.9176962375640869,0.0,0.0,0.0,0.0,0.0,0.0
1426,1724812204253608329,-2.00056791305542,-0.40098336338996887,0.1436159908771515,-0.042707379907369614,-0.039780497550964355,-0.39247751235961914,0.9179080128669739,0.0,0.0,0.0,0.0,0.0,0.0
1428,1724812204262971053,-2.0005853176116943,-0.4009290337562561,0.14363311231136322,-0.043040111660957336,-0.03929802030324936,-0.3926531672477722,0.9178380966186523,0.0,0.0,0.0,0.0,0.0,0.0
1430,1724812204275656336,-2.0006582736968994,-0.40091636776924133,0.14361225068569183,-0.04302548989653587,-0.039345137774944305,-0.39309725165367126,0.9176466464996338,0.0,0.0,0.0,0.0,0.0,0.0
1432,1724812204283740172,-2.000688314437866,-0.4009215533733368,0.14358913898468018,-0.04292696341872215,-0.03921045362949371,-0.39315730333328247,0.9176312685012817,0.0,0.0,0.0,0.0,0.0,0.0
1434,1724812204305285510,-2.000730276107788,-0.4009247124195099,0.14355291426181793,-0.043245188891887665,-0.03933745250105858,-0.3931361734867096,0.9176199436187744,0.0,0.0,0.0,0.0,0.0,0.0
1436,1724812204305588102,-2.0007340908050537,-0.40090879797935486,0.14354091882705688,-0.04304296895861626,-0.0392678864300251,-0.39316049218177795,0.9176220297813416,0.0,0.0,0.0,0.0,0.0,0.0
1438,1724812204312944043,-2.0007553100585938,-0.40095287561416626,0.14352241158485413,-0.0430140420794487,-0.03943546861410141,-0.3930650055408478,0.9176570773124695,0.0,0.0,0.0,0.0,0.0,0.0
1440,1724812204323758285,-2.0007710456848145,-0.4009265899658203,0.1435103863477707,-0.04340161383152008,-0.03948817774653435,-0.39314186573028564,0.9176036715507507,0.0,0.0,0.0,0.0,0.0,0.0
1442,1724812204334927510,-2.00077486038208,-0.4009319543838501,0.14348077774047852,-0.04313499853014946,-0.039423998445272446,-0.3930653929710388,0.9176517724990845,0.0,0.0,0.0,0.0,0.0,0.0
1444,1724812204342985043,-2.0007846355438232,-0.4009309709072113,0.14344097673892975,-0.042995963245630264,-0.03942544758319855,-0.3930366039276123,0.9176705479621887,0.0,0.0,0.0,0.0,0.0,0.0
1446,1724812204353256619,-2.000774383544922,-0.4009113609790802,0.1434507668018341,-0.04303239658474922,-0.0393533892929554,-0.3930843472480774,0.9176514744758606,0.0,0.0,0.0,0.0,0.0,0.0
1448,1724812204363682219,-2.00079083442688,-0.40087002515792847,0.14358066022396088,-0.042242273688316345,-0.03918023779988289,-0.3935462236404419,0.9174976944923401,0.0,0.0,0.0,0.0,0.0,0.0
1450,1724812204373814050,-2.000746965408325,-0.4008653461933136,0.1436031013727188,-0.041734594851732254,-0.03910495340824127,-0.39373522996902466,0.9174429774284363,0.0,0.0,0.0,0.0,0.0,0.0
1452,1724812204383560736,-2.000765562057495,-0.40089935064315796,0.14347334206104279,-0.042946379631757736,-0.03911339491605759,-0.39321374893188477,0.9176104068756104,0.0,0.0,0.0,0.0,0.0,0.0
1454,1724812204393317364,-2.000779390335083,-0.4009365141391754,0.14341239631175995,-0.042943090200424194,-0.03944213315844536,-0.39299970865249634,0.9176880717277527,0.0,0.0,0.0,0.0,0.0,0.0
1456,1724812204403698469,-2.000750780105591,-0.40097948908805847,0.14339081943035126,-0.042949847877025604,-0.03937942162156105,-0.39309850335121155,0.9176481366157532,0.0,0.0,0.0,0.0,0.0,0.0
1458,1724812204413148475,-2.0007612705230713,-0.4010164737701416,0.14336548745632172,-0.042890988290309906,-0.0393969900906086,-0.39299362897872925,0.9176951050758362,0.0,0.0,0.0,0.0,0.0,0.0
1460,1724812204423141920,-2.0007636547088623,-0.4010966718196869,0.14335079491138458,-0.04317973554134369,-0.03954575955867767,-0.39296719431877136,0.9176864624023438,0.0,0.0,0.0,0.0,0.0,0.0
1462,1724812204433408191,-2.000739812850952,-0.4011440575122833,0.14333102107048035,-0.042912375181913376,-0.03919922560453415,-0.3931182026863098,0.9176491498947144,0.0,0.0,0.0,0.0,0.0,0.0
1464,1724812204444004928,-2.000762462615967,-0.4011160135269165,0.14356952905654907,-0.041893038898706436,-0.03903097286820412,-0.39364302158355713,0.9174784421920776,0.0,0.0,0.0,0.0,0.0,0.0
1466,1724812204453738622,-2.0007052421569824,-0.4012267589569092,0.14350295066833496,-0.04112018644809723,-0.03940032795071602,-0.39344149827957153,0.9175841212272644,0.0,0.0,0.0,0.0,0.0,0.0
1468,1724812204463011947,-2.0006258487701416,-0.40131738781929016,0.1434876173734665,-0.04111286625266075,-0.03921178728342056,-0.3936957120895386,0.9174834489822388,0.0,0.0,0.0,0.0,0.0,0.0
1470,1724812204476853083,-2.0005931854248047,-0.40142279863357544,0.14348019659519196,-0.041056565940380096,-0.03887007385492325,-0.3937417268753052,0.9174808263778687,0.0,0.0,0.0,0.0,0.0,0.0
1472,1724812204483144178,-2.000542163848877,-0.40168705582618713,0.14295408129692078,-0.04149489849805832,-0.04079392924904823,-0.39252224564552307,0.917900025844574,0.0,0.0,0.0,0.0,0.0,0.0
1474,1724812204493569582,-2.0004653930664062,-0.40189406275749207,0.14270280301570892,-0.04150273650884628,-0.04183454066514969,-0.3917669653892517,0.918175458908081,0.0,0.0,0.0,0.0,0.0,0.0
1476,1724812204505250211,-2.0004684925079346,-0.4020262658596039,0.1425340622663498,-0.04202629625797272,-0.04267798736691475,-0.3911689817905426,0.9183677434921265,0.0,0.0,0.0,0.0,0.0,0.0
1478,1724812204512938902,-2.0004806518554688,-0.4022936522960663,0.14219288527965546,-0.04474542289972305,-0.0432899072766304,-0.3900548219680786,0.9186844825744629,0.0,0.0,0.0,0.0,0.0,0.0
1480,1724812204524428689,-2.0004611015319824,-0.4026331901550293,0.14207080006599426,-0.045747771859169006,-0.04357076808810234,-0.3895137906074524,0.9188513159751892,0.0,0.0,0.0,0.0,0.0,0.0
1482,1724812204533658229,-2.0003809928894043,-0.4030086100101471,0.14196628332138062,-0.046189967542886734,-0.04398319497704506,-0.38907015323638916,0.9189974665641785,0.0,0.0,0.0,0.0,0.0,0.0
1484,1724812204544684561,-2.000335931777954,-0.4034304618835449,0.14187847077846527,-0.0470869205892086,-0.0441686175763607,-0.3885507881641388,0.9191628098487854,0.0,0.0,0.0,0.0,0.0,0.0
1486,1724812204554001289,-2.000256061553955,-0.403809517621994,0.14192211627960205,-0.04699844866991043,-0.0435350239276886,-0.3885481357574463,0.9191986918449402,0.0,0.0,0.0,0.0,0.0,0.0
1488,1724812204563099922,-2.0000689029693604,-0.4042823016643524,0.14199280738830566,-0.045318834483623505,-0.043323323130607605,-0.3887210488319397,0.9192199110984802,0.0,0.0,0.0,0.0,0.0,0.0
1490,1724812204573180739,-1.999826431274414,-0.4047750234603882,0.14205101132392883,-0.044949498027563095,-0.042661573737859726,-0.38869696855545044,0.919279158115387,0.0,0.0,0.0,0.0,0.0,0.0
1492,1724812204583646340,-1.9995983839035034,-0.40495842695236206,0.14246048033237457,-0.043555982410907745,-0.04100821912288666,-0.3893672227859497,0.9191378355026245,0.0,0.0,0.0,0.0,0.0,0.0
1494,1724812204592909074,-1.999435544013977,-0.4053199589252472,0.1425798088312149,-0.042880721390247345,-0.04060392454266548,-0.38917991518974304,0.9192668795585632,0.0,0.0,0.0,0.0,0.0,0.0
1496,1724812204603335527,-1.9992332458496094,-0.40565580129623413,0.14256583154201508,-0.042825859040021896,-0.04077919200062752,-0.38866594433784485,0.9194790720939636,0.0,0.0,0.0,0.0,0.0,0.0
1498,1724812204613626697,-1.9990633726119995,-0.4058264493942261,0.14275027811527252,-0.042054202407598495,-0.04054820165038109,-0.3884449005126953,0.9196183681488037,0.0,0.0,0.0,0.0,0.0,0.0
1500,1724812204625483698,-1.9988549947738647,-0.4060841202735901,0.14273974299430847,-0.04172905907034874,-0.04083032160997391,-0.38799193501472473,0.9198119044303894,0.0,0.0,0.0,0.0,0.0,0.0
1502,1724812204633230126,-1.998576283454895,-0.4062816798686981,0.14279617369174957,-0.04105522483587265,-0.04054572805762291,-0.38785520195961,0.9199124574661255,0.0,0.0,0.0,0.0,0.0,0.0
1504,1724812204642985798,-1.998351812362671,-0.40663328766822815,0.14269278943538666,-0.041375719010829926,-0.04127499833703041,-0.38689807057380676,0.9202685952186584,0.0,0.0,0.0,0.0,0.0,0.0
1506,1724812204653370696,-1.9979586601257324,-0.40690258145332336,0.14284251630306244,-0.04009215533733368,-0.04133430868387222,-0.3865041434764862,0.9204882383346558,0.0,0.0,0.0,0.0,0.0,0.0
1508,1724812204664188812,-1.9975446462631226,-0.40722188353538513,0.14295519888401031,-0.040038492530584335,-0.041373856365680695,-0.3858594596385956,0.9207593202590942,0.0,0.0,0.0,0.0,0.0,0.0
1510,1724812204673002356,-1.997070550918579,-0.40776655077934265,0.14270858466625214,-0.03873274475336075,-0.04321076720952988,-0.3849988579750061,0.9210910201072693,0.0,0.0,0.0,0.0,0.0,0.0
1512,1724812204683905736,-1.9966161251068115,-0.40799418091773987,0.14280036091804504,-0.041040174663066864,-0.04330182075500488,-0.38313955068588257,0.9217618107795715,0.0,0.0,0.0,0.0,0.0,0.0
1514,1724812204693028951,-1.9958674907684326,-0.4082100987434387,0.14301304519176483,-0.03811301290988922,-0.04368660971522331,-0.3834701180458069,0.9217318892478943,0.0,0.0,0.0,0.0,0.0,0.0
1516,1724812204712580961,-1.9953254461288452,-0.4083685278892517,0.14326198399066925,-0.040199022740125656,-0.04202792048454285,-0.3830677270889282,0.9218877553939819,0.0,0.0,0.0,0.0,0.0,0.0
1518,1724812204712858298,-1.9947173595428467,-0.40878692269325256,0.14319460093975067,-0.038689687848091125,-0.043431978672742844,-0.38308143615722656,0.9218814969062805,0.0,0.0,0.0,0.0,0.0,0.0
1520,1724812204734829777,-1.9941142797470093,-0.4090736508369446,0.14335806667804718,-0.04049817472696304,-0.04269900172948837,-0.3818148672580719,0.9223633408546448,0.0,0.0,0.0,0.0,0.0,0.0
1522,1724812204735706046,-1.9936236143112183,-0.409363329410553,0.14359942078590393,-0.04006247967481613,-0.04270368814468384,-0.3819299340248108,0.9223344922065735,0.0,0.0,0.0,0.0,0.0,0.0
1524,1724812204743861738,-1.9930152893066406,-0.40973353385925293,0.14359626173973083,-0.04031572490930557,-0.04329775273799896,-0.3811414837837219,0.9226219654083252,0.0,0.0,0.0,0.0,0.0,0.0
1526,1724812204753109403,-1.9925694465637207,-0.41028913855552673,0.14343293011188507,-0.040993351489305496,-0.04520540311932564,-0.37923628091812134,0.9232853651046753,0.0,0.0,0.0,0.0,0.0,0.0
1528,1724812204764182893,-1.991992712020874,-0.4106678068637848,0.1435309648513794,-0.04185888171195984,-0.04517056792974472,-0.37896019220352173,0.923361599445343,0.0,0.0,0.0,0.0,0.0,0.0
1530,1724812204776895042,-1.99143648147583,-0.4110826551914215,0.1434638351202011,-0.041778381913900375,-0.046235162764787674,-0.37851542234420776,0.9234949350357056,0.0,0.0,0.0,0.0,0.0,0.0
1532,1724812204783979368,-1.990836501121521,-0.4113350510597229,0.1436052918434143,-0.04057496786117554,-0.046156879514455795,-0.3790195882320404,0.9233457446098328,0.0,0.0,0.0,0.0,0.0,0.0
1534,1724812204794742598,-1.9901901483535767,-0.4117763936519623,0.1434990018606186,-0.039464134722948074,-0.04682929441332817,-0.37924399971961975,0.9232679009437561,0.0,0.0,0.0,0.0,0.0,0.0
1536,1724812204836736861,-1.9896479845046997,-0.4122426211833954,0.14359235763549805,-0.03929523751139641,-0.047540102154016495,-0.3791814148426056,0.9232644438743591,0.0,0.0,0.0,0.0,0.0,0.0
1538,1724812204837011689,-1.989221215248108,-0.4126453995704651,0.14356742799282074,-0.039535149931907654,-0.0481954924762249,-0.37905317544937134,0.923272967338562,0.0,0.0,0.0,0.0,0.0,0.0
1540,1724812204837382526,-1.98882257938385,-0.4128963053226471,0.1438080072402954,-0.042371999472379684,-0.04636538028717041,-0.37929436564445496,0.9231417775154114,0.0,0.0,0.0,0.0,0.0,0.0
1542,1724812204837677016,-1.9883534908294678,-0.413246750831604,0.14395175874233246,-0.042169053107500076,-0.046611592173576355,-0.37880587577819824,0.9233392477035522,0.0,0.0,0.0,0.0,0.0,0.0
1544,1724812204842798579,-1.9879480600357056,-0.41364166140556335,0.1439182311296463,-0.042529597878456116,-0.04733007773756981,-0.37864959239959717,0.9233502149581909,0.0,0.0,0.0,0.0,0.0,0.0
1546,1724812204853576713,-1.987578272819519,-0.41424182057380676,0.1436765193939209,-0.04231803119182587,-0.04907698184251785,-0.37781253457069397,0.9236116409301758,0.0,0.0,0.0,0.0,0.0,0.0
1548,1724812204863708862,-1.9871200323104858,-0.41469064354896545,0.14366525411605835,-0.041374266147613525,-0.049936071038246155,-0.3784039318561554,0.9233661890029907,0.0,0.0,0.0,0.0,0.0,0.0
1550,1724812204876108278,-1.9865022897720337,-0.41495439410209656,0.14383083581924438,-0.040840186178684235,-0.04927873611450195,-0.37938591837882996,0.9230222702026367,0.0,0.0,0.0,0.0,0.0,0.0
1552,1724812204883997178,-1.9859384298324585,-0.4153290092945099,0.1439332813024521,-0.039242055267095566,-0.05015605315566063,-0.3795497715473175,0.9229770302772522,0.0,0.0,0.0,0.0,0.0,0.0
1554,1724812204892980442,-1.9854230880737305,-0.4156824052333832,0.14408333599567413,-0.03909159079194069,-0.050137512385845184,-0.379506379365921,0.9230022430419922,0.0,0.0,0.0,0.0,0.0,0.0
1556,1724812204903302032,-1.9848871231079102,-0.4161202311515808,0.14422421157360077,-0.0384664312005043,-0.05064250901341438,-0.37958499789237976,0.9229685068130493,0.0,0.0,0.0,0.0,0.0,0.0
1558,1724812204914539879,-1.9843683242797852,-0.4164831042289734,0.14441241323947906,-0.03851031884551048,-0.05078858882188797,-0.379555344581604,0.9229708313941956,0.0,0.0,0.0,0.0,0.0,0.0
1560,1724812204925841973,-1.9838581085205078,-0.41684144735336304,0.14461588859558105,-0.03838888928294182,-0.05086395516991615,-0.37970468401908875,0.9229104518890381,0.0,0.0,0.0,0.0,0.0,0.0
1562,1724812204933919650,-1.9832820892333984,-0.4171257019042969,0.1449335366487503,-0.038327038288116455,-0.050165656954050064,-0.37976139783859253,0.9229277968406677,0.0,0.0,0.0,0.0,0.0,0.0
1564,1724812204944168062,-1.9827473163604736,-0.41752901673316956,0.14504553377628326,-0.03808053210377693,-0.050689175724983215,-0.37973272800445557,0.9229211807250977,0.0,0.0,0.0,0.0,0.0,0.0
1566,1724812204953692213,-1.982366681098938,-0.4178342819213867,0.14531542360782623,-0.03987560421228409,-0.0497124083340168,-0.3796445429325104,0.9229348301887512,0.0,0.0,0.0,0.0,0.0,0.0
1568,1724812204963466276,-1.9817731380462646,-0.4181864857673645,0.1454952359199524,-0.0400828942656517,-0.049829255789518356,-0.3798608183860779,0.9228305220603943,0.0,0.0,0.0,0.0,0.0,0.0
1570,1724812204975222039,-1.9814682006835938,-0.41851651668548584,0.14582671225070953,-0.040946926921606064,-0.04893447458744049,-0.38053059577941895,0.9225645661354065,0.0,0.0,0.0,0.0,0.0,0.0
1572,1724812204983423928,-1.9809787273406982,-0.4189809560775757,0.14583411812782288,-0.04044530540704727,-0.049707185477018356,-0.3792242109775543,0.9230830669403076,0.0,0.0,0.0,0.0,0.0,0.0
1574,1724812204993917300,-1.9805755615234375,-0.4195147752761841,0.1458827704191208,-0.04091072082519531,-0.05014261230826378,-0.3784431219100952,0.9233595728874207,0.0,0.0,0.0,0.0,0.0,0.0
1576,1724812205003137365,-1.9801346063613892,-0.4199003577232361,0.14611618220806122,-0.04132356122136116,-0.05003806948661804,-0.37827906012535095,0.9234140515327454,0.0,0.0,0.0,0.0,0.0,0.0
1578,1724812205013361170,-1.979630947113037,-0.42016294598579407,0.14652477204799652,-0.040934786200523376,-0.048773109912872314,-0.3788541257381439,0.9232632517814636,0.0,0.0,0.0,0.0,0.0,0.0
1580,1724812205023998995,-1.979238510131836,-0.4206267297267914,0.14667080342769623,-0.040667980909347534,-0.04874664545059204,-0.3793724477291107,0.9230636954307556,0.0,0.0,0.0,0.0,0.0,0.0
1582,1724812205033943763,-1.9788378477096558,-0.4211612343788147,0.1466892659664154,-0.04099116101861,-0.049558110535144806,-0.3785616457462311,0.9233389496803284,0.0,0.0,0.0,0.0,0.0,0.0
1584,1724812205042851879,-1.978379487991333,-0.4214850664138794,0.14706428349018097,-0.040251366794109344,-0.04931558668613434,-0.37872081995010376,0.9233192205429077,0.0,0.0,0.0,0.0,0.0,0.0
1586,1724812205055248219,-1.9778820276260376,-0.4218040704727173,0.14740265905857086,-0.040265101939439774,-0.04859934002161026,-0.37906503677368164,0.9232153296470642,0.0,0.0,0.0,0.0,0.0,0.0
1588,1724812205063959761,-1.9774425029754639,-0.42219269275665283,0.14759601652622223,-0.04131470248103142,-0.048077937215566635,-0.37895387411117554,0.9232418537139893,0.0,0.0,0.0,0.0,0.0,0.0
1590,1724812205073217420,-1.9769673347473145,-0.42266514897346497,0.1476762294769287,-0.04082504287362099,-0.048422906547784805,-0.378596693277359,0.9233921766281128,0.0,0.0,0.0,0.0,0.0,0.0
1592,1724812205083517994,-1.9763998985290527,-0.4230974316596985,0.14766168594360352,-0.04084940254688263,-0.0487564317882061,-0.37766245007514954,0.9237560033798218,0.0,0.0,0.0,0.0,0.0,0.0
1594,1724812205092935262,-1.9759386777877808,-0.42363378405570984,0.1475517749786377,-0.04105888307094574,-0.049985650926828384,-0.3769013583660126,0.923991858959198,0.0,0.0,0.0,0.0,0.0,0.0
1596,1724812205103521835,-1.9753484725952148,-0.42417147755622864,0.14751222729682922,-0.03846921771764755,-0.05135013535618782,-0.377416729927063,0.9238181710243225,0.0,0.0,0.0,0.0,0.0,0.0
1598,1724812205112739970,-1.9749010801315308,-0.42468100786209106,0.14738592505455017,-0.0384347103536129,-0.05257358402013779,-0.37698960304260254,0.9239251017570496,0.0,0.0,0.0,0.0,0.0,0.0
1600,1724812205123717825,-1.9744423627853394,-0.4251600503921509,0.1473395973443985,-0.03793920576572418,-0.05326854810118675,-0.37761491537094116,0.9236504435539246,0.0,0.0,0.0,0.0,0.0,0.0
1602,1724812205134223416,-1.9739059209823608,-0.4255358576774597,0.1473926603794098,-0.0382319800555706,-0.0533849261701107,-0.3780268728733063,0.9234630465507507,0.0,0.0,0.0,0.0,0.0,0.0
1604,1724812205143393745,-1.9733977317810059,-0.42590659856796265,0.1475488692522049,-0.038773518055677414,-0.05314531922340393,-0.3780862092971802,0.9234300255775452,0.0,0.0,0.0,0.0,0.0,0.0
1606,1724812205153741787,-1.9728469848632812,-0.4264145493507385,0.1474851816892624,-0.039349984377622604,-0.0539717935025692,-0.3778775632381439,0.9234431385993958,0.0,0.0,0.0,0.0,0.0,0.0
1608,1724812205163477955,-1.9721935987472534,-0.4269331097602844,0.147444486618042,-0.04000207409262657,-0.054823193699121475,-0.3772003650665283,0.9236418008804321,0.0,0.0,0.0,0.0,0.0,0.0
1610,1724812205173955245,-1.9716858863830566,-0.4274578392505646,0.14739595353603363,-0.0411929190158844,-0.05526614189147949,-0.37677454948425293,0.9237368106842041,0.0,0.0,0.0,0.0,0.0,0.0
1612,1724812205184412126,-1.971106767654419,-0.42810532450675964,0.14733004570007324,-0.040253400802612305,-0.056364841759204865,-0.3768480718135834,0.923681914806366,0.0,0.0,0.0,0.0,0.0,0.0
1614,1724812205194713894,-1.9705599546432495,-0.4285704493522644,0.14746494591236115,-0.04032302275300026,-0.05625960975885391,-0.37731611728668213,0.9234941601753235,0.0,0.0,0.0,0.0,0.0,0.0
1616,1724812205210011871,-1.96992826461792,-0.42894771695137024,0.1477319300174713,-0.0402032844722271,-0.055452682077884674,-0.37833932042121887,0.9231294989585876,0.0,0.0,0.0,0.0,0.0,0.0
1618,1724812205213084979,-1.969528079032898,-0.42959171533584595,0.14758126437664032,-0.040595296770334244,-0.05612386018037796,-0.37869682908058167,0.9229251742362976,0.0,0.0,0.0,0.0,0.0,0.0
1620,1724812205226231546,-1.969076156616211,-0.4300815165042877,0.14772287011146545,-0.04107724502682686,-0.05560597777366638,-0.3790237009525299,0.9228010177612305,0.0,0.0,0.0,0.0,0.0,0.0
1622,1724812205233242839,-1.9685600996017456,-0.4306128919124603,0.1477513611316681,-0.04079119861125946,-0.05624467134475708,-0.3780044615268707,0.9231929779052734,0.0,0.0,0.0,0.0,0.0,0.0
1624,1724812205244916223,-1.9681401252746582,-0.4312962293624878,0.14756299555301666,-0.041494324803352356,-0.057742536067962646,-0.3771574795246124,0.9234156012535095,0.0,0.0,0.0,0.0,0.0,0.0
1626,1724812205255290034,-1.9677376747131348,-0.43189162015914917,0.14753234386444092,-0.04120258986949921,-0.05828049033880234,-0.3777869641780853,0.9231374263763428,0.0,0.0,0.0,0.0,0.0,0.0
1628,1724812205263331704,-1.9673147201538086,-0.43255165219306946,0.1474582850933075,-0.041236672550439835,-0.05957898870110512,-0.3778332769870758,0.923034131526947,0.0,0.0,0.0,0.0,0.0,0.0
1630,1724812205277905633,-1.9668208360671997,-0.4330373704433441,0.14752298593521118,-0.04224076867103577,-0.05938353016972542,-0.37780043482780457,0.9230147004127502,0.0,0.0,0.0,0.0,0.0,0.0
1632,1724812205283572438,-1.966313362121582,-0.43362662196159363,0.147616446018219,-0.04181021824479103,-0.059634946286678314,-0.3787510395050049,0.9226284623146057,0.0,0.0,0.0,0.0,0.0,0.0
1634,1724812205293046029,-1.9658046960830688,-0.4343335032463074,0.14752669632434845,-0.04188282787799835,-0.060914862900972366,-0.37848132848739624,0.9226523041725159,0.0,0.0,0.0,0.0,0.0,0.0
1636,1724812205304070794,-1.9652388095855713,-0.4349806606769562,0.1475750207901001,-0.041572924703359604,-0.06141861900687218,-0.37854403257369995,0.9226071238517761,0.0,0.0,0.0,0.0,0.0,0.0
1638,1724812205313277112,-1.9646135568618774,-0.43560296297073364,0.14763735234737396,-0.0408354215323925,-0.0617118701338768,-0.37959253787994385,0.9221895933151245,0.0,0.0,0.0,0.0,0.0,0.0
1640,1724812205324496820,-1.9640300273895264,-0.43630561232566833,0.14751628041267395,-0.041366659104824066,-0.06311525404453278,-0.37905648350715637,0.9222913980484009,0.0,0.0,0.0,0.0,0.0,0.0
1642,1724812205333891587,-1.9634522199630737,-0.43691301345825195,0.14771050214767456,-0.042087577283382416,-0.06283532828092575,-0.3799389898777008,0.9219146966934204,0.0,0.0,0.0,0.0,0.0,0.0
1644,1724812205343164608,-1.9630138874053955,-0.4377235472202301,0.14751851558685303,-0.04233654588460922,-0.06445784866809845,-0.3793524205684662,0.9220328330993652,0.0,0.0,0.0,0.0,0.0,0.0
1646,1724812205353848627,-1.9625579118728638,-0.4385358989238739,0.14748601615428925,-0.042067453265190125,-0.06533808261156082,-0.380093514919281,0.9216778874397278,0.0,0.0,0.0,0.0,0.0,0.0
1648,1724812205363375161,-1.9619488716125488,-0.4392699897289276,0.1473756730556488,-0.04244279861450195,-0.0660664513707161,-0.3792366087436676,0.9219617247581482,0.0,0.0,0.0,0.0,0.0,0.0
1650,1724812205373126053,-1.9611849784851074,-0.4399179518222809,0.14758920669555664,-0.040995627641677856,-0.06619079411029816,-0.38042908906936646,0.9215269684791565,0.0,0.0,0.0,0.0,0.0,0.0
1652,1724812205384195668,-1.9605591297149658,-0.44066932797431946,0.14769147336483002,-0.04096795618534088,-0.06726133823394775,-0.38102129101753235,0.9212059378623962,0.0,0.0,0.0,0.0,0.0,0.0
1654,1724812205392954202,-1.9600619077682495,-0.441421777009964,0.1476314663887024,-0.04109117016196251,-0.06816255301237106,-0.3811478018760681,0.9210818409919739,0.0,0.0,0.0,0.0,0.0,0.0
1656,1724812205403322059,-1.9594192504882812,-0.44217023253440857,0.1477697193622589,-0.04078668728470802,-0.06801420450210571,-0.382564514875412,0.9205189347267151,0.0,0.0,0.0,0.0,0.0,0.0
1658,1724812205413290387,-1.9589366912841797,-0.442912220954895,0.14774616062641144,-0.041931673884391785,-0.0686236098408699,-0.38304874300956726,0.9202207922935486,0.0,0.0,0.0,0.0,0.0,0.0
1660,1724812205423220840,-1.9582501649856567,-0.4436895549297333,0.14761608839035034,-0.041927214711904526,-0.06925515830516815,-0.38348162174224854,0.9199933409690857,0.0,0.0,0.0,0.0,0.0,0.0
1662,1724812205433618048,-1.957535982131958,-0.4443199634552002,0.1478419154882431,-0.04171605035662651,-0.06905071437358856,-0.38456836342811584,0.9195645451545715,0.0,0.0,0.0,0.0,0.0,0.0
1664,1724812205443807959,-1.9569538831710815,-0.4449608623981476,0.14804822206497192,-0.041544172912836075,-0.0689794048666954,-0.38498297333717346,0.9194042086601257,0.0,0.0,0.0,0.0,0.0,0.0
1666,1724812205453478477,-1.956472396850586,-0.44571807980537415,0.14782246947288513,-0.04321497678756714,-0.07038434594869614,-0.384235143661499,0.9195334911346436,0.0,0.0,0.0,0.0,0.0,0.0
1668,1724812205462816233,-1.955920934677124,-0.44644469022750854,0.1477019190788269,-0.04343641549348831,-0.07205067574977875,-0.384004145860672,0.9194905757904053,0.0,0.0,0.0,0.0,0.0,0.0
1670,1724812205477338896,-1.9552236795425415,-0.44711142778396606,0.1477595865726471,-0.04189611226320267,-0.07310078293085098,-0.38479936122894287,0.9191465973854065,0.0,0.0,0.0,0.0,0.0,0.0
1672,1724812205484544644,-1.9545950889587402,-0.44780606031417847,0.1475910097360611,-0.0415949821472168,-0.07411374151706696,-0.3853510916233063,0.9188479781150818,0.0,0.0,0.0,0.0,0.0,0.0
1674,1724812205494810199,-1.9541380405426025,-0.44841501116752625,0.14764009416103363,-0.04113796725869179,-0.07415706664323807,-0.38575080037117004,0.9186973571777344,0.0,0.0,0.0,0.0,0.0,0.0
1676,1724812205502893611,-1.953647494316101,-0.4490964710712433,0.14766660332679749,-0.04179339110851288,-0.07462482154369354,-0.38572293519973755,0.9186415076255798,0.0,0.0,0.0,0.0,0.0,0.0
1678,1724812205513834231,-1.9532281160354614,-0.44973549246788025,0.14768050611019135,-0.042271751910448074,-0.07521810382604599,-0.3857203722000122,0.9185723066329956,0.0,0.0,0.0,0.0,0.0,0.0
1680,1724812205528096924,-1.9527931213378906,-0.45027896761894226,0.14782190322875977,-0.04195117950439453,-0.07547387480735779,-0.38580676913261414,0.918529748916626,0.0,0.0,0.0,0.0,0.0,0.0
1682,1724812205534302156,-1.9524277448654175,-0.4508281350135803,0.14790388941764832,-0.04217184707522392,-0.07578450441360474,-0.38615646958351135,0.9183471202850342,0.0,0.0,0.0,0.0,0.0,0.0
1684,1724812205543298183,-1.9519866704940796,-0.4513835906982422,0.14788609743118286,-0.041971251368522644,-0.07621806859970093,-0.3865429759025574,0.9181578755378723,0.0,0.0,0.0,0.0,0.0,0.0
1686,1724812205554300499,-1.9516743421554565,-0.4519171416759491,0.1480584740638733,-0.04241807758808136,-0.0754772201180458,-0.38719049096107483,0.9179255962371826,0.0,0.0,0.0,0.0,0.0,0.0
1688,1724812205563655028,-1.9514082670211792,-0.452532023191452,0.14797177910804749,-0.04250042513012886,-0.07649163156747818,-0.3865232765674591,0.9181190729141235,0.0,0.0,0.0,0.0,0.0,0.0
1690,1724812205575239347,-1.951186180114746,-0.45308318734169006,0.1478622406721115,-0.04348533973097801,-0.0767936110496521,-0.38580837845802307,0.9183483719825745,0.0,0.0,0.0,0.0,0.0,0.0
1692,1724812205585257805,-1.9508472681045532,-0.4536077678203583,0.14792439341545105,-0.04312193766236305,-0.07675566524267197,-0.3861626982688904,0.918219804763794,0.0,0.0,0.0,0.0,0.0,0.0
1694,1724812205632400621,-1.950512170791626,-0.454194575548172,0.14795449376106262,-0.042876359075307846,-0.07669125497341156,-0.38628703355789185,0.9181842803955078,0.0,0.0,0.0,0.0,0.0,0.0
1696,1724812205632691809,-1.9501689672470093,-0.45472776889801025,0.14817243814468384,-0.04206991568207741,-0.07616867870092392,-0.3875483274459839,0.9177336096763611,0.0,0.0,0.0,0.0,0.0,0.0
1698,1724812205633424202,-1.949864387512207,-0.45542144775390625,0.1480182707309723,-0.04166790097951889,-0.07786352187395096,-0.3871119022369385,0.917793869972229,0.0,0.0,0.0,0.0,0.0,0.0
1700,1724812205633691505,-1.94957435131073,-0.45607203245162964,0.1479896605014801,-0.04133051261305809,-0.07878275215625763,-0.38700637221336365,0.91777503490448,0.0,0.0,0.0,0.0,0.0,0.0
1702,1724812205633969439,-1.949306845664978,-0.45675328373908997,0.14789500832557678,-0.041509054601192474,-0.07987415045499802,-0.38662391901016235,0.9178339838981628,0.0,0.0,0.0,0.0,0.0,0.0
1704,1724812205643415909,-1.9489445686340332,-0.457272469997406,0.148017019033432,-0.04150060564279556,-0.07905283570289612,-0.38750749826431274,0.917532742023468,0.0,0.0,0.0,0.0,0.0,0.0
1706,1724812205653642420,-1.9486428499221802,-0.4579221308231354,0.14800721406936646,-0.04114532098174095,-0.07922018319368362,-0.3875737488269806,0.9175063371658325,0.0,0.0,0.0,0.0,0.0,0.0
1708,1724812205664618225,-1.9484750032424927,-0.4584619998931885,0.14813122153282166,-0.04161805287003517,-0.07894344627857208,-0.3879978656768799,0.9173295497894287,0.0,0.0,0.0,0.0,0.0,0.0
1710,1724812205673187564,-1.9483643770217896,-0.45909449458122253,0.14807483553886414,-0.04206983372569084,-0.07931172847747803,-0.3884342610836029,0.9170924425125122,0.0,0.0,0.0,0.0,0.0,0.0
1712,1724812205682983371,-1.9481302499771118,-0.4597092866897583,0.1480739265680313,-0.041974689811468124,-0.07966301590204239,-0.3884221315383911,0.917071521282196,0.0,0.0,0.0,0.0,0.0,0.0
1714,1724812205692968547,-1.947831153869629,-0.46041908860206604,0.14790551364421844,-0.04267308488488197,-0.08059422671794891,-0.38789308071136475,0.9171819090843201,0.0,0.0,0.0,0.0,0.0,0.0
1716,1724812205703285633,-1.9474598169326782,-0.46088913083076477,0.14838601648807526,-0.041381578892469406,-0.07909107953310013,-0.3894668221473694,0.9167047739028931,0.0,0.0,0.0,0.0,0.0,0.0
1718,1724812205713443589,-1.9471278190612793,-0.46143993735313416,0.14841154217720032,-0.04215022549033165,-0.07891197502613068,-0.3901877701282501,0.9163786172866821,0.0,0.0,0.0,0.0,0.0,0.0
1720,1724812205725685782,-1.9469516277313232,-0.4618449807167053,0.14851805567741394,-0.04292948171496391,-0.07836504280567169,-0.39051997661590576,0.9162478446960449,0.0,0.0,0.0,0.0,0.0,0.0
1722,1724812205733686216,-1.946755290031433,-0.46230727434158325,0.14890748262405396,-0.0420653410255909,-0.07703953981399536,-0.3919074535369873,0.9158079028129578,0.0,0.0,0.0,0.0,0.0,0.0
1724,1724812205743170171,-1.9466089010238647,-0.46284255385398865,0.14889028668403625,-0.042159754782915115,-0.0776703730225563,-0.3926181495189667,0.9154456853866577,0.0,0.0,0.0,0.0,0.0,0.0
1726,1724812205754186229,-1.9462709426879883,-0.4633154273033142,0.14887063205242157,-0.041891686618328094,-0.07822572439908981,-0.39207735657691956,0.9156425595283508,0.0,0.0,0.0,0.0,0.0,0.0
1728,1724812205762980599,-1.9460166692733765,-0.4637182354927063,0.14887477457523346,-0.04184502735733986,-0.0785011276602745,-0.39214181900024414,0.9155935049057007,0.0,0.0,0.0,0.0,0.0,0.0
1730,1724812205776060557,-1.9457762241363525,-0.4641716778278351,0.1486903876066208,-0.04184100776910782,-0.0793657898902893,-0.3921201825141907,0.9155283570289612,0.0,0.0,0.0,0.0,0.0,0.0
1732,1724812205783588845,-1.9455682039260864,-0.46450769901275635,0.14887771010398865,-0.04167376831173897,-0.07892955094575882,-0.39306390285491943,0.9151689410209656,0.0,0.0,0.0,0.0,0.0,0.0
1734,1724812205793130357,-1.9453948736190796,-0.4646162688732147,0.14951388537883759,-0.041332121938467026,-0.0766855999827385,-0.39439645409584045,0.914801836013794,0.0,0.0,0.0,0.0,0.0,0.0
1736,1724812205804345875,-1.9451884031295776,-0.4651672840118408,0.1490984410047531,-0.042832303792238235,-0.07995818555355072,-0.3926223814487457,0.9152157306671143,0.0,0.0,0.0,0.0,0.0,0.0
1738,1724812205812987707,-1.9448931217193604,-0.46525514125823975,0.14956842362880707,-0.04118845611810684,-0.07756912708282471,-0.393844336271286,0.9149717688560486,0.0,0.0,0.0,0.0,0.0,0.0
1740,1724812205823143747,-1.944761037826538,-0.46552449464797974,0.14969894289970398,-0.04144379496574402,-0.07716696709394455,-0.3941812813282013,0.9148491024971008,0.0,0.0,0.0,0.0,0.0,0.0
1742,1724812205833656063,-1.9446220397949219,-0.4657689929008484,0.14981962740421295,-0.04084673896431923,-0.07697895169258118,-0.39450129866600037,0.914753794670105,0.0,0.0,0.0,0.0,0.0,0.0
1744,1724812205842857279,-1.9445723295211792,-0.46594420075416565,0.14988566935062408,-0.04134497418999672,-0.0767548680305481,-0.3947129249572754,0.9146589636802673,0.0,0.0,0.0,0.0,0.0,0.0
1746,1724812205853397109,-1.9445298910140991,-0.46611401438713074,0.1499910205602646,-0.04114443063735962,-0.07615126669406891,-0.39489632844924927,0.9146392941474915,0.0,0.0,0.0,0.0,0.0,0.0
1748,1724812205863785682,-1.944481372833252,-0.4662694036960602,0.1500893533229828,-0.04120573401451111,-0.07563944905996323,-0.3951359689235687,0.914575457572937,0.0,0.0,0.0,0.0,0.0,0.0
1750,1724812205873184459,-1.944441556930542,-0.4664217531681061,0.15011781454086304,-0.04110914468765259,-0.0754077211022377,-0.394996702671051,0.9146591424942017,0.0,0.0,0.0,0.0,0.0,0.0
1752,1724812205883983017,-1.9444175958633423,-0.46653077006340027,0.15012672543525696,-0.041284024715423584,-0.07557948678731918,-0.39491644501686096,0.9146717190742493,0.0,0.0,0.0,0.0,0.0,0.0
1754,1724812205892839339,-1.9444048404693604,-0.46660202741622925,0.15011240541934967,-0.04130826145410538,-0.07545667141675949,-0.394967645406723,0.9146586656570435,0.0,0.0,0.0,0.0,0.0,0.0
1756,1724812205903467162,-1.944383144378662,-0.46657809615135193,0.15019206702709198,-0.04125216230750084,-0.07514394074678421,-0.39507991075515747,0.9146385192871094,0.0,0.0,0.0,0.0,0.0,0.0
1758,1724812205913143234,-1.9443622827529907,-0.46656784415245056,0.15020692348480225,-0.041235145181417465,-0.07508980482816696,-0.3950730860233307,0.9146466851234436,0.0,0.0,0.0,0.0,0.0,0.0
1760,1724812205925106064,-1.9443230628967285,-0.466591477394104,0.15016308426856995,-0.04102842137217522,-0.07527358829975128,-0.39487123489379883,0.9147279858589172,0.0,0.0,0.0,0.0,0.0,0.0
1762,1724812205948518495,-1.9443330764770508,-0.4665309190750122,0.1502229869365692,-0.041294533759355545,-0.07495938241481781,-0.3951280117034912,0.9146309494972229,0.0,0.0,0.0,0.0,0.0,0.0
1764,1724812205948837586,-1.944281816482544,-0.46655625104904175,0.15012012422084808,-0.04077230393886566,-0.07537303864955902,-0.39484837651252747,0.9147411584854126,0.0,0.0,0.0,0.0,0.0,0.0
1766,1724812205953257053,-1.944311261177063,-0.4665820896625519,0.15009668469429016,-0.040953777730464935,-0.07551991939544678,-0.39480116963386536,0.9147412180900574,0.0,0.0,0.0,0.0,0.0,0.0
1768,1724812205963108919,-1.9442867040634155,-0.46655726432800293,0.15014176070690155,-0.04079105332493782,-0.07534373551607132,-0.394845187664032,0.9147441387176514,0.0,0.0,0.0,0.0,0.0,0.0
1770,1724812205973535091,-1.9442869424819946,-0.4665435254573822,0.15013226866722107,-0.041035763919353485,-0.07551639527082443,-0.39480599761009216,0.914735734462738,0.0,0.0,0.0,0.0,0.0,0.0
1772,1724812205983774498,-1.9442533254623413,-0.4665014147758484,0.150164395570755,-0.04087602719664574,-0.0752892792224884,-0.3948974311351776,0.914722204208374,0.0,0.0,0.0,0.0,0.0,0.0
1774,1724812205994409818,-1.9442718029022217,-0.4665023386478424,0.150166317820549,-0.040990862995386124,-0.07537823915481567,-0.3948337137699127,0.9147372245788574,0.0,0.0,0.0,0.0,0.0,0.0
1776,1724812206003454031,-1.944238543510437,-0.46645018458366394,0.15020638704299927,-0.04130875691771507,-0.07520205527544022,-0.3949865698814392,0.9146714210510254,0.0,0.0,0.0,0.0,0.0,0.0
1778,1724812206012850970,-1.9441934823989868,-0.46642228960990906,0.15020115673542023,-0.04082559049129486,-0.07543324679136276,-0.394734263420105,0.9147830605506897,0.0,0.0,0.0,0.0,0.0,0.0
1780,1724812206023318147,-1.9441826343536377,-0.46639958024024963,0.15017838776111603,-0.041047871112823486,-0.07546085864305496,-0.39481401443481445,0.9147364497184753,0.0,0.0,0.0,0.0,0.0,0.0
1782,1724812206033761951,-1.9441678524017334,-0.46639060974121094,0.15020108222961426,-0.040938086807727814,-0.07544615864753723,-0.3947221338748932,0.9147821664810181,0.0,0.0,0.0,0.0,0.0,0.0
1784,1724812206043048774,-1.9441523551940918,-0.4663674831390381,0.1502443552017212,-0.04075033590197563,-0.0752418115735054,-0.39478427171707153,0.9147805571556091,0.0,0.0,0.0,0.0,0.0,0.0
1786,1724812206054191569,-1.944115400314331,-0.466398149728775,0.15016627311706543,-0.040800049901008606,-0.07575199007987976,-0.3945960998535156,0.9148174524307251,0.0,0.0,0.0,0.0,0.0,0.0
1788,1724812206063059410,-1.944102168083191,-0.4663776159286499,0.15021702647209167,-0.04083050787448883,-0.07566937059164047,-0.39472025632858276,0.9147693514823914,0.0,0.0,0.0,0.0,0.0,0.0
1790,1724812206073052250,-1.9440921545028687,-0.4663904309272766,0.15024732053279877,-0.04038196802139282,-0.07545401901006699,-0.3947095274925232,0.9148116707801819,0.0,0.0,0.0,0.0,0.0,0.0
1792,1724812206084621727,-1.9441202878952026,-0.4663713574409485,0.1501827985048294,-0.04082348570227623,-0.0756385549902916,-0.39468592405319214,0.9147870540618896,0.0,0.0,0.0,0.0,0.0,0.0
1794,1724812206093469645,-1.9441064596176147,-0.46636489033699036,0.15022800862789154,-0.040733251720666885,-0.07536035031080246,-0.394806444644928,0.9147620797157288,0.0,0.0,0.0,0.0,0.0,0.0
1796,1724812206103347460,-1.944104790687561,-0.4663514196872711,0.1502707153558731,-0.040858980268239975,-0.07527818530797958,-0.39476728439331055,0.9147801399230957,0.0,0.0,0.0,0.0,0.0,0.0
1798,1724812206112908522,-1.9440970420837402,-0.46632933616638184,0.15027935802936554,-0.0408652238547802,-0.07520543783903122,-0.39478105306625366,0.9147798418998718,0.0,0.0,0.0,0.0,0.0,0.0
1800,1724812206125372694,-1.94407057762146,-0.4663405418395996,0.1502404361963272,-0.0407748743891716,-0.07564645260572433,-0.3947131335735321,0.9147768616676331,0.0,0.0,0.0,0.0,0.0,0.0
1802,1724812206134390823,-1.9440912008285522,-0.4663105309009552,0.1502930372953415,-0.04077688232064247,-0.07528426498174667,-0.39482733607292175,0.9147573113441467,0.0,0.0,0.0,0.0,0.0,0.0
1804,1724812206143544109,-1.9441026449203491,-0.4662649929523468,0.15032175183296204,-0.04088909924030304,-0.07508391886949539,-0.3948797285556793,0.914746105670929,0.0,0.0,0.0,0.0,0.0,0.0
1806,1724812206153166219,-1.9440743923187256,-0.46630027890205383,0.15030041337013245,-0.04081402346491814,-0.07551442086696625,-0.3946681320667267,0.9148053526878357,0.0,0.0,0.0,0.0,0.0,0.0
1808,1724812206164658236,-1.944036841392517,-0.4662887156009674,0.15030449628829956,-0.04083726555109024,-0.07564996182918549,-0.394593209028244,0.914825439453125,0.0,0.0,0.0,0.0,0.0,0.0
1810,1724812206175352421,-1.9440301656723022,-0.4662669599056244,0.1503194272518158,-0.040619149804115295,-0.0756392627954483,-0.39461493492126465,0.9148267507553101,0.0,0.0,0.0,0.0,0.0,0.0
1812,1724812206183975993,-1.9440360069274902,-0.4662359058856964,0.15034079551696777,-0.04081174358725548,-0.0753895491361618,-0.3946778178215027,0.9148116707801819,0.0,0.0,0.0,0.0,0.0,0.0
1814,1724812206193445610,-1.9440306425094604,-0.4662244915962219,0.15031908452510834,-0.04101403057575226,-0.07599775493144989,-0.3945329785346985,0.9148147702217102,0.0,0.0,0.0,0.0,0.0,0.0
1816,1724812206203190100,-1.9440593719482422,-0.46617376804351807,0.15035982429981232,-0.04162230342626572,-0.07623617351055145,-0.3945213556289673,0.9147724509239197,0.0,0.0,0.0,0.0,0.0,0.0
1818,1724812206213201703,-1.9440644979476929,-0.46608373522758484,0.1505284160375595,-0.04157237708568573,-0.07637247443199158,-0.39454978704452515,0.9147509932518005,0.0,0.0,0.0,0.0,0.0,0.0
1820,1724812206226221092,-1.944120168685913,-0.4660434126853943,0.15070821344852448,-0.042066533118486404,-0.07669460773468018,-0.39446505904197693,0.9147380590438843,0.0,0.0,0.0,0.0,0.0,0.0
1822,1724812206233691778,-1.9441665410995483,-0.46596771478652954,0.1509723961353302,-0.0424208827316761,-0.07678496837615967,-0.3944348692893982,0.9147270917892456,0.0,0.0,0.0,0.0,0.0,0.0
1824,1724812206247103093,-1.9441773891448975,-0.46591728925704956,0.1511513739824295,-0.04278720170259476,-0.07760419696569443,-0.3943322002887726,0.9146851897239685,0.0,0.0,0.0,0.0,0.0,0.0
1826,1724812206256680656,-1.9442168474197388,-0.4658161699771881,0.15139678120613098,-0.043511200696229935,-0.07782485336065292,-0.3943603038787842,0.9146201610565186,0.0,0.0,0.0,0.0,0.0,0.0
1828,1724812206263696873,-1.9442260265350342,-0.4657127261161804,0.1516372710466385,-0.04418699070811272,-0.07804332673549652,-0.3943554759025574,0.914571225643158,0.0,0.0,0.0,0.0,0.0,0.0
1830,1724812206277120981,-1.9442192316055298,-0.4656161367893219,0.15193571150302887,-0.04472029581665993,-0.07841130346059799,-0.3944154977798462,0.9144879579544067,0.0,0.0,0.0,0.0,0.0,0.0
1832,1724812206283930565,-1.9442524909973145,-0.46551933884620667,0.152358740568161,-0.04551811143755913,-0.07806676626205444,-0.394359290599823,0.9145023226737976,0.0,0.0,0.0,0.0,0.0,0.0
1834,1724812206294110076,-1.9441970586776733,-0.4654625356197357,0.15272411704063416,-0.046289149671792984,-0.0784001424908638,-0.3942420482635498,0.9144856333732605,0.0,0.0,0.0,0.0,0.0,0.0
1836,1724812206303946955,-1.944245457649231,-0.465362548828125,0.1532769352197647,-0.047215741127729416,-0.07786993682384491,-0.39451295137405396,0.9143667221069336,0.0,0.0,0.0,0.0,0.0,0.0
1838,1724812206313182713,-1.9443302154541016,-0.465640127658844,0.15334178507328033,-0.04906902834773064,-0.0804876908659935,-0.3926883637905121,0.9148277640342712,0.0,0.0,0.0,0.0,0.0,0.0
1840,1724812206323995634,-1.9443533420562744,-0.46562930941581726,0.1537286937236786,-0.050080787390470505,-0.08058656007051468,-0.392304003238678,0.9149290919303894,0.0,0.0,0.0,0.0,0.0,0.0
1842,1724812206333587422,-1.9442427158355713,-0.4652804732322693,0.15413789451122284,-0.04985438287258148,-0.07954663038253784,-0.39333391189575195,0.9145903587341309,0.0,0.0,0.0,0.0,0.0,0.0
1844,1724812206371100285,-1.944242238998413,-0.4651311933994293,0.15455660223960876,-0.05053537338972092,-0.0798497274518013,-0.393314391374588,0.9145349264144897,0.0,0.0,0.0,0.0,0.0,0.0
1846,1724812206371454190,-1.9442702531814575,-0.4650357663631439,0.15497232973575592,-0.05162056162953377,-0.08035438507795334,-0.3931771218776703,0.9144890308380127,0.0,0.0,0.0,0.0,0.0,0.0
1848,1724812206371776611,-1.9442511796951294,-0.4649314880371094,0.15532059967517853,-0.05220680683851242,-0.08096524327993393,-0.39304983615875244,0.9144566655158997,0.0,0.0,0.0,0.0,0.0,0.0
1850,1724812206373103677,-1.9442483186721802,-0.46459949016571045,0.15627741813659668,-0.05236296355724335,-0.07889450341463089,-0.39447957277297974,0.9140130281448364,0.0,0.0,0.0,0.0,0.0,0.0
1852,1724812206383583147,-1.9442110061645508,-0.46437573432922363,0.15673044323921204,-0.05243430659174919,-0.07868540287017822,-0.39478737115859985,0.9138940572738647,0.0,0.0,0.0,0.0,0.0,0.0
1854,1724812206392981636,-1.944124460220337,-0.4642016291618347,0.1571219116449356,-0.05225241929292679,-0.07847625762224197,-0.39491263031959534,0.913868248462677,0.0,0.0,0.0,0.0,0.0,0.0
1856,1724812206403932109,-1.9441418647766113,-0.4640630781650543,0.15762017667293549,-0.053026966750621796,-0.0779411718249321,-0.39549779891967773,0.9136163592338562,0.0,0.0,0.0,0.0,0.0,0.0
1858,1724812206413603602,-1.9440741539001465,-0.4639207124710083,0.158041313290596,-0.05343610793352127,-0.07760577648878098,-0.3955182135105133,0.9136123061180115,0.0,0.0,0.0,0.0,0.0,0.0
1860,1724812206423041118,-1.9439853429794312,-0.4638020694255829,0.15847106277942657,-0.05331646278500557,-0.07710612565279007,-0.39554592967033386,0.9136494994163513,0.0,0.0,0.0,0.0,0.0,0.0
1862,1724812206433865613,-1.943919062614441,-0.4636639654636383,0.15886855125427246,-0.05372513458132744,-0.07644051313400269,-0.3956306278705597,0.9136448502540588,0.0,0.0,0.0,0.0,0.0,0.0
1864,1724812206443945149,-1.9437870979309082,-0.4635365903377533,0.15918974578380585,-0.05411340668797493,-0.07641967386007309,-0.39509785175323486,0.9138542413711548,0.0,0.0,0.0,0.0,0.0,0.0
1866,1724812206453486462,-1.9437297582626343,-0.46339577436447144,0.15954239666461945,-0.054808326065540314,-0.07581502944231033,-0.3953288793563843,0.9137632250785828,0.0,0.0,0.0,0.0,0.0,0.0
1868,1724812206463208403,-1.9436488151550293,-0.4632711410522461,0.15983659029006958,-0.05521536245942116,-0.07552416622638702,-0.3953334093093872,0.9137608408927917,0.0,0.0,0.0,0.0,0.0,0.0
1870,1724812206473120478,-1.9435691833496094,-0.46315205097198486,0.1601865142583847,-0.055749230086803436,-0.07497751712799072,-0.39546340703964233,0.9137172698974609,0.0,0.0,0.0,0.0,0.0,0.0
1872,1724812206513342188,-1.9434912204742432,-0.46303653717041016,0.1605227142572403,-0.05679599195718765,-0.07472357153892517,-0.39549848437309265,0.9136583805084229,0.0,0.0,0.0,0.0,0.0,0.0
1874,1724812206513634110,-1.943428874015808,-0.4629148244857788,0.16087019443511963,-0.05748002603650093,-0.07445551455020905,-0.395551472902298,0.9136144518852234,0.0,0.0,0.0,0.0,0.0,0.0
1876,1724812206514075061,-1.9433486461639404,-0.4628411829471588,0.16121885180473328,-0.05814429372549057,-0.07451077550649643,-0.395439475774765,0.9136164784431458,0.0,0.0,0.0,0.0,0.0,0.0
1878,1724812206514357747,-1.9432753324508667,-0.4627333879470825,0.16154009103775024,-0.05833612009882927,-0.07438284903764725,-0.3954152762889862,0.9136251211166382,0.0,0.0,0.0,0.0,0.0,0.0
1880,1724812206527529580,-1.9431729316711426,-0.4627063572406769,0.16155891120433807,-0.05925142019987106,-0.07547179609537125,-0.39503970742225647,0.9136394262313843,0.0,0.0,0.0,0.0,0.0,0.0
1882,1724812206533285847,-1.9431886672973633,-0.46245646476745605,0.16196565330028534,-0.05968596041202545,-0.07459674030542374,-0.39563676714897156,0.913424551486969,0.0,0.0,0.0,0.0,0.0,0.0
1884,1724812206553772663,-1.9431021213531494,-0.4623989164829254,0.16186729073524475,-0.06008068844676018,-0.07561509311199188,-0.3953099548816681,0.9134564995765686,0.0,0.0,0.0,0.0,0.0,0.0
1886,1724812206554024141,-1.943002462387085,-0.462311327457428,0.16185887157917023,-0.060345377773046494,-0.07646510750055313,-0.39520758390426636,0.9134125113487244,0.0,0.0,0.0,0.0,0.0,0.0
1888,1724812206563206790,-1.9429636001586914,-0.4622001647949219,0.16192767024040222,-0.061255842447280884,-0.07682999968528748,-0.39519253373146057,0.9133278131484985,0.0,0.0,0.0,0.0,0.0,0.0
1890,1724812206577269019,-1.9429036378860474,-0.46210938692092896,0.16196128726005554,-0.061104726046323776,-0.0775042325258255,-0.3950856328010559,0.9133272171020508,0.0,0.0,0.0,0.0,0.0,0.0
1892,1724812206584048161,-1.9428834915161133,-0.46200478076934814,0.16209928691387177,-0.061488691717386246,-0.07778997719287872,-0.3950119912624359,0.9133090972900391,0.0,0.0,0.0,0.0,0.0,0.0
1894,1724812206593109720,-1.9428226947784424,-0.46185845136642456,0.16231843829154968,-0.06158848851919174,-0.07784843444824219,-0.3951505422592163,0.9132373929023743,0.0,0.0,0.0,0.0,0.0,0.0
1896,1724812206603297265,-1.9427096843719482,-0.4617935121059418,0.1624596267938614,-0.06104397028684616,-0.07830800861120224,-0.3948100209236145,0.9133819937705994,0.0,0.0,0.0,0.0,0.0,0.0
1898,1724812206616085362,-1.9426242113113403,-0.4616710841655731,0.16257043182849884,-0.06135968491435051,-0.07862313091754913,-0.39463818073272705,0.9134080410003662,0.0,0.0,0.0,0.0,0.0,0.0
