seq,stamp,px,py,pz,ox,oy,oz,ow,lx,ly,lz,ax,ay,az,timestamp,wx,wy,wz,aa_x,aa_y,aa_z,roll,pitch,yaw,vx,vy,vz,jx,jy,jz,fw
9198,1724813247725308924,-0.1736294031143188,-0.2306058406829834,0.1505115777254104,-0.0369022600352764,0.1368420720100402,0.1113385781645774,0.98362398147583,0.0,0.0,0.0,-0.6408537939979813,0.4499964284435713,-0.2224067809767317,45.028451313,-0.040672108802852,-0.004652819705365,0.0231569363060594,59.25635873200142,7.104953443710341,9.558152076087325,-0.0438593294327096,0.2811072189411171,0.2192184557798289,0.0368451467465344,-0.0281229630564592,-0.0164031141846852,6.249710650053386,-14.797868397247791,21.259062508435225,-2.8631504422023293e-05
9200,1724813247735215333,-0.1732804477214813,-0.2308716028928756,0.1502909511327743,-0.0362676382064819,0.1373390555381775,0.1122038811445236,0.9834800958633424,0.0,0.0,0.0,-0.2843767429555739,-0.0113510870571398,0.3645565171721947,45.038357722,0.1122188943308381,0.0819560335847115,0.1963043446345983,-22.0317825322453,-4.670874636741304,6.058986139029104,-0.0421958004661312,0.2820020708975267,0.2212046605456755,0.0333506395866507,-0.0297360597930698,-0.0160761098089716,42.90675815173743,3.23353886576464,28.354240175124698,-0.0001474458136899
9202,1724813247744821524,-0.1729775369167328,-0.2311843484640121,0.1501942276954651,-0.0382406674325466,0.1367077827453613,0.1132144331932067,0.9833773970603944,0.0,0.0,0.0,0.1922752150774869,0.4836401045635126,0.3491285066547827,45.047963913,-0.4484148059881295,-0.0878617694583857,0.1481361938935643,-24.476478031606305,-10.833733754031195,-4.1480655376373905,-0.0460813003768115,0.2812216111299866,0.2227233213981653,0.0312557841464737,-0.0284340296378644,-0.0094857250330449,34.83853839014962,35.41272103839213,-31.605499649039377,-4.720673341454271e-05
9204,1724813247756478531,-0.172617107629776,-0.2314574867486953,0.1500919014215469,-0.0395320877432823,0.1358921527862548,0.1140852719545364,0.9833387732505798,0.0,0.0,0.0,0.3893055843567778,0.6684803718123908,-0.443658746388011,45.05962092,-0.2544087111989488,-0.1173347374183983,0.112035359646638,-0.9682700985479896,-0.9545464074070846,-6.272228479587307,-0.0486523594841145,0.2799172326363526,0.2241483550844375,0.0393017864532385,-0.0178721417847,-0.0101819895700643,-27.445769046788303,-9.77542269113226,-39.041475195733554,-3.4856112629128917e-05
9206,1724813247764653373,-0.1722477674484253,-0.2315717190504074,0.1500006169080734,-0.0409144163131713,0.1352627426385879,0.1144767254590988,0.9833234548568726,0.0,0.0,0.0,-0.089300781085791,0.4416230357066489,-0.5967468587833835,45.067795762,-0.3632864673215161,-0.116115613352148,0.042557277478573,5.600531623912224,-3.1368948506502043,-1.852448005770411,-0.0515088201331246,0.2789865775031044,0.2245592493676281,0.0407591458979501,-0.0137694027206958,-0.0160098453841843,-43.36507901681618,-35.64243241392493,-3.168614301966201,-5.5779813815438645e-06
9208,1724813247775595141,-0.1718665361404419,-0.2317193895578384,0.1497545093297958,-0.0408356264233589,0.1342056095600128,0.1151831001043319,0.9833891987800598,0.0,0.0,0.0,-0.3414599214732539,-0.0639447290994122,-0.4035651165351021,45.07873753,-0.0249315255364508,-0.1985633344307305,0.1196285575131658,1.954567870146095,0.1810796921245909,0.6911904231285555,-0.0513767762693049,0.2768841858510456,0.2260348602066018,0.0358633524981186,-0.009819651164511,-0.0208382041712527,-7.0007517621976785,-12.837812289369158,-3.38958163451726,-0.0001558062422534
9210,1724813247785821703,-0.1714900135993957,-0.2317846715450287,0.1495572179555893,-0.0421350076794624,0.1334349364042282,0.1157337799668312,0.9833745360374452,0.0,0.0,0.0,-0.2596956040043263,0.1236986278009634,-0.6393794274635005,45.088964092,-0.2818286545368481,-0.1229591001797744,0.0659784499047732,-4.483269566025206,1.4443305854764803,-2.5310306940793077,-0.0540490870662583,0.2756639972900211,0.2268040485197627,0.0333843678097736,-0.0145350543291176,-0.0246048265159224,-1.6032954285422534,52.203165883903814,-2.5358216788048473,-0.0001018517190385
9212,1724813247795165799,-0.171207383275032,-0.2319900840520858,0.1492819488048553,-0.0426852740347385,0.1326317340135574,0.1161582022905349,0.9834094047546388,0.0,0.0,0.0,-0.3566275455088041,0.9005326172443414,-0.4878520053806641,45.098308188,-0.1475239857708291,-0.1602509468899412,0.0655093702359105,18.50554479347244,20.342632591418703,-5.267526328122892,-0.0552320877654003,0.2742022527619643,0.2275240733963546,0.0308101362548178,-0.0083863747266548,-0.0328935157015877,-21.19728120934299,17.626539838773276,48.061223419145634,-0.0002172309790258
9214,1724813247804429944,-0.1709167808294296,-0.2319428920745849,0.1489456743001938,-0.0425580255687236,0.1338053494691848,0.1159281805157661,0.9832831621170044,0.0,0.0,0.0,-0.6524163978095572,0.4621278636723689,0.2498851313050221,45.107572333,0.0618690413398729,0.2517071669319362,-0.0312102577697001,10.819274201641862,10.575852303549173,-3.1349330976214564,-0.0547767222167299,0.2765147341691751,0.2270908993351822,0.0267610745941127,0.0021836626092692,-0.0337464538269145,-10.631385519978815,-54.22149119154415,29.39125276569172,-0.0002440006407495
9216,1724813247814466802,-0.1706982851028442,-0.2319526225328445,0.1486347168684005,-0.0423316694796085,0.1337807923555374,0.1159847378730773,0.9832894802093506,0.0,0.0,0.0,-0.5275384535419937,-0.1571026843101891,-0.0014553434996216,45.117609191,0.0423292783740132,-0.010688605922768,0.016762617449791,-11.06958453552101,-16.719319606569854,3.713666738276948,-0.0543025308991765,0.2764167155464183,0.2272715459408617,0.0178711609830237,-0.0005596830384,-0.0275199782929504,19.036418731165952,-34.90602731180202,-28.598959658593273,-0.0002444857996029
9218,1724813247827231413,-0.1705334484577179,-0.2319531142711639,0.1483396291732788,-0.0437894575297832,0.1331640630960464,0.1165088340640068,0.983247458934784,0.0,0.0,0.0,-0.1774931496687548,-0.1677698613158723,-0.4242566187346015,45.130373802,-0.2470661534474255,-0.0711195124463085,0.0468609467322535,12.77640047236738,-3.365708884290097,5.7154032909181245,-0.0572727676431559,0.2755437033556724,0.2279449049785494,0.0169520574719239,-0.0006782853683411,-0.0376329326386652,-6.26949468816245,0.460212664388278,35.60675617490658,-0.000242065001152
9220,1724813247834641638,-0.1703904569149017,-0.2319608926773071,0.1479983180761337,-0.0436990112066268,0.1328524053096771,0.1169010251760482,0.9832471013069152,0.0,0.0,0.0,-0.3688920188761694,-0.1587848310047023,0.1352622033655099,45.137784027,0.0001022397502638,-0.0901728989404082,0.1036566246290867,16.15248952122083,-4.07142870087349,1.604909004851257,-0.0570446692611776,0.2749204791867887,0.2287814315629427,0.0151829950138253,-0.0026032478550739,-0.0391936530595851,-18.44082364888913,10.120307436953942,57.79688424041702,-0.0002929733683075
9222,1724813247845799691,-0.1702901571989059,-0.2320160418748855,0.1476763486862182,-0.0441757179796695,0.1319041401147842,0.1171290948987007,0.9833263754844666,0.0,0.0,0.0,-0.4505236277195794,0.1038014221135529,0.4826196005764491,45.14894208,-0.108694435175935,-0.1608075674501117,0.0197546593950817,0.8779097809969008,-0.2167009358754983,-3.984182081194139,-0.0581665961899803,0.273141875891276,0.2291173517189332,0.0088800183904034,-0.0026782663936852,-0.0318731333230672,-2.0053274432694437,11.111638384454444,-0.9970306672483548,-0.0002910236447941
9224,1724813247854746178,-0.1702114939689636,-0.2320237606763839,0.1473695486783981,-0.0442160330712795,0.1313701272010803,0.1172087267041206,0.9833864569664,0.0,0.0,0.0,-0.4303698762068537,0.1141074403325643,0.2432394598450742,45.157888567,-0.0245998154078829,-0.1188912924353092,0.0094693332996548,-0.9675415889109766,3.838075985518316,-0.6641329846695327,-0.058345707330527,0.2720848961497544,0.2292694244064574,0.005669732807882,-0.0009567858661796,-0.0287996243161892,2.0328061526913075,-7.833746985671059,-22.723423657474953,-0.0002764104780073
9226,1724813247866001173,-0.1701918989419937,-0.2320358604192733,0.1471231877803802,-0.0451603569090366,0.130766749382019,0.1174143105745315,0.9833994507789612,0.0,0.0,0.0,-0.4106041698988185,-0.1012916145641921,0.0445979688309368,45.169143562,-0.1822816382050555,-0.0876886543442925,0.0088690380440388,-9.796976578711751,4.238536278956122,3.262533869554282,-0.0603532375413881,0.2711056257747933,0.2294336339140568,-0.0001869959851177,-0.0007813448017532,-0.0274821907421145,1.5217316085570864,-12.751794618664066,-6.098865128905129,-0.0002335448917241
9228,1724813247875046137,-0.170207604765892,-0.2320407927036285,0.1468339562416076,-0.0461714193224906,0.1304797679185867,0.1178421229124069,0.983339548110962,0.0,0.0,0.0,-0.3985442843079345,-0.1702098628472567,0.0733920138040096,45.178188526,-0.2402713393678348,-0.0386935974525884,0.0624812476917119,-0.1985373244930421,2.1986057085284525,-0.139873934365535,-0.0623638461838567,0.2707910127061027,0.2300413904149262,-0.0031030409405925,-0.002547108261524,-0.0276054734210875,3.86107163883646,-1.238553227463827,11.375524942757709,-0.0002826089946645
9230,1724813247886270881,-0.1702614724636078,-0.2320972681045532,0.1465849876403808,-0.0470104701817035,0.1300456821918487,0.117841251194477,0.983357310295105,0.0,0.0,0.0,-0.3199936577206547,-0.0952265312758283,0.3151938654703181,45.18941327,-0.1559575219710526,-0.0588441901394561,-0.0236035394117328,-5.8332015241349,-4.260430825141016,-1.9575121982250885,-0.0641761471157578,0.2701150219813746,0.2298102985770259,-0.0086373552225236,-0.0041092746488029,-0.0255694646291821,21.923649631262364,5.300549630616966,18.86577275845091,-0.000259580076371
9232,1724813247894766789,-0.1703595370054245,-0.2321262508630752,0.1463459581136703,-0.0481738075613975,0.1294358074665069,0.1180095896124839,0.9833613038063048,0.0,0.0,0.0,-0.0377532323394971,-0.0590652421061283,0.4582672259425089,45.197909178,-0.2913281699701485,-0.110893066218017,-0.0035055198709046,-7.8097313838918705,-2.4367821694843497,1.1005368560731104,-0.0666424420924834,0.2691729629291646,0.2298433635139897,-0.0102431833611724,-0.0046357223037531,-0.0220311567059363,25.461997284255123,13.085845270397334,2.1354730323344064,-0.0002573909707229
9234,1724813247906728458,-0.1704601794481277,-0.2322023212909698,0.1461852192878723,-0.0495859310030937,0.1287991255521774,0.1181553229689598,0.9833571910858154,0.0,0.0,0.0,0.136147846774876,0.246163385136221,0.2361642542275122,45.209870847,-0.247929174475887,-0.0779042534818751,-0.0116466767384638,-0.4999591872789928,1.2380065431704663,0.95854926148983,-0.0696288903188081,0.2682337653944681,0.2297649968414397,-0.0081473924499437,-0.0052934082406359,-0.0158456331496257,-0.031893475258971,24.382474790465473,-36.86780457086657,-0.0001886636942095
9236,1724813247914609037,-0.170523002743721,-0.2322385013103485,0.1460478454828262,-0.0506072267889976,0.1283780485391616,0.1183259338140487,0.983339786529541,0.0,0.0,0.0,0.0602503856656019,0.432419907210138,-0.1493863073675295,45.217751426,-0.2733018968645346,-0.0760390274074628,0.0044175288374606,3.824582916252357,2.4927006189857224,0.7743717939606823,-0.0717615251769233,0.2676385314514385,0.2298449370793505,-0.0072772688271181,-0.0017899840535893,-0.0154431689138343,-7.148690151008897,10.306011675041532,-40.257124933403325,-0.000151951310115
9238,1724813247925219897,-0.1705902963876724,-0.232217475771904,0.1459123939275741,-0.0512890666723251,0.1282030791044235,0.1183922067284584,0.9833192229270936,0.0,0.0,0.0,0.01986084264572,0.351345167443877,-0.4527227898265092,45.228362286,-0.1320783350997887,-0.017357507111499,-0.0054257601235315,4.668426156053862,-1.3762081298472395,2.9490179107042978,-0.0731750617792093,0.2674506215535472,0.2297991850334375,-0.0073546465113061,0.0026248551234679,-0.0198922240998529,17.37875006743344,8.333589351032579,30.942164680705623,-0.0001436767507102
9240,1724813247934890466,-0.1706703454256057,-0.232186421751976,0.1456572115421295,-0.0519765764474868,0.1276886314153671,0.1187882050871849,0.9833022952079772,0.0,0.0,0.0,0.3746410446213904,0.5727270425721889,0.3711751370632474,45.238032855,-0.1630895950060183,-0.0915376753778766,0.0572604355526243,0.742357239872871,-2.0677083317198868,1.9768230375044469,-0.0745832858814955,0.2666086836673341,0.2304394437098341,-0.0069232637584342,0.0054521215744642,-0.0245649513994159,24.82325364403715,11.1386292374332,69.64500593937409,-0.0002604789882787
9242,1724813247944752712,-0.1707250028848648,-0.2321101129055023,0.1454332768917083,-0.0524869114160537,0.1273592114448547,0.1190279573202133,0.9832889437675476,0.0,0.0,0.0,0.5001359354931664,0.5643634685274602,0.9016194449599796,45.247895101,-0.1160490925925525,-0.0555764500896707,0.0314429022925779,-0.0441843636888421,5.212698789935434,-11.758130208984614,-0.0756322085942343,0.2660854037702829,0.2308026136743182,9.0921121588039e-05,0.0139203723237795,-0.0123113584466931,-25.55219558977964,-7.414366179576838,-22.783365456629483,-0.0002182527445346
9244,1724813247955587703,-0.1706569641828537,-0.2318856865167617,0.1454236209392547,-0.0535667352378368,0.1272929012775421,0.1180514693260192,0.983357071876526,0.0,0.0,0.0,-0.2323587555517347,0.4058654196562346,-0.2566876209996404,45.258730092,-0.1738314344689067,0.0195483809830611,-0.2047597315733235,-5.503738307306125,-0.8667389087070907,-5.004277473693012,-0.0781230450922288,0.2661262248181729,0.228493063622592,0.0029972624769545,0.0165321123453399,-0.0065997542736822,-50.84767825214428,-8.977913137424496,-74.87473818136624,3.72736657041379e-05
9246,1724813247968911582,-0.1706708073616027,-0.2317339181900024,0.145242154598236,-0.0551067516207695,0.1263125985860824,0.1183305755257606,0.9833648204803468,0.0,0.0,0.0,-0.6352943475297798,0.3788243040082628,-0.7295217797777629,45.272053971,-0.2499610428155657,-0.1198034802929756,0.0037528940527298,-7.849394289111629,-1.7978039381326507,3.441678857903941,-0.0814053886296019,0.2645390271893648,0.2286765075043867,-0.0083006550650495,0.0246402821799982,-0.0228625123702492,29.37764468879298,-56.12050969700428,75.01711344954253,-0.0001568465634885
9248,1724813247975531064,-0.1707496345043182,-0.2315272390842437,0.1450604200363159,-0.0560774952173233,0.1258530914783477,0.1184341832995414,0.9833563566207886,0.0,0.0,0.0,-0.244762832041576,-0.1705505911073533,0.130464119156211,45.278673453,-0.308943275627803,-0.1032210290169017,-0.0136123391704556,-6.158687863696404,0.1128297089434076,1.8404779436293444,-0.0834595022049903,0.2638506431325647,0.2286417479354691,-0.0118066412794979,0.0263924349346229,-0.0260766764591551,55.94862271782681,-58.05334320596802,103.1191985837711,-0.0001643430426272
9250,1724813247985565814,-0.1708665639162063,-0.2313358783721923,0.1448197066783905,-0.0575718432664871,0.1249946802854538,0.1190396174788475,0.9833064079284668,0.0,0.0,0.0,0.2702909475008004,-0.3737071681089807,0.7575826176434545,45.288708203,-0.3288848536181801,-0.1384802306603401,0.0727606188539658,-14.449362153671046,-18.27447238562953,-2.740435343887991,-0.0865319833250237,0.2625280402607286,0.229517378064793,-0.0099290951863793,0.0180599832859869,-0.0153964631678267,24.137469807865138,43.67251528662149,-48.30304251506221,-0.0002313756469061
9252,1724813247994606317,-0.1709422916173935,-0.2311808317899704,0.144750490784645,-0.0598621480166912,0.1227963864803314,0.119268774986267,0.9834187626838684,0.0,0.0,0.0,0.2670533091756688,0.5417100536548539,-0.5815227559053966,45.297748706,-0.5610153305980636,-0.423913614218637,-0.0444396419191734,-4.084744455520221,-9.59703459980085,-6.0377786491927194,-0.0916196404380485,0.2586750529163004,0.2294560245262037,-0.0068079942434478,0.0184008104186172,-0.01104586242689,-13.36043408260426,65.1835445005683,-94.18747923849304,-6.104426933751225e-05
9254,1724813248007334872,-0.1710008382797241,-0.2309242039918899,0.1445491462945938,-0.0611591152846813,0.1216728687286377,0.1195209994912147,0.983448088169098,0.0,0.0,0.0,-0.1360218851776267,0.7249190029765478,-0.8138093782118698,45.310477261,-0.2260554011197253,-0.1522404552975451,0.0028323114495351,18.760506775215333,-11.20693688989776,24.951291730103495,-0.0944401131033207,0.2567490334709678,0.2296793548691522,-0.0048099021994723,0.0343284306068554,-0.0374936251124715,-16.591975409448658,-49.9790786145308,85.31957787049245,-0.0001686973788909
9256,1724813248014701460,-0.1710371673107147,-0.2306109219789505,0.1441805362701416,-0.0613052509725093,0.1203290522098541,0.1206628084182739,0.9834648370742798,0.0,0.0,0.0,-0.1939776162400938,0.0822990359120163,0.2562576920445933,45.317843849,-0.1200648049648258,-0.3735725179479376,0.2771813986958812,4.241586183572704,-10.376794557595154,12.454194124015991,-0.0947257677185164,0.2542021837747969,0.2320488896759543,-0.0070610844254188,0.0374243229567596,-0.0380996316465322,-1.1023804080427886,-61.15466037050009,70.51567564289572,-0.0003163521205714
9258,1724813248025540120,-0.1711476594209671,-0.2302866727113723,0.1439579725265503,-0.0624387301504612,0.1192614957690239,0.1209636554121971,0.9834866523742676,0.0,0.0,0.0,-0.0980430854947094,-0.1646361836007477,-0.1714029807216026,45.328682509,-0.2358989975819169,-0.1723836627574939,0.0168660800846228,23.12634390052518,13.492545817730512,-7.525534375594142,-0.0971891718189972,0.2523599081525226,0.232421784124415,-0.0073835777759878,0.0329267768077787,-0.0299236606676709,2.794735284053676,-8.969120166694434,-22.83658648686744,-0.0001895696202016
9260,1724813248035800636,-0.1711961179971695,-0.2299195826053619,0.1435597389936447,-0.0606617666780948,0.1190782487392425,0.1212920397520065,0.9835796356201172,0.0,0.0,0.0,-0.1281948248318902,-0.1224886253660364,-0.2442808630039481,45.338943025,0.3298266431251836,-0.0831853343806501,0.099838181927508,48.16652356566452,-0.4350680776732556,4.505856331049578,-0.093521521609743,0.2516078037565681,0.233558699251295,-0.009052856825841,0.0336689150527913,-0.0406742231650998,1.8078901222695605,9.65070497197696,56.144272452786474,-0.0003402378659659
9262,1724813248044564088,-0.1713078618049621,-0.2296403050422668,0.1431893557310104,-0.0575043633580207,0.1188100427389144,0.1214525401592254,0.9837818145751952,0.0,0.0,0.0,-0.0768247171928891,0.0035729271742557,0.7211292034864509,45.347706477,0.6997650650442342,-0.1553226293114079,0.1125242523829678,9.631117945171884,-0.302315886530565,1.0553323893536284,-0.0871058745436575,0.250341079344631,0.2346992357748785,-0.0099180990604015,0.0311373135416879,-0.0368010688772759,4.288752029277576,15.843655166807087,84.96389417118894,-0.000342380022579
9264,1724813248055425806,-0.1713774502277374,-0.2293119430541992,0.1428631842136383,-0.05543939396739,0.1188110187649726,0.1218667030334472,0.983849048614502,0.0,0.0,0.0,-0.0514192464025528,0.1953002935453454,1.3047402078928287,45.358568195,0.3657354051801397,-0.0518591686230294,0.1187059701578448,-43.69464916576324,-2.861052001748922,-2.931018784562905,-0.0827929572774423,0.2498892470987558,0.2360745408730889,-0.0104576093489967,0.0351132578128456,-0.0252101757220923,4.290168896276607,16.081143062767964,16.75843961160068,-0.000284957251208
9266,1724813248064734883,-0.1715071201324463,-0.2289461195468902,0.1426669508218765,-0.055964358150959,0.1179334968328476,0.1222829446196556,0.9838733077049256,0.0,0.0,0.0,0.004085497616959,0.3324707017977093,1.1657646477246626,45.367877272,-0.1442753980672442,-0.1773176636798479,0.0634953819033146,-34.080668443590035,-11.298857650690458,-6.271392957207259,-0.0839512363297778,0.2482935634265576,0.2368241898829004,-0.0109502247944019,0.035569008119598,-0.0111685246970525,-4.732351243902997,27.44257750060604,-55.863193687629504,-0.0001670253636064
9268,1724813248075984953,-0.1715898066759109,-0.2285966575145721,0.1426760554313659,-0.0571453683078289,0.1162393018603324,0.1224678084254264,0.9839839935302734,0.0,0.0,0.0,-0.1945576122220312,0.8139692355122361,-0.0192315864275918,45.379127342,-0.2461749470630148,-0.2748169855950799,-0.0116883924112024,-21.997971420610593,7.976123030761006,-2.4218505599081954,-0.0866873573856052,0.2452018694529172,0.2369607503198793,-0.0101292595319684,0.0431639055216841,-0.0027117477096592,-0.4580811710733505,1.5966996427344888,-73.59387965978576,4.029166337699793e-05
9270,1724813248085112651,-0.1717028468847274,-0.228113055229187,0.1426252275705337,-0.0595399290323257,0.1155812740325927,0.122765876352787,0.9838824272155762,0.0,0.0,0.0,-0.0713680473558777,0.5234062508562483,-0.4559281137635743,45.38825504,-0.5427979546719511,-0.0787623450511752,-0.0022377243358117,-17.658011808092134,12.00333319575785,2.2070521747359084,-0.0916309561284559,0.2444840106599226,0.2370057844396625,-0.0138863886750151,0.0516220139504568,-0.0085966568663256,32.27288235327888,-33.0685266025176,3.977111039639981,-2.783228620442263e-06
9272,1724813248094742347,-0.1718518286943435,-0.2276297658681869,0.1425116807222366,-0.0621500983834266,0.1149758696556091,0.1232417300343513,0.9837324023246764,0.0,0.0,0.0,0.4301676305146735,0.1924153883397323,0.1088265198621428,45.397884736,-0.5620852416560841,-0.0594409681177143,0.0309188534592137,15.62690844585916,3.9914409443601646,2.388130903096814,-0.0969563730037632,0.2439421693011107,0.2373667883479822,-0.0111169342437573,0.0525656629691013,-0.0110690011487539,22.571481699267405,-19.31831150325278,49.32967594869052,-6.829471560844844e-05
9274,1724813248104470562,-0.1719171851873397,-0.2270950227975845,0.1424110978841781,-0.0632579997181892,0.1148417890071868,0.1235839053988456,0.9836344718933104,0.0,0.0,0.0,0.3597242106143921,0.1524253961791397,0.4971460667723418,45.407612951,-0.2368021407241787,-0.00110326452075,0.0437825570605225,19.152343133144644,-1.5577906372655803,5.436170484151766,-0.0991542555858468,0.2439731651437182,0.2378046657116642,-0.0055310060815507,0.0553654737541382,-0.0064176034897478,-18.45638260538194,-6.532302128388578,-4.23405912376524,-2.9143378230731947e-05
9276,1724813248114597555,-0.1719606816768646,-0.2265301495790481,0.1423874497413635,-0.0640783011913299,0.1142854690551757,0.124435469508171,0.9835388660430908,0.0,0.0,0.0,0.0545842035326399,0.0607442407328653,-0.011176134703106,45.417739944,-0.1934378703060979,-0.0965198885501255,0.1422034322015312,-14.273174454888949,-10.232492627778653,-3.1317144969218536,-0.1007329119416435,0.2431443040344056,0.2393816722145642,-0.0041490965579153,0.0554819166111659,-0.0011825892261878,-13.985578203199124,-2.336779193674185,-52.25345296832562,5.534595965200858e-05
9278,1724813248125000894,-0.1720022857189178,-0.2259561270475387,0.1423874646425247,-0.0667213350534439,0.1128432974219322,0.1246848106384277,0.9834979772567748,0.0,0.0,0.0,0.0816410422189004,0.1082132740007009,-0.5767880063636418,45.428143283,-0.5402303979409303,-0.2116337947196439,-0.0277117885155027,5.10190474892666,-2.3311282226665826,-4.352148186521353,-0.1063677131747505,0.2409245585938684,0.2393206839707742,-0.004456242676607,0.0566401624011216,-0.0069429194507542,-8.572763882385793,22.0848640460532,-1.3695788490475027,8.295995493414213e-05
9280,1724813248135125281,-0.1720519065856933,-0.2253682613372802,0.1422487497329712,-0.0671476945281028,0.1120468229055404,0.1250282675027847,0.9835165143013,0.0,0.0,0.0,-0.1152449525701112,0.5044517452691104,-0.0684622570310101,45.43826767,-0.1098638256130001,-0.1491800357291113,0.0462693082368773,30.753838420004172,-5.3463695819851775,0.7202879350302922,-0.1073265057625937,0.2394728177006137,0.2399661048323392,-0.0025343794404584,0.0577050067963131,-0.0130100272571196,-32.5979895300707,45.57975897539739,45.90713159627616,-4.99671324096988e-05
9282,1724813248145111424,-0.1720539033412933,-0.2247955501079559,0.1421256363391876,-0.0665566325187683,0.1105419546365737,0.1250323951244354,0.983726441860199,0.0,0.0,0.0,-0.5703104577116838,1.02307720961223,0.3476097750312544,45.448253813,0.0814732653785701,-0.3159900934091159,-0.0114176433234562,-36.05087172702262,-9.093277062315954,-2.3018220144798867,-0.1064587565535343,0.2363231439382202,0.2401958726084595,-0.0066901074000345,0.0666753131532935,-0.0084654880878307,-19.98032272726342,26.165028518111953,-54.972029438405215,-2.8588825496146257e-05
9284,1724813248154663429,-0.172177106142044,-0.2240734696388244,0.1420800685882568,-0.069963090121746,0.1085163429379463,0.1255346834659576,0.983651638031006,0.0,0.0,0.0,-0.5273591271317369,1.0375566026272391,-1.060430244637152,45.457805818,-0.7673346329763033,-0.3333105238038438,-0.0016556001277309,-20.094879787769365,-0.2848529885285114,6.833987363527282,-0.1137084784809003,0.2331568957392878,0.2405393515562897,-0.0135462448634537,0.0775880337727255,-0.0061270867279397,8.48623481616659,-26.96835029779709,-92.72734982385684,5.0873102139639925e-05
9286,1724813248164728313,-0.1723203212022781,-0.2232714146375656,0.1420040130615234,-0.0708799734711647,0.1068257391452789,0.1264156997203827,0.983658254146576,0.0,0.0,0.0,-0.3996346404493125,0.4640397773545555,-1.4138176467646302,45.467870702,-0.2402938769342794,-0.3199681397514576,0.1287656840033142,56.456114328431944,25.98112473254171,14.03405639771396,-0.115736394856777,0.2301059919108645,0.2422409515356822,-0.0168346943839692,0.0869184584585394,-0.030642632302662,11.010055581996662,-58.48216634477936,65.01474375220948,3.241680896748981e-05
9288,1724813248175289305,-0.1725269854068756,-0.2222733497619629,0.1414245665073394,-0.0687843263149261,0.1083837002515792,0.1276042312383651,0.983483076095581,0.0,0.0,0.0,-0.3019751464410798,-0.1702145220849562,0.382350528246842,45.478431694,0.401282188811314,0.2276394192030034,0.2889030485403661,-9.59775377377179,-4.913123608397843,-4.475148078653182,-0.1108479659780003,0.2328395878920272,0.2450763112553169,-0.0218631843914227,0.0866885550699212,-0.0342493461475434,27.265639831665005,-27.393945959307967,69.16848190309813,-0.000438138697387
9290,1724813248185252232,-0.1727663725614547,-0.2214831411838531,0.1412771195173263,-0.0702680349349975,0.1064394637942314,0.128210037946701,0.9835116863250732,0.0,0.0,0.0,0.1390209863105802,-0.1361535786689067,0.1230712860114033,45.488394621,-0.3555153527690735,-0.3548288655997588,0.0597428915096209,-40.29098409147221,-24.59988153643529,-14.626277965357191,-0.1141573606524731,0.2293935974873059,0.2460916063406927,-0.0232348307058156,0.083597521828004,-0.0236366197178279,14.814766921467182,72.12817311205558,-68.28002661370589,-5.766781353386006e-05
9292,1724813248195147275,-0.1729884892702102,-0.2206138521432876,0.1409563869237899,-0.0720649659633636,0.1048905476927757,0.1285014897584915,0.9835100769996644,0.0,0.0,0.0,-0.0037993462354544,1.2528078180627715,-0.967834775396748,45.498289664,-0.4036413619960866,-0.2654462324102035,-0.0026783251562795,1.4784813732520856,7.241959077968638,0.7328401901539903,-0.1180868944439439,0.2267816327727739,0.2463770165794501,-0.0191399482986271,0.083961264715457,-0.0316779221401732,-11.15288381238644,70.40662508494069,-0.2975078288377624,-0.0002053994141433
9294,1724813248208353652,-0.1731829643249511,-0.2195735871791839,0.1405510008335113,-0.0735716745257377,0.1034137532114982,0.1296370029449463,0.983405828475952,0.0,0.0,0.0,-0.0932645268292695,0.9494716745924396,0.96620073631681,45.511496041,-0.272330649270446,-0.2013760463571677,0.1311063771233094,32.99138553813824,-24.29696118731689,6.579824522013208,-0.1212160696927802,0.2243478452032708,0.2484664259099175,-0.0265512196292689,0.1219401730736713,-0.0471946037566723,63.29678312305313,-238.43773805228707,182.6067882018306,-0.0002497523608936
9296,1724813248214588762,-0.1733833253383636,-0.2186861932277679,0.1402081698179245,-0.073338434100151,0.10210632532835,0.1302327811717987,0.983481228351593,0.0,0.0,0.0,0.5076716229896729,-1.17150549285354,2.211220140530955,45.517731151,0.0012235852164968,-0.438676647650514,0.1616804758828718,28.989515097157263,-20.33484850631443,-6.44352852956323,-0.1209065473615561,0.2217544452591595,0.2498313132926451,-0.0257552705346206,0.1221895549867166,-0.0348672044732367,61.151726146203245,-210.223086138283,90.4142464675394,-0.0002167972171093
9298,1724813248225279943,-0.1735417395830154,-0.2177489101886749,0.1402041763067245,-0.0729692354798317,0.1003465950489044,0.1297357082366943,0.9837554097175598,0.0,0.0,0.0,0.5156659828082818,-1.036925409457364,1.1748290718208676,45.528422332,0.0383096436354567,-0.3311672603773348,-0.1152216301133215,11.68688602580705,8.366025389906126,-4.669973359378464,-0.1206749490683716,0.2180912089540525,0.249015379763059,-0.0133612563781504,0.0874556583043641,-0.0069346771428175,-24.358936504748296,91.67773876858848,-133.83316651940078,0.0001268202980911
9300,1724813248235577157,-0.1736648827791214,-0.2168504744768142,0.1400676965713501,-0.071553461253643,0.0991986840963363,0.1299490630626678,0.9839476943016052,0.0,0.0,0.0,0.0158345677405661,0.6914937615426693,-0.5691885720782567,45.538719546,0.2401565981431143,-0.2617802297255754,0.0472455415406014,-14.883122337043766,-3.5902731236131658,17.3953935806182,-0.1180249393784378,0.2154727228247152,0.2498386657507283,-0.0144344917525192,0.0987154267063594,-0.0090973781011953,-4.682960702705955,10.621460071265291,-120.2875744345968,-4.473693697533101e-06
9302,1724813248244648576,-0.1738156080245971,-0.215863361954689,0.1400183886289596,-0.0719937533140182,0.0974867045879364,0.1311205625534057,0.9839311838150024,0.0,0.0,0.0,0.3238425518491826,-0.4686780588857333,-1.2681398571998574,45.547790965,-0.1704445756698394,-0.3768913714904891,0.2179736803302379,-11.188450656679388,11.654330557732711,10.064763849982825,-0.1190567765734794,0.2123115826395794,0.2522616288155907,-0.0133313819909792,0.1017757881211789,-0.0171309755677153,24.35693637003095,-100.07589721825944,7.758814724371456,9.115439664263652e-05
9304,1724813248255878293,-0.1739196628332138,-0.2148183137178421,0.139663428068161,-0.070965938270092,0.0982123985886573,0.1321420222520828,0.983797013759613,0.0,0.0,0.0,0.4639548107506721,-1.2058006843617823,-0.002041210933418,45.559020682,0.1776027895922096,0.0923988288295315,0.2092808287343557,7.924097930988145,-5.3424514041465585,-2.7269416233162875,-0.1165840325191842,0.2136182562897011,0.2545246520735362,-0.0068832808401033,0.0853074670393319,-0.0366897925350908,-2.4512811031905564,33.37015009555233,149.23348976383016,-0.0001896462414658
9306,1724813248265283694,-0.1739656329154968,-0.2140770405530929,0.1392783224582672,-0.0703578665852546,0.0967894196510315,0.1329975575208664,0.9838665127754213,0.0,0.0,0.0,0.3233033415571558,-0.1119904294515889,1.6889930180013322,45.568426083,0.0704045867467514,-0.3291329693870584,0.1682493804010749,-18.36528929111009,-22.125171890644232,-7.162258627054933,-0.115506066215874,0.2107267067303705,0.2564992093228007,-0.0033880494480298,0.0760200333688345,-0.0230048973441636,-10.158190352966132,96.63361486272032,55.283991404358304,-0.000260261953442
9308,1724813248277048130,-0.1739834249019622,-0.2132238149642944,0.1392716765403747,-0.0715697929263114,0.0951341316103935,0.1334919482469558,0.9838736057281494,0.0,0.0,0.0,0.2743739084238542,0.7355148659505542,0.5071943311909386,45.580190519,-0.2481845718318986,-0.2554937658636532,0.0427911634528972,-5.629302647212601,-1.9375221935491032,-0.8442511779863979,-0.1182452066520026,0.207800179134461,0.2573686612916866,-0.0002955493709464,0.0875851645730012,0.0003083394930261,-16.0985176955927,-60.820990452362906,-132.8777849977149,0.0001323839256154
9310,1724813248285710211,-0.1739782243967056,-0.2123690992593765,0.1392799168825149,-0.0720239803194999,0.0936888307332992,0.1340764015913009,0.9838995933532716,0.0,0.0,0.0,0.0587795746078478,-0.6386845968513652,-0.8505897916590165,45.5888526,-0.1601325479480219,-0.3245558521793303,0.0981081735078191,15.958240505675564,5.890223841613395,2.7452681874643496,-0.1193857436551999,0.2051093685215995,0.2585712298528713,0.0021544790254495,0.0923774598382909,-0.0047022703739356,-24.83144524450973,-114.64697522710664,-98.93709587954822,0.0001514792462922
9312,1724813248294741933,-0.1739441305398941,-0.2115940600633621,0.1391842067241668,-0.0717299282550811,0.0931153520941734,0.1344995945692062,0.9839178323745728,0.0,0.0,0.0,-0.164945003660899,-1.2598048459798683,-1.1997269254870846,45.597884322,0.0385514403387777,-0.1408058569123643,0.0886163582977036,14.700324792841169,7.122576581425131,0.2411779793007866,-0.1188413907745001,0.2039417995259639,0.259537210464708,0.0005753027470163,0.0753844280242734,-0.0149473069216474,-5.362942084993431,37.005194902077605,-10.844011609601544,4.133582903788073e-05
9314,1724813248304965067,-0.1739752739667892,-0.2109440714120865,0.1389810591936111,-0.0710024759173393,0.092114433646202,0.1350640952587127,0.9839874505996704,0.0,0.0,0.0,0.004813075050636,0.342515294014563,-0.9887456166599122,45.608107456,0.1043829087417642,-0.2209963546808224,0.1060339899371957,18.891824065002407,3.830238898888409,1.78630209455376,-0.117498029552472,0.2018260649515038,0.2609081098273008,-0.0009963604077176,0.0696991541759679,-0.0279689235414268,9.982254128948464,96.32739271825557,57.05631642230906,-9.570303570789094e-05
9316,1724813248316052762,-0.1739616692066192,-0.2100976854562759,0.1385735720396042,-0.0683799535036087,0.0923030972480773,0.1355337649583816,0.9840909242630004,0.0,0.0,0.0,0.0358488305824992,0.6841434036469236,0.081825576732806,45.619195151,0.4635939842547175,-0.038140502586112,0.1268327210288899,11.443653945237914,-11.217880431269874,14.008620787033824,-0.1120622695751495,0.2015670153911491,0.262383479304051,0.0009636162944417,0.0843032640533554,-0.0355046678864141,-0.8412997583259915,-59.09853308846483,83.06683795945165,-0.0002594265644271
9318,1724813248325168108,-0.1739548593759536,-0.2092695236206054,0.1382592767477035,-0.0661764591932296,0.091103121638298,0.1370181888341903,0.9841477870941162,0.0,0.0,0.0,0.0008993519668626,-0.528332278603711,0.7379310804079173,45.628310497,0.4108835576047115,-0.3480474439276982,0.3454474034379805,-13.63217430016684,-8.12778165678672,3.0712172489527454,-0.1076113552946321,0.1987587070106293,0.2659319725770691,0.0002343452796988,0.0857958430313594,-0.0290524201488375,1.133284836561529,-103.54806234515932,26.117866770723527,-0.0001766800855538
9320,1724813248334943860,-0.1739579439163208,-0.2084838300943374,0.1380321681499481,-0.0650625750422477,0.0905326306819915,0.1377331465482711,0.984174907207489,0.0,0.0,0.0,0.0640565278799072,-1.2316633295929993,0.51245373336222,45.638086249,0.1953238621791622,-0.1562752201822287,0.156230099775695,-16.11181692463533,12.970307397702005,-15.10420744863314,-0.1053645216705971,0.1974019826089851,0.2676464916042509,0.0010913361212638,0.0733752718566176,-0.0215231613104345,-1.2321261151507477,-34.344435865940355,-24.618743557063276,-0.0001017426595318
9322,1724813248345964053,-0.1739284396171569,-0.207762137055397,0.1378162056207656,-0.0644720792770385,0.0900972187519073,0.1379528194665908,0.984222948551178,0.0,0.0,0.0,-0.045088798891088,-1.143013441375914,0.2218477205886128,45.649106442,0.0915444196122217,-0.0959137704052767,0.0425963142801886,-7.883296922869886,-7.491959117706065,-0.8764649659601318,-0.1042404966176814,0.1963998974881096,0.268235281440934,0.0015039627783846,0.060285181915729,-0.0190777847495287,71.42564232617448,880.8525035759519,-566.8855987917123,-9.642320649293456e-05
9324,1724813248357569103,-0.1739253252744674,-0.20712611079216,0.137601152062416,-0.0640140622854232,0.0882178544998169,0.1389140486717224,0.9842879176139832,0.0,0.0,0.0,1.777736013762806,19.74586581717526,-12.96249613054195,45.660711492,0.0188042014805336,-0.3413555544062865,0.1477289133869329,-6.1913588639007955,-10.133367628729829,5.384002459908215,-0.1036053855206945,0.1926376736902683,0.2703920690572369,-2.7908965163803146e-05,0.0475681257951579,-0.016503865032992,-170.50157768509436,-1814.9636499322296,1265.1011849817835,-0.0001137198967464
9326,1724813248379446876,-0.1739381551742553,-0.2063839435577392,0.1373236924409866,-0.0649607256054878,0.0869546085596084,0.1403261572122573,0.984138011932373,0.0,0.0,0.0,-15.462841785556805,-169.0557696005294,113.74933860973395,45.682589265,-0.1134888028518068,-0.1087005818975774,0.1139391352704213,34092.044849543585,-6622.791956581549,13410.184818627213,-0.1055592640894581,0.190532768610274,0.2731702861541287,0.1176298816141638,1.3391551137317492,-0.8438652705676191,-1984.8730795941265,-21943.346691584913,14056.532042168605,-0.0001598782221051
9328,1724813248379986453,-0.1738731116056442,-0.2056439965963363,0.1368573009967804,-0.0596659108996391,0.0867934077978134,0.1419493705034256,0.9842546582221984,0.0,0.0,0.0,-16.549760759432093,-181.0730672626662,121.44390467201258,45.683128842,18.73556243486804,-3.770482595539579,7.528246005215384,30996.545030211277,-6035.188144167792,12198.763851462369,-0.094634717134251,0.1889143885368653,0.2774928688728963,0.109009144217,1.2449011201326252,-0.7804717349870707,-1772.1829281913624,-19606.03335167269,12486.36212366971,-0.000340891213529
9330,1724813248384797617,-0.1738435477018356,-0.2050789445638656,0.1367012560367584,-0.0618355385959148,0.0850831195712089,0.1423836946487426,0.9842073321342468,0.0,0.0,0.0,-14.68555224616276,-161.04650112768562,105.41485232728364,45.687940006,-1.0054783959237767,-0.5808110559237252,0.0597976644513783,-2718.5560954748366,456.5660060798671,-1040.2724588005378,-0.0993665508239684,0.1861610069719336,0.2780597810191994,0.0048079780216543,0.0995271998158999,-0.0264581284047702,742.6787563033665,8125.9007383032895,-5751.961118680481,-6.569405458055829e-05
9332,1724813248394623931,-0.173823133111,-0.2044605761766433,0.1365612000226974,-0.0612866468727588,0.0840207710862159,0.1429782211780548,0.9842467308044434,0.0,0.0,0.0,-0.2590965025749876,-1.65677423774394,0.3201910568527282,45.69776632,0.0693676636814016,-0.2368821980721507,0.1140892038331628,64.9569029032061,26.620279542123892,3.463760079046414,-0.0984330551382006,0.1839553917397089,0.2794285775338695,0.0004389908300206,0.0627544831651132,-0.0203077636199733,833.3141241751102,9192.21515608074,-6017.650718181181,-4.454924838968555e-05
9334,1724813248407218363,-0.1738440543413162,-0.2036730498075485,0.1362076997756958,-0.0601320266723632,0.083993375301361,0.1436735093593597,0.9842191338539124,0.0,0.0,0.0,-0.011638542418633,0.6576929519642443,0.038336610453608,45.710360752,0.1702981417965442,-0.0368961328703444,0.124438159032487,-4.229274863437366,-6.379133119332922,-0.2757909363185629,-0.0959899101358939,0.1836450471123697,0.2810610566383772,0.0001706200475872,0.0755531320647158,-0.0212101202871224,2.792220974549104,12.28182587323201,-49.19563021023834,-0.0002368299248614
9336,1724813248414725303,-0.1738345772027969,-0.2030476033687591,0.1360791623592376,-0.0596860870718956,0.0833838880062103,0.1441225707530975,0.9842324256896972,0.0,0.0,0.0,-0.0661000846597908,-0.0174327710075106,-0.4509625191266423,45.717867692,0.0837668055334239,-0.1843782321284183,0.1174570190341823,-0.204513856459501,-6.3303706775388715,4.255586711936718,-0.0951741883796126,0.1823513907534187,0.2820880054564415,0.0001265195383863,0.0788861770244651,-0.0204302036177477,-1.014786653755867,-85.1832476257972,-48.28175177419641,-3.592539738020386e-05
9338,1724813248425830280,-0.1738518327474594,-0.2022443413734436,0.1357979476451873,-0.0580796711146831,0.0834842249751091,0.1453760266304016,0.9841356873512268,0.0,0.0,0.0,0.0251391904067481,-0.885355111021596,-0.7095407556720885,45.728972669,0.2674936722058731,-0.03593224137596,0.2499009274804045,49.500293388900815,-2.103459564693148,2.3074867291329344,-0.0916875061509837,0.1822130147776025,0.2849354542362816,-0.0015968760710478,0.0711124634959432,-0.0345530360360317,7.752318476408204,-47.214627456903415,49.84675954223209,-0.0001666177260142
9340,1724813248434485430,-0.1738659441471099,-0.2016370892524719,0.1354366242885589,-0.0539946965873241,0.0834376737475395,0.145955890417099,0.984286367893219,0.0,0.0,0.0,0.08910830445652,-1.0852803412324858,0.2152197598464194,45.737627819,0.9182379922466064,-0.1585016634732353,0.2049846762399339,23.340249356176148,-3.2261899614198675,-5.346406973020489,-0.0833934182032096,0.1810015150227577,0.2868543140665818,-0.0001628247076768,0.0621993587346558,-0.0369016360796257,-3.1283777590076447,-7.598477463907287,81.34004784098036,-0.0002769441614825
9342,1724813248444791430,-0.1738496124744415,-0.2010937631130218,0.135115772485733,-0.0512371957302093,0.0835795924067497,0.1464971005916595,0.9843412637710572,0.0,0.0,0.0,-0.0722221273627354,-0.9733721854529112,0.7405190512057559,45.747933819,0.5225482506648353,-0.057556327348369,0.1479595831696096,-38.715551273236365,1.3188902248348002,-3.234848556031519,-0.0777215082150254,0.1805329469427405,0.2884479036952417,-0.000184235184566,0.0503336643153335,-0.0287124945091603,-40.178478411405784,321.4432043053717,14.343639707005966,-0.0002441321157711
9344,1724813248455856191,-0.1738726645708084,-0.2005651742219925,0.1348268240690231,-0.0505642145872116,0.0829100087285041,0.147255465388298,0.9843196272850036,0.0,0.0,0.0,-0.8081227406318026,6.272874623116142,0.464126533405761,45.75899858,0.0903514550123151,-0.1436518596437911,0.1394696811700076,-32.27962488399399,-5.840139128093795,-1.2932196318140292,-0.076419896910144,0.1790670428956354,0.2901361714860202,-0.0018166310316983,0.0416776637998674,-0.0211612696229112,-326.98845360535364,1710.4872885337395,-3591.527566599262,-0.0002213934600754
9346,1724813248500593364,-0.1739056855440139,-0.1998030394315719,0.1347760409116745,-0.0532119572162628,0.0812898129224777,0.147253930568695,0.9843153953552246,0.0,0.0,0.0,-62.55276327845189,273.7329072223947,-805.3345379317345,45.803735753,-0.1271825762217724,-0.0538463833002843,-0.0135160919160078,-39031.15972284713,-16941.165872828467,3723.349268073376,-0.0821837366244678,0.1766177682543677,0.2897176179664468,-0.157458816796975,1.598462132862721,-0.0398896044914636,271947.67324768315,83789.73870458151,-768023.0906112872,4.349181018783973e-05
9348,1724813248501058602,-0.1739796996116638,-0.1990517228841781,0.1347572952508926,-0.0571340732276439,0.0788418054580688,0.1480985581874847,0.9841679334640504,0.0,0.0,0.0,65.29003700018862,313.09154240985254,-1166.2767523518742,45.804200991,-18.47477742788173,-8.017494596281384,1.7367582455062087,21054.706731720995,-6028.749853960835,5568.338140081695,-0.0905799551926813,0.1729713358149483,0.2908618463918092,-0.1868465484798207,1.7269690905168318,-0.4184561605174508,321241.4377803692,-404621.5712409855,18774.8445004276,7.341389644476625e-05
9350,1724813248501439435,-0.174059510231018,-0.1983591020107269,0.1344800442457199,-0.0552997887134552,0.0778416693210601,0.1488750576972961,0.9842351675033568,0.0,0.0,0.0,202.11016291471657,6.488193223398866,-911.418005270872,45.804581824,8.40129931524349,-6.856665467001145,4.420442058092273,66843.08719807972,10738.967089067772,3427.894137612969,-0.0870494329159774,0.1705197007675348,0.2927987707813804,-0.1219365898648447,1.8576997800289232,-0.9725238702183958,197302.34889224745,-857584.8974868548,1115765.863648815,-0.0001916615114135
9352,1724813248501854528,-0.1740704774856567,-0.197570338845253,0.1339657306671142,-0.0482244119048118,0.0791734382510185,0.149161234498024,0.9844577312469482,0.0,0.0,0.0,210.73121823285285,-373.2415974381823,-246.2356559385644,45.804996917,34.46038889070788,1.0806081301944133,4.20598161639327,54496.98276133266,16914.952454410537,-606.2478172980399,-0.0724510146952076,0.1711059292615666,0.2945285598073761,-0.0237143133056214,1.708018539922613,-1.1049641908622831,11334.97131567865,-810939.3831011544,1438693.0371969878,-0.000413502523281
9354,1724813248505121776,-0.1740783452987671,-0.1969323456287384,0.1338033527135849,-0.0488923713564872,0.0784026458859443,0.1491270959377288,0.9844916462898254,0.0,0.0,0.0,5.152003907548199,-351.63933359334675,241.9814709408599,45.808264165,-0.4702500617549687,-0.4041430005535856,-0.0787956311780892,-7893.672289220804,-331.1940555974589,-972.3181683663062,-0.0740150008353904,0.1697701972898452,0.2943660651427313,-0.0011667042696723,0.1633625743804883,-0.0366136671090382,-46625.37991534968,14687.707045220526,103534.46192867916,-8.436794098313335e-05
9356,1724813248514355447,-0.1740567237138748,-0.1962565332651138,0.1338067352771759,-0.0504161827266216,0.0769912376999855,0.1483682096004486,0.9846407771110536,0.0,0.0,0.0,-0.1223991985460353,-5.271517529210058,0.3765001510808532,45.817497836,-0.3560596239807936,-0.2462436668024534,-0.2074656206037851,28.4181710941807,17.02317456797572,13.029531089266856,-0.0775985012956051,0.1673578936026523,0.2926030793248654,0.0007615244714083,0.0774067863215588,-0.0205268004750243,-331.0920815513992,21381.83633817582,-14803.51702226592,8.881681363888912e-05
9358,1724813248526335827,-0.1740721613168716,-0.1952636241912841,0.1332360506057739,-0.0488281138241291,0.0770533606410026,0.1504421532154083,0.984401285648346,0.0,0.0,0.0,-0.3565170323339826,0.1709440931853221,-0.3606914738439049,45.829478216,0.233906559993791,-0.043499744580657,0.3677716005931484,-11.762082064428505,-2.6184273698614664,3.2913768378934205,-0.0740477553099388,0.1671720255385914,0.2970987180069085,-0.005853473284052,0.07701044269891,-0.0372447608225323,27.055886562164115,195.9282754059449,-31.17675781548455,-0.0004448310043408
9360,1724813248536310088,-0.1741684526205063,-0.1945442259311676,0.1329508423805236,-0.0505574829876422,0.0756292268633842,0.150791510939598,0.9843708872795104,0.0,0.0,0.0,0.3002955229456482,-0.0201963908110975,-0.4195743018330744,45.839452477,-0.3900131471639241,-0.2318899181010845,0.0292131751662385,-3.2014615148552963,-1.5215372918128862,-9.7306320398663,-0.0778597431842291,0.1648878435752152,0.2975712107158811,-0.0077848964298734,0.0804097361457891,-0.0322497294509478,47.288912278199795,-63.279050240291255,22.787499014895605,-0.0002053431806208
9362,1724813248545065069,-0.174222245812416,-0.1937765777111053,0.1326404064893722,-0.0502766333520412,0.0752015560865402,0.1513641774654388,0.9843302369117736,0.0,0.0,0.0,0.5716659969111576,-0.9132211801641276,0.0004127743484383,45.848207458,0.0380596086932837,-0.1117568673693189,0.1300892530342459,80.00334583226078,-1.7917137788070114,3.385701566824445,-0.0773255321857329,0.1640006718856654,0.2987991746688275,-0.0013600387303025,0.0774587001629107,-0.0429958794835707,-13.404612215618185,14.10577411222656,40.65189362942637,-0.0002190444317203
9364,1724813248554963996,-0.1741821616888046,-0.193124234676361,0.132130429148674,-0.0442816205322742,0.0746241062879562,0.1513517200946808,0.9846639633178712,0.0,0.0,0.0,-0.0579735741584251,0.5259279525544431,0.3209025415465047,45.858106385,1.178184792999092,-0.3031241490692791,0.0725383006330978,23.09042720801828,-6.63345561367011,-10.115638360496764,-0.0655101295205643,0.1610589438833595,0.2997419165609201,0.0024836031102113,0.061970301395684,-0.0292493249139145,-54.513892235245905,123.85039251911488,-14.35104768274326,-0.0004253206743735
9366,1724813248567631591,-0.1741760820150375,-0.1924029290676117,0.1321209073066711,-0.0443047955632209,0.0734369903802871,0.1506311744451522,0.9848626255989076,0.0,0.0,0.0,-0.6011307884407622,1.7457351805266388,-0.6183696160539651,45.87077398,-0.0220917213600148,-0.1813005136196184,-0.1253371370165629,-8.2561992958669,17.690912012855243,40.8633551093939,-0.0660210864833284,0.1586629183433555,0.2982900373479978,-0.0054849812349697,0.1025222245574539,-0.0424938041720555,5.694829823577571,-178.3695983293013,93.4420782169734,7.032163999814272e-05
9368,1724813248575075428,-0.1742430031299591,-0.1914403885602951,0.1316220015287399,-0.0430996716022491,0.0736199617385864,0.1521138995885849,0.9846745133399964,0.0,0.0,0.0,-0.3462730444525957,-0.7834529167370183,0.8102704129757907,45.878217817,0.2948000048085161,-0.0142950527953031,0.4259156490511473,-14.173566921444994,10.954464732757195,22.327005510814196,-0.063319140623987,0.1587616159403081,0.3015010827451784,-0.00983756473018,0.1091505408783515,-0.0452283135360653,41.91941733241188,-247.726521596604,118.47728276133682,-0.0003972121488127
9370,1724813248585350412,-0.1743561029434204,-0.1906047463417053,0.1314663887023925,-0.046395294368267,0.0727631747722625,0.1519790589809417,0.984609305858612,0.0,0.0,0.0,0.1934014582825678,-2.0234026549077684,0.9859550116651106,45.888492801,-0.6556367212841785,-0.0645712149812578,-0.0783273247441612,-6.445984582385473,-6.499454762823582,-17.13825069545664,-0.0701770254071534,0.1580459623154846,0.300732727235972,-0.0100135981194409,0.0773598465315856,-0.0202006793822242,31.55349344763578,7.937120955612819,-63.27780909540928,-7.30776495155212e-05
9372,1724813248595315388,-0.1744462847709655,-0.1898722052574157,0.1312162280082702,-0.0457156039774417,0.0721508786082267,0.1522640138864517,0.9846420884132384,0.0,0.0,0.0,0.3051737865980711,-0.7013454852388037,-0.4213872293566298,45.898457777,0.1117835149350514,-0.1448627947567238,0.0595356696975009,48.85964445356733,-9.852615162719928,3.4341050244380646,-0.0689532795816257,0.1566471236588268,0.3014335362478109,-0.0060516920221136,0.0675431845174436,-0.0243872674910416,-8.70891418869113,104.27945836833145,-63.841697633385735,-0.0001760247167472
9374,1724813248604866467,-0.1744766384363174,-0.1892817318439483,0.1309898644685745,-0.0440226532518863,0.0711823850870132,0.1521954387426376,0.9848002791404724,0.0,0.0,0.0,0.039589419092376,0.0347347495675731,-0.3227133179880341,45.908008856,0.3207309600399729,-0.2554001703822354,-0.0028763476645659,14.632050786056372,0.0703016092323061,-0.7049288105906202,-0.0658684925861379,0.1542114546330367,0.3015720897330087,-0.0039829024712627,0.0634423239338115,-0.028423476836159,-37.536961960206995,69.38882975648002,40.96209000197418,-0.0001630489388899
9376,1724813248615598767,-0.1745290905237198,-0.1885813176631927,0.1306278556585312,-0.0418433025479316,0.0709115415811538,0.1523892730474472,0.9848848581314088,0.0,0.0,0.0,-0.480611178563543,0.6868316399345313,0.4863008767235499,45.918741156,0.3903971821244108,-0.1142285682338736,0.0598611056631044,-6.1529789108579145,2.3380010888195137,2.9319694111985126,-0.0615672680556744,0.1530289171321482,0.30229986982453,-0.0056927276917679,0.0694119199254075,-0.0306824355754287,-28.41472086361936,15.19956475445627,48.15739808946833,-0.0002908911496739
9378,1724813248625376712,-0.1745919287204742,-0.1878656446933746,0.1303550004959106,-0.0406339839100837,0.0701824948191642,0.1526533812284469,0.9849468469619752,0.0,0.0,0.0,-0.5797822164033768,0.4295771301289703,0.7146588105341545,45.928519101,0.2175930030551047,-0.1877206686920908,0.06257319716717,-61.968470369638055,-2.182018822753964,-7.7320926612351375,-0.0593290245304421,0.1512337189381614,0.3030299277081286,-0.0132543624728267,0.0772912066475335,-0.019720151353531,28.25751135314272,-73.30876670950275,-33.64125509989891,-0.0002045534993962
9380,1724813248635020364,-0.1747846901416778,-0.187081292271614,0.1302426755428314,-0.0443528182804584,0.068824328482151,0.1525355726480484,0.9849005341529846,0.0,0.0,0.0,0.0579519876191794,-0.7244050703154152,-0.1518629140083509,45.938162753,-0.8013139928611115,-0.1580296821136351,-0.088172025688914,-31.23596860991521,-1.6227255371091065,-8.157158824624295,-0.0671706831665781,0.1496590485278063,0.3022690829562791,-0.0170046530320036,0.0778553540754956,-0.0166941991219138,-42.89774507026481,196.74462034021707,-170.05222516186618,-4.934898564778029e-05
9382,1724813248644697859,-0.1749202758073806,-0.186361625790596,0.1300321072340011,-0.0460373945534229,0.0674772039055824,0.1522586494684219,0.9849592447280884,0.0,0.0,0.0,-1.416008452201758,4.25236276309561,-2.5763830443185736,45.947840248,-0.3808757242307036,-0.2193923739583363,-0.0945256682719935,38.66931216946676,-0.2785813489437782,2.0650514919496423,-0.0709712606187372,0.1474777931754207,0.3014944625782904,-0.0121043657899706,0.0632417851441604,-0.0226858896170001,-38.06142397662466,168.3867884290662,-82.84785384946319,-0.0001438259140609
9384,1724813248661941362,-0.175070434808731,-0.1856128722429275,0.1296124309301376,-0.0447911880910396,0.0673475116491317,0.1524024009704589,0.9850034117698668,0.0,0.0,0.0,1.437875860044883,-3.4709804142194116,1.1470729186587434,45.965083751,0.1391885621227117,-0.0379372466236019,0.0247031465396099,191.5645357998884,-69.6624608840343,43.96048357347832,-0.0685014219669354,0.1468549122552563,0.3019701579749025,-0.0955855294498349,0.3136161911139368,-0.1272476245280813,627.9654483093921,-1942.4891357315528,800.1019992689919,-0.000350618087829
9386,1724813248664269900,-0.1753203272819519,-0.1847976446151733,0.1292837709188461,-0.0440109297633171,0.0672091245651245,0.1525233089923858,0.9850292801856996,0.0,0.0,0.0,3.04553449261977,-8.464102839024727,3.193828088589063,45.967412289,0.636006295509342,-0.2253626780430729,0.1387156579214709,170.48281372273203,-66.38008372605348,38.20226282760377,-0.0669676202004759,0.1463532000638915,0.3023317950907148,-0.0902629379580899,0.2998767764128338,-0.1223092065456294,564.5229099128667,-1771.973645370788,733.6499186485739,-0.0002667526733572
9388,1724813248674921131,-0.1754508316516876,-0.1840506494045257,0.1288986951112747,-0.0419009216129779,0.0662238672375679,0.1525623649358749,0.985181987285614,0.0,0.0,0.0,2.924786331279267,-9.196884353391066,3.9271222606023337,45.97806352,0.3628202162519823,-0.2449134640188757,0.0213364192897868,-25.538491886585444,13.480206992982998,-11.596396949977697,-0.0630452507448172,0.1437648480469191,0.3027322502892253,-0.0208096196709224,0.0848197541673236,-0.0360131364489371,-161.39422772086036,467.2536185187751,-174.00560845214676,-0.0003189403011754
9390,1724813248684542394,-0.1757254153490066,-0.183106929063797,0.128553420305252,-0.0413848459720611,0.0663760900497436,0.1520697176456451,0.9852697253227234,0.0,0.0,0.0,0.0678348585869577,-0.0425490371713053,0.1423717485312063,45.987684783,0.11806209041149,0.0178906814448255,-0.0952427883961631,-27.62866087716261,2.7674433653118875,-8.757371721540013,-0.0620433519425545,0.1438793684787632,0.3017972771465008,-0.0239210460852241,0.0918811683494134,-0.034512507218257,-165.4567732579299,490.9499659706419,-190.11929266859667,-0.0002774959316942
9392,1724813248694553934,-0.1759167909622192,-0.1822517067193985,0.1282222121953964,-0.042168416082859,0.06517094373703,0.1514437645673751,0.9854133129119872,0.0,0.0,0.0,-0.218881478491125,0.0750889168988475,0.3564163342561852,45.997696323,-0.1813514202964931,-0.2101300503262041,-0.1479199117036483,8.361619155891262,-3.67053924892026,3.3344781014820812,-0.0640523742207058,0.1416865038603255,0.3004380039368935,-0.0191662650576462,0.0833660142156524,-0.0332288094730479,-30.830818380827953,27.343350034124704,21.691640979647783,-0.0002613965836539
9394,1724813248706109879,-0.1761389523744583,-0.1813157796859741,0.1278362721204757,-0.0397443771362304,0.0655575990676879,0.1513124704360962,0.9855086207389832,0.0,0.0,0.0,-0.6044020333921818,0.5990573842298303,0.6112434472685595,46.009252268,0.4257224018351786,0.0022905770717113,0.005273266303791,-16.10101932320992,-13.8592093417957,3.268875999336381,-0.0591243053308789,0.1417166857208738,0.300497820359707,-0.0309501172801152,0.0965802442905499,-0.0260662878169775,35.04955480214035,-39.068965675904394,12.09852808242504,-0.0003155521839494
9396,1724813248714501306,-0.1764701157808303,-0.1804103404283523,0.1276622116565704,-0.0400826372206211,0.0641880556941032,0.1512827575206756,0.985589563846588,0.0,0.0,0.0,0.1065742584200751,-0.2431438226784457,0.652118389003875,46.017643695,-0.1276117350848563,-0.3104690886553757,-0.0281566420605231,-44.181741787529184,-18.851471896654157,-2.3371298012729653,-0.0602065207670741,0.1391019342359864,0.3004164789853423,-0.0334911638731361,0.0982896307345608,-0.0209892998118954,61.99118493077988,-68.18870562607262,-18.842253622395734,-0.0001208280514569
9398,1724813248725804273,-0.1767577230930328,-0.1794456988573074,0.1274212151765823,-0.0415326058864593,0.0625742524862289,0.1512804180383682,0.985633671283722,0.0,0.0,0.0,0.4611198473915838,-0.5240116006264213,0.0781170049998107,46.028946662,-0.2957270378856663,-0.2431095728593079,-0.0295028061336371,6.075555390458164,9.214491410477102,-13.34637589620664,-0.0635716933347487,0.1363387108514257,0.3002520476251936,-0.0260537309347821,0.0887382196956121,-0.0129013801648314,15.971722001998096,-39.12994279610256,-59.85730210074115,-0.0001729001135479
9400,1724813248735270607,-0.177009180188179,-0.1785787642002105,0.127365842461586,-0.0418531261384487,0.0618644729256629,0.1501109451055526,0.9858437776565552,0.0,0.0,0.0,0.4902538138322659,-1.0076497440985164,-0.5604525545121337,46.038412996,-0.0721263673087912,-0.130075737277285,-0.2607117370005075,16.111878887094548,1.1481686552061827,-6.077256683477547,-0.0645798631303853,0.1349518874119694,0.2978459156669328,-0.0232495659874061,0.0863228744324366,-0.0172156123405304,-31.258347022433835,93.74534224717314,-42.382251484424586,5.374853392507641e-06
9402,1724813248744634309,-0.1771961897611618,-0.177819162607193,0.1270993649959564,-0.0416993200778961,0.0608298107981681,0.1494694799184799,0.986012041568756,0.0,0.0,0.0,-0.1204662164906273,1.2116481797163328,-0.7250613382308968,46.047776698,0.0091931405717054,-0.2192862242588897,-0.1476833482761967,4.365531194476287,-2.6973735550802087,9.353104355739829,-0.0646617776291099,0.1328135181468378,0.2965872190411707,-0.0168618451995312,0.0699177623101645,-0.0234333457130064,-40.57691556229797,164.36377184096963,-15.066159177106028,-0.0002074042543065
9404,1724813248759267543,-0.1773718148469925,-0.1770522594451904,0.1268713772296905,-0.0418049655854702,0.0600394569337368,0.1489857286214828,0.9861292243003844,0.0,0.0,0.0,-0.1506460011820305,1.955512266471274,-0.8880532637956957,46.062409932,-0.0256933748985793,-0.1025697739240615,-0.0729686220996191,80.20170679222859,23.31896847608675,-12.572624917375622,-0.065166329498299,0.1312464891190431,0.2956105681993893,-0.036979751874739,0.1554213307849714,-0.0354391297530121,135.91375919031475,-528.6884742782523,58.35843282260355,-0.0001672046025138
9406,1724813248764205637,-0.1775960475206375,-0.1761131137609481,0.1266632825136184,-0.0406065434217453,0.0603021681308746,0.1485058069229126,0.9862356781959534,0.0,0.0,0.0,0.750431952382052,-1.6209152382799408,-0.4840644196712138,46.067348026,0.5079708395245301,0.0381487536705089,-0.1645127351117807,76.805099484389,15.43239747401836,-6.989247726168236,-0.0627665893798468,0.131382562281813,0.2947806764763967,-0.035683714294314,0.1585995573975482,-0.039937080112248,123.07983624244903,-542.6829179991595,75.64156718707355,-0.0001378202491535
9408,1724813248775078315,-0.177751213312149,-0.1751448214054107,0.1262818127870559,-0.0373205468058586,0.0602171421051025,0.1485265493392944,0.9863675832748412,0.0,0.0,0.0,0.6667569923814993,-3.1746578087518165,0.1906768973866823,46.078220704,0.5945629290380122,-0.1068074892414672,0.0359742739206241,-5.360110711370467,-4.666193807039088,4.661438753473707,-0.056241632979201,0.1302466000951412,0.2952441534965919,-0.015842671122634,0.0867643410732217,-0.0349827317406248,-53.908893224876806,80.93532920625938,9.865994499616978,-0.0003057432825135
9410,1724813248785461528,-0.1779312938451767,-0.1742666661739349,0.1259195953607559,-0.0352002494037151,0.0601655356585979,0.14814493060112,0.9865061044692992,0.0,0.0,0.0,-0.3512286017490669,-0.1147529276295209,-0.2244112195754701,46.088603917,0.4067868728998946,-0.0693277722618042,-0.052245515595427,-51.069320190416285,-3.7045758534613,-8.054422739068027,-0.0520835375790188,0.1294984549958235,0.2947371994520946,-0.0204030233302496,0.0878350347954395,-0.0356305025291474,-33.3780013317197,119.41873660792872,-39.218704698049095,-0.0003015534492331
9412,1724813248794468616,-0.1781389713287353,-0.1734500527381897,0.1255928426980972,-0.0365077778697013,0.0592286214232444,0.1477152109146118,0.9865795969963074,0.0,0.0,0.0,-0.1466290556784384,-0.4086499282782472,-0.5717339164070014,46.097611005,-0.3109201636393622,-0.1598437532316119,-0.1213391952124274,-7.884051651398746,-0.5924038752209564,0.0320108619401677,-0.0550153286050093,0.1280022647667064,0.2937143799742759,-0.022879185388505,0.0850991460020491,-0.0389177504537086,5.899791370352746,18.80703154845143,-22.12207237018148,-0.0002725056481864
9414,1724813248805308672,-0.1783846616744995,-0.1726001650094986,0.125136524438858,-0.0335907191038131,0.0594275519251823,0.1474400162696838,0.9867125153541564,0.0,0.0,0.0,-0.3020519714110665,0.466262624793444,-0.5970749966980073,46.108451061,0.5403012080456293,-0.0428888932954988,-0.0204979762581056,56.30695224090988,4.158744669485623,0.499643708621873,-0.0491838300124472,0.1275264300443649,0.2935151226340607,-0.0227950604315321,0.0793008088758817,-0.0478129279916705,-24.31559546089996,49.96504413370944,89.27215687616655,-0.0004072138762178
9416,1724813248815946946,-0.1786285191774368,-0.1717471629381179,0.124568186700344,-0.0288087949156761,0.0597630850970745,0.146601527929306,0.9869683384895324,0.0,0.0,0.0,-0.6648982506618604,0.676808284413374,1.309056570884218,46.119089335,0.9073423099835184,-0.0678699789880413,-0.1070881720383198,-18.971338043868556,9.380725281462224,4.449075118671383,-0.0396726180072152,0.1267545210683846,0.292400070838444,-0.0292428917978746,0.0947134160899239,-0.0518312849779905,-5.013408502169771,-37.30765734441766,116.6222798119149,-0.0005265879107994
9418,1724813248825668078,-0.1789689362049102,-0.1706973612308502,0.1240784749388694,-0.0276963915675878,0.0605580955743789,0.1467417180538177,0.9869308471679688,0.0,0.0,0.0,-0.4551886214293299,-0.1930780634375448,1.887081973570531,46.128810467,0.2479131773439925,0.1275102586526014,0.0479868906291435,-112.2179343974852,-21.731598240480277,-1.5534516815835948,-0.0372090165005423,0.1280110669597278,0.2928219709586195,-0.0362287858752914,0.0944352150745846,-0.0241219818742237,39.19010605545015,-50.74358010125233,-93.90701343631686,-0.0004472433859731
9420,1724813248835133985,-0.1793230324983596,-0.1699284017086029,0.1240921318531036,-0.0331252291798591,0.0575241521000862,0.1465520709753036,0.986973226070404,0.0,0.0,0.0,0.0781690148627844,-0.3163262494093564,-0.4154820976516831,46.138276374,-1.2234295082617068,-0.4637631218987432,-0.1280757688097206,-0.2272934677275007,-8.497668180357609,-6.186344021957731,-0.048919252098461,0.1235729969475231,0.291791580589913,-0.0381093218453258,0.0910916662886514,-0.0151384891477297,34.893634928725284,-18.90027328235894,-140.42518303306724,4.001242078400937e-05
9422,1724813248844492161,-0.1796861588954925,-0.1689847558736801,0.123797059059143,-0.0321425981819629,0.0574541129171848,0.1461737304925918,0.9870659708976746,0.0,0.0,0.0,0.2062477365912371,-0.5475986576801097,-0.778321693292764,46.14763455,0.2103833071441645,-0.0440119652373104,-0.0711247410366714,73.21726118797454,21.214612609662534,8.39031995788622,-0.0470304321589648,0.1231296973324287,0.2911416034280314,-0.0348166334499708,0.0884727595088161,-0.0316507224361721,-11.189388950170654,17.263311845537018,11.309389502034678,-0.0002545614687897
9424,1724813248854502770,-0.1799920052289962,-0.1682314872741699,0.1234789341688156,-0.0316415391862392,0.0571046769618988,0.1463479101657867,0.9870765805244446,0.0,0.0,0.0,-0.172146785932753,0.07472648446074,-0.1288048100111511,46.157645159,0.0866747685974375,-0.0847832848159856,0.0375465868512256,-4.732763449014523,-0.4666393822600105,2.6492614474843235,-0.0461115805387421,0.1222993716105708,0.2915596890321554,-0.0343111701747673,0.0801237936683811,-0.0288819852488311,-33.60555004371907,54.417363872185064,67.0772689222685,-0.0002874161870978
9426,1724813248864360153,-0.1803667098283767,-0.1673943400382995,0.1232223510742187,-0.0310520362108945,0.0569198690354824,0.146246463060379,0.987121045589447,0.0,0.0,0.0,-0.4627024256417564,0.5359216751231108,0.5537016128607501,46.167502542,0.1140339935211282,-0.0543798136180752,-0.0159936286373165,11.215403695800974,8.239727114058727,3.842291644022211,-0.0450038273628705,0.1217567137020999,0.2914256327551189,-0.0381691382454292,0.0896810713387976,-0.0340865350578099,5.529299483670084,-15.433710885012092,53.50774522789159,-0.000227871291224
9428,1724813248875118217,-0.1807791739702224,-0.1663737148046493,0.1227610483765602,-0.029313139617443,0.0577080771327018,0.1468408405780792,0.9870401620864868,0.0,0.0,0.0,0.0077801067067979,-0.3606485054584638,0.9446506712972752,46.178260606,0.3337832126571464,0.0947933700417234,0.1342257706808495,-29.13518862262776,-6.723607961240528,-16.252658288541294,-0.0412410431714351,0.1228377978935748,0.2928348367917719,-0.0439843373557327,0.0903552410262573,-0.0154296511220541,19.12360052664824,-10.179427258026328,-91.06267439433311,-0.0004245173773588
9430,1724813248885111014,-0.1812710911035537,-0.1655127257108688,0.1228616535663604,-0.0313404761254787,0.0565500706434249,0.1454624533653259,0.9872490167617798,0.0,0.0,0.0,-0.0295453649687549,0.216698614734244,-1.1478684040811111,46.188253403,-0.4173884328737512,-0.1635079469333484,-0.3086484057368718,0.2553394038334815,-16.70921699452314,-4.8340377818000295,-0.0457808819685105,0.1210712940500079,0.2898020636495194,-0.0388170729867827,0.082822158392938,-0.0133187344451135,-25.64348397513347,90.30582857262904,-149.4505524016933,0.0001167671004507
9432,1724813248895261857,-0.1815577745437622,-0.1647064387798309,0.1224853098392486,-0.0293311793357133,0.055628802627325,0.1456435918807983,0.9873363375663756,0.0,0.0,0.0,-0.5157527872713827,1.468803222514082,-2.046727187350138,46.198404246,0.3629569788428664,-0.2388793026617635,0.049430341888342,20.518279723074944,-0.8792527507970398,13.251292535344396,-0.0420233570196075,0.1186708125251125,0.290414123779828,-0.0447536448530705,0.0950295490009303,-0.0389849008352429,6.40698494582627,12.29752315879649,54.28329962024367,-0.0003426446113275
9434,1724813248904268262,-0.1820927858352661,-0.1637259125709533,0.1221189349889755,-0.0287723280489444,0.0548269748687744,0.1456127166748047,0.9874022603034972,0.0,0.0,0.0,-0.0240962021573321,0.6921414371570731,-0.4164484007541966,46.207410651,0.0974071786163368,-0.1944901185205856,-0.0072205864340031,45.53747234315387,11.516716461003968,13.848362802078958,-0.0411451460267879,0.1169179840565979,0.290422066762561,-0.0488466849158442,0.110385424565357,-0.0535688999324852,28.574851539737747,-85.11631052309839,150.34090968796073,-0.0003456403588268
9436,1724813248914724002,-0.1824753731489181,-0.1625533550977707,0.1214023754000663,-0.0210050661116838,0.0560429245233535,0.1471537500619888,0.9873013496398926,0.0,0.0,0.0,-0.0411006847008539,-0.1842410600739326,0.7831666151808396,46.217866391,1.4841754083885106,0.0058939556271157,0.3820207661940129,-43.43468985446978,2.1613869867386937,-7.845013889751507,-0.0251577677185574,0.1171119776815753,0.2944396367064193,-0.0438747556071312,0.1053279490016665,-0.0433226932076422,-5.13931923623953,-32.33629172348774,-4.8098063666591955,-0.0006834253020389
9438,1724813248925127836,-0.1830072402954101,-0.1615281105041504,0.1212126314640045,-0.0249996352940797,0.0546609461307525,0.1465453952550888,0.9873762130737304,0.0,0.0,0.0,-0.1309364268522221,0.0122889812565443,-0.5043997722231488,46.228270225,-0.7903894572099069,-0.1476437109531423,-0.1661967777720621,-33.24490428673127,1.4663111999435643,-12.800269488723568,-0.0335775550719047,0.1155257993683862,0.2927449322053629,-0.0496505292292752,0.106511223933964,-0.0372119991660291,15.28505216695686,4.3322185347706,-98.90560101879784,-0.0001748471391023
9440,1724813248934612554,-0.1834654361009597,-0.1604489982128143,0.1206956207752227,-0.0226608421653509,0.0550438463687896,0.1466838419437408,0.9873908758163452,0.0,0.0,0.0,0.2208687641618762,-0.0725007215634478,-1.2275905440608152,46.237754943,0.4972588337496004,0.0065504588413692,0.0573476662705724,70.75095867409298,-7.691614513796214,8.190567139754746,-0.0287983087665186,0.1156048700609969,0.2932903206708665,-0.0472242634463349,0.1057506022463714,-0.0514362328644315,1.2177579778488532,8.134432486972802,62.56213509609453,-0.0004943903186259
9442,1724813248944891205,-0.1839387565851211,-0.1594513952732086,0.1202011629939079,-0.0198743920773267,0.0536956340074539,0.1464300453662872,0.987562656402588,0.0,0.0,0.0,-0.1662166808395024,0.2012987639611347,0.961675641360326,46.248033594,0.500341349557671,-0.3392748734354412,-0.0297643257308063,23.077601034868874,-0.7590784506305626,8.497967714555472,-0.0236799644617921,0.1121107244544608,0.2930745096322751,-0.0453432189703626,0.1050910933261164,-0.0610231666627631,13.695791643944366,-41.12918010961409,225.63265350565905,-0.0004838113410717
9444,1724813248954771060,-0.1843800395727157,-0.15833680331707,0.1194755882024765,-0.0151836164295673,0.0542313121259212,0.1472319066524505,0.9874974489212036,0.0,0.0,0.0,0.4567897559216447,-0.8486017695680683,3.3109398328049866,46.257913449,0.9446539086414084,-0.0344721524338212,0.2153790810966092,-112.19264700867797,10.444385391307648,-10.656921865158427,-0.0141069587042257,0.1118104123505605,0.2952219390081535,-0.0503018103836616,0.1096008618249015,-0.0335319192117493,76.68593539079345,-70.33402502748831,39.97516629738391,-0.0007150406805811
9446,1724813248964314262,-0.1849120408296585,-0.1573204845190048,0.1195234581828117,-0.0225722305476665,0.0525288358330726,0.1466390937566757,0.9875364303588868,0.0,0.0,0.0,1.3142393436222573,-1.188584566053005,1.869031830147553,46.267456651,-1.5747661053238935,-0.1229072218737132,-0.2132794672242494,-89.79930377150293,-3.6898491022363222,-19.861283716641545,-0.0293597961051718,0.110593526672701,0.293200047550043,-0.0371054523841838,0.0894723885514476,0.0029357035446375,2.659230551302927,71.86126074575691,-172.65410032175726,5.685091402173267e-05
9448,1724813248976990762,-0.1850685179233551,-0.1564729511737823,0.1195256412029266,-0.0211378205567598,0.0522529892623424,0.1463064551353454,0.9876322150230408,0.0,0.0,0.0,-0.1202042119724238,1.5322881077918211,-0.6826807901736591,46.280133151,0.2202054863720145,-0.0757736252398931,-0.0431376355486169,70.60525821463665,-18.844729059649385,5.362011982833609,-0.0266258222216081,0.1096180690504764,0.2926771877624493,-0.0215999914002615,0.08990703687566,-0.0062451994917474,-66.22202666967856,31.213325641248275,-54.72316783978984,3.533202346002759e-05
9450,1724813248985164038,-0.1852938383817672,-0.1556166559457779,0.1194407790899276,-0.0192302744835615,0.0510948747396469,0.1460771858692169,0.9877656698226928,0.0,0.0,0.0,-0.4141141769699805,0.8207886283481614,-0.3575476076039667,46.288306427,0.4231633120387716,-0.3486985328486567,-0.0417859483237111,-11.458275351223312,-5.1053716613651146,16.128629630370455,-0.0231965564523222,0.106760425012931,0.292405135678589,-0.0296617257911044,0.1103249917506481,-0.0116058988291083,-76.56773710131958,321.28263015504035,-46.67896788276303,-6.0521005487029775e-05
9452,1724813248994244600,-0.1855843067169189,-0.154558777809143,0.1193230524659156,-0.0193066503852605,0.0505949556827545,0.1472892016172409,0.98760986328125,0.0,0.0,0.0,-1.5190672406962018,7.857724262082991,-1.6536659007966032,46.297386989,-0.046999790999561,-0.1096832079543614,0.2657173268531955,-42.88356447348087,22.327171074092956,27.43248124007939,-0.0233634998610142,0.1058208642027913,0.2948543212414225,-0.0276490492106837,0.1008561900586272,-0.0118428733743006,43.121465692764104,-1320.1229301888202,-1051.111189462634,-8.830357632747335e-05
9454,1724813249040321388,-0.1858438402414322,-0.1535690426826477,0.1190396547317504,-0.0179437324404716,0.0504600033164024,0.1478221565485,0.9875629544258118,0.0,0.0,0.0,38.9998288518002,-542.8042441708403,-262.4672372508637,46.343463777,0.0563530467801042,-0.014842163351629,0.0260266409855746,-1492.0351425253295,-5838.433199076886,196.1200215081741,-0.0206383935221176,0.1051635557091935,0.2960751510425206,-0.5046284159823813,2.543881246061005,-0.4685703909125323,397843.81349553546,-1003957.3808351592,142720.00609382807,-0.0002564192023152
9456,1724813249040722018,-0.1860477477312088,-0.1525411009788513,0.1188503205776214,-0.0179804936051368,0.0499745085835456,0.1478570252656936,0.987581729888916,0.0,0.0,0.0,199.77078619368325,-948.475255870821,-204.77245120946372,46.343864407,-0.54660617770595,-2.374238489183693,0.1052994925185236,7966.346506269809,-4892.1229845939015,846.4243731792943,-0.0208508746187055,0.1042134394475914,0.2961373862126382,-0.488832002408941,2.324342078352742,-0.5746023928129489,387505.2414973349,-836722.9228196206,317507.4206663669,-0.000155611257972
9458,1724813249041134813,-0.1862409710884094,-0.1516843289136886,0.1185697391629219,-0.0164717696607112,0.0493746250867843,0.1479506343603134,0.987624168395996,0.0,0.0,0.0,353.86567262321546,-1219.0719588173788,0.0865125346973627,46.344277202,6.770315582395262,-3.969589733846824,0.7305482698046224,6965.703094617161,-3711.0474773566457,1530.2220357707674,-0.0180215276210773,0.1025809764762839,0.2964725143831287,-0.3381695188618465,1.7624758936444351,-0.6336581582805962,186006.78704376967,-190398.83589787688,427143.1005823366,-0.0002565706289693
9460,1724813249041758066,-0.1863294839859008,-0.1508804559707641,0.118218146264553,-0.0158588979393243,0.0475396886467933,0.1484895199537277,0.987643301486969,0.0,0.0,0.0,293.5535284127227,-900.0518293358173,201.2529038782403,46.344900455,0.9868056650774956,-6.137871535721047,1.6988970584894922,-7960.120500769925,-2799.215860342971,1291.6714472485687,-0.0172927245465223,0.0987748074962992,0.2976044357332673,-0.1280816588507862,1.136360343303485,-0.4988989193156374,-93238.80772818012,466301.104002489,273379.88618786837,-0.0003211903839058
9462,1724813249045603788,-0.1864913552999496,-0.1501514464616775,0.1178473234176635,-0.0123989852145314,0.0465669929981231,0.1492097675800323,0.9876306653022766,0.0,0.0,0.0,18.77511277864636,-187.95462343175623,80.62295404677691,46.348746177,1.68409665210933,-0.7724212694995192,0.448436666609718,93.54899169145487,1029.545751417726,-246.02048594755988,-0.0106437698772899,0.0958286805951907,0.2993787589433984,-0.0320906848315649,0.15573504322687,-0.0800802262446613,-52496.42925166392,139691.05452171766,-24909.057308892752,-0.0003554058617091
9464,1724813249055909820,-0.1865458786487579,-0.1494807451963424,0.1174734309315681,-0.0110343359410762,0.0454218573868274,0.1496740132570266,0.9876298904418944,0.0,0.0,0.0,1.2317899372004135,-4.26015034438641,2.278686314879801,46.359052209,0.224194126074101,-0.260102072055155,0.0985768290298608,-80.9772408064476,22.74721064981624,-19.956762260254155,-0.0082345346081693,0.0931577591893131,0.3004245902283091,-0.009425634380678,0.0701399128987763,-0.0302965908866656,-827.6114806227686,8541.526533528373,-3728.7288949572094,-0.0003532325088238
9466,1724813249064987576,-0.1866645067930221,-0.148803561925888,0.1172462403774261,-0.0109607251361012,0.0441990420222282,0.1498239338397979,0.9876634478569032,0.0,0.0,0.0,0.7123343159954656,-0.9434862168872472,-0.6013440512426023,46.368129965,-0.0257250446869338,-0.269204226983535,0.0292790332142105,-0.2208026278650496,6.174085973521616,0.7126359205968722,-0.008441677657536,0.090716287312413,0.3007119521001389,-0.005979046710963,0.0638121268858862,-0.0300154634026661,-33.55020757286219,205.46646685525653,-178.52210010590306,-0.0002125854022514
9468,1724813249076122731,-0.1866342574357986,-0.148240327835083,0.1168438792228698,-0.008941801264882,0.0439325757324695,0.150576502084732,0.9875812530517578,0.0,0.0,0.0,0.6620893759177695,-0.8395693698573137,-0.6941832652576956,46.37926512,0.3448412839682432,-0.1024283708708489,0.1512170659233928,9.613814962054056,-8.446336222157608,9.68948591167834,-0.0044489391736517,0.0895866120755487,0.3024100047858681,0.0064966629367617,0.0499404320549157,-0.0453481872859358,-37.58906919140171,2.55864773801649,75.32791702626187,-0.0003808008484131
9470,1724813249084679922,-0.186553806066513,-0.1478171944618225,0.1163952350616455,-0.0075403889641165,0.0427269451320171,0.1514919996261596,0.9875058531761168,0.0,0.0,0.0,0.1229173735171157,-0.8622186607435918,0.5006013566264109,46.387822311,0.2714850005415302,-0.3287414357508239,0.2258378483004759,-11.894065781642553,-13.923509314033849,3.494000692936946,-0.0019541303874265,0.0867797119411095,0.3043591256741705,0.0091484768199547,0.0454271919445448,-0.0467984250447433,100.49953305220312,348.61699357052703,-230.08719599363417,-0.0004285707149313
9472,1724813249095215669,-0.1864607036113739,-0.1473907381296157,0.1159752160310745,-0.0067104874178767,0.0411887094378471,0.1524945646524429,0.9874228239059448,0.0,0.0,0.0,3.302738896511322,7.367237209292249,-6.719342952934918,46.398358058,0.1030851669850923,-0.3129825231147286,0.1948561149368953,-11.870065851617357,3.623519239121832,-4.31478899397648,-0.0006924800971142,0.0834849133920949,0.3064238843115206,0.0080180967812975,0.0320001507957026,-0.0328321235565853,-20.383724235093553,-61.762348650098545,51.42358274863733,-0.00040016487195
9474,1724813249116000155,-0.1863276213407516,-0.147073209285736,0.1155812293291091,-0.0061942306347191,0.0396881476044654,0.1529952138662338,0.9874102473258972,0.0,0.0,0.0,-10.331870833801474,-28.476093563146605,24.556390247901277,46.419142544,0.0250408614570623,-0.1504253647175173,0.048831110848825,13937.587358059178,-7126.713574427417,1981.0139837869824,-8.858621523917556e-05,0.0803588012999362,0.3074434795486434,0.2164844719724215,0.5394566009408095,-0.5023556433299063,-1999.570835205137,-5113.901086964041,4662.805865109054,-0.0003747966478634
9476,1724813249116486100,-0.186220034956932,-0.1468051075935363,0.115331619977951,-0.0043779835104942,0.0390618182718753,0.1531814932823181,0.9874160289764404,0.0,0.0,0.0,-11.31881724498807,-30.99967657797651,26.858137483833303,46.419628489,6.956336045773643,-3.6946750726183137,1.0340820259999444,13502.5544512909,-6902.215119524846,1919.715957487099,0.0033315954114486,0.0785625738546772,0.3079446338249635,0.2112324110951815,0.5250178627366554,-0.4898869343705828,-1925.6852246080969,-4915.997347299953,4490.57452453151,-0.0002351567444353
9478,1724813249125535657,-0.1860213428735733,-0.1465525925159454,0.1149043440818786,-0.0001552502071717,0.0387470871210098,0.1541108936071396,0.987293541431427,0.0,0.0,0.0,-10.9998468365032,-28.78056577062865,26.02711251200416,46.428678046,0.9027056787590648,-0.2114798524151128,0.2431140786745759,-376.0990688916652,201.29883041528163,-41.99453638290824,0.0116706568208588,0.0766323312795506,0.3101369155228495,0.0227046871371978,0.02759527401526,-0.0446932248940177,537.5691703968647,1508.4206892224138,-1291.8047718355986,-0.0004077074608977
9480,1724813249135241086,-0.1857931911945343,-0.1462879776954651,0.1144968271255493,0.0014694751007482,0.038162924349308,0.1555306911468505,0.9870924949645996,0.0,0.0,0.0,-0.5539192487485293,-0.9922226259804534,0.9992575354673372,46.438383475,0.3006586777110988,-0.1688866014293993,0.3081992714424961,-44.43551100642269,0.3244412277583031,-6.136593966845619,0.0148141619812673,0.0749537382232753,0.3131146711469862,0.0182961785359747,0.0208327546777526,-0.0332405329206739,554.4397443891008,1445.609827534312,-1329.9765896400943,-0.000386661191554
9482,1724813249145091127,-0.1856650710105896,-0.146147072315216,0.1142568588256836,0.0018389406614005,0.0371888019144535,0.1561020910739898,0.9870389103889464,0.0,0.0,0.0,-0.3095752596626004,-0.924034547804364,0.3826606274281321,46.448233516,0.0388756139228839,-0.2063194613204725,0.1193680230757711,-29.397065567913984,-3.6726902785205535,-9.532976196677826,0.0152818983233239,0.0729040276997662,0.3142629063696742,0.0118434889065035,0.0081058076357747,-0.0252049472265998,25.20642173670895,32.93338191277435,-62.31978227908582,-0.0002286991361775
9484,1724813249155967851,-0.1855502277612686,-0.1461333632469177,0.1139725893735885,0.0003837965195998,0.0356064960360527,0.1568684130907058,0.9869774580001832,0.0,0.0,0.0,-0.0306074556332224,-0.2534270635983946,-0.2918280046723804,46.45911024,-0.3147401248583456,-0.2447339594790769,0.1314324412655927,22.570169711209328,-1.6730923572062617,-3.33121560732045,0.0119584233044095,0.070222907091319,0.3156596828488933,0.0126261332739652,0.0024756046509413,-0.0262449439764118,4.015518102347784,29.728096586283502,-35.41493188655803,-0.00027532014564
9486,1724813249164352186,-0.1854310035705566,-0.1461047530174255,0.1137518361210823,0.0015109018422663,0.0347369723021984,0.1571429520845413,0.98696368932724,0.0,0.0,0.0,-0.1367532835043979,-0.2105245079281711,-0.4168591080600556,46.467494575,0.2304909454982815,-0.2467487109124148,0.074803704651371,23.458181757755565,2.202978261754885,-3.7584159877623513,0.0139325390724667,0.0681461372109443,0.3162614680989309,0.0117066356006532,0.0020584005285089,-0.0299598557604312,-10.51407724145014,-8.792999207246691,-2.1932624680369672,-0.0002117608677295
9488,1724813249176228702,-0.185334250330925,-0.1461030840873718,0.1133349388837814,0.000579826766625,0.0335067324340343,0.1576525419950485,0.9869258403778076,0.0,0.0,0.0,-0.2255222341967061,-0.5489657061024976,-0.2289292980207791,46.479371091,-0.1902755388719907,-0.1794811702017585,0.0805641109454824,-1.2514447629177463,9.195760502246245,-12.217108711074026,0.0117351556400332,0.0660024086134217,0.317192887708112,0.0096268298439667,-0.0031464769218949,-0.0344696082795472,-5.3030735298433775,-24.52362330572344,25.239943880596716,-0.0004095284444704
9490,1724813249185376723,-0.1852357536554336,-0.1461550295352935,0.1130240708589553,0.0007886501844041,0.033217117190361,0.1571014523506164,0.9870233535766602,0.0,0.0,0.0,-0.2587354218308051,-0.7453127584103698,0.0683169126239968,46.488519112,0.0390998928001857,-0.0704714594727755,-0.1207021490387792,28.35670015671337,-3.5510040082358447,-6.415216439890683,0.0120197088980372,0.0653708935100625,0.3160787169045582,0.0072085893091333,-0.0089485735808167,-0.0355013306012894,-0.36007296267843,-8.207146512882101,22.412081837339617,-0.000304159863853
9492,1724813249194542730,-0.1852023601531982,-0.1462670862674713,0.1126847118139267,0.0024485657922923,0.0323456041514873,0.1568856984376907,0.9870839715003968,0.0,0.0,0.0,-0.231998855958962,-0.6987942967051141,0.1811632107277574,46.497685119,0.3291680712168207,-0.2450712905047641,-0.0363631370450593,11.371325452133943,-15.758922226634423,6.679474808906998,0.0150134750940162,0.0631292881483752,0.3157143778908362,0.00488854409733,-0.0168001548655407,-0.0332119295732002,-8.012955646177378,26.02674430645985,7.649040650142707,-0.0003370824641511
9494,1724813249205518183,-0.1851323395967483,-0.1465115994215011,0.1123702898621559,0.003787687048316,0.0304766818881034,0.1568675637245178,0.987142026424408,0.0,0.0,0.0,-0.4635862597612487,-0.1377904961314615,0.2038418255763157,46.508660572,0.1875207119110357,-0.3747990008870218,0.0038052904383641,-9.116471078486995,0.0033850204924839,2.910958754271902,0.0170701209452398,0.059015547492402,0.315690063477812,0.0026197496043067,-0.022395869822029,-0.0321252291593241,-6.603758873760825,43.080847232263125,22.3323108833334,-0.0003100420000802
9496,1724813249214576932,-0.1851367205381393,-0.1467153578996658,0.1120532751083374,0.0045904084108769,0.0292905233800411,0.1569539755582809,0.9871608018875122,0.0,0.0,0.0,-0.4150193572469547,0.1924029904196759,0.5576688940061226,46.517719321,0.1332690718318793,-0.2863690716313726,0.0245757051802054,-1.8018361297045768,7.962634780020087,-1.3500324766017773,0.0182875851310323,0.0564178720913814,0.3158670951538683,-0.0035003266530191,-0.0208623577301381,-0.0294948879960301,20.894271760415613,7.825595327007741,-9.27154840578652,-0.0003167439072518
9498,1724813249225644119,-0.1852162480354309,-0.1469241976737976,0.1118012219667434,0.005705595947802,0.0282232817262411,0.1567041575908661,0.9872257709503174,0.0,0.0,0.0,0.026241191525512,-0.1080211050220083,-0.1984166614230347,46.528786508,0.1699403230908537,-0.22257182218717,-0.0396205749567881,2.594849355873408,5.061204009927333,-1.5100231833428694,0.0201415132506518,0.0539635079260683,0.3153806252791196,-0.0045701549890493,-0.0184204239755017,-0.0197088635555759,21.673316077060353,-12.71323426600686,-66.20223541143974,-0.0002557037079377
9500,1724813249237184750,-0.1852375119924545,-0.1471313685178756,0.1116106659173965,0.0069502089172601,0.0274129658937454,0.1566363126039505,0.987251341342926,0.0,0.0,0.0,0.0573672285290351,-0.0810574730287794,-0.936973172386404,46.540327139,0.1912379058381936,-0.1726265185728012,-0.0054130331588245,11.486466138040631,-10.641040707683748,17.554497921896335,0.0223429639564965,0.0519730596064796,0.3152756747895657,-0.0027882012584736,-0.0236223470887502,-0.0350277357641388,7.051542321333647,38.39163392173707,39.42084008775945,-0.0001903845763574
9502,1724813249244525959,-0.1852623969316482,-0.1473312675952911,0.111267052590847,0.0083155715838074,0.0264303926378488,0.1572899371385574,0.987163782119751,0.0,0.0,0.0,0.1294688734148845,0.3691570715993288,-0.1646314970575629,46.547668348,0.3205848628257672,-0.3206471994568174,0.1915936140745308,5.877914336769027,-11.314314131725894,13.881201419558703,0.0247651004682302,0.0495866596744686,0.31662819498279,-0.0028202202342297,-0.0224909941956221,-0.0400830709350583,13.647437370543468,40.87168189097352,89.95673599998268,-0.0003428295609306
9504,1724813249256854709,-0.1852853745222091,-0.1475104391574859,0.1109120771288871,0.0095119401812553,0.0248857010155916,0.1578260958194732,0.9871074557304382,0.0,0.0,0.0,0.3769399980892958,0.4495304506064591,0.6286831549497602,46.559997098,0.1499494763009501,-0.2769288323710233,0.0945110398107825,35.890738248379044,16.88892359133656,-7.224364617804159,0.0266653801589726,0.0461436306217955,0.3177064012639574,0.0015468976610133,-0.0134872455055354,-0.0312636179648109,-8.36573722981989,-16.44530230743359,30.046156467309693,-0.0003537122680035
9506,1724813249264402041,-0.1852579414844513,-0.1476074010133743,0.1106647029519081,0.0119917457923293,0.0249444581568241,0.1579215079545974,0.987063765525818,0.0,0.0,0.0,0.1824076556397784,0.2193100471504754,0.696973412869411,46.56754443,0.6506005561700421,-0.0878147694861187,0.042990103249814,25.043363315470824,13.29381589524912,-2.825577003836678,0.031589669604625,0.0454717009385123,0.3180117822267675,0.0044967510993991,-0.0113917460390418,-0.0269191927653889,-26.458075093962776,-20.626665866322,-6.737757991221757,-0.0002440088993696
9508,1724813249275344877,-0.1851950585842132,-0.1477089673280716,0.1104630604386329,0.0135690476745367,0.0244757793843746,0.1582840383052826,0.9869970083236694,0.0,0.0,0.0,-0.1179566563854601,0.1503020308683955,0.3727828436698192,46.578487266,0.2695170591910698,-0.1289781061601253,0.0755468122877034,-20.062367877191363,-0.7149966513879269,-1.0608636887172034,0.0345738636561656,0.044033743376232,0.3187921269105886,0.0031857152020435,-0.0099174551663736,-0.0173670017127509,-1.4070157415153697,-1.4667211968589484,-38.4154982389075,-0.00019608484741
9510,1724813249285002008,-0.1851861178874969,-0.147810161113739,0.1103043779730796,0.0146174132823944,0.0241039637476205,0.1584001928567886,0.9869725108146667,0.0,0.0,0.0,0.090393728181726,0.1773823447052441,-0.073110513088598,46.588144397,0.2015858898020891,-0.1099176889872735,0.0309049362437687,-2.29275709069681,1.9612785129284005,-1.76831988921992,0.0365319423845821,0.0429623122103287,0.3190528799167934,0.0020623677246351,-0.0083332271871405,-0.0180293785857985,15.258672710280702,-1.0084205309960392,-11.358496745225068,-0.0001558163531087
9512,1724813249294336131,-0.1851566135883331,-0.1478685885667801,0.1101216748356819,0.0157167539000511,0.0238435380160808,0.1585537046194076,0.9869373440742492,0.0,0.0,0.0,0.1758367348030073,0.1335726693158735,0.1349565034587904,46.59747852,0.2229628404008945,-0.0917230684182011,0.0401510726176342,-2.3491558473164584,-0.4757018136991231,0.3072563418046261,0.0386276771757526,0.0420926858833276,0.3193955653535237,0.0047710964084064,-0.0065572124727442,-0.0187525901743317,-5.816503757802334,-1.4653003976315038,19.157107066313127,-0.0001794986745407
9514,1724813249304533793,-0.1850900202989578,-0.1479387730360031,0.1099395900964737,0.0165623426437377,0.0233378279954195,0.1587053090333938,0.9869111776351928,0.0,0.0,0.0,-0.0502638872265275,0.1545956585691093,0.2953991246420535,46.607676182,0.1473195282426954,-0.1235908197016651,0.0356714687806367,-5.778323797947791,0.6204135587514492,-2.162779470431493,0.0401430065121837,0.0408189976327978,0.3197096562762487,0.0052901288513327,-0.005826766924124,-0.0150095705676323,-17.296206105249567,4.32497645517957,-1.6625178423078264,-0.0001765943048223
9516,1724813249315644475,-0.1850462555885315,-0.147990733385086,0.1098072752356529,0.0171885695308446,0.0230382233858108,0.1586347967386245,0.9869188666343688,0.0,0.0,0.0,-0.1834151723606225,0.2300488860884678,0.066343572637793,46.618786864,0.1029639275849265,-0.0713576291831421,-0.0092222470735002,-1.3143454379015358,1.0903407108207324,-2.885582077344523,0.0412815616412593,0.0400309947839815,0.3195749096478932,0.0035070626271114,-0.0031047519509233,-0.0125948124281434,-9.675538016759216,1.955201350316127,-16.912756934971863,-0.0001284843243148
9518,1724813249325056146,-0.1850166916847229,-0.1480074226856231,0.1096832677721977,0.0177726112306118,0.0227065421640872,0.1584891676902771,0.9869396686553956,0.0,0.0,0.0,-0.256073389077695,0.2098969298989346,-0.0633113738820648,46.628198535,0.1119425162170821,-0.0898829099290081,-0.0271721293347064,-0.6283675302779592,-0.6325155663853836,-0.7777762615508526,0.0423236048572752,0.039196477580483,0.3192838559587822,0.0015979866570638,-0.00105873151682,-0.0131741957590785,-0.7783091284020589,-1.213167525697905,4.137524356838842,-0.000121844291843
9520,1724813249334957917,-0.1850169450044632,-0.1480104625225067,0.1095528379082679,0.0182705614715814,0.0223767943680286,0.158358946442604,0.986958920955658,0.0,0.0,0.0,-0.1914655817941221,0.2075517539366897,0.1642693972821995,46.638100306,0.0892365825644058,-0.0822302241894034,-0.0231079043434577,-13.433053441573268,-0.7691240135614414,0.2669784362884823,0.0431969737487857,0.0383927710768805,0.3190201962321043,-0.0014921325244277,0.0009415424444769,-0.0138193342772146,16.371373420225407,3.070168318538821,13.53042367467279,-0.0001301367357726
9522,1724813249345752191,-0.1850503087043762,-0.1479856073856353,0.1093960553407669,0.0173654854297637,0.021640345454216,0.1582539528608322,0.9870085120201112,0.0,0.0,0.0,0.1011174678533845,0.2796063457398307,0.1990799758335163,46.64889458,-0.186849580530898,-0.1086772334340387,-0.0219143790897445,-11.43567785470246,1.4758271785120636,-4.236413961608992,0.0411692544920854,0.0372306973770926,0.3187341758666965,-0.002139597992917,0.0032471035598291,-0.0093464907758189,22.53788047566635,2.082391261328544,-10.33181945094535,-0.0001588315733013
9524,1724813249355179010,-0.1850626468658447,-0.1479472219944,0.1093505769968032,0.0165729336440563,0.0212248787283897,0.1578127145767212,0.9871017932891846,0.0,0.0,0.0,0.275975485968729,0.2614254253055984,-0.0099233297143954,46.658321399,-0.1782310524847936,-0.0624443299054233,-0.0976372591569555,22.890068283278687,0.2112461235315139,1.749051441416514,0.0394542225609397,0.0366796166209863,0.3177901407897937,0.0001398877362479,0.0064263787429021,-0.0092422114518839,4.703354220863806,-9.41685189174358,-3.773114081483352,-4.699267993352964e-05
9526,1724813249364957738,-0.1850465834140777,-0.1478604972362518,0.1092153862118721,0.0179541483521461,0.0209093689918518,0.1578661501407623,0.9870758652687072,0.0,0.0,0.0,0.1815212573040644,0.0933818418216302,0.1398058109437031,46.668100127,0.2685223696314424,-0.1079849170743442,0.0186901914012364,9.741643729209056,0.4802039450452309,2.782263070672691,0.0420850816894567,0.0356170924489312,0.3179298316981749,0.0031851583061541,0.0082135529254703,-0.0095521192764724,-7.29272048736079,-4.7041156366689965,3.8404357467527186,-0.0001367326398252
9528,1724813249375034971,-0.1849984675645828,-0.1477845311164856,0.1091635003685951,0.0179559420794248,0.0206608045846223,0.1576240211725235,0.9871197938919068,0.0,0.0,0.0,0.132605859473455,0.1755853900634032,0.0593792134977577,46.67817736,-0.0065881771718456,-0.0497955808640972,-0.0479167715003774,-10.323380110162123,1.3356138950738656,-2.2074353207720945,0.0420008731682548,0.035136031768228,0.3174260042604172,0.0036654335324604,0.0082263900121564,-0.0063622840769914,-0.7870925281990715,10.174973381193222,-6.776632467970591,-5.177126944506407e-05
9530,1724813249386471573,-0.1849709451198578,-0.1476815193891525,0.1090749874711036,0.0185772534459829,0.0202286429703235,0.157512754201889,0.9871349930763244,0.0,0.0,0.0,0.1763906385968953,0.3181398964981012,-0.0024902767165131,46.689613962,0.0956954952387304,-0.0921324026648324,-0.0160245016902976,0.6677165723469822,1.048965060805947,-3.090552173574028,0.0430874113264857,0.0340910970435846,0.3171979439429023,0.0062845427706239,0.0124969392702087,-0.0090209501140412,6.290417962067766,14.9267312680362,8.014089084356943,-9.024080129979528e-05
9532,1724813249394736312,-0.1848958432674408,-0.1475573927164077,0.1089927777647972,0.0188179444521665,0.0200435183942317,0.1571913808584213,0.9871854186058044,0.0,0.0,0.0,0.2430834110467425,0.4562097274996646,0.1439190757072857,46.697878701,0.0517860785817565,-0.0550882791384284,-0.0766808434265389,-5.321800184754446,3.47097589336469,-2.6884235839461104,0.0434932826784713,0.0336636586638876,0.3165447009528606,0.0074280857231538,0.0147961738713906,-0.0076679619435116,7.4866123199354515,7.964538470971709,3.8477912575540536,-8.249868114662987e-05
9534,1724813249407033338,-0.1848348528146743,-0.1473795175552368,0.1089401841163635,0.018760897219181,0.0198454149067401,0.1570399105548858,0.9872146844863892,0.0,0.0,0.0,0.324480578043414,0.3942125909456586,-0.062486579306579,46.710175727,-0.0138197777620164,-0.0309073904330116,-0.0246474466303459,6.589928200974999,-3.322512795698694,-4.155670327434205,0.0433126524420681,0.0332971031813048,0.3162252696846857,0.0123332994336617,0.02366320932828,-0.00626022109331,-30.395058066188795,-18.454305372859523,-30.21854648878032,-5.5246165470151984e-05
9536,1724813249414440143,-0.18471060693264,-0.1471632122993469,0.1088849678635597,0.0191225130110979,0.0196139141917228,0.1566884517669677,0.9872681498527528,0.0,0.0,0.0,-0.0657817657876878,0.1976871688338154,-0.3462405565258469,46.717582532,0.088191698193338,-0.0791120439994001,-0.0928448625900024,7.2205239114551,-1.5940285114393558,-2.9541753093709215,0.0439423277827489,0.0327416812657039,0.3155122544621475,0.0144046815845584,0.0251248482794537,-0.0075125403210782,-38.702211500943434,-14.618224690353683,-19.028172274612885,-5.64147383766777e-05
9538,1724813249425455580,-0.1845907568931579,-0.1469532698392868,0.1088012680411338,0.0194623619318008,0.0195805374532938,0.1565554440021515,0.9872832298278807,0.0,0.0,0.0,-0.262957508533358,0.23185288579574,-0.2399667908993071,46.728597969,0.0603902871157556,-0.016166659946037,-0.0229447407593445,13.346511625469086,15.227997486752267,8.310323013459426,0.0445990429410133,0.0325749558161041,0.3152517098522548,0.008020977244163,0.0273081903465168,-0.0142288648850836,17.670987130998014,-19.06237583320168,44.153874558128805,-8.498901091528549e-05
9540,1724813249434583373,-0.1845391690731048,-0.1466416120529174,0.1086212396621704,0.0206911191344261,0.0206681452691555,0.1568508893251419,0.98718923330307,0.0,0.0,0.0,0.1673847180229201,-0.1097846401143722,0.4240522158802441,46.737725762,0.3022519727099348,0.1947894510938212,0.0677702024730086,0.6332094666619922,1.3590853096025266,-0.1351464605094023,0.0473813559426985,0.0343226386194602,0.3159518169830518,0.0080151409530273,0.0296789765964691,-0.0136225637335076,39.98017260082028,-18.216400777954973,51.94287457352254,-0.0001879916452592
9542,1724813249444682024,-0.1844318211078643,-0.1463917791843414,0.1085518300533294,0.0208117049187421,0.0205164793878793,0.1566152125597,0.9872272610664368,0.0,0.0,0.0,0.4910643341627737,-0.0790958447904079,0.7161660975459888,46.747824413,0.0196731670893846,-0.0345193218250088,-0.046143159628215,-17.43191454711901,-12.821954749967158,-6.534831909228814,0.0475635553310054,0.0339965446177199,0.3154695232378744,0.0115827959763414,0.0244417668468743,-0.0053445056798544,11.527101539964448,11.448227095838456,-6.77368458275161,-7.290327154483924e-05
9544,1724813249456156595,-0.1842864900827407,-0.1461151987314224,0.1085104346275329,0.0206097140908241,0.0201862230896949,0.1562782824039459,0.987291693687439,0.0,0.0,0.0,0.3557331597639945,0.1619080905026284,0.1729896218238185,46.759298984,-0.0428011372704208,-0.0527666273148677,-0.0592595065213314,-9.237076645282928,-3.1394933086505685,-9.339861645163356,0.0470485593859716,0.0334239022736635,0.3147612694506149,0.019013970152244,0.029264476032166,0.0015230722194017,-27.75464973213743,-11.712967493738956,-56.077356988922546,-4.410810793132987e-05
9546,1724813249464351924,-0.1840935051441192,-0.1458451598882675,0.108552947640419,0.0200813598930835,0.0197573844343423,0.1555389463901519,0.9874280095100404,0.0,0.0,0.0,0.0348532041061903,-0.1255797355699897,-0.3377397731537019,46.767494313,-0.1407003691146698,-0.0875639675490269,-0.1837804782483321,-2.445942412520014,-3.542403656488593,-2.744943371301769,0.0458445523244162,0.0327769910256622,0.3132225964103451,0.0202208303389515,0.0290789632920986,0.000450140683565,-14.388649133852155,-14.55729894346764,-19.95959820966736,4.2131507407628386e-05
9548,1724813249475189003,-0.1839220523834228,-0.1455855071544647,0.1084899380803108,0.0200090035796165,0.0191150587052106,0.1553416848182678,0.9874731302261353,0.0,0.0,0.0,0.2338195520224883,0.0107524814292843,0.0529915337980712,46.778331392,-0.0310714779064283,-0.1158705107463545,-0.035125780163877,9.27543700675243,-1.5042881294310853,3.5171516534527427,0.0454937471794234,0.031539977964662,0.3127847530470488,0.0189876757157971,0.0262428273634736,-0.0061737820841578,7.815684059929093,19.74354850018074,42.26933191148608,-6.409329492580632e-05
9550,1724813249484792042,-0.1837127655744552,-0.1453140676021576,0.1084275916218757,0.0203321631997823,0.01858826354146,0.1549074202775955,0.9875448346138,0.0,0.0,0.0,0.2191486886346515,0.2613075340161199,0.5117862357695784,46.787934431,0.0508473311908459,-0.1208900773030575,-0.0881482173059676,-3.9175922439365545,-6.257763065785367,-4.018670051591172,0.0459541898358825,0.030418972355584,0.3118856715919041,0.0241910476633773,0.0286645809570798,-1.2714470567942726e-05,-22.23889377001277,15.128301279009614,-17.16461534644516,-6.258706609124111e-05
9552,1724813249494566639,-0.1834524571895599,-0.1450299173593521,0.1084919348359108,0.0199658013880252,0.0173610858619213,0.1543507575988769,0.987661838531494,0.0,0.0,0.0,-0.2042874449087266,0.3001080422991566,-0.3020993305154107,46.797709028,-0.111294448974976,-0.239116532686163,-0.1124778814095227,-4.523934858088075,-0.5846268956587535,2.9030494235075484,0.0448310645792048,0.0281340021223656,0.3106808262863665,0.0231225474627354,0.0313095072846634,0.003698494990866,-29.367305014477378,-15.306573897292475,-55.663749728850306,6.510078057115449e-05
9554,1724813249504929976,-0.1832513809204101,-0.144680842757225,0.1084985733032226,0.0199275240302085,0.0167355015873909,0.1542222946882248,0.98769348859787,0.0,0.0,0.0,-0.3553242954317726,-0.0703160073741755,-0.5756875355811706,46.808072365,-0.0256222789297195,-0.1187015186403429,-0.0231464771163637,14.563332151125111,8.939894930189046,8.656836484243634,0.0445574224169802,0.0269158047144825,0.3103861243351835,0.0199619234049883,0.034743938293686,-0.0069233276173683,35.19541459865796,23.31649301315555,4.072340196461543,2.573540195058791e-06
9556,1724813249514403521,-0.183057427406311,-0.1443425118923187,0.1083674803376197,0.020754711702466,0.016584139317274,0.1544804871082306,0.9876385927200316,0.0,0.0,0.0,0.409112971641792,0.662044014260633,-0.2732162469371049,46.81754591,0.166872569957823,-0.0572133164221972,0.0591839308667257,11.445764467837574,5.3327123038746524,3.2673393425243566,0.0461525576783034,0.0263489248403016,0.3109218067752192,0.0161597648573916,0.0305988578218752,-0.008486515535683,30.57386384729293,31.148557501213507,31.4714603311453,-0.0001354473875283
9558,1724813249532672773,-0.1829141676425933,-0.1439636796712875,0.1084009706974029,0.0213161595165729,0.0166819933801889,0.1538194417953491,0.987728238105774,0.0,0.0,0.0,-0.7980463502513686,-0.3950762500068201,0.285659502656856,46.835815162,0.0633552348768419,-0.0005796383209667,-0.0721914755449279,-11.616721567944468,-66.88602654675022,-83.45243731819002,0.0472752501471863,0.0263999388387164,0.3096034564654293,0.05218745814485,0.0814338067006588,-0.017290376985052,-303.93450358341363,-391.9509644634712,91.30943978555209,2.509367529830675e-05
9560,1724813249536163868,-0.1827023923397064,-0.1436388939619064,0.1083278506994247,0.0214119367301464,0.0162183716893196,0.1530938893556594,0.9878465533256532,0.0,0.0,0.0,-2.0177902236630496,-1.986290111549708,0.6449357481923321,46.839306257,0.0188304607096975,-0.2807740028021288,-0.4144071846949261,-7.864260338379767,-52.889954173816555,-61.50570850671236,0.0473022804588506,0.0254892117691877,0.3081114700655261,0.047553428532197,0.0779347125352041,-0.0157810631969623,-252.94000312936913,-347.84101262453254,72.75933632979812,-7.696695716768702e-05
9562,1724813249545414833,-0.1825838088989257,-0.1432880312204361,0.1083084419369697,0.0217768065631389,0.0158209018409252,0.1526762843132019,0.9879096746444702,0.0,0.0,0.0,-1.9934326440581376,-2.5578506042290927,0.5788656895007871,46.848557222,0.0659404777890589,-0.0991170152272868,-0.0881562077526708,3.378515746299323,16.58874574280786,14.610821683477564,0.0478907919682325,0.0246121249112715,0.3072529817340181,0.0119624146272467,0.035437963985295,-0.0046030501270708,121.13786393569768,127.50089097408303,-54.6008470160583,-2.828685868180164e-05
9564,1724813249555406259,-0.1824735254049301,-0.1429608166217804,0.1082354187965393,0.0221387706696987,0.016067299991846,0.151858776807785,0.9880236387252808,0.0,0.0,0.0,0.4957119132381675,0.7586663179793434,-0.4788107771186987,46.858548648,0.0812014079157294,0.0337389407516986,-0.1650740049256087,0.3056897250091364,4.452742025877418,-0.7620281704737426,0.0486616155539614,0.0250284241144744,0.3056213370670497,0.012050288134028,0.0318512434890942,-0.0056117634392816,146.5785698532108,194.04911025940376,-45.48835952089949,-8.138880472838587e-05
9566,1724813249568453805,-0.1822990477085113,-0.1425605416297912,0.1081911101937294,0.0226060468703508,0.0157599132508039,0.1514771729707718,0.9880765676498412,0.0,0.0,0.0,0.6609177629372844,0.9411465064793756,-0.0437098919780962,46.871596194,0.0643738093831987,-0.0588561287136049,-0.0568318826968952,38.76146293386783,2.000810421955706,19.305705565574684,0.0494823351432876,0.0242977926009574,0.3048427967514018,0.0268144256136935,0.0607929402883815,-0.0182970982356849,-64.59628405656018,-142.57872752454182,100.65989469968228,-5.358280670850592e-05
9568,1724813249575069566,-0.182076558470726,-0.142057329416275,0.1080200746655464,0.0241068787872791,0.0159305408596992,0.1518045365810394,0.98798805475235,0.0,0.0,0.0,-0.0255999474924483,-0.5273195462076319,0.8480334462855365,46.878211955,0.4551629786911329,-0.015101295537624,0.107822444305627,17.50405705342437,1.5924191821372466,3.0033725271244194,0.0525107216572771,0.0241616518262042,0.3055502793772979,0.0296081048665,0.0627355303396903,-0.0154714997102383,-78.99083848387286,-146.94634202007393,76.94044434738205,-0.0001836543692464
9570,1724813249585384944,-0.1818358302116394,-0.1416245400905609,0.1080274507403373,0.0239843614399433,0.0155265601351857,0.1507108956575393,0.9881649017333984,0.0,0.0,0.0,-0.4418750891352858,-0.8365397075705503,0.7112466812377687,46.888527333,-0.0328078563206335,-0.0794369296541857,-0.2131891620180249,-17.177665249547122,2.98655398353096,-12.764734029914052,0.0521189778220074,0.0234583457902869,0.3033106875703091,0.0221404490858549,0.0440919760884028,4.650659414640046e-05,11.13613125334323,57.812578461194136,-39.20855710866189,-1.997930263611065e-06
9572,1724813249595623693,-0.1816212981939315,-0.1411513835191726,0.1080211326479911,0.0244304072111845,0.0158481132239103,0.1499126106500625,0.9882704019546508,0.0,0.0,0.0,0.1954314206639102,0.6475631105654218,0.0460977649690383,46.898766082,0.0974909326217999,0.0448764017855258,-0.1573481189581323,1.3515870018679452,4.088856824670983,0.9470290765894074,0.053079563399777,0.0240018946828189,0.3017256424801198,0.0204826808997831,0.0453929543110289,-0.0007313461416336,50.31358083001359,101.60992487405738,-35.01109938027727,-1.8615225528626618e-05
9574,1724813249606942814,-0.181395336985588,-0.1406478285789489,0.1080114245414733,0.0242550820112228,0.0157973691821098,0.1487782597541809,0.988446831703186,0.0,0.0,0.0,0.6156386198318153,1.2553671810549665,0.0246168322724214,46.910085203,-0.0295444861464935,-0.0096074790764399,-0.2030251882712591,10.519340946837788,10.955641862726551,-3.412195741979941,0.0526898901824093,0.0240147694406129,0.2994243143019681,0.0271663967605153,0.0592360585693896,0.0013179522977617,-4.795985245410879,-56.936169113503944,-11.525518519709664,-2.278261486120355e-05
9576,1724813249615705622,-0.1811084151268005,-0.1400287002325058,0.1080377325415611,0.0250232052057981,0.0167960692197084,0.147793635725975,0.9885589480400084,0.0,0.0,0.0,0.2892372735026887,0.0059309570418446,-0.1416920156980798,46.918848011,0.2101310150766149,0.1933691976594606,-0.2286979699237733,14.130943724653156,2.808767166588109,7.262846176023237,0.0544836256866126,0.0258141349517714,0.297513331639162,0.0327317903896187,0.0704562813736107,0.0004724684937373,-40.934479515514624,-146.88149103789155,-18.004911871636835,1.0353626741679057e-05
9578,1724813249625134645,-0.1807999014854431,-0.1393663734197616,0.1080165207386016,0.0259845703840255,0.01701071113348,0.1475138217210769,0.9885722398757936,0.0,0.0,0.0,-0.1341325377046984,-1.4226198565945736,-0.3015783157281734,46.928277034,0.2092382273640053,0.0133369991089998,-0.0568035436206627,-18.27697583701227,-29.854359790752852,11.782918975013732,0.0564428660117813,0.0259693859474873,0.2969853305404661,0.0319497751021824,0.0575812089413387,-0.0013222091825175,-18.901557430135647,-34.07052683950642,-6.371829329877777,-3.913287181969268e-05
9580,1724813249634558384,-0.1805060654878616,-0.138943001627922,0.1080127954483032,0.0256153997033834,0.0151977045461535,0.1474488824605941,0.9886211156845092,0.0,0.0,0.0,-0.067383972195671,-0.6376332839373635,-0.261930428457217,46.937700773,-0.1342483638502289,-0.3693542522816267,-0.0064892854220483,-12.433045861447711,-14.10031846823488,2.787614564684284,0.0551715589173198,0.0224975168894378,0.296730061622514,0.0302035624622041,0.0436365715638755,-0.0052119404322317,11.256456570316605,92.95116412103678,29.535250838213017,-1.221484482060748e-05
9582,1724813249645334716,-0.180192619562149,-0.1384886503219604,0.1078972741961479,0.0259170327335596,0.0141840307042002,0.1473776400089264,0.988638997077942,0.0,0.0,0.0,0.1053488195451657,0.4829854611962147,0.3684699768878602,46.948477105,0.0277200795847995,-0.1946323624391752,-0.0078911067747134,1.7821549913320416,7.759874153174936,-5.14345674323423,0.055465976096789,0.0204080061203019,0.296529173464506,0.0309304889672645,0.0471424975184788,-0.0061759220702661,-3.9999019873702215,42.79552044234681,20.36665777156393,-0.0001255180301436
9584,1724813249654918553,-0.1798804700374603,-0.1379943937063217,0.1078768149018287,0.0257233474403619,0.0132372351363301,0.146884948015213,0.988730490207672,0.0,0.0,0.0,-0.1036971509259894,0.3715612325688182,0.2386505917918056,46.958060942,-0.0681155579859839,-0.1923156654544261,-0.0999156530919457,-6.389274327986395,-9.152385403405022,-3.7591069581802903,0.0547925232899276,0.0186204468657007,0.2954712844060391,0.0322631082061981,0.0531150476223674,0.0012584550045815,-17.07300434673688,-15.831579024110637,-37.568855387255255,-3.3114645769632065e-05
9586,1724813249664413548,-0.1795770227909088,-0.1374755501747131,0.1079206839203834,0.0255294907838106,0.0114554855972528,0.1464672237634658,0.9888197183609008,0.0,0.0,0.0,-0.2212223641873016,0.1816811783742675,-0.3440511504330265,46.967555937,-0.094818356013891,-0.3675877386742801,-0.0806438635408233,5.680967143330903,0.3769610646914714,1.1754117940226112,0.0538760958646544,0.0151769354397723,0.2945170128077715,0.0289950005675132,0.0542759550023985,-0.0015277611368977,14.98883173719977,-8.552510862209067,-23.009309611728984,2.8489832248064475e-05
9588,1724813249675117474,-0.1793024241924286,-0.1368990242481231,0.1078301444649696,0.0259938724339008,0.0107987700030207,0.1460295915603637,0.9888796806335448,0.0,0.0,0.0,0.2694416921316438,0.2282448661339287,-0.1274587748355061,46.978259863,0.0684767263296788,-0.1362583119938975,-0.0783705955005928,6.063207804006769,11.79056841576599,0.2247515920812022,0.0545957931511308,0.013766054097951,0.2936001819367251,0.0281109085329358,0.0569376166362811,-0.0058211667835612,23.259898929279103,-3.2547929245410083,17.670176201176748,-0.0001102672882774
9590,1724813249684645072,-0.1790137588977813,-0.1363304555416107,0.1077970489859581,0.0262920092791318,0.0103367362171411,0.1456551998853683,0.9889320135116576,0.0,0.0,0.0,0.2995641996599776,0.1327404454112857,0.0191456990656306,46.987787461,0.0482878263103599,-0.1072105780522854,-0.0761243096750529,5.902079838599759,-0.2151791468355668,2.186331213989398,0.0550455089944133,0.0127858713531767,0.2928199875204319,0.0336635045915603,0.0589390919743939,-0.0047148678187429,-15.208305601473988,11.166046147111674,-10.218159214595964,-5.278470820609295e-05
9592,1724813249694610718,-0.1786431968212127,-0.1357507705688476,0.107737123966217,0.0273340847343206,0.0097730793058872,0.1454589217901229,0.988938331604004,0.0,0.0,0.0,-0.043481295988341,0.4648985900490792,-0.3495924243494225,46.997753107,0.1907161818930462,-0.1433781466555939,-0.0340037410727521,-4.0198738993944785,0.3336302846076164,3.0163540295839173,0.0569410602007335,0.0113782180093668,0.2924016267237584,0.0336965487262634,0.0594558517882966,-0.005534862561717,-23.32385218239228,22.121468031213944,-27.135656092487775,-7.94060115165282e-05
9594,1724813249706619368,-0.1782890111207962,-0.1350181549787521,0.1076775789260864,0.0266772005707025,0.0091814929619431,0.1453617811203003,0.988976240158081,0.0,0.0,0.0,-0.162962096039037,0.5683501330771099,-0.5326998460719556,47.009761757,-0.122537716183056,-0.0820272860653618,-0.015293905496575,6.263662291720664,-6.515518964634852,4.284942809376589,0.0554669494433796,0.0104050537463155,0.2921629201741751,0.0324972205829023,0.0710156077081993,-0.0136011034902967,-23.749391671555223,-51.51424923787717,48.10544479977191,-8.697289632130222e-05
9596,1724813249714392075,-0.1780213117599487,-0.1344158202409744,0.107528381049633,0.0271279830485582,0.008493723347783,0.145460695028305,0.988955557346344,0.0,0.0,0.0,-0.4169854800271815,-0.1345613143024082,0.159937793712059,47.017534464,0.0888960116806134,-0.1911523760595631,0.0317306748554087,19.21141052558235,-3.4185379022404567,2.04245931422603,0.0561594873931873,0.008907837081813,0.2923262814262126,0.0309131606483292,0.0734496774283641,-0.0170423069641696,-5.77296128257905,-39.74365137032856,80.02664619215852,-0.0001731776802119
9598,1724813249725217203,-0.1777398586273193,-0.1336816847324371,0.1073763519525528,0.0281254239380359,0.0082693919539451,0.1454073190689087,0.988937497138977,0.0,0.0,0.0,-0.0737989037446511,0.1994189979088507,0.8892706956893253,47.028359592,0.1763926686023331,-0.0680337096010377,-0.0065776138882468,4.11333167555659,9.403641433054746,-5.8803789748552715,0.0580680006399717,0.0081766296894681,0.2922131802404839,0.023185164072478,0.0652431289918,-0.0062249938311103,28.777897469433803,15.02423439989906,14.782219559200854,-0.0001839357167251
9600,1724813249736982062,-0.1775030791759491,-0.132947027683258,0.1074030920863151,0.0291177742183208,0.0085370289161801,0.1447867453098297,0.9889975786209106,0.0,0.0,0.0,0.2273710511182645,0.1737964336389934,0.390733214359599,47.040124451,0.17403195841663,0.0174129577513663,-0.1056988812035265,5.7296512394571,8.941407715554817,-9.738623762472049,0.0601052437222971,0.0084545670552619,0.2909838882886469,0.0305012970611056,0.0798322866603857,0.0028305775873498,106.34512138865976,113.93629464129182,-187.7825110757148,-7.810633747479e-06
9602,1724813249744651579,-0.1772172749042511,-0.1322478204965591,0.1074275895953178,0.0299983639270067,0.0090533327311277,0.1440800130367279,0.9890698194503784,0.0,0.0,0.0,1.4466975648033895,1.6281760294402,-1.7764701742362767,47.047793968,0.2476257475654312,0.0943815137591341,-0.1869562371432473,0.212157320537663,4.047439807051794,-5.986274185520552,0.0619921186707529,0.0092645595403757,0.2895967711541108,0.0302727564277272,0.0758341463480944,0.0039325012499751,80.1723869632049,115.30428876089024,-145.13019303403578,-7.629135097429287e-06
9604,1724813249760748263,-0.1769662052392959,-0.131545141339302,0.1075158342719078,0.0295135304331779,0.008667173795402,0.1430584788322448,0.9892361760139464,0.0,0.0,0.0,0.0746914206291506,0.9731689872021504,0.5307378325603729,47.063890652,-0.0659656481278497,-0.0427707680510957,-0.1276216306028699,325.71684220818537,-189.7496373413876,149.79868300872923,0.0609114937482604,0.0087035520715111,0.2875040224192379,0.1034410179516029,0.1746593281070438,-0.0895320549516647,-549.9314802798351,-768.1304517620547,676.1894492620081,5.521497248777504e-05
9606,1724813249764377062,-0.176518976688385,-0.1308041661977768,0.1071132123470306,0.0322600454092025,0.0074226763099431,0.1439498215913772,0.989031195640564,0.0,0.0,0.0,-2.3010524395648573,-2.409316112232134,3.4204051247288594,47.067519451,1.398391218112282,-0.8795917966045989,0.5354976784369251,271.1617013541867,-153.4940849833933,123.88838701423948,0.0659982298615443,0.0053948874584745,0.2892409523246614,0.1000545927795526,0.1739643734646239,-0.082421865180994,-513.0299186954121,-762.6631501326563,603.0320086349011,-0.0004367193235756
9608,1724813249775271847,-0.1761874258518219,-0.1298976242542266,0.1071484461426734,0.0324038639664649,0.0072879791259765,0.1437297612428665,0.9890594482421876,0.0,0.0,0.0,-3.2567181732692507,-5.175430919875621,3.668109829628534,47.078414236,0.0226848736469863,-0.0295978744545896,-0.0397071903107289,-64.00706234142568,33.0115447864551,-31.36076179504426,0.0662429926329779,0.0051017120945296,0.288787955055953,0.0302435692171911,0.0751720084174634,0.0026322284848694,176.96851979549737,182.0817071132409,-169.05153998903296,-1.3184762023414544e-05
9610,1724813249785332652,-0.1758849024772644,-0.1292160004377365,0.1071693375706672,0.0322687998414039,0.0067072273232042,0.1429359018802642,0.9891830086708068,0.0,0.0,0.0,0.982838797704464,0.7069569643025582,0.1854807286946752,47.088475041,-0.0427949794913904,-0.1156189668295653,-0.1560708424764093,-5.282324676965726,-7.044619761201858,-9.362549070762103,0.0658049241643527,0.0040446216185903,0.2871444152126218,0.0267535138520361,0.0592662444973643,0.0010845973483018,2179.6250222318395,3943.7988109216126,-1862.5077602222043,-1.4556542158701838e-05
9612,1724813249842059051,-0.1754278689622879,-0.1285676509141922,0.1069136038422584,0.0338035486638546,0.0059468708932399,0.1433890908956527,0.9890710711479188,0.0,0.0,0.0,686.984288834679,1298.8160420818544,-590.4626513418018,47.14520144,0.0497136323937152,-0.0337101500876538,0.0175973258309456,311.05907126655774,-3456.4454243787286,-3903.376058855812,0.0686276610851517,0.0020696371823092,0.2880119888283664,0.5078136927114656,0.8311460930042642,0.1201319095116844,-129960.89958799609,-240769.04316439808,503841.96802665526,-0.0002875724927598
9614,1724813249842874424,-0.1750079542398452,-0.1278803497552871,0.1070130169391632,0.0340885818004608,0.0048426995053887,0.1420535296201706,0.9892600178718568,0.0,0.0,0.0,579.3528073389598,1099.4094563088006,-173.61645760354406,47.146016813,0.3069692985573184,-2.8925288720270776,-3.210893551267741,29854.450226871813,3561.8372223252836,9148.993263916704,0.0688752296602639,-0.0001034287306894,0.2852380770200093,1.0759141961252112,1.905228268835458,-0.3682602092437719,-1475158.0968776925,-2450120.8790599196,2175674.097462491,6.185817949136856e-05
9616,1724813249843199880,-0.1745849251747131,-0.1271222829818725,0.1068294867873191,0.036339771002531,0.0050237160176038,0.1422742903232574,0.9891472458839417,0.0,0.0,0.0,-75.22979380260563,15.487800113858157,750.6900358654796,47.146342269,13.860556659875613,-0.8151358939627669,1.4695727389207665,13490.648796516303,1753.110629812238,6395.520506387236,0.0733861186778188,-0.0004020405447886,0.285696292489755,1.2492191720725714,2.23473382964778,-0.3695075744956568,-1842031.0617461936,-3016940.011025142,2147094.239244573,-0.0002278719789836
9618,1724813249843521699,-0.1741990000009536,-0.126433178782463,0.1067724376916885,0.0378511101007461,0.0049550947733223,0.1424135863780975,0.9890708327293396,0.0,0.0,0.0,-614.1720739485198,-855.6482681209652,1221.1562548355605,47.146664088,9.242778832098963,-1.7242943872393273,0.9865306590901972,-42526.54251866025,-5400.440991930082,-8140.449559798069,0.0763604270698495,-0.0009791454047289,0.2859713603925513,1.0316157497649383,1.9224644647668183,0.1121849522344149,-822357.8848186303,-1310502.1452288844,401390.55237508856,-9.956337897089318e-05
9620,1724813249843909663,-0.1738771498203277,-0.1257896721363067,0.1069513410329818,0.034063845872879,0.0034653616603463,0.14138263463974,0.9893627762794496,0.0,0.0,0.0,-534.585053010171,-710.9687936706995,880.8781439569245,47.147052052,-20.43474519747504,-5.02398658156482,-5.27698045931199,-75816.37388027542,-8429.087835942375,-16001.024921999746,0.0684365581045319,-0.0027750764465862,0.283788479910885,0.8223344264628626,1.6441390170975376,0.4570388495981946,203268.25960518423,369599.74574292375,-869460.8761346173,0.0001410471578168
9622,1724813249887485102,-0.1735436171293258,-0.1252950876951217,0.1068246737122535,0.0340750478208065,0.0023427859414368,0.1416887193918228,0.9893219470977784,0.0,0.0,0.0,-839.0572982404319,-855.1128525717813,317.5251715530767,47.190627491,-0.0067606808428872,-0.0505629090302673,0.0159208705822899,-13517.677502288438,-31941.237972928455,3434.290156067887,0.0681398531701213,-0.0050205817710986,0.2843303111862724,1.2642678695109453,2.1406600004773964,-0.3276969150426225,-140169.08277842076,-915707.1289752856,1148560.9109550586,-0.0001546227640882
9624,1724813249887734288,-0.1732267886400222,-0.124758630990982,0.1067425534129142,0.0337990000844001,0.0012861805735155,0.1417634487152099,0.9893226027488708,0.0,0.0,0.0,-874.1752513315969,-1084.594390068483,605.3855570595857,47.190876677,-3.39510696195717,-8.055550154779585,0.8764185711843534,-804.5069144626914,-8413.647249831669,631.199126677629,0.0672933386042006,-0.0070380887097726,0.284412352058024,1.0539764549512256,1.9263431028059017,-0.248095962220944,401899.4987582145,254304.8423034186,1048012.006274583,-0.0001137705382905
9626,1724813249888098682,-0.1729586124420166,-0.124177373945713,0.1066955551505088,0.0343237817287445,0.0016422189073637,0.1417003870010376,0.9893130660057068,0.0,0.0,0.0,-438.46921475097815,-365.6862436553656,930.1563672508096,47.191241071,3.12878370923076,1.5133221649434163,-0.3973456934934734,4208.648458299373,16782.5037229342,-10518.324142532309,0.0684341754434487,-0.0064780943735511,0.2843053000711474,0.7193067191105342,1.411480703948598,0.1248717540492805,1205333.498499732,2611169.891338841,-328229.31360333355,-8.261215168167613e-05
9628,1724813249888454437,-0.1727084964513778,-0.123739019036293,0.1068281456828117,0.0341932065784931,0.0024168151430785,0.1405682265758514,0.9894774556159972,0.0,0.0,0.0,-6.3200061191348595,784.9394704842834,389.83216272020354,47.191596826,-0.130439958480617,4.192158846118179,-6.578441219086133,7225.859053797141,4017.5380692214967,4725.558147620888,0.068400390233093,-0.0048302074045879,0.2820723592539421,0.7300188580194344,1.6451147689635943,0.4233493788381963,435219.4941395165,1445031.6000364,-1381157.088896636,0.0001065153034172
9630,1724813249888705047,-0.1725207865238189,-0.1232538372278213,0.1069431826472282,0.0346791371703147,0.0030714874155819,0.1404013484716415,0.9894824028015136,0.0,0.0,0.0,-34.86673337955091,831.1958317715232,68.00175499834586,47.191847436,4.573461867637826,4.578899477273297,-1.492585921446752,18029.54149055541,1457.0611802313056,19533.177903717435,0.0695477915811456,-0.0036596379176868,0.2817782649896533,0.7220034320496198,1.864463142741827,0.4417490488343694,-109769.93776821566,171576.06318340756,-1236121.399153914,8.484800427539987e-05
