seq,stamp,px,py,pz,ox,oy,oz,ow,lx,ly,lz,ax,ay,az
24,1724913398027707371,-0.021475013345479965,0.11247141659259796,0.17767179012298584,0.018298253417015076,-0.1311303973197937,-0.1220550686120987,0.9836527705192566,0.0,0.0,0.0,0.0,0.0,0.0
26,1724913398036893169,-0.02135281264781952,0.11235491186380386,0.1779298037290573,0.018891025334596634,-0.13068322837352753,-0.12108077108860016,0.9838213920593262,0.0,0.0,0.0,0.0,0.0,0.0
28,1724913398079491864,-0.02139926701784134,0.11224178224802017,0.17808392643928528,0.018667997792363167,-0.13113142549991608,-0.11984883248806,0.9839168190956116,0.0,0.0,0.0,0.0,0.0,0.0
30,1724913398080106257,-0.02126936987042427,0.11210261285305023,0.1782912015914917,0.018278023228049278,-0.13147121667861938,-0.11804686486721039,0.9840967059135437,0.0,0.0,0.0,0.0,0.0,0.0
32,1724913398080733810,-0.021183138713240623,0.11211960762739182,0.17838309705257416,0.018886880949139595,-0.1322609782218933,-0.11609377712011337,0.9842116832733154,0.0,0.0,0.0,0.0,0.0,0.0
34,1724913398081279521,-0.020961899310350418,0.11211597919464111,0.17848560214042664,0.019794907420873642,-0.13221390545368195,-0.1142858937382698,0.9844116568565369,0.0,0.0,0.0,0.0,0.0,0.0
36,1724913398086988238,-0.020824428647756577,0.11220584064722061,0.1785116046667099,0.019466258585453033,-0.13279594480991364,-0.11208397895097733,0.9845931529998779,0.0,0.0,0.0,0.0,0.0,0.0
38,1724913398097066736,-0.02049684338271618,0.11231964826583862,0.17864325642585754,0.019080713391304016,-0.13282158970832825,-0.1108795553445816,0.984733521938324,0.0,0.0,0.0,0.0,0.0,0.0
40,1724913398107318228,-0.020174410194158554,0.11249429732561111,0.17874261736869812,0.019197292625904083,-0.13313236832618713,-0.11032041907310486,0.9847521185874939,0.0,0.0,0.0,0.0,0.0,0.0
42,1724913398117410456,-0.019695840775966644,0.11279784142971039,0.178837850689888,0.021296458318829536,-0.1321968287229538,-0.10886857658624649,0.9849965572357178,0.0,0.0,0.0,0.0,0.0,0.0
44,1724913398128695453,-0.019380725920200348,0.11309563368558884,0.17903466522693634,0.02096269652247429,-0.13256394863128662,-0.1078934296965599,0.9850617051124573,0.0,0.0,0.0,0.0,0.0,0.0
46,1724913398137130338,-0.01897255703806877,0.11341020464897156,0.1794852763414383,0.019448446109890938,-0.13243766129016876,-0.10738488286733627,0.9851652383804321,0.0,0.0,0.0,0.0,0.0,0.0
48,1724913398147038638,-0.018396683037281036,0.1137026697397232,0.1798657923936844,0.018423810601234436,-0.13188031315803528,-0.10626435279846191,0.9853811860084534,0.0,0.0,0.0,0.0,0.0,0.0
50,1724913398157933493,-0.017788883298635483,0.11405178159475327,0.1802023947238922,0.017805078998208046,-0.1307438611984253,-0.10588347911834717,0.9855850338935852,0.0,0.0,0.0,0.0,0.0,0.0
52,1724913398167447848,-0.017227694392204285,0.11443930119276047,0.1803901046514511,0.017138846218585968,-0.1298704892396927,-0.1050933450460434,0.9857968688011169,0.0,0.0,0.0,0.0,0.0,0.0
54,1724913398182056997,-0.016441943123936653,0.11499880254268646,0.1805686205625534,0.017595283687114716,-0.1281278133392334,-0.10380708426237106,0.9861530065536499,0.0,0.0,0.0,0.0,0.0,0.0
56,1724913398186985173,-0.015680376440286636,0.11551565676927567,0.1809575855731964,0.018564438447356224,-0.12631575763225555,-0.10329664498567581,0.9864225387573242,0.0,0.0,0.0,0.0,0.0,0.0
58,1724913398197288804,-0.014844893477857113,0.11597366631031036,0.1812446266412735,0.018961969763040543,-0.12385696172714233,-0.10286165028810501,0.9867722392082214,0.0,0.0,0.0,0.0,0.0,0.0
60,1724913398207141660,-0.014088014140725136,0.11648285388946533,0.18160946667194366,0.017995722591876984,-0.12163135409355164,-0.1033773422241211,0.9870132803916931,0.0,0.0,0.0,0.0,0.0,0.0
62,1724913398217770778,-0.013373301364481449,0.11714707314968109,0.18205459415912628,0.017176799476146698,-0.11840026080608368,-0.10421696305274963,0.9873324036598206,0.0,0.0,0.0,0.0,0.0,0.0
64,1724913398232885492,-0.012510022148489952,0.11800745129585266,0.18228986859321594,0.014720378443598747,-0.11627992242574692,-0.10418106615543365,0.9876277446746826,0.0,0.0,0.0,0.0,0.0,0.0
66,1724913398236978893,-0.01160266064107418,0.11898461729288101,0.1824832260608673,0.013428846374154091,-0.11299309879541397,-0.10463525354862213,0.9879795908927917,0.0,0.0,0.0,0.0,0.0,0.0
68,1724913398248239676,-0.010426653549075127,0.12001082301139832,0.18257075548171997,0.012400754727423191,-0.10943631082773209,-0.10440552234649658,0.9884176254272461,0.0,0.0,0.0,0.0,0.0,0.0
70,1724913398267144762,-0.00908619724214077,0.12117782235145569,0.18281425535678864,0.012404792942106724,-0.10508225858211517,-0.10526249557733536,0.9887990951538086,0.0,0.0,0.0,0.0,0.0,0.0
72,1724913398269263986,-0.00778171606361866,0.1224222183227539,0.18290644884109497,0.01246599480509758,-0.10107950866222382,-0.10573102533817291,0.9891655445098877,0.0,0.0,0.0,0.0,0.0,0.0
74,1724913398282211268,-0.0061981710605323315,0.1236291229724884,0.18306265771389008,0.010430441237986088,-0.0962042436003685,-0.10665302723646164,0.9895762205123901,0.0,0.0,0.0,0.0,0.0,0.0
76,1724913398287068202,-0.004410908557474613,0.12487776577472687,0.18322323262691498,0.010291346348822117,-0.09036360681056976,-0.10692480951547623,0.9900988340377808,0.0,0.0,0.0,0.0,0.0,0.0
78,1724913398298651053,-0.0026931967586278915,0.1260635107755661,0.18320821225643158,0.010118141770362854,-0.08577781170606613,-0.1066620871424675,0.9905368089675903,0.0,0.0,0.0,0.0,0.0,0.0
80,1724913398307400650,-0.0006873495876789093,0.12732888758182526,0.18322695791721344,0.009224274195730686,-0.08028990775346756,-0.10679992288351059,0.9909905195236206,0.0,0.0,0.0,0.0,0.0,0.0
82,1724913398318517397,0.0013156216591596603,0.1285385936498642,0.18319794535636902,0.00729120709002018,-0.0755690485239029,-0.10704284906387329,0.9913516044616699,0.0,0.0,0.0,0.0,0.0,0.0
84,1724913398328557235,0.0038422048091888428,0.12997467815876007,0.18288569152355194,0.008889386430382729,-0.06676825881004333,-0.10598061233758926,0.9920843243598938,0.0,0.0,0.0,0.0,0.0,0.0
86,1724913398337448128,0.0061469897627830505,0.13100194931030273,0.18263690173625946,0.006628912873566151,-0.06083224341273308,-0.10566608607769012,0.9925171732902527,0.0,0.0,0.0,0.0,0.0,0.0
88,1724913398351458099,0.008931569755077362,0.13217151165008545,0.1825190782546997,0.006105675362050533,-0.052214670926332474,-0.10618670284748077,0.9929555654525757,0.0,0.0,0.0,0.0,0.0,0.0
90,1724913398400435462,0.011559308506548405,0.13319317996501923,0.18165680766105652,0.005868731532245874,-0.046191293746232986,-0.10368672013282776,0.9935195446014404,0.0,0.0,0.0,0.0,0.0,0.0
92,1724913398400853776,0.014474405907094479,0.13419604301452637,0.18138083815574646,0.004759953357279301,-0.03859328478574753,-0.10439155250787735,0.9937757849693298,0.0,0.0,0.0,0.0,0.0,0.0
94,1724913398401449213,0.017217880114912987,0.13527053594589233,0.18168611824512482,0.0034756541717797518,-0.03335263952612877,-0.10741958022117615,0.9936481714248657,0.0,0.0,0.0,0.0,0.0,0.0
96,1724913398401887976,0.01980237476527691,0.1361531764268875,0.18167276680469513,0.0021603123750537634,-0.029518436640501022,-0.1082892194390297,0.9936788082122803,0.0,0.0,0.0,0.0,0.0,0.0
98,1724913398402314325,0.02248087152838707,0.1369870901107788,0.1815112680196762,0.0029976286459714174,-0.026278430595993996,-0.10806505382061005,0.993791937828064,0.0,0.0,0.0,0.0,0.0,0.0
100,1724913398408777883,0.024647487327456474,0.13752414286136627,0.1815229058265686,0.0010673669166862965,-0.02645564265549183,-0.10801895707845688,0.993796169757843,0.0,0.0,0.0,0.0,0.0,0.0
102,1724913398417811179,0.026440419256687164,0.1383281946182251,0.18176625669002533,-0.0008464689017273486,-0.02543027698993683,-0.10944084823131561,0.9936676025390625,0.0,0.0,0.0,0.0,0.0,0.0
104,1724913398434856869,0.02753344550728798,0.13893184065818787,0.18228228390216827,-0.0013836832949891686,-0.025867510586977005,-0.10949771106243134,0.993649423122406,0.0,0.0,0.0,0.0,0.0,0.0
106,1724913398437814082,0.02817414328455925,0.13928820192813873,0.18286263942718506,-0.0029758927412331104,-0.02608618140220642,-0.10913006216287613,0.9936806559562683,0.0,0.0,0.0,0.0,0.0,0.0
108,1724913398446790471,0.02839333936572075,0.13955682516098022,0.18335101008415222,-0.00444979639723897,-0.025654392316937447,-0.10868951678276062,0.9937347173690796,0.0,0.0,0.0,0.0,0.0,0.0
110,1724913398456934244,0.028241991996765137,0.13980348408222198,0.18353942036628723,-0.0055864909663796425,-0.024921195581555367,-0.10832881182432175,0.9937870502471924,0.0,0.0,0.0,0.0,0.0,0.0
112,1724913398468302010,0.02789990045130253,0.1401262879371643,0.1834457516670227,-0.0029982642736285925,-0.024375131353735924,-0.10854112356901169,0.9937885999679565,0.0,0.0,0.0,0.0,0.0,0.0
114,1724913398477349842,0.02718743309378624,0.14045313000679016,0.18331196904182434,-0.0027876850217580795,-0.025121118873357773,-0.10950154066085815,0.9936652183532715,0.0,0.0,0.0,0.0,0.0,0.0
116,1724913398487624008,0.026206940412521362,0.14073406159877777,0.18311455845832825,-0.00461133848875761,-0.025587188079953194,-0.11020589619874954,0.9935686588287354,0.0,0.0,0.0,0.0,0.0,0.0
118,1724913398498206367,0.0251432154327631,0.14097559452056885,0.183188796043396,-0.006748284213244915,-0.024938225746154785,-0.11119529604911804,0.9934626817703247,0.0,0.0,0.0,0.0,0.0,0.0
120,1724913398506893297,0.024042941629886627,0.1413339525461197,0.1831715852022171,-0.006484780460596085,-0.024751020595431328,-0.11142423003911972,0.993443489074707,0.0,0.0,0.0,0.0,0.0,0.0
122,1724913398517702302,0.02278871089220047,0.14168116450309753,0.18311330676078796,-0.004738719202578068,-0.024770352989435196,-0.11174018681049347,0.9934174418449402,0.0,0.0,0.0,0.0,0.0,0.0
124,1724913398527684427,0.0214858241379261,0.14202220737934113,0.18313239514827728,-0.005455748178064823,-0.025036990642547607,-0.11228363960981369,0.9933457374572754,0.0,0.0,0.0,0.0,0.0,0.0
126,1724913398536779609,0.020389549434185028,0.14229437708854675,0.1831851601600647,-0.004617791157215834,-0.024547291919589043,-0.11174771934747696,0.9934226870536804,0.0,0.0,0.0,0.0,0.0,0.0
128,1724913398548394408,0.019375160336494446,0.14278052747249603,0.18314504623413086,-0.0031559583730995655,-0.024293487891554832,-0.11069386452436447,0.9935526251792908,0.0,0.0,0.0,0.0,0.0,0.0
130,1724913398572177861,0.01833680272102356,0.14313623309135437,0.1833270937204361,-0.0032531151082366705,-0.02512684464454651,-0.11128944903612137,0.993465006351471,0.0,0.0,0.0,0.0,0.0,0.0
132,1724913398572431523,0.017387714236974716,0.14351680874824524,0.18317896127700806,-0.0032421513460576534,-0.025120802223682404,-0.11158076673746109,0.9934325218200684,0.0,0.0,0.0,0.0,0.0,0.0
134,1724913398578821948,0.016545817255973816,0.1439329832792282,0.18307286500930786,-0.003198925405740738,-0.02472575008869171,-0.11258731037378311,0.9933290481567383,0.0,0.0,0.0,0.0,0.0,0.0
136,1724913398587159155,0.01577744632959366,0.14440441131591797,0.1830558329820633,-0.004419355653226376,-0.024390751495957375,-0.11375553905963898,0.9931995272636414,0.0,0.0,0.0,0.0,0.0,0.0
138,1724913398596938518,0.015130680054426193,0.1448909193277359,0.18299619853496552,-0.003637411631643772,-0.02413182146847248,-0.1143602728843689,0.9931395649909973,0.0,0.0,0.0,0.0,0.0,0.0
140,1724913398607578171,0.014649996533989906,0.14531338214874268,0.18307748436927795,-0.0017597265541553497,-0.02403288707137108,-0.11468444019556046,0.9931096434593201,0.0,0.0,0.0,0.0,0.0,0.0
142,1724913398616989105,0.014261968433856964,0.14574505388736725,0.18311652541160583,-0.0009285339619964361,-0.0239026490598917,-0.1144699826836586,0.9931387305259705,0.0,0.0,0.0,0.0,0.0,0.0
144,1724913398627737318,0.014129012823104858,0.14613530039787292,0.18307089805603027,0.0010600949171930552,-0.023825915530323982,-0.11420859396457672,0.9931704998016357,0.0,0.0,0.0,0.0,0.0,0.0
146,1724913398636816926,0.014103997498750687,0.14645251631736755,0.1831357330083847,0.0004837048181798309,-0.02453092858195305,-0.11435870081186295,0.9931365251541138,0.0,0.0,0.0,0.0,0.0,0.0
148,1724913398647627793,0.014261789619922638,0.1468110829591751,0.18320518732070923,-0.0027635949663817883,-0.02527240850031376,-0.1143667921423912,0.9931132793426514,0.0,0.0,0.0,0.0,0.0,0.0
150,1724913398658408200,0.01466788724064827,0.14716559648513794,0.1833118498325348,-0.0027226002421230078,-0.024868326261639595,-0.11419817805290222,0.9931429624557495,0.0,0.0,0.0,0.0,0.0,0.0
152,1724913398666906829,0.015106803737580776,0.14759759604930878,0.18338124454021454,-0.002077428624033928,-0.025121819227933884,-0.11358755081892014,0.9932082295417786,0.0,0.0,0.0,0.0,0.0,0.0
154,1724913398678433868,0.015507841482758522,0.14807717502117157,0.18340657651424408,-0.0002550925128161907,-0.02498612366616726,-0.11318805068731308,0.9932593107223511,0.0,0.0,0.0,0.0,0.0,0.0
156,1724913398687009922,0.01578206941485405,0.148491770029068,0.1834750771522522,-0.0005000645178370178,-0.025972599163651466,-0.11352871358394623,0.9931950569152832,0.0,0.0,0.0,0.0,0.0,0.0
158,1724913398697176799,0.015993397682905197,0.14887887239456177,0.18347354233264923,0.00010746053158072755,-0.026580367237329483,-0.11320345103740692,0.9932162165641785,0.0,0.0,0.0,0.0,0.0,0.0
160,1724913398707412620,0.016162768006324768,0.14923328161239624,0.18342211842536926,-0.00032143801217898726,-0.02659088559448719,-0.11223435401916504,0.99332594871521,0.0,0.0,0.0,0.0,0.0,0.0
162,1724913398717953999,0.016374465078115463,0.14945179224014282,0.18345555663108826,-1.6649762983433902e-05,-0.027084043249487877,-0.11148596554994583,0.9933968782424927,0.0,0.0,0.0,0.0,0.0,0.0
164,1724913398727350601,0.01665450446307659,0.14967185258865356,0.183445006608963,0.0014946270966902375,-0.027726754546165466,-0.110919289290905,0.9934414625167847,0.0,0.0,0.0,0.0,0.0,0.0
166,1724913398737116790,0.016887981444597244,0.14988206326961517,0.18351471424102783,0.00177790189627558,-0.027988607063889503,-0.1112867221236229,0.9933925271034241,0.0,0.0,0.0,0.0,0.0,0.0
168,1724913398747728436,0.017094643786549568,0.1500089466571808,0.18366363644599915,0.0006426168256439269,-0.029251696541905403,-0.11142518371343613,0.9933419823646545,0.0,0.0,0.0,0.0,0.0,0.0
170,1724913398756772649,0.01746460050344467,0.15014463663101196,0.18380510807037354,0.0017202980816364288,-0.029303431510925293,-0.1113567128777504,0.9933469295501709,0.0,0.0,0.0,0.0,0.0,0.0
172,1724913398767733415,0.017899807542562485,0.15028825402259827,0.18403324484825134,0.0021041834261268377,-0.02902090549468994,-0.11212200671434402,0.9932684302330017,0.0,0.0,0.0,0.0,0.0,0.0
174,1724913398777114726,0.018317781388759613,0.15033872425556183,0.18413881957530975,0.0019101332873106003,-0.03002857230603695,-0.11199244111776352,0.9932534098625183,0.0,0.0,0.0,0.0,0.0,0.0
176,1724913398787394923,0.01868148148059845,0.1503993719816208,0.18417823314666748,0.002186821773648262,-0.0301225408911705,-0.11148281395435333,0.9933074116706848,0.0,0.0,0.0,0.0,0.0,0.0
178,1724913398798930218,0.019045177847146988,0.150412917137146,0.1843465119600296,0.0015040228608995676,-0.029793018475174904,-0.11145763844251633,0.9933213591575623,0.0,0.0,0.0,0.0,0.0,0.0
180,1724913398860678139,0.019357290118932724,0.15043243765830994,0.18443907797336578,0.0013067080872133374,-0.030052518472075462,-0.11067510396242142,0.9934013485908508,0.0,0.0,0.0,0.0,0.0,0.0
182,1724913398860952890,0.019680380821228027,0.15041540563106537,0.18446192145347595,0.0011313826544210315,-0.03117034025490284,-0.10955993086099625,0.9934906959533691,0.0,0.0,0.0,0.0,0.0,0.0
184,1724913398861244631,0.020020682364702225,0.15041032433509827,0.18450334668159485,0.0013363553443923593,-0.03266550600528717,-0.10865827649831772,0.9935414791107178,0.0,0.0,0.0,0.0,0.0,0.0
186,1724913398861503288,0.020286498591303825,0.15045158565044403,0.18461589515209198,0.0017309357644990087,-0.033338967710733414,-0.10818958282470703,0.9935696125030518,0.0,0.0,0.0,0.0,0.0,0.0
188,1724913398861738580,0.02056547999382019,0.15049177408218384,0.18479065597057343,0.0021353515330702066,-0.03401948884129524,-0.10773765295743942,0.9935948252677917,0.0,0.0,0.0,0.0,0.0,0.0
190,1724913398861945680,0.020829936489462852,0.15059731900691986,0.18498149514198303,0.0024347431026399136,-0.03446504846215248,-0.10740320384502411,0.9936150312423706,0.0,0.0,0.0,0.0,0.0,0.0
192,1724913398867946409,0.021207226440310478,0.15060007572174072,0.1848929226398468,0.0036455197259783745,-0.0360165536403656,-0.10564006865024567,0.9937453866004944,0.0,0.0,0.0,0.0,0.0,0.0
194,1724913398878711733,0.021591179072856903,0.15070243179798126,0.18505007028579712,0.003681603819131851,-0.036630213260650635,-0.10595576465129852,0.9936891794204712,0.0,0.0,0.0,0.0,0.0,0.0
196,1724913398887363575,0.02199845388531685,0.1508914828300476,0.18511764705181122,0.0038523569237440825,-0.03715517371892929,-0.10559403151273727,0.9937074780464172,0.0,0.0,0.0,0.0,0.0,0.0
198,1724913398897432238,0.02232431061565876,0.15115265548229218,0.18517830967903137,0.003564705140888691,-0.037432245910167694,-0.10530748963356018,0.9937286376953125,0.0,0.0,0.0,0.0,0.0,0.0
200,1724913398908018577,0.022764038294553757,0.15141886472702026,0.18511588871479034,0.004357118159532547,-0.03702579811215401,-0.10449344664812088,0.9938265681266785,0.0,0.0,0.0,0.0,0.0,0.0
202,1724913398919888478,0.023147793486714363,0.1518024206161499,0.18527430295944214,0.0037134671583771706,-0.03642776980996132,-0.10440799593925476,0.9938602447509766,0.0,0.0,0.0,0.0,0.0,0.0
204,1724913398927184254,0.023509282618761063,0.15197697281837463,0.1852487176656723,0.003496363293379545,-0.037096332758665085,-0.10323099792003632,0.9939593076705933,0.0,0.0,0.0,0.0,0.0,0.0
206,1724913398937200353,0.023827970027923584,0.15212829411029816,0.18524059653282166,0.004115693271160126,-0.03785298019647598,-0.10207568109035492,0.9940477013587952,0.0,0.0,0.0,0.0,0.0,0.0
208,1724913398946971455,0.02411777339875698,0.15233683586120605,0.18536533415317535,0.004354411736130714,-0.038882065564394,-0.10139140486717224,0.9940769672393799,0.0,0.0,0.0,0.0,0.0,0.0
210,1724913398957011305,0.024506084620952606,0.152492955327034,0.18516004085540771,0.004578547086566687,-0.03981968015432358,-0.09946100413799286,0.9942338466644287,0.0,0.0,0.0,0.0,0.0,0.0
212,1724913398967655397,0.02494240738451481,0.15263187885284424,0.185042142868042,0.005149464588612318,-0.040510132908821106,-0.0976099967956543,0.9943865537643433,0.0,0.0,0.0,0.0,0.0,0.0
214,1724913398976929842,0.025333676487207413,0.1527339220046997,0.1850731521844864,0.005269015673547983,-0.04137803986668587,-0.09656421840190887,0.9944524168968201,0.0,0.0,0.0,0.0,0.0,0.0
216,1724913398986918651,0.025698695331811905,0.152827188372612,0.18513880670070648,0.005383901763707399,-0.04177714139223099,-0.0959484726190567,0.994494616985321,0.0,0.0,0.0,0.0,0.0,0.0
218,1724913398997851625,0.026056362316012383,0.15289923548698425,0.18541690707206726,0.004194887354969978,-0.041711386293172836,-0.09702610224485397,0.9943986535072327,0.0,0.0,0.0,0.0,0.0,0.0
220,1724913399006857717,0.026498060673475266,0.15303707122802734,0.18544289469718933,0.005104914773255587,-0.041904982179403305,-0.09659052640199661,0.9944286346435547,0.0,0.0,0.0,0.0,0.0,0.0
222,1724913399018374312,0.026842528954148293,0.15324562788009644,0.18553604185581207,0.004347469657659531,-0.04226361960172653,-0.09604721516370773,0.9944696426391602,0.0,0.0,0.0,0.0,0.0,0.0
224,1724913399027040775,0.027168840169906616,0.15344156324863434,0.18564359843730927,0.004176721442490816,-0.042264241725206375,-0.09573428332805634,0.9945005178451538,0.0,0.0,0.0,0.0,0.0,0.0
226,1724913399036905860,0.02759070135653019,0.15357635915279388,0.18579401075839996,0.0048100920394063,-0.04226117208600044,-0.09558014571666718,0.994512677192688,0.0,0.0,0.0,0.0,0.0,0.0
228,1724913399048485652,0.02793271280825138,0.15366508066654205,0.1859246790409088,0.004948388319462538,-0.04243878275156021,-0.0954948291182518,0.9945125579833984,0.0,0.0,0.0,0.0,0.0,0.0
230,1724913399056960074,0.02827438712120056,0.15377916395664215,0.1859159767627716,0.005331920459866524,-0.043024271726608276,-0.09447424113750458,0.9945829510688782,0.0,0.0,0.0,0.0,0.0,0.0
232,1724913399070829872,0.028544439002871513,0.15392644703388214,0.18587985634803772,0.0060984063893556595,-0.04262290522456169,-0.09378637373447418,0.9946609139442444,0.0,0.0,0.0,0.0,0.0,0.0
234,1724913399077872129,0.028785619884729385,0.15407238900661469,0.185942605137825,0.005964077077805996,-0.04279178008437157,-0.09340393543243408,0.9946904182434082,0.0,0.0,0.0,0.0,0.0,0.0
236,1724913399088143179,0.02906591072678566,0.15422828495502472,0.18601365387439728,0.006645289249718189,-0.04247097671031952,-0.09314081817865372,0.9947245717048645,0.0,0.0,0.0,0.0,0.0,0.0
238,1724913399097914463,0.02938159927725792,0.15443304181098938,0.18610259890556335,0.007310297805815935,-0.04258106276392937,-0.09254955500364304,0.994770348072052,0.0,0.0,0.0,0.0,0.0,0.0
240,1724913399108084752,0.029697777703404427,0.15469902753829956,0.1859125941991806,0.008410094305872917,-0.04283919185400009,-0.09076147526502609,0.9949153065681458,0.0,0.0,0.0,0.0,0.0,0.0
242,1724913399117331716,0.029976170510053635,0.15494582056999207,0.185960054397583,0.008390747010707855,-0.042663369327783585,-0.0900074914097786,0.9949914813041687,0.0,0.0,0.0,0.0,0.0,0.0
244,1724913399128612101,0.030276596546173096,0.155120387673378,0.18599462509155273,0.008912434801459312,-0.04275521636009216,-0.0896143689751625,0.9950186014175415,0.0,0.0,0.0,0.0,0.0,0.0
246,1724913399137002485,0.03060712106525898,0.1553151160478592,0.1860419362783432,0.009139865636825562,-0.04284263402223587,-0.08936408162117004,0.9950351715087891,0.0,0.0,0.0,0.0,0.0,0.0
248,1724913399146877317,0.0309978649020195,0.15549498796463013,0.18610675632953644,0.009096316993236542,-0.04268963634967804,-0.0892896056175232,0.9950489401817322,0.0,0.0,0.0,0.0,0.0,0.0
250,1724913399157511387,0.031510129570961,0.1554405242204666,0.18578334152698517,0.006323076318949461,-0.04471123591065407,-0.0890185683965683,0.9950058460235596,0.0,0.0,0.0,0.0,0.0,0.0
252,1724913399167607645,0.03213208168745041,0.15564149618148804,0.18554142117500305,0.006372965406626463,-0.04547204077243805,-0.08816693723201752,0.995046854019165,0.0,0.0,0.0,0.0,0.0,0.0
254,1724913399181461510,0.03272678703069687,0.15571966767311096,0.18525229394435883,0.006564822513610125,-0.046137094497680664,-0.08749192208051682,0.9950745701789856,0.0,0.0,0.0,0.0,0.0,0.0
256,1724913399187197017,0.033404797315597534,0.15596714615821838,0.18499404191970825,0.007184342015534639,-0.045154228806495667,-0.08660474419593811,0.9951930046081543,0.0,0.0,0.0,0.0,0.0,0.0
258,1724913399197796562,0.034080926328897476,0.156161367893219,0.18481965363025665,0.009043696336448193,-0.04323652759194374,-0.08656395971775055,0.9952666163444519,0.0,0.0,0.0,0.0,0.0,0.0
260,1724913399207037190,0.03476959466934204,0.15629136562347412,0.18498088419437408,0.009585755877196789,-0.0416283942759037,-0.08849789202213287,0.995159924030304,0.0,0.0,0.0,0.0,0.0,0.0
262,1724913399223913967,0.03544722869992256,0.15625713765621185,0.18458744883537292,0.01062980480492115,-0.04283430799841881,-0.08791445195674896,0.9951499104499817,0.0,0.0,0.0,0.0,0.0,0.0
264,1724913399227103070,0.036113541573286057,0.15617944300174713,0.1834927350282669,0.01140256505459547,-0.04485015198588371,-0.08476929366588593,0.9953254461288452,0.0,0.0,0.0,0.0,0.0,0.0
266,1724913399236722714,0.03699005767703056,0.15599514544010162,0.18281136453151703,0.01365086529403925,-0.0459221675992012,-0.08361481875181198,0.995345950126648,0.0,0.0,0.0,0.0,0.0,0.0
268,1724913399248413216,0.03782353177666664,0.1560216248035431,0.18227529525756836,0.01474568247795105,-0.046715062111616135,-0.08247498422861099,0.9953885078430176,0.0,0.0,0.0,0.0,0.0,0.0
270,1724913399256828988,0.038679830729961395,0.1561764031648636,0.18203961849212646,0.011379486881196499,-0.045452166348695755,-0.08244239538908005,0.9954938292503357,0.0,0.0,0.0,0.0,0.0,0.0
272,1724913399267477053,0.039685510098934174,0.15620672702789307,0.18213456869125366,0.010698433965444565,-0.04367310181260109,-0.08211056888103485,0.9956084489822388,0.0,0.0,0.0,0.0,0.0,0.0
274,1724913399279371555,0.0405673086643219,0.1563124805688858,0.18277102708816528,0.009973774664103985,-0.040358658879995346,-0.0843958631157875,0.9955646991729736,0.0,0.0,0.0,0.0,0.0,0.0
276,1724913399288070036,0.0413268581032753,0.15643230080604553,0.18332524597644806,0.009069511666893959,-0.03923429548740387,-0.08579814434051514,0.9954984188079834,0.0,0.0,0.0,0.0,0.0,0.0
278,1724913399299406469,0.042122457176446915,0.1566326767206192,0.18363706767559052,0.008990952745079994,-0.03848171979188919,-0.0863158330321312,0.9954837560653687,0.0,0.0,0.0,0.0,0.0,0.0
280,1724913399328810173,0.04320730268955231,0.15698790550231934,0.18380522727966309,0.009472216479480267,-0.0356966070830822,-0.08673688024282455,0.9955465197563171,0.0,0.0,0.0,0.0,0.0,0.0
282,1724913399329151044,0.04433849826455116,0.15759560465812683,0.18379107117652893,0.007504093926399946,-0.03400403633713722,-0.08781510591506958,0.995527982711792,0.0,0.0,0.0,0.0,0.0,0.0
284,1724913399329520677,0.0453692302107811,0.15837642550468445,0.18336544930934906,0.007339272648096085,-0.032368920743465424,-0.08810842782258987,0.9955578446388245,0.0,0.0,0.0,0.0,0.0,0.0
286,1724913399337377365,0.0462242029607296,0.1591828465461731,0.1830371916294098,0.0066316816955804825,-0.030872289091348648,-0.08877713233232498,0.9955508708953857,0.0,0.0,0.0,0.0,0.0,0.0
288,1724913399349359578,0.04699699580669403,0.1598510593175888,0.1830187439918518,0.004153065383434296,-0.02981492318212986,-0.09028444439172745,0.9954609870910645,0.0,0.0,0.0,0.0,0.0,0.0
290,1724913399358502360,0.04785168915987015,0.16060586273670197,0.18301448225975037,0.005485799629241228,-0.029059212654829025,-0.09068259596824646,0.9954407215118408,0.0,0.0,0.0,0.0,0.0,0.0
292,1724913399368292236,0.048656120896339417,0.16141685843467712,0.18305155634880066,0.005974809173494577,-0.026818562299013138,-0.09123478084802628,0.9954503774642944,0.0,0.0,0.0,0.0,0.0,0.0
294,1724913399377601409,0.04930539429187775,0.16214844584465027,0.18315790593624115,0.004993267823010683,-0.026045653969049454,-0.09137376397848129,0.9954635500907898,0.0,0.0,0.0,0.0,0.0,0.0
296,1724913399395474622,0.04998259246349335,0.16271153092384338,0.1835382729768753,0.003481924766674638,-0.024627141654491425,-0.0933639407157898,0.9953213930130005,0.0,0.0,0.0,0.0,0.0,0.0
298,1724913399397014947,0.050421252846717834,0.16313286125659943,0.18390320241451263,0.004637871868908405,-0.024608906358480453,-0.09373991191387177,0.9952817559242249,0.0,0.0,0.0,0.0,0.0,0.0
300,1724913399407868710,0.050766974687576294,0.16343379020690918,0.1843612790107727,0.005611334461718798,-0.024481412023305893,-0.09411820769309998,0.9952442049980164,0.0,0.0,0.0,0.0,0.0,0.0
302,1724913399417653546,0.05099916830658913,0.1634199470281601,0.18495698273181915,0.0067770094610750675,-0.024557895958423615,-0.0945310890674591,0.9951959252357483,0.0,0.0,0.0,0.0,0.0,0.0
304,1724913399427636968,0.05102375149726868,0.16324704885482788,0.18532195687294006,0.006920949090272188,-0.0248491819947958,-0.09486402571201324,0.9951560497283936,0.0,0.0,0.0,0.0,0.0,0.0
306,1724913399437049547,0.05088990181684494,0.1629122942686081,0.18538103997707367,0.00707830348983407,-0.025786083191633224,-0.09486386924982071,0.9951311349868774,0.0,0.0,0.0,0.0,0.0,0.0
308,1724913399448341948,0.05048307403922081,0.16242235898971558,0.18545354902744293,0.0061836508102715015,-0.028081780299544334,-0.09580639749765396,0.9949846267700195,0.0,0.0,0.0,0.0,0.0,0.0
310,1724913399457384976,0.05000864714384079,0.16177572309970856,0.1852801889181137,0.00837273895740509,-0.030305348336696625,-0.09657932817935944,0.9948286414146423,0.0,0.0,0.0,0.0,0.0,0.0
312,1724913399467810248,0.04933004453778267,0.16098818182945251,0.18509751558303833,0.010498045943677425,-0.03273080661892891,-0.09759879112243652,0.9946321249008179,0.0,0.0,0.0,0.0,0.0,0.0
314,1724913399481006130,0.048319414258003235,0.16024912893772125,0.1848185956478119,0.010852718725800514,-0.035368360579013824,-0.09773745387792587,0.9945244193077087,0.0,0.0,0.0,0.0,0.0,0.0
316,1724913399486924267,0.04712557792663574,0.15935422480106354,0.18474401533603668,0.01029125414788723,-0.03993431106209755,-0.09804167598485947,0.9943275451660156,0.0,0.0,0.0,0.0,0.0,0.0
318,1724913399510895006,0.04571346193552017,0.15831159055233002,0.18469442427158356,0.009271913208067417,-0.04407624900341034,-0.0973035991191864,0.9942350387573242,0.0,0.0,0.0,0.0,0.0,0.0
320,1724913399511333276,0.044372569769620895,0.15708021819591522,0.18471989035606384,0.011526894755661488,-0.048304419964551926,-0.09682677686214447,0.9940615892410278,0.0,0.0,0.0,0.0,0.0,0.0
322,1724913399517939972,0.04320436716079712,0.156025230884552,0.18501296639442444,0.01408687885850668,-0.05144983157515526,-0.09694503992795944,0.9938591718673706,0.0,0.0,0.0,0.0,0.0,0.0
324,1724913399533784527,0.041879430413246155,0.15495258569717407,0.18552722036838531,0.013324941508471966,-0.053158219903707504,-0.09916798770427704,0.9935604929924011,0.0,0.0,0.0,0.0,0.0,0.0
326,1724913399536858519,0.040794793516397476,0.15365371108055115,0.18549218773841858,0.012856478802859783,-0.057566311210393906,-0.09914140403270721,0.9933236837387085,0.0,0.0,0.0,0.0,0.0,0.0
328,1724913399548560288,0.03970995172858238,0.1524835079908371,0.1853342205286026,0.014517143368721008,-0.060301441699266434,-0.09870840609073639,0.9931816458702087,0.0,0.0,0.0,0.0,0.0,0.0
330,1724913399556960216,0.038667045533657074,0.15145590901374817,0.18563124537467957,0.014734233729541302,-0.06235140189528465,-0.10042420029640198,0.9928797483444214,0.0,0.0,0.0,0.0,0.0,0.0
332,1724913399570728848,0.037576109170913696,0.15016475319862366,0.18556666374206543,0.013698139227926731,-0.06486102193593979,-0.1007762998342514,0.992698073387146,0.0,0.0,0.0,0.0,0.0,0.0
334,1724913399577851686,0.036614928394556046,0.1488306075334549,0.18531370162963867,0.013673283159732819,-0.06819577515125275,-0.09965211898088455,0.992588460445404,0.0,0.0,0.0,0.0,0.0,0.0
336,1724913399602179350,0.035782307386398315,0.14772683382034302,0.18522867560386658,0.01489152479916811,-0.07130108028650284,-0.09975886344909668,0.992341935634613,0.0,0.0,0.0,0.0,0.0,0.0
338,1724913399602823605,0.035042986273765564,0.14666731655597687,0.1851433366537094,0.01754944957792759,-0.07289188355207443,-0.10108013451099396,0.9920491576194763,0.0,0.0,0.0,0.0,0.0,0.0
340,1724913399607794731,0.03427032753825188,0.14556899666786194,0.18488405644893646,0.018720323219895363,-0.07547923922538757,-0.10049838572740555,0.9918933510780334,0.0,0.0,0.0,0.0,0.0,0.0
342,1724913399616914080,0.033600982278585434,0.14445500075817108,0.18476417660713196,0.019275078549981117,-0.07774343341588974,-0.10053318738937378,0.9917044043540955,0.0,0.0,0.0,0.0,0.0,0.0
344,1724913399627534033,0.03292837366461754,0.1434165984392166,0.1848084181547165,0.01849306933581829,-0.07916484028100967,-0.10090520977973938,0.9915690422058105,0.0,0.0,0.0,0.0,0.0,0.0
346,1724913399636976167,0.03227229043841362,0.1422702968120575,0.1846800148487091,0.018669087439775467,-0.08148057758808136,-0.10093028098344803,0.9913755655288696,0.0,0.0,0.0,0.0,0.0,0.0
348,1724913399648502211,0.031644973903894424,0.1410977691411972,0.18438783288002014,0.019168796017766,-0.08434542268514633,-0.09865587949752808,0.9913554191589355,0.0,0.0,0.0,0.0,0.0,0.0
350,1724913399657209093,0.031083717942237854,0.14013680815696716,0.18442955613136292,0.01879553683102131,-0.08567153662443161,-0.09844619780778885,0.991269588470459,0.0,0.0,0.0,0.0,0.0,0.0
352,1724913399666872190,0.03058565780520439,0.13918307423591614,0.18449322879314423,0.01867256872355938,-0.08692468702793121,-0.09987986832857132,0.9910194873809814,0.0,0.0,0.0,0.0,0.0,0.0
354,1724913399677039507,0.030159050598740578,0.13828298449516296,0.18427887558937073,0.019038988277316093,-0.0891328901052475,-0.1001783162355423,0.9907861948013306,0.0,0.0,0.0,0.0,0.0,0.0
356,1724913399687327195,0.029719917103648186,0.13730084896087646,0.18374375998973846,0.021082952618598938,-0.09069474041461945,-0.09950563311576843,0.9906708598136902,0.0,0.0,0.0,0.0,0.0,0.0
358,1724913399697026467,0.029066644608974457,0.13641582429409027,0.18347470462322235,0.0208883173763752,-0.09221508353948593,-0.0991213470697403,0.9905731081962585,0.0,0.0,0.0,0.0,0.0,0.0
360,1724913399707068492,0.028400354087352753,0.13541464507579803,0.18330490589141846,0.02003173902630806,-0.09485309571027756,-0.09919034689664841,0.9903347492218018,0.0,0.0,0.0,0.0,0.0,0.0
362,1724913399717831166,0.027666784822940826,0.13450053334236145,0.18277005851268768,0.01935575157403946,-0.09744580090045929,-0.09733038395643234,0.9902809858322144,0.0,0.0,0.0,0.0,0.0,0.0
364,1724913399729954536,0.026946887373924255,0.13357295095920563,0.18233537673950195,0.01899089850485325,-0.10030167549848557,-0.09607395529747009,0.9901255965232849,0.0,0.0,0.0,0.0,0.0,0.0
366,1724913399737300805,0.026286141946911812,0.13259491324424744,0.18186624348163605,0.020410310477018356,-0.10227556526660919,-0.09530086070299149,0.9899701476097107,0.0,0.0,0.0,0.0,0.0,0.0
368,1724913399747136821,0.02551954984664917,0.13155989348888397,0.18146473169326782,0.021220970898866653,-0.10521366447210312,-0.09344227612018585,0.9898223280906677,0.0,0.0,0.0,0.0,0.0,0.0
370,1724913399759383952,0.024716060608625412,0.1306353658437729,0.18143188953399658,0.02183998003602028,-0.10562809556722641,-0.09351048618555069,0.9897583723068237,0.0,0.0,0.0,0.0,0.0,0.0
372,1724913399767477987,0.023800872266292572,0.12976540625095367,0.18114657700061798,0.020523952320218086,-0.10735146701335907,-0.09201182425022125,0.9897415637969971,0.0,0.0,0.0,0.0,0.0,0.0
374,1724913399783884688,0.02289150096476078,0.1290033906698227,0.18091343343257904,0.022335650399327278,-0.10879422724246979,-0.09048506617546082,0.9896854758262634,0.0,0.0,0.0,0.0,0.0,0.0
376,1724913399788171600,0.0218893364071846,0.1282465010881424,0.180779829621315,0.02145625278353691,-0.11078277975320816,-0.0896533876657486,0.9895600080490112,0.0,0.0,0.0,0.0,0.0,0.0
378,1724913399798231491,0.020983032882213593,0.12748917937278748,0.18067504465579987,0.021509425714612007,-0.11233752965927124,-0.08839481323957443,0.9894968867301941,0.0,0.0,0.0,0.0,0.0,0.0
380,1724913399807538483,0.020076246932148933,0.12679356336593628,0.18067169189453125,0.022234616801142693,-0.1139519214630127,-0.08812552690505981,0.9893202781677246,0.0,0.0,0.0,0.0,0.0,0.0
382,1724913399818265598,0.019243206828832626,0.12620338797569275,0.18043217062950134,0.023381724953651428,-0.11586429178714752,-0.08649678528308868,0.9892153739929199,0.0,0.0,0.0,0.0,0.0,0.0
384,1724913399829230097,0.01832142099738121,0.1257028728723526,0.17986157536506653,0.02564738690853119,-0.11809732019901276,-0.0827968493103981,0.9892118573188782,0.0,0.0,0.0,0.0,0.0,0.0
386,1724913399837686612,0.017390944063663483,0.1253139227628708,0.17977014183998108,0.02629290148615837,-0.11793659627437592,-0.08282700181007385,0.9892114400863647,0.0,0.0,0.0,0.0,0.0,0.0
388,1724913399847611783,0.016437027603387833,0.12488757073879242,0.17959320545196533,0.025659756734967232,-0.11967582255601883,-0.08227995783090591,0.9890649318695068,0.0,0.0,0.0,0.0,0.0,0.0
390,1724913399857183141,0.01556951180100441,0.12450335919857025,0.17929722368717194,0.024225812405347824,-0.12204783409833908,-0.08057624101638794,0.9889513850212097,0.0,0.0,0.0,0.0,0.0,0.0
392,1724913399867362839,0.014843921177089214,0.1242770254611969,0.17899484932422638,0.0257248654961586,-0.12320475280284882,-0.07856741547584534,0.9889318346977234,0.0,0.0,0.0,0.0,0.0,0.0
394,1724913399880951469,0.014174306765198708,0.12410179525613785,0.1786103993654251,0.02869068831205368,-0.12415534257888794,-0.07536979019641876,0.988980233669281,0.0,0.0,0.0,0.0,0.0,0.0
396,1724913399886998248,0.013491354882717133,0.1239519938826561,0.17831581830978394,0.029305150732398033,-0.12508903443813324,-0.07385588437318802,0.9889587759971619,0.0,0.0,0.0,0.0,0.0,0.0
398,1724913399896722300,0.012837359681725502,0.12371741980314255,0.17832466959953308,0.029792463406920433,-0.1255967915058136,-0.07413464039564133,0.9888589382171631,0.0,0.0,0.0,0.0,0.0,0.0
400,1724913399908326226,0.012143144384026527,0.12347551435232162,0.1782504767179489,0.029201285913586617,-0.12713976204395294,-0.07319700717926025,0.9887492060661316,0.0,0.0,0.0,0.0,0.0,0.0
402,1724913399917602823,0.011530639603734016,0.12329362332820892,0.17806357145309448,0.029195329174399376,-0.12690865993499756,-0.07197625190019608,0.9888687133789062,0.0,0.0,0.0,0.0,0.0,0.0
404,1724913399928865687,0.010939108207821846,0.12315819412469864,0.1777934432029724,0.029765641316771507,-0.12704409658908844,-0.07048961520195007,0.9889413714408875,0.0,0.0,0.0,0.0,0.0,0.0
406,1724913399937213916,0.01042694877833128,0.12293624877929688,0.17743241786956787,0.029969993978738785,-0.1280973106622696,-0.06849989295005798,0.988939106464386,0.0,0.0,0.0,0.0,0.0,0.0
408,1724913399947649903,0.009915999136865139,0.1226361095905304,0.17715544998645782,0.029880525544285774,-0.13030266761779785,-0.06582869589328766,0.9888352155685425,0.0,0.0,0.0,0.0,0.0,0.0
410,1724913399957055288,0.009503471665084362,0.12242460995912552,0.17695079743862152,0.030117075890302658,-0.1316661834716797,-0.06409506499767303,0.9887612462043762,0.0,0.0,0.0,0.0,0.0,0.0
412,1724913399967370609,0.009223044849932194,0.1222594678401947,0.17691971361637115,0.03052673488855362,-0.13230252265930176,-0.06306824088096619,0.9887297749519348,0.0,0.0,0.0,0.0,0.0,0.0
414,1724913399976938948,0.009020708501338959,0.12215264141559601,0.17687317728996277,0.030905356630682945,-0.13324040174484253,-0.06224112585186958,0.9886444807052612,0.0,0.0,0.0,0.0,0.0,0.0
416,1724913399986950195,0.00889376550912857,0.12198062241077423,0.17688913643360138,0.03172094747424126,-0.13435938954353333,-0.0613526925444603,0.9885227680206299,0.0,0.0,0.0,0.0,0.0,0.0
418,1724913399996905435,0.008861338719725609,0.12184251844882965,0.1768348217010498,0.03168035298585892,-0.135115385055542,-0.06014486029744148,0.9884952306747437,0.0,0.0,0.0,0.0,0.0,0.0
420,1724913400007072023,0.008914720267057419,0.12172247469425201,0.17682315409183502,0.031950633972883224,-0.13553649187088013,-0.058796923607587814,0.988510012626648,0.0,0.0,0.0,0.0,0.0,0.0
422,1724913400017644986,0.008916125632822514,0.12174992263317108,0.1769210249185562,0.030641933903098106,-0.13674339652061462,-0.05709017813205719,0.9884853363037109,0.0,0.0,0.0,0.0,0.0,0.0
424,1724913400029807104,0.009021300822496414,0.12184897065162659,0.1770893633365631,0.030824579298496246,-0.13643185794353485,-0.05581479147076607,0.9885954260826111,0.0,0.0,0.0,0.0,0.0,0.0
426,1724913400037048937,0.009096834808588028,0.12188439816236496,0.17713706195354462,0.031533293426036835,-0.1369481235742569,-0.053963109850883484,0.9886045455932617,0.0,0.0,0.0,0.0,0.0,0.0
428,1724913400049410163,0.009271083399653435,0.12193427979946136,0.177255779504776,0.03187856823205948,-0.13621434569358826,-0.052735667675733566,0.9887610673904419,0.0,0.0,0.0,0.0,0.0,0.0
430,1724913400057236912,0.009394744411110878,0.12206369638442993,0.17743560671806335,0.031462885439395905,-0.13610461354255676,-0.051675815135240555,0.9888454079627991,0.0,0.0,0.0,0.0,0.0,0.0
432,1724913400067642494,0.009684186428785324,0.12231487035751343,0.17751267552375793,0.03281327337026596,-0.13490639626979828,-0.049879562109708786,0.9890578985214233,0.0,0.0,0.0,0.0,0.0,0.0
434,1724913400081233503,0.010016627609729767,0.12250404059886932,0.17766398191452026,0.03221966698765755,-0.13550665974617004,-0.048586405813694,0.9890597462654114,0.0,0.0,0.0,0.0,0.0,0.0
436,1724913400086933623,0.010499348863959312,0.12282893806695938,0.1779956966638565,0.03236250951886177,-0.13464753329753876,-0.048770222812891006,0.9891633987426758,0.0,0.0,0.0,0.0,0.0,0.0
438,1724913400097319245,0.011008625850081444,0.12303934246301651,0.1782619059085846,0.030788714066147804,-0.13450124859809875,-0.0482698455452919,0.9892581105232239,0.0,0.0,0.0,0.0,0.0,0.0
440,1724913400107617392,0.011516852304339409,0.12324754148721695,0.1783541440963745,0.029925527051091194,-0.13432522118091583,-0.047494206577539444,0.9893460869789124,0.0,0.0,0.0,0.0,0.0,0.0
442,1724913400117475386,0.01206289418041706,0.12358947098255157,0.17858801782131195,0.03028697334229946,-0.13409964740276337,-0.04671578109264374,0.9894026517868042,0.0,0.0,0.0,0.0,0.0,0.0
444,1724913400128370408,0.0125765735283494,0.12397574633359909,0.17908336222171783,0.029080897569656372,-0.13351675868034363,-0.0468655601143837,0.9895106554031372,0.0,0.0,0.0,0.0,0.0,0.0
446,1724913400141191407,0.013157686218619347,0.12432274222373962,0.17932046949863434,0.028453698381781578,-0.13332025706768036,-0.045664917677640915,0.9896115064620972,0.0,0.0,0.0,0.0,0.0,0.0
448,1724913400147484924,0.0138118090108037,0.12475758790969849,0.1795753389596939,0.029239872470498085,-0.13158398866653442,-0.0445958711206913,0.9898695945739746,0.0,0.0,0.0,0.0,0.0,0.0
450,1724913400158255734,0.014416154474020004,0.12546053528785706,0.18010950088500977,0.028683405369520187,-0.12805093824863434,-0.04526674374938011,0.9903187155723572,0.0,0.0,0.0,0.0,0.0,0.0
452,1724913400168331445,0.014969798736274242,0.12608541548252106,0.18045717477798462,0.026710553094744682,-0.12682650983333588,-0.045128218829631805,0.9905378222465515,0.0,0.0,0.0,0.0,0.0,0.0
454,1724913400177108122,0.01569381356239319,0.12676741182804108,0.1806655079126358,0.026703493669629097,-0.1256752610206604,-0.04430679604411125,0.9907218217849731,0.0,0.0,0.0,0.0,0.0,0.0
456,1724913400186910226,0.016359642148017883,0.12725074589252472,0.1810021996498108,0.024740077555179596,-0.12440852075815201,-0.04421306028962135,0.990936815738678,0.0,0.0,0.0,0.0,0.0,0.0
458,1724913400197856077,0.017075959593057632,0.1278797835111618,0.18135346472263336,0.024524537846446037,-0.1221759170293808,-0.04419935867190361,0.9912205338478088,0.0,0.0,0.0,0.0,0.0,0.0
460,1724913400207687164,0.01776295155286789,0.12876583635807037,0.1816267967224121,0.024036630988121033,-0.11843044310808182,-0.04421035945415497,0.9916864037513733,0.0,0.0,0.0,0.0,0.0,0.0
462,1724913400220813084,0.01841357722878456,0.1298643946647644,0.1819920688867569,0.02241598255932331,-0.11435259878635406,-0.04567115008831024,0.9921366572380066,0.0,0.0,0.0,0.0,0.0,0.0
464,1724913400227419672,0.019276931881904602,0.13090889155864716,0.1819770783185959,0.021979860961437225,-0.11167055368423462,-0.04512465372681618,0.9924768805503845,0.0,0.0,0.0,0.0,0.0,0.0
466,1724913400238092805,0.020264219492673874,0.13200704753398895,0.18217362463474274,0.021877210587263107,-0.10842669010162354,-0.04566428065299988,0.9928141832351685,0.0,0.0,0.0,0.0,0.0,0.0
468,1724913400249209202,0.021203042939305305,0.13323985040187836,0.18242864310741425,0.019660871475934982,-0.10482677072286606,-0.04598480090498924,0.993232250213623,0.0,0.0,0.0,0.0,0.0,0.0
470,1724913400257439133,0.022304987534880638,0.13440853357315063,0.182460218667984,0.020424704998731613,-0.10054419934749603,-0.04613886773586273,0.99365234375,0.0,0.0,0.0,0.0,0.0,0.0
472,1724913400268588468,0.023396041244268417,0.13574030995368958,0.18264076113700867,0.02047736570239067,-0.09692764282226562,-0.04604751989245415,0.9940147995948792,0.0,0.0,0.0,0.0,0.0,0.0
474,1724913400277507778,0.02467411383986473,0.13709132373332977,0.18288788199424744,0.01842844858765602,-0.09225107729434967,-0.04714121297001839,0.9944484829902649,0.0,0.0,0.0,0.0,0.0,0.0
476,1724913400287157009,0.025941483676433563,0.13838976621627808,0.182830348610878,0.01633639447391033,-0.08818323165178299,-0.047403834760189056,0.9948415756225586,0.0,0.0,0.0,0.0,0.0,0.0
478,1724913400301967005,0.027487901970744133,0.1397448182106018,0.18277233839035034,0.01791524887084961,-0.08284013718366623,-0.04614001512527466,0.9953330159187317,0.0,0.0,0.0,0.0,0.0,0.0
480,1724913400307209009,0.029151130467653275,0.14103300869464874,0.1825566440820694,0.01720409281551838,-0.07817947864532471,-0.04607285186648369,0.9957255721092224,0.0,0.0,0.0,0.0,0.0,0.0
482,1724913400337343265,0.030827682465314865,0.14242318272590637,0.18272711336612701,0.013460179790854454,-0.0744747444987297,-0.04689311608672142,0.9960288405418396,0.0,0.0,0.0,0.0,0.0,0.0
484,1724913400337734380,0.032960496842861176,0.14382560551166534,0.1822289079427719,0.014953751116991043,-0.06569618731737137,-0.04634993150830269,0.9966505169868469,0.0,0.0,0.0,0.0,0.0,0.0
486,1724913400339226820,0.034949544817209244,0.14531856775283813,0.18240991234779358,0.011794567108154297,-0.06060709431767464,-0.047711219638586044,0.9969510436058044,0.0,0.0,0.0,0.0,0.0,0.0
488,1724913400347640117,0.03722485154867172,0.1465074121952057,0.18178150057792664,0.01297916378825903,-0.05336359888315201,-0.045691076666116714,0.9974448680877686,0.0,0.0,0.0,0.0,0.0,0.0
490,1724913400357418507,0.0396052710711956,0.14758937060832977,0.18124498426914215,0.012478272430598736,-0.04737694934010506,-0.04429690167307854,0.9978164434432983,0.0,0.0,0.0,0.0,0.0,0.0
492,1724913400367616187,0.04225876182317734,0.14864595234394073,0.18121887743473053,0.009972607716917992,-0.03957681730389595,-0.046761445701122284,0.9980719685554504,0.0,0.0,0.0,0.0,0.0,0.0
494,1724913400377601883,0.04468505084514618,0.1501067727804184,0.18134349584579468,0.007426469586789608,-0.03380066528916359,-0.04983259364962578,0.9981579184532166,0.0,0.0,0.0,0.0,0.0,0.0
496,1724913400387120834,0.04694109782576561,0.15104246139526367,0.180943563580513,0.005340668372809887,-0.03196290135383606,-0.04965959116816521,0.9982403516769409,0.0,0.0,0.0,0.0,0.0,0.0
498,1724913400398492993,0.04937327280640602,0.15200671553611755,0.18064214289188385,0.006342653650790453,-0.028109727427363396,-0.04875093698501587,0.9983952641487122,0.0,0.0,0.0,0.0,0.0,0.0
500,1724913400407754169,0.05134677141904831,0.1528296023607254,0.18055658042430878,0.0034766600001603365,-0.02756592258810997,-0.04911888763308525,0.9984064698219299,0.0,0.0,0.0,0.0,0.0,0.0
502,1724913400419452652,0.053106196224689484,0.1537998467683792,0.18078401684761047,0.0017680864548310637,-0.02539234422147274,-0.05006518214941025,0.9984216094017029,0.0,0.0,0.0,0.0,0.0,0.0
504,1724913400427413956,0.054155509918928146,0.1544150710105896,0.1811237782239914,0.0003377287066541612,-0.026437141001224518,-0.04894252493977547,0.9984516501426697,0.0,0.0,0.0,0.0,0.0,0.0
506,1724913400437251588,0.054749779403209686,0.15480133891105652,0.18167361617088318,0.00025730617926456034,-0.026435187086462975,-0.048583388328552246,0.9984692931175232,0.0,0.0,0.0,0.0,0.0,0.0
508,1724913400447993670,0.055062104016542435,0.1550392061471939,0.1821756660938263,-0.0006321205291897058,-0.02553398348391056,-0.04859762266278267,0.9984918832778931,0.0,0.0,0.0,0.0,0.0,0.0
510,1724913400456996258,0.05500456690788269,0.15529672801494598,0.18236997723579407,-0.0017035314813256264,-0.025189129635691643,-0.047846585512161255,0.9985356330871582,0.0,0.0,0.0,0.0,0.0,0.0
512,1724913400468211601,0.05464700609445572,0.15553049743175507,0.1824442595243454,-0.002301843138411641,-0.024612626060843468,-0.04808429628610611,0.9985374212265015,0.0,0.0,0.0,0.0,0.0,0.0
514,1724913400476784395,0.05400984361767769,0.1556849479675293,0.18228475749492645,-0.0018825471634045243,-0.024737175554037094,-0.048763956874608994,0.998502254486084,0.0,0.0,0.0,0.0,0.0,0.0
516,1724913400486924785,0.053175121545791626,0.1558603048324585,0.1821857988834381,-0.0018978927982971072,-0.02488480880856514,-0.049833398312330246,0.9984456896781921,0.0,0.0,0.0,0.0,0.0,0.0
518,1724913400497288664,0.05195032060146332,0.1559828817844391,0.18217307329177856,-0.003217908553779125,-0.02555682323873043,-0.051022037863731384,0.9983653426170349,0.0,0.0,0.0,0.0,0.0,0.0
520,1724913400533085184,0.050818827003240585,0.1561698317527771,0.1822441965341568,-0.003897938644513488,-0.025760551914572716,-0.05173738673329353,0.9983208775520325,0.0,0.0,0.0,0.0,0.0,0.0
522,1724913400533527383,0.04968992620706558,0.15640899538993835,0.18219530582427979,-0.003645493183284998,-0.02576935477554798,-0.05190300568938255,0.9983129501342773,0.0,0.0,0.0,0.0,0.0,0.0
524,1724913400533874496,0.04854287952184677,0.15667098760604858,0.1819007694721222,-0.001649528625421226,-0.02675500139594078,-0.050736602395772934,0.9983522891998291,0.0,0.0,0.0,0.0,0.0,0.0
526,1724913400536534858,0.0472165010869503,0.15705803036689758,0.18131236732006073,-0.0008432632894255221,-0.026893634349107742,-0.05035899579524994,0.9983686804771423,0.0,0.0,0.0,0.0,0.0,0.0
528,1724913400550849031,0.04578199237585068,0.15750306844711304,0.18094027042388916,-0.003751191310584545,-0.028124192729592323,-0.051439397037029266,0.9982729554176331,0.0,0.0,0.0,0.0,0.0,0.0
530,1724913400556867630,0.04461986571550369,0.15825963020324707,0.18024058640003204,-0.003797896672040224,-0.02853962779045105,-0.05181059241294861,0.9982419013977051,0.0,0.0,0.0,0.0,0.0,0.0
532,1724913400567481777,0.043622542172670364,0.15920647978782654,0.17947034537792206,-0.004004012327641249,-0.028605904430150986,-0.05322994291782379,0.9981644749641418,0.0,0.0,0.0,0.0,0.0,0.0
534,1724913400577930029,0.04254605248570442,0.1603061407804489,0.17860551178455353,-0.006224263925105333,-0.03024880215525627,-0.05482156202197075,0.9980184435844421,0.0,0.0,0.0,0.0,0.0,0.0
536,1724913400669326014,0.04157164692878723,0.16153889894485474,0.17751412093639374,-0.005683028604835272,-0.03126879036426544,-0.055063825100660324,0.9979769587516785,0.0,0.0,0.0,0.0,0.0,0.0
538,1724913400670379518,0.04058944433927536,0.16302062571048737,0.17668426036834717,-0.007089571096003056,-0.031192375347018242,-0.056741077452898026,0.9978763461112976,0.0,0.0,0.0,0.0,0.0,0.0
540,1724913400670727462,0.03970915079116821,0.1644788384437561,0.1757865846157074,-0.006786893587559462,-0.032594967633485794,-0.05741383880376816,0.9977951049804688,0.0,0.0,0.0,0.0,0.0,0.0
542,1724913400671058597,0.03883341699838638,0.16620630025863647,0.17496874928474426,-0.005634932313114405,-0.03310810774564743,-0.05827655643224716,0.9977354407310486,0.0,0.0,0.0,0.0,0.0,0.0
544,1724913400672495101,0.03798256814479828,0.16787637770175934,0.1739763617515564,-0.009484853595495224,-0.03434022516012192,-0.058086711913347244,0.9976756572723389,0.0,0.0,0.0,0.0,0.0,0.0
546,1724913400672889088,0.03723638132214546,0.16940666735172272,0.1729968637228012,-0.011032423004508018,-0.035398487001657486,-0.058810558170080185,0.9975804090499878,0.0,0.0,0.0,0.0,0.0,0.0
548,1724913400673219462,0.03662869334220886,0.17084145545959473,0.17178092896938324,-0.00959753803908825,-0.03827647119760513,-0.057212892919778824,0.9975818991661072,0.0,0.0,0.0,0.0,0.0,0.0
550,1724913400673471404,0.03623427078127861,0.17205040156841278,0.1709759682416916,-0.006499525159597397,-0.038245394825935364,-0.055389467626810074,0.9977108836174011,0.0,0.0,0.0,0.0,0.0,0.0
552,1724913400673723126,0.036010876297950745,0.17318235337734222,0.17072080075740814,-0.006316158454865217,-0.036911457777023315,-0.05392992123961449,0.9978422522544861,0.0,0.0,0.0,0.0,0.0,0.0
554,1724913400677720412,0.03602015972137451,0.17417798936367035,0.1710391789674759,-0.004948216490447521,-0.03542321175336838,-0.05325246602296829,0.9979403018951416,0.0,0.0,0.0,0.0,0.0,0.0
556,1724913400688646789,0.03607415780425072,0.17472103238105774,0.17146387696266174,-0.00601271353662014,-0.03734273090958595,-0.0524616613984108,0.9979063868522644,0.0,0.0,0.0,0.0,0.0,0.0
558,1724913400701925745,0.036301568150520325,0.17527788877487183,0.17190960049629211,-0.006682683248072863,-0.03711618110537529,-0.05312498286366463,0.997875452041626,0.0,0.0,0.0,0.0,0.0,0.0
560,1724913400706815985,0.03665480762720108,0.17563395202159882,0.17213742434978485,-0.005663839168846607,-0.03717784956097603,-0.052895594388246536,0.9978917241096497,0.0,0.0,0.0,0.0,0.0,0.0
562,1724913400717255072,0.036948416382074356,0.1758020520210266,0.1721724420785904,-0.005242026876658201,-0.0374886728823185,-0.05280286446213722,0.9978873133659363,0.0,0.0,0.0,0.0,0.0,0.0
564,1724913400730463633,0.03714510798454285,0.1758708953857422,0.17213955521583557,-0.005252160131931305,-0.038052722811698914,-0.05295225605368614,0.9978579878807068,0.0,0.0,0.0,0.0,0.0,0.0
566,1724913400736691926,0.03732883557677269,0.17587414383888245,0.1721619963645935,-0.00702308677136898,-0.037985339760780334,-0.053262196481227875,0.9978331923484802,0.0,0.0,0.0,0.0,0.0,0.0
568,1724913400746706833,0.037582263350486755,0.17580930888652802,0.17224016785621643,-0.00758684566244483,-0.03775668889284134,-0.05317355692386627,0.9978424310684204,0.0,0.0,0.0,0.0,0.0,0.0
570,1724913400756813625,0.0378226675093174,0.17571036517620087,0.17231892049312592,-0.007386584300547838,-0.037611935287714005,-0.05279283970594406,0.997869610786438,0.0,0.0,0.0,0.0,0.0,0.0
572,1724913400780871635,0.03811562806367874,0.17565907537937164,0.1724090278148651,-0.006727075669914484,-0.03777642548084259,-0.05246833711862564,0.9978851675987244,0.0,0.0,0.0,0.0,0.0,0.0
574,1724913400782501286,0.038359321653842926,0.17552560567855835,0.17251451313495636,-0.006608462892472744,-0.0385669469833374,-0.05287109687924385,0.9978345036506653,0.0,0.0,0.0,0.0,0.0,0.0
576,1724913400786834817,0.038663920015096664,0.17551250755786896,0.1725500077009201,-0.006473655812442303,-0.03921150788664818,-0.053173549473285675,0.9977941513061523,0.0,0.0,0.0,0.0,0.0,0.0
578,1724913400798008368,0.038995496928691864,0.17551836371421814,0.17259252071380615,-0.006497578229755163,-0.0395265594124794,-0.05341577157378197,0.9977686405181885,0.0,0.0,0.0,0.0,0.0,0.0
580,1724913400806833581,0.039304401725530624,0.17557530105113983,0.1726183146238327,-0.006525735836476088,-0.040094055235385895,-0.053445663303136826,0.9977442026138306,0.0,0.0,0.0,0.0,0.0,0.0
582,1724913400817391684,0.03958701342344284,0.17564305663108826,0.17261043190956116,-0.006305293645709753,-0.04062630608677864,-0.052622660994529724,0.9977678060531616,0.0,0.0,0.0,0.0,0.0,0.0
584,1724913400831120007,0.039779409766197205,0.17579703032970428,0.17248469591140747,-0.006486985832452774,-0.0409565232694149,-0.051347386091947556,0.9978196620941162,0.0,0.0,0.0,0.0,0.0,0.0
586,1724913400836870273,0.03998124971985817,0.17594636976718903,0.17242823541164398,-0.005528640002012253,-0.04137815535068512,-0.0505288727581501,0.9978498220443726,0.0,0.0,0.0,0.0,0.0,0.0
588,1724913400848546493,0.04018497094511986,0.17608332633972168,0.17243720591068268,-0.004697015509009361,-0.041912078857421875,-0.05011502280831337,0.9978526830673218,0.0,0.0,0.0,0.0,0.0,0.0
590,1724913400857761532,0.040436744689941406,0.17629429697990417,0.17251311242580414,-0.00275826221331954,-0.041618820279836655,-0.049889858812093735,0.9978834390640259,0.0,0.0,0.0,0.0,0.0,0.0
592,1724913400867202762,0.040680624544620514,0.176444411277771,0.1725858449935913,-0.0022852811962366104,-0.04196397215127945,-0.04963499307632446,0.9978829026222229,0.0,0.0,0.0,0.0,0.0,0.0
594,1724913400878035589,0.0409688726067543,0.17660152912139893,0.17262183129787445,-0.001475808210670948,-0.04208225756883621,-0.04958050698041916,0.9978821873664856,0.0,0.0,0.0,0.0,0.0,0.0
596,1724913400888139903,0.04125978797674179,0.17671257257461548,0.17274978756904602,-0.002840959234163165,-0.042355697602033615,-0.049567583948373795,0.9978682994842529,0.0,0.0,0.0,0.0,0.0,0.0
598,1724913400896903585,0.04160943999886513,0.1768648475408554,0.1727234572172165,-0.0022247745655477047,-0.04192686080932617,-0.048962872475385666,0.9979178309440613,0.0,0.0,0.0,0.0,0.0,0.0
600,1724913400911947559,0.04200289398431778,0.17706900835037231,0.17304299771785736,-0.0030917131807655096,-0.04152170941233635,-0.04936351627111435,0.9979127049446106,0.0,0.0,0.0,0.0,0.0,0.0
602,1724913400919067872,0.042361244559288025,0.17718052864074707,0.173183411359787,-0.0038620280101895332,-0.04205011576414108,-0.04877309873700142,0.9979168772697449,0.0,0.0,0.0,0.0,0.0,0.0
604,1724913400931418221,0.04264591634273529,0.1773066520690918,0.17335960268974304,-0.005112066399306059,-0.042644113302230835,-0.04883981868624687,0.9978827834129333,0.0,0.0,0.0,0.0,0.0,0.0
606,1724913400937210151,0.04293493926525116,0.17732687294483185,0.17341355979442596,-0.00477928901091218,-0.04315819591283798,-0.04801255837082863,0.997902512550354,0.0,0.0,0.0,0.0,0.0,0.0
608,1724913400947469689,0.04324651509523392,0.17740917205810547,0.17357289791107178,-0.0049919565208256245,-0.04415066912770271,-0.04705832153558731,0.9979034662246704,0.0,0.0,0.0,0.0,0.0,0.0
610,1724913400956913796,0.043601471930742264,0.17752143740653992,0.17366598546504974,-0.004525840748101473,-0.04492771998047829,-0.04580149054527283,0.9979294538497925,0.0,0.0,0.0,0.0,0.0,0.0
612,1724913400968680822,0.044036686420440674,0.17767848074436188,0.17373690009117126,-0.0033532294910401106,-0.04509163647890091,-0.04467025771737099,0.9979780316352844,0.0,0.0,0.0,0.0,0.0,0.0
614,1724913400976918817,0.044459518045186996,0.1778397560119629,0.17379266023635864,-0.0025245847646147013,-0.04593748226761818,-0.043818943202495575,0.9979796409606934,0.0,0.0,0.0,0.0,0.0,0.0
616,1724913400987565587,0.04487736150622368,0.1780916303396225,0.17390981316566467,-0.0020409575663506985,-0.046641286462545395,-0.04254850745201111,0.9980030059814453,0.0,0.0,0.0,0.0,0.0,0.0
618,1724913400998673996,0.04539850354194641,0.1784004420042038,0.174117773771286,-0.0011003816034644842,-0.046290356665849686,-0.04163534194231033,0.9980594515800476,0.0,0.0,0.0,0.0,0.0,0.0
620,1724913401013856017,0.0458853542804718,0.17867563664913177,0.1742630898952484,-0.00014621566515415907,-0.046591248363256454,-0.04060760885477066,0.9980883002281189,0.0,0.0,0.0,0.0,0.0,0.0
622,1724913401018136423,0.046255242079496384,0.17903968691825867,0.17450155317783356,-0.002156323054805398,-0.04867352545261383,-0.03926454484462738,0.9980403780937195,0.0,0.0,0.0,0.0,0.0,0.0
624,1724913401033694347,0.04671917483210564,0.17960870265960693,0.17473164200782776,-0.0026157305110245943,-0.04870099574327469,-0.039125654846429825,0.998043417930603,0.0,0.0,0.0,0.0,0.0,0.0
626,1724913401036643645,0.04725608229637146,0.18006649613380432,0.17461127042770386,-0.0025491409469395876,-0.04912196844816208,-0.037706125527620316,0.9980776309967041,0.0,0.0,0.0,0.0,0.0,0.0
628,1724913401047915433,0.04781439155340195,0.18067100644111633,0.174666166305542,-0.002661509206518531,-0.049151986837387085,-0.03723479434847832,0.9980935454368591,0.0,0.0,0.0,0.0,0.0,0.0
630,1724913401057062248,0.04831244796514511,0.18122602999210358,0.17477509379386902,-0.0026547180023044348,-0.04920685291290283,-0.03689134120941162,0.9981036186218262,0.0,0.0,0.0,0.0,0.0,0.0
632,1724913401067751609,0.04871194064617157,0.18181133270263672,0.17496509850025177,-0.003980505280196667,-0.049470070749521255,-0.03697885200381279,0.9980828762054443,0.0,0.0,0.0,0.0,0.0,0.0
634,1724913401080487016,0.04909103363752365,0.18230250477790833,0.17507781088352203,-0.004243643954396248,-0.050745513290166855,-0.036180708557367325,0.9980469942092896,0.0,0.0,0.0,0.0,0.0,0.0
636,1724913401086899489,0.049586713314056396,0.18292756378650665,0.17520533502101898,-0.0037757710088044405,-0.050098493695259094,-0.03568306192755699,0.9980995059013367,0.0,0.0,0.0,0.0,0.0,0.0
638,1724913401097896143,0.05014845356345177,0.18344935774803162,0.17523495852947235,-0.003357222303748131,-0.05026073008775711,-0.03461556136608124,0.9981305003166199,0.0,0.0,0.0,0.0,0.0,0.0
640,1724913401108491064,0.0507161021232605,0.18411408364772797,0.17521795630455017,-0.0022264341823756695,-0.04938856139779091,-0.033728934824466705,0.9982075095176697,0.0,0.0,0.0,0.0,0.0,0.0
642,1724913401117324568,0.05126830190420151,0.18475158512592316,0.17527039349079132,-0.0023288787342607975,-0.049875494092702866,-0.03277813270688057,0.9982147216796875,0.0,0.0,0.0,0.0,0.0,0.0
644,1724913401128765206,0.051769107580184937,0.18529674410820007,0.17532764375209808,-0.001472399802878499,-0.05034923553466797,-0.03218115493655205,0.9982119798660278,0.0,0.0,0.0,0.0,0.0,0.0
646,1724913401155170064,0.052250176668167114,0.185695618391037,0.17535406351089478,-0.0005445891874842346,-0.05059508606791496,-0.03140024095773697,0.9982253909111023,0.0,0.0,0.0,0.0,0.0,0.0
648,1724913401155701624,0.05281110107898712,0.18610043823719025,0.1752614825963974,2.365335421927739e-05,-0.05135350674390793,-0.02968224138021469,0.9982393383979797,0.0,0.0,0.0,0.0,0.0,0.0
650,1724913401158140606,0.05335073545575142,0.18675585091114044,0.17559576034545898,-0.0034516621381044388,-0.05062057822942734,-0.03162145987153053,0.9982113242149353,0.0,0.0,0.0,0.0,0.0,0.0
652,1724913401167335338,0.05401631444692612,0.18734994530677795,0.175536647439003,-0.003941887989640236,-0.04958470165729523,-0.032938964664936066,0.998218834400177,0.0,0.0,0.0,0.0,0.0,0.0
654,1724913401180382401,0.054456815123558044,0.18803732097148895,0.17556975781917572,-0.004114086739718914,-0.04837964102625847,-0.03352116793394089,0.9982579350471497,0.0,0.0,0.0,0.0,0.0,0.0
656,1724913401187659486,0.0549762025475502,0.18846355378627777,0.17541591823101044,-0.0037373616360127926,-0.04825549200177193,-0.03310331702232361,0.998279333114624,0.0,0.0,0.0,0.0,0.0,0.0
658,1724913401198062617,0.0556001253426075,0.1886998862028122,0.17514076828956604,-0.003131403122097254,-0.04965798184275627,-0.03184402361512184,0.998253583908081,0.0,0.0,0.0,0.0,0.0,0.0
660,1724913401207730087,0.05611030384898186,0.1890125274658203,0.1750127375125885,-0.002138349460437894,-0.049924954771995544,-0.03122567944228649,0.9982624650001526,0.0,0.0,0.0,0.0,0.0,0.0
662,1724913401218016420,0.05669713392853737,0.18920326232910156,0.17489974200725555,-0.0007479288033209741,-0.0496525801718235,-0.030812950804829597,0.9982908964157104,0.0,0.0,0.0,0.0,0.0,0.0
664,1724913401232983655,0.05731227621436119,0.18926511704921722,0.17470860481262207,0.0014968130271881819,-0.04854334145784378,-0.03040446899831295,0.9983571171760559,0.0,0.0,0.0,0.0,0.0,0.0
666,1724913401238529811,0.05805231258273125,0.18909360468387604,0.17398330569267273,0.0028959717601537704,-0.048614561557769775,-0.028508083894848824,0.9984064698219299,0.0,0.0,0.0,0.0,0.0,0.0
668,1724913401246847662,0.05887002870440483,0.18921174108982086,0.17333979904651642,0.0023944247514009476,-0.04708237573504448,-0.028547709807753563,0.9984800815582275,0.0,0.0,0.0,0.0,0.0,0.0
670,1724913401257050118,0.059779562056064606,0.18923084437847137,0.17296570539474487,0.001553609617985785,-0.04667378589510918,-0.030000556260347366,0.9984583854675293,0.0,0.0,0.0,0.0,0.0,0.0
672,1724913401267556449,0.060724563896656036,0.18922540545463562,0.17275990545749664,0.0017600831342861056,-0.0445094108581543,-0.03052574209868908,0.998540997505188,0.0,0.0,0.0,0.0,0.0,0.0
674,1724913401277264469,0.061469800770282745,0.1893748939037323,0.17277413606643677,2.3133194190450013e-05,-0.04316280409693718,-0.0307309553027153,0.9985952973365784,0.0,0.0,0.0,0.0,0.0,0.0
676,1724913401287325992,0.06193853169679642,0.1896444410085678,0.17308497428894043,-0.00016483238141518086,-0.04292144626379013,-0.03064429573714733,0.998608410358429,0.0,0.0,0.0,0.0,0.0,0.0
678,1724913401301230934,0.06231143698096275,0.18975572288036346,0.17334584891796112,-0.0010912313591688871,-0.04250602424144745,-0.031331807374954224,0.9986042380332947,0.0,0.0,0.0,0.0,0.0,0.0
680,1724913401306824927,0.06292890012264252,0.18965841829776764,0.17365030944347382,0.0009166179224848747,-0.042097754776477814,-0.03123420663177967,0.9986248016357422,0.0,0.0,0.0,0.0,0.0,0.0
682,1724913401318194794,0.06338843703269958,0.18953493237495422,0.17386338114738464,0.0014372748555615544,-0.042134396731853485,-0.03108350560069084,0.9986273050308228,0.0,0.0,0.0,0.0,0.0,0.0
684,1724913401353481828,0.06367557495832443,0.18945059180259705,0.1740594059228897,0.0019850588869303465,-0.04223143309354782,-0.030534712597727776,0.9986391663551331,0.0,0.0,0.0,0.0,0.0,0.0
686,1724913401354091779,0.06383571028709412,0.18935266137123108,0.17416632175445557,0.002588014118373394,-0.04281700775027275,-0.03008669801056385,0.9986264705657959,0.0,0.0,0.0,0.0,0.0,0.0
688,1724913401354475258,0.0638895332813263,0.18924157321453094,0.17426063120365143,0.0031950403936207294,-0.043101560324430466,-0.030056944116950035,0.9986133575439453,0.0,0.0,0.0,0.0,0.0,0.0
690,1724913401357128633,0.0638640969991684,0.18900123238563538,0.17430004477500916,0.004189945757389069,-0.04361988231539726,-0.029924077913165092,0.9985912442207336,0.0,0.0,0.0,0.0,0.0,0.0
692,1724913401367190706,0.06372226029634476,0.1887151002883911,0.17434434592723846,0.00506733451038599,-0.04405530169606209,-0.030221229419112206,0.9985590577125549,0.0,0.0,0.0,0.0,0.0,0.0
694,1724913401377240130,0.0634351298213005,0.18836626410484314,0.17441332340240479,0.0065342094749212265,-0.044963955879211426,-0.03044423647224903,0.9985032081604004,0.0,0.0,0.0,0.0,0.0,0.0
696,1724913401389284120,0.06296586990356445,0.18785716593265533,0.17453694343566895,0.006893072742968798,-0.046363960951566696,-0.0310486052185297,0.9984182119369507,0.0,0.0,0.0,0.0,0.0,0.0
698,1724913401397027862,0.06251682341098785,0.18728838860988617,0.17484238743782043,0.008096056059002876,-0.04850874841213226,-0.032510463148355484,0.9982607364654541,0.0,0.0,0.0,0.0,0.0,0.0
700,1724913401407543909,0.06199698895215988,0.18672028183937073,0.17495384812355042,0.010522179305553436,-0.04947608336806297,-0.033425137400627136,0.9981603622436523,0.0,0.0,0.0,0.0,0.0,0.0
702,1724913401417716233,0.06123572587966919,0.1859012246131897,0.17496807873249054,0.012627354823052883,-0.05132320895791054,-0.03423331677913666,0.9980153441429138,0.0,0.0,0.0,0.0,0.0,0.0
704,1724913401431467946,0.06004840135574341,0.1848389357328415,0.1750059872865677,0.010041595436632633,-0.05508798733353615,-0.03534870967268944,0.997805118560791,0.0,0.0,0.0,0.0,0.0,0.0
706,1724913401437043958,0.05889248102903366,0.1837518960237503,0.1751461774110794,0.0109788803383708,-0.059357959777116776,-0.03514904901385307,0.9975574016571045,0.0,0.0,0.0,0.0,0.0,0.0
708,1724913401446873163,0.05770743265748024,0.18264058232307434,0.17518757283687592,0.011639866046607494,-0.06255576014518738,-0.03437328338623047,0.9973814487457275,0.0,0.0,0.0,0.0,0.0,0.0
710,1724913401457086746,0.05653292313218117,0.18143095076084137,0.17542210221290588,0.012157254852354527,-0.06820014864206314,-0.03405630588531494,0.997016191482544,0.0,0.0,0.0,0.0,0.0,0.0
712,1724913401467596325,0.05540236458182335,0.18032197654247284,0.1754816621541977,0.014002921059727669,-0.07161761820316315,-0.033581484109163284,0.9967684149742126,0.0,0.0,0.0,0.0,0.0,0.0
714,1724913401482295922,0.05411915108561516,0.17903786897659302,0.17573627829551697,0.01379102747887373,-0.07625914365053177,-0.035273175686597824,0.9963685274124146,0.0,0.0,0.0,0.0,0.0,0.0
716,1724913401486890407,0.05295604094862938,0.17791533470153809,0.1757884919643402,0.014056399464607239,-0.07989022135734558,-0.035479843616485596,0.9960728287696838,0.0,0.0,0.0,0.0,0.0,0.0
718,1724913401500602569,0.05194568634033203,0.17676201462745667,0.17557679116725922,0.01802242547273636,-0.08219355344772339,-0.034857142716646194,0.9958435297012329,0.0,0.0,0.0,0.0,0.0,0.0
720,1724913401506781125,0.05091371759772301,0.17549137771129608,0.1756569743156433,0.018140209838747978,-0.08654046803712845,-0.03536383435130119,0.995455265045166,0.0,0.0,0.0,0.0,0.0,0.0
722,1724913401517994621,0.04982004314661026,0.17434579133987427,0.17582684755325317,0.018137071281671524,-0.08943004906177521,-0.036213219165802,0.9951692819595337,0.0,0.0,0.0,0.0,0.0,0.0
724,1724913401527404404,0.04887045547366142,0.1733216494321823,0.17609304189682007,0.01844119280576706,-0.09216982126235962,-0.03821726143360138,0.9948387742042542,0.0,0.0,0.0,0.0,0.0,0.0
726,1724913401537743772,0.04831907898187637,0.17236316204071045,0.17604555189609528,0.02077304758131504,-0.09491392970085144,-0.03873284161090851,0.9945148229598999,0.0,0.0,0.0,0.0,0.0,0.0
728,1724913401549699286,0.047669991850852966,0.17138993740081787,0.17588308453559875,0.020222380757331848,-0.09740622341632843,-0.03893943503499031,0.9942770600318909,0.0,0.0,0.0,0.0,0.0,0.0
730,1724913401557041370,0.04714890941977501,0.17042478919029236,0.175969660282135,0.0203467458486557,-0.10039807856082916,-0.04025277867913246,0.9939245581626892,0.0,0.0,0.0,0.0,0.0,0.0
732,1724913401568520079,0.04683692380785942,0.16946165263652802,0.17588189244270325,0.0217834934592247,-0.10162018984556198,-0.04034611955285072,0.9937661290168762,0.0,0.0,0.0,0.0,0.0,0.0
734,1724913401577645399,0.04660748317837715,0.16848105192184448,0.17588655650615692,0.02294328063726425,-0.10174747556447983,-0.0412561260163784,0.9936896562576294,0.0,0.0,0.0,0.0,0.0,0.0
736,1724913401586752026,0.04661018028855324,0.16749684512615204,0.17570661008358002,0.023795368149876595,-0.10297401994466782,-0.04155804589390755,0.9935306310653687,0.0,0.0,0.0,0.0,0.0,0.0
738,1724913401598531414,0.04668033868074417,0.1665949821472168,0.17549680173397064,0.024704473093152046,-0.10404697805643082,-0.041842397302389145,0.9933847188949585,0.0,0.0,0.0,0.0,0.0,0.0
740,1724913401608167960,0.04672130197286606,0.1656949818134308,0.17532578110694885,0.02458716370165348,-0.10669618844985962,-0.04127836972475052,0.9931302070617676,0.0,0.0,0.0,0.0,0.0,0.0
742,1724913401617014306,0.04673181101679802,0.1647152453660965,0.17512384057044983,0.0245220810174942,-0.1084417998790741,-0.04067596420645714,0.9929675459861755,0.0,0.0,0.0,0.0,0.0,0.0
744,1724913401630553134,0.046714898198843,0.16386425495147705,0.17515677213668823,0.02398799918591976,-0.10890182852745056,-0.041761673986911774,0.992885172367096,0.0,0.0,0.0,0.0,0.0,0.0
746,1724913401636931141,0.046621840447187424,0.16302917897701263,0.17510123550891876,0.024016546085476875,-0.10900285840034485,-0.042104121297597885,0.9928590059280396,0.0,0.0,0.0,0.0,0.0,0.0
748,1724913401648218693,0.04648014158010483,0.16227532923221588,0.17514806985855103,0.023211704567074776,-0.10998732596635818,-0.04281507432460785,0.9927390813827515,0.0,0.0,0.0,0.0,0.0,0.0
750,1724913401657358971,0.04637471213936806,0.1615968644618988,0.17510120570659637,0.02317766658961773,-0.1110757365822792,-0.04215754196047783,0.9926468133926392,0.0,0.0,0.0,0.0,0.0,0.0
752,1724913401666983592,0.046257924288511276,0.16096088290214539,0.17493507266044617,0.022777719423174858,-0.1118847206234932,-0.041561368852853775,0.9925904273986816,0.0,0.0,0.0,0.0,0.0,0.0
754,1724913401677255174,0.046155452728271484,0.16028481721878052,0.17494778335094452,0.023608054965734482,-0.11361113935709,-0.04111497849225998,0.992393434047699,0.0,0.0,0.0,0.0,0.0,0.0
756,1724913401688922243,0.045974552631378174,0.15967108309268951,0.17479336261749268,0.023919373750686646,-0.11487534642219543,-0.04027708247303963,0.992274820804596,0.0,0.0,0.0,0.0,0.0,0.0
758,1724913401702229136,0.045710429549217224,0.15909741818904877,0.1745108962059021,0.023859065026044846,-0.11622145771980286,-0.0392945371568203,0.9921589493751526,0.0,0.0,0.0,0.0,0.0,0.0
760,1724913401707153058,0.0453253835439682,0.15855878591537476,0.17431741952896118,0.024581559002399445,-0.11743155866861343,-0.03819148987531662,0.9920418858528137,0.0,0.0,0.0,0.0,0.0,0.0
762,1724913401718287556,0.04493403434753418,0.158135786652565,0.17427390813827515,0.02498759888112545,-0.11756372451782227,-0.03793042153120041,0.9920260310173035,0.0,0.0,0.0,0.0,0.0,0.0
764,1724913401727677088,0.04441812261939049,0.15760670602321625,0.1743185818195343,0.024232041090726852,-0.11836957186460495,-0.03934222832322121,0.991894006729126,0.0,0.0,0.0,0.0,0.0,0.0
766,1724913401737771196,0.043959151953458786,0.15717031061649323,0.17409302294254303,0.02411814033985138,-0.1193569228053093,-0.03861679881811142,0.9918069243431091,0.0,0.0,0.0,0.0,0.0,0.0
768,1724913401747568081,0.04346306249499321,0.1568240225315094,0.17409618198871613,0.02393687330186367,-0.12037108838558197,-0.038765616714954376,0.9916830062866211,0.0,0.0,0.0,0.0,0.0,0.0
770,1724913401757763169,0.04292254149913788,0.15655261278152466,0.17407575249671936,0.02472255751490593,-0.11992032825946808,-0.03912438079714775,0.9917042255401611,0.0,0.0,0.0,0.0,0.0,0.0
772,1724913401768530892,0.04239347204566002,0.1562877893447876,0.17389364540576935,0.02614210732281208,-0.1211458221077919,-0.038063909858465195,0.9915601015090942,0.0,0.0,0.0,0.0,0.0,0.0
774,1724913401777609008,0.04186367988586426,0.15601839125156403,0.1735876053571701,0.027031980454921722,-0.12193332612514496,-0.036567654460668564,0.9914960861206055,0.0,0.0,0.0,0.0,0.0,0.0
776,1724913401787618098,0.04131873697042465,0.15564167499542236,0.17311513423919678,0.02890346571803093,-0.12259253859519958,-0.034426577389240265,0.991438627243042,0.0,0.0,0.0,0.0,0.0,0.0
778,1724913401802471704,0.04074164479970932,0.1553879827260971,0.17292313277721405,0.030260635539889336,-0.12301367521286011,-0.033748727291822433,0.9913692474365234,0.0,0.0,0.0,0.0,0.0,0.0
780,1724913401807520744,0.04017464071512222,0.15512193739414215,0.17291893064975739,0.030423389747738838,-0.12395787984132767,-0.03316511958837509,0.9912663102149963,0.0,0.0,0.0,0.0,0.0,0.0
782,1724913401818379504,0.03955988213419914,0.15483736991882324,0.17289845645427704,0.029990296810865402,-0.125178262591362,-0.03251069411635399,0.9911478161811829,0.0,0.0,0.0,0.0,0.0,0.0
784,1724913401834250392,0.038994405418634415,0.1545277237892151,0.17280755937099457,0.02934177592396736,-0.1263897866010666,-0.031502027064561844,0.991046130657196,0.0,0.0,0.0,0.0,0.0,0.0
786,1724913401836784830,0.03848270699381828,0.1542539894580841,0.172600656747818,0.02946239896118641,-0.12667348980903625,-0.030519891530275345,0.9910370111465454,0.0,0.0,0.0,0.0,0.0,0.0
788,1724913401847710481,0.0379423163831234,0.15403686463832855,0.17242880165576935,0.029849877581000328,-0.12671738862991333,-0.02925369143486023,0.9910579919815063,0.0,0.0,0.0,0.0,0.0,0.0
790,1724913401857446878,0.03744509816169739,0.1537417322397232,0.17219051718711853,0.03113386034965515,-0.12720929086208344,-0.027676401659846306,0.9910008311271667,0.0,0.0,0.0,0.0,0.0,0.0
792,1724913401867376101,0.037001099437475204,0.15340468287467957,0.17208273708820343,0.031264208257198334,-0.12790721654891968,-0.027217840775847435,0.9909195899963379,0.0,0.0,0.0,0.0,0.0,0.0
794,1724913401877388686,0.03653397783637047,0.15299758315086365,0.1717565655708313,0.03247664123773575,-0.1288904845714569,-0.02605782449245453,0.9907843470573425,0.0,0.0,0.0,0.0,0.0,0.0
796,1724913401886893816,0.03603558987379074,0.1526692509651184,0.17152446508407593,0.0329548716545105,-0.130039781332016,-0.02501899003982544,0.990645170211792,0.0,0.0,0.0,0.0,0.0,0.0
798,1724913401897072604,0.03570602089166641,0.15243861079216003,0.17149849236011505,0.03394828364253044,-0.12983514368534088,-0.024332908913493156,0.9906554818153381,0.0,0.0,0.0,0.0,0.0,0.0
800,1724913401911856380,0.03512167930603027,0.15199381113052368,0.17134054005146027,0.03252347931265831,-0.13306935131549835,-0.023264922201633453,0.9902997016906738,0.0,0.0,0.0,0.0,0.0,0.0
802,1724913401917545122,0.03467584773898125,0.151748925447464,0.1713569015264511,0.03222546726465225,-0.13355234265327454,-0.022355521097779274,0.990265429019928,0.0,0.0,0.0,0.0,0.0,0.0
804,1724913401933940396,0.03427540510892868,0.15151526033878326,0.17128898203372955,0.03306761756539345,-0.1346352994441986,-0.020904328674077988,0.9901226758956909,0.0,0.0,0.0,0.0,0.0,0.0
806,1724913401938740197,0.033989258110523224,0.15129271149635315,0.17123548686504364,0.0336424745619297,-0.134705051779747,-0.019416483119130135,0.9901241660118103,0.0,0.0,0.0,0.0,0.0,0.0
808,1724913401947202257,0.033644821494817734,0.15096144378185272,0.170951247215271,0.03390251472592354,-0.13639144599437714,-0.016433436423540115,0.9899383783340454,0.0,0.0,0.0,0.0,0.0,0.0
810,1724913401957412775,0.033432893455028534,0.15081842243671417,0.17092537879943848,0.03532540053129196,-0.13592539727687836,-0.014654748141765594,0.9899806976318359,0.0,0.0,0.0,0.0,0.0,0.0
812,1724913401968589287,0.03312037140130997,0.15066616237163544,0.17078417539596558,0.034803278744220734,-0.13771361112594604,-0.013024450279772282,0.9897748231887817,0.0,0.0,0.0,0.0,0.0,0.0
814,1724913401981319829,0.03289026767015457,0.15052562952041626,0.1707150638103485,0.03490192070603371,-0.13830596208572388,-0.011954309418797493,0.9897022247314453,0.0,0.0,0.0,0.0,0.0,0.0
816,1724913401988030625,0.03268380090594292,0.15045851469039917,0.17064909636974335,0.03486805781722069,-0.13935750722885132,-0.010853148065507412,0.9895685911178589,0.0,0.0,0.0,0.0,0.0,0.0
818,1724913401998233857,0.032631415873765945,0.15042351186275482,0.17077672481536865,0.03600846603512764,-0.13910268247127533,-0.009873362258076668,0.9895738363265991,0.0,0.0,0.0,0.0,0.0,0.0
820,1724913402007238612,0.03258851170539856,0.15038178861141205,0.17071209847927094,0.036109670996665955,-0.14016030728816986,-0.0080099580809474,0.9894377589225769,0.0,0.0,0.0,0.0,0.0,0.0
822,1724913402020935871,0.03262856602668762,0.15048816800117493,0.17073136568069458,0.03606901317834854,-0.14100636541843414,-0.005972175393253565,0.98933345079422,0.0,0.0,0.0,0.0,0.0,0.0
824,1724913402029323682,0.03272523730993271,0.1505351960659027,0.1706908941268921,0.03588176891207695,-0.14246231317520142,-0.003717545187100768,0.989142656326294,0.0,0.0,0.0,0.0,0.0,0.0
826,1724913402037939082,0.03286267817020416,0.15060341358184814,0.1707429736852646,0.03589047119021416,-0.14288298785686493,-0.0021260343492031097,0.989086389541626,0.0,0.0,0.0,0.0,0.0,0.0
828,1724913402047642885,0.033015549182891846,0.15070472657680511,0.17096573114395142,0.03611554205417633,-0.14226070046424866,-0.0012848862679675221,0.9891693592071533,0.0,0.0,0.0,0.0,0.0,0.0
830,1724913402058436271,0.033235274255275726,0.15079285204410553,0.1709863692522049,0.0360727496445179,-0.1427922248840332,0.0004980605444870889,0.9890949726104736,0.0,0.0,0.0,0.0,0.0,0.0
832,1724913402069253154,0.0335124246776104,0.15112614631652832,0.17105785012245178,0.0365932397544384,-0.1418590098619461,0.0021495644468814135,0.9892079830169678,0.0,0.0,0.0,0.0,0.0,0.0
834,1724913402078085668,0.033782996237277985,0.15144561231136322,0.1712794005870819,0.03568832203745842,-0.14154301583766937,0.0025855964049696922,0.9892852902412415,0.0,0.0,0.0,0.0,0.0,0.0
836,1724913402088357365,0.034080296754837036,0.1516992449760437,0.17148931324481964,0.03540932014584541,-0.1416158229112625,0.0028988078702241182,0.9892839789390564,0.0,0.0,0.0,0.0,0.0,0.0
838,1724913402100169701,0.03448136895895004,0.1520119458436966,0.17169494926929474,0.0360497310757637,-0.14072556793689728,0.0034499834291636944,0.9893860816955566,0.0,0.0,0.0,0.0,0.0,0.0
840,1724913402108211698,0.03488814830780029,0.15230993926525116,0.17188239097595215,0.03561123460531235,-0.14002275466918945,0.004283812828361988,0.989498496055603,0.0,0.0,0.0,0.0,0.0,0.0
842,1724913402117455862,0.03539832681417465,0.15274874866008759,0.17212487757205963,0.03434377163648605,-0.13978101313114166,0.005482614040374756,0.9895714521408081,0.0,0.0,0.0,0.0,0.0,0.0
844,1724913402127271369,0.035926394164562225,0.15317904949188232,0.17238859832286835,0.03485468029975891,-0.13801099359989166,0.006112325936555862,0.9897984266281128,0.0,0.0,0.0,0.0,0.0,0.0
846,1724913402138535374,0.0363907627761364,0.15360519289970398,0.1725497543811798,0.03430559113621712,-0.13718535006046295,0.007086764555424452,0.9899258613586426,0.0,0.0,0.0,0.0,0.0,0.0
848,1724913402146857775,0.03696189075708389,0.15423528850078583,0.17270293831825256,0.034467823803424835,-0.13538435101509094,0.008492938242852688,0.9901570677757263,0.0,0.0,0.0,0.0,0.0,0.0
850,1724913402158135234,0.037370067089796066,0.15490098297595978,0.17299459874629974,0.03212427347898483,-0.13396628201007843,0.007655632216483355,0.9904355406761169,0.0,0.0,0.0,0.0,0.0,0.0
852,1724913402167479288,0.03770093619823456,0.1556696891784668,0.1735987514257431,0.030986253172159195,-0.1326223909854889,0.005876994226127863,0.9906647205352783,0.0,0.0,0.0,0.0,0.0,0.0
854,1724913402177224119,0.03804956376552582,0.15659914910793304,0.17424620687961578,0.030519388616085052,-0.13117669522762299,0.004755150992423296,0.9908776879310608,0.0,0.0,0.0,0.0,0.0,0.0
856,1724913402188581526,0.03856085240840912,0.15735261142253876,0.17446433007717133,0.031484149396419525,-0.13041117787361145,0.005523381754755974,0.9909446239471436,0.0,0.0,0.0,0.0,0.0,0.0
858,1724913402196939628,0.03902435675263405,0.15809598565101624,0.17476819455623627,0.030465686693787575,-0.12995564937591553,0.006343894172459841,0.9910314083099365,0.0,0.0,0.0,0.0,0.0,0.0
860,1724913402207062134,0.039387524127960205,0.1590876281261444,0.175296351313591,0.028059933334589005,-0.12588758766651154,0.0045584822073578835,0.9916371703147888,0.0,0.0,0.0,0.0,0.0,0.0
862,1724913402218114847,0.03998882323503494,0.16017016768455505,0.17571121454238892,0.027530204504728317,-0.12201672792434692,0.003145689144730568,0.9921411871910095,0.0,0.0,0.0,0.0,0.0,0.0
864,1724913402233898827,0.04078328609466553,0.16111594438552856,0.1754029095172882,0.02525879442691803,-0.12130390107631683,0.004858782514929771,0.9922820925712585,0.0,0.0,0.0,0.0,0.0,0.0
866,1724913402236741747,0.04182372987270355,0.16241836547851562,0.1752949357032776,0.026705102995038033,-0.1167139783501625,0.0062121241353452206,0.9927870631217957,0.0,0.0,0.0,0.0,0.0,0.0
868,1724913402248098814,0.042725060135126114,0.1636367291212082,0.17537669837474823,0.024172332137823105,-0.113913893699646,0.005227148998528719,0.9931827783584595,0.0,0.0,0.0,0.0,0.0,0.0
870,1724913402256997095,0.04368719458580017,0.16480062901973724,0.17541535198688507,0.021989427506923676,-0.11230366677045822,0.005378646310418844,0.9934161305427551,0.0,0.0,0.0,0.0,0.0,0.0
872,1724913402267478863,0.044798776507377625,0.16601155698299408,0.1754431426525116,0.02199053391814232,-0.10779274255037308,0.005847903899848461,0.9939129948616028,0.0,0.0,0.0,0.0,0.0,0.0
874,1724913402277902336,0.04590657725930214,0.16727621853351593,0.17585037648677826,0.019459377974271774,-0.10394906252622604,0.004384366795420647,0.9943825602531433,0.0,0.0,0.0,0.0,0.0,0.0
876,1724913402286982807,0.0471775084733963,0.1685982495546341,0.1759975403547287,0.019969269633293152,-0.09858831763267517,0.005260129924863577,0.9949139952659607,0.0,0.0,0.0,0.0,0.0,0.0
878,1724913402301126918,0.048470281064510345,0.1695614606142044,0.17601053416728973,0.016471905633807182,-0.09608873724937439,0.0052080838941037655,0.9952228665351868,0.0,0.0,0.0,0.0,0.0,0.0
880,1724913402307081700,0.04990580305457115,0.17077670991420746,0.17596009373664856,0.016730545088648796,-0.09174473583698273,0.005095478612929583,0.9956289529800415,0.0,0.0,0.0,0.0,0.0,0.0
882,1724913402318951555,0.05127355828881264,0.17214784026145935,0.17590227723121643,0.01809224858880043,-0.08620116114616394,0.005581469740718603,0.9960979223251343,0.0,0.0,0.0,0.0,0.0,0.0
884,1724913402327848272,0.05274354666471481,0.17344926297664642,0.17627693712711334,0.015178645960986614,-0.0810375064611435,0.0030087942723184824,0.9965909719467163,0.0,0.0,0.0,0.0,0.0,0.0
886,1724913402337281772,0.054300595074892044,0.1746797263622284,0.1761191189289093,0.015062286518514156,-0.07707235217094421,0.0043944320641458035,0.9969021081924438,0.0,0.0,0.0,0.0,0.0,0.0
888,1724913402347770081,0.05596071109175682,0.17580778896808624,0.17607642710208893,0.014379682950675488,-0.07186204940080643,0.0045693921856582165,0.9973005056381226,0.0,0.0,0.0,0.0,0.0,0.0
890,1724913402358286451,0.05745179206132889,0.17715303599834442,0.17618048191070557,0.0126764802262187,-0.06623713672161102,0.004054671619087458,0.997715175151825,0.0,0.0,0.0,0.0,0.0,0.0
892,1724913402367699624,0.05896438658237457,0.17849689722061157,0.17639625072479248,0.009254599921405315,-0.06141835078597069,0.0020663964096456766,0.9980671405792236,0.0,0.0,0.0,0.0,0.0,0.0
894,1724913402377591670,0.06096414476633072,0.17999447882175446,0.1761411428451538,0.00872536189854145,-0.05284140259027481,0.0020152258221060038,0.9985628128051758,0.0,0.0,0.0,0.0,0.0,0.0
896,1724913402387754007,0.06308141350746155,0.18103912472724915,0.17574959993362427,0.0058890702202916145,-0.04871872067451477,0.003248599823564291,0.99878990650177,0.0,0.0,0.0,0.0,0.0,0.0
898,1724913402396932625,0.06491881608963013,0.18219122290611267,0.1754816323518753,0.005181233398616314,-0.04457276687026024,0.003186164889484644,0.99898761510849,0.0,0.0,0.0,0.0,0.0,0.0
900,1724913402408496232,0.0667608454823494,0.18301081657409668,0.17512819170951843,0.005630664061754942,-0.043427079916000366,0.004665940534323454,0.9990298748016357,0.0,0.0,0.0,0.0,0.0,0.0
902,1724913402417414551,0.06848843395709991,0.18406401574611664,0.1752890944480896,0.0032547248993068933,-0.03905697539448738,0.003262554993852973,0.9992263913154602,0.0,0.0,0.0,0.0,0.0,0.0
904,1724913402431433857,0.06989680230617523,0.18483246862888336,0.1754232496023178,0.0012274965411052108,-0.03915860131382942,0.001809332286939025,0.9992306232452393,0.0,0.0,0.0,0.0,0.0,0.0
906,1724913402439645032,0.07073117792606354,0.18548689782619476,0.17579586803913116,0.0007926900289021432,-0.03951812908053398,0.0011632941896095872,0.9992178678512573,0.0,0.0,0.0,0.0,0.0,0.0
908,1724913402446857807,0.07127058506011963,0.18585515022277832,0.17653438448905945,0.0013707608450204134,-0.0396849624812603,0.0011984852608293295,0.9992105960845947,0.0,0.0,0.0,0.0,0.0,0.0
910,1724913402472870804,0.0714881420135498,0.18606309592723846,0.1771959811449051,0.0015688514104112983,-0.03952055424451828,0.001482417224906385,0.9992164373397827,0.0,0.0,0.0,0.0,0.0,0.0
912,1724913402473179525,0.07150620222091675,0.18626083433628082,0.1776876151561737,-0.0011414365144446492,-0.03869211673736572,0.001403010101057589,0.9992495775222778,0.0,0.0,0.0,0.0,0.0,0.0
914,1724913402478436129,0.07133334875106812,0.18635061383247375,0.1778630018234253,-0.0037376934196799994,-0.0381183922290802,0.001863837824203074,0.9992645382881165,0.0,0.0,0.0,0.0,0.0,0.0
916,1724913402489732837,0.0709155946969986,0.18645130097866058,0.1780165731906891,-0.005096277687698603,-0.03627755120396614,0.0016843563644215465,0.9993273615837097,0.0,0.0,0.0,0.0,0.0,0.0
918,1724913402497838716,0.07038835436105728,0.1863524615764618,0.17797473073005676,-0.004193853586912155,-0.03649628907442093,0.001522241858765483,0.999323844909668,0.0,0.0,0.0,0.0,0.0,0.0
920,1724913402512454645,0.06962233781814575,0.18638968467712402,0.1779392808675766,-0.005008886568248272,-0.03631424531340599,0.0008443777333013713,0.999327540397644,0.0,0.0,0.0,0.0,0.0,0.0
922,1724913402527622403,0.0688416063785553,0.18643921613693237,0.17788761854171753,-0.005171977914869785,-0.035665884613990784,0.0004511922306846827,0.999350368976593,0.0,0.0,0.0,0.0,0.0,0.0
924,1724913402539912075,0.06696384400129318,0.1868426650762558,0.17781098186969757,-0.00680944137275219,-0.03562936186790466,-0.0004971798043698072,0.9993418455123901,0.0,0.0,0.0,0.0,0.0,0.0
926,1724913402549885442,0.06591309607028961,0.1871519386768341,0.17766757309436798,-0.0061822799034416676,-0.035081516951322556,-0.0005499337567016482,0.9993651509284973,0.0,0.0,0.0,0.0,0.0,0.0
928,1724913402585105760,0.06483811140060425,0.18730223178863525,0.1774808168411255,-0.004999054595828056,-0.03500963747501373,0.0004756439884658903,0.9993743896484375,0.0,0.0,0.0,0.0,0.0,0.0
930,1724913402585410363,0.06395570188760757,0.1874188929796219,0.17732447385787964,-0.0047106631100177765,-0.035627610981464386,0.001279238029383123,0.9993532299995422,0.0,0.0,0.0,0.0,0.0,0.0
932,1724913402585682145,0.06296584010124207,0.1876295804977417,0.17709165811538696,-0.004017814062535763,-0.03581645339727402,0.0020069617312401533,0.9993483424186707,0.0,0.0,0.0,0.0,0.0,0.0
934,1724913402587297184,0.061987124383449554,0.18796095252037048,0.17693638801574707,-0.002984598744660616,-0.03499085456132889,0.0011104552540928125,0.9993825554847717,0.0,0.0,0.0,0.0,0.0,0.0
936,1724913402605445529,0.06102835386991501,0.18831028044223785,0.17695800960063934,-0.0025464275386184454,-0.033950138837099075,-0.0008687485242262483,0.9994199275970459,0.0,0.0,0.0,0.0,0.0,0.0
938,1724913402607777717,0.06011691689491272,0.18852870166301727,0.1770024299621582,-0.00369539693929255,-0.035490456968545914,-0.0018757570069283247,0.9993613958358765,0.0,0.0,0.0,0.0,0.0,0.0
940,1724913402616770159,0.059347670525312424,0.1887817531824112,0.1769823431968689,-0.002739903749898076,-0.036002419888973236,-0.0017277472652494907,0.9993464350700378,0.0,0.0,0.0,0.0,0.0,0.0
942,1724913402627130289,0.05866313353180885,0.18915778398513794,0.17707164585590363,-0.0024754807818681,-0.03608095273375511,-0.0018535979324951768,0.9993441700935364,0.0,0.0,0.0,0.0,0.0,0.0
944,1724913402638147372,0.05816801264882088,0.1895633488893509,0.1770094931125641,-0.0014705430949106812,-0.0359228290617466,-0.001063824282027781,0.9993529915809631,0.0,0.0,0.0,0.0,0.0,0.0
946,1724913402646880208,0.05779510736465454,0.1900530457496643,0.17701596021652222,-0.0017156540416181087,-0.035880111157894135,-0.0007223625434562564,0.9993544220924377,0.0,0.0,0.0,0.0,0.0,0.0
948,1724913402677184697,0.05761325731873512,0.19061394035816193,0.1770813763141632,-0.0016789119690656662,-0.035397376865148544,-0.0005511156050488353,0.9993718266487122,0.0,0.0,0.0,0.0,0.0,0.0
950,1724913402677714886,0.05762259662151337,0.19117145240306854,0.1770486831665039,-0.0016128952847793698,-0.034103501588106155,-7.276042742887512e-05,0.9994170665740967,0.0,0.0,0.0,0.0,0.0,0.0
952,1724913402678064026,0.057808589190244675,0.19168515503406525,0.17700326442718506,-0.0015676497714594007,-0.03410891070961952,0.00014159320562612265,0.9994169473648071,0.0,0.0,0.0,0.0,0.0,0.0
954,1724913402687307017,0.057950109243392944,0.1921267807483673,0.17708466947078705,-0.002107831183820963,-0.035029977560043335,-0.0002166431804653257,0.9993840456008911,0.0,0.0,0.0,0.0,0.0,0.0
956,1724913402698133197,0.05814467743039131,0.19256477057933807,0.1771169900894165,-0.0015347145963460207,-0.0354907400906086,-0.0001234263472724706,0.9993688464164734,0.0,0.0,0.0,0.0,0.0,0.0
958,1724913402706872920,0.05831108242273331,0.19307085871696472,0.17720092833042145,-0.002156223636120558,-0.03627319261431694,0.0004648508329410106,0.9993395209312439,0.0,0.0,0.0,0.0,0.0,0.0
960,1724913402717657401,0.05848538130521774,0.19344887137413025,0.17722468078136444,-0.0025677350349724293,-0.036830972880125046,0.001269242144189775,0.9993174076080322,0.0,0.0,0.0,0.0,0.0,0.0
962,1724913402728617523,0.058659665286540985,0.19375701248645782,0.17713283002376556,-0.002016129670664668,-0.03745080158114433,0.002223823918029666,0.9992940425872803,0.0,0.0,0.0,0.0,0.0,0.0
964,1724913402737198500,0.05880134552717209,0.1940462440252304,0.17709028720855713,-0.0005590913351625204,-0.03790150582790375,0.0030529566574841738,0.9992766380310059,0.0,0.0,0.0,0.0,0.0,0.0
966,1724913402747195971,0.05895937979221344,0.19425606727600098,0.1770940124988556,0.00018628618272487074,-0.038275863975286484,0.0033723374363034964,0.9992615580558777,0.0,0.0,0.0,0.0,0.0,0.0
968,1724913402757199442,0.05917281284928322,0.19442525506019592,0.17713792622089386,0.0003293650515843183,-0.03852439671754837,0.003558889264240861,0.9992513060569763,0.0,0.0,0.0,0.0,0.0,0.0
970,1724913402767534735,0.05947180837392807,0.19468897581100464,0.17739219963550568,0.00035924528492614627,-0.038026124238967896,0.0026855207979679108,0.9992731213569641,0.0,0.0,0.0,0.0,0.0,0.0
972,1724913402781442878,0.059815116226673126,0.19488556683063507,0.17738047242164612,0.00042942017898894846,-0.038129571825265884,0.0030416001100093126,0.999268114566803,0.0,0.0,0.0,0.0,0.0,0.0
974,1724913402786982833,0.06015219911932945,0.19504855573177338,0.17732486128807068,0.0010911297285929322,-0.038607291877269745,0.004012297838926315,0.9992458820343018,0.0,0.0,0.0,0.0,0.0,0.0
976,1724913402798340383,0.06051059812307358,0.19525004923343658,0.17721174657344818,0.002005259972065687,-0.03813354671001434,0.00509601878002286,0.9992576837539673,0.0,0.0,0.0,0.0,0.0,0.0
978,1724913402806972404,0.06083955615758896,0.19546717405319214,0.17735598981380463,0.0012015458196401596,-0.03764786571264267,0.004228220786899328,0.9992814660072327,0.0,0.0,0.0,0.0,0.0,0.0
980,1724913402818276308,0.061263784766197205,0.195572167634964,0.17737425863742828,0.0012394823133945465,-0.038119081407785416,0.0038314377889037132,0.9992651343345642,0.0,0.0,0.0,0.0,0.0,0.0
982,1724913402828014767,0.061604104936122894,0.1957198530435562,0.17740459740161896,0.00042598164873197675,-0.03818293660879135,0.0035967042203992605,0.9992641806602478,0.0,0.0,0.0,0.0,0.0,0.0
984,1724913402836847837,0.06196179613471031,0.19588100910186768,0.17745836079120636,0.00022950198035687208,-0.03795500472187996,0.0038414164446294308,0.9992720484733582,0.0,0.0,0.0,0.0,0.0,0.0
986,1724913402847127674,0.062303923070430756,0.19599348306655884,0.17746174335479736,0.00044576506479643285,-0.03833809867501259,0.004595184698700905,0.9992541670799255,0.0,0.0,0.0,0.0,0.0,0.0
988,1724913402858133132,0.06265538185834885,0.1960735023021698,0.17751559615135193,-5.1238344894954935e-05,-0.03938913345336914,0.004932471085339785,0.9992117881774902,0.0,0.0,0.0,0.0,0.0,0.0
990,1724913402867677253,0.0629352331161499,0.19623540341854095,0.1775612086057663,0.0006488058716058731,-0.0404079370200634,0.006210923660546541,0.999163806438446,0.0,0.0,0.0,0.0,0.0,0.0
992,1724913402877144942,0.06319703161716461,0.19640620052814484,0.17762252688407898,0.0028270611073821783,-0.04127950966358185,0.00751270679756999,0.9991154074668884,0.0,0.0,0.0,0.0,0.0,0.0
994,1724913402886936769,0.0633673146367073,0.19653424620628357,0.17768466472625732,0.0038172025233507156,-0.04168521985411644,0.008662867359817028,0.9990859627723694,0.0,0.0,0.0,0.0,0.0,0.0
996,1724913402896859571,0.06360634416341782,0.19659417867660522,0.17764517664909363,0.005334490444511175,-0.04239030182361603,0.01081392914056778,0.9990284442901611,0.0,0.0,0.0,0.0,0.0,0.0
998,1724913402907068687,0.06369791179895401,0.19661837816238403,0.17763151228427887,0.00494615500792861,-0.04382527992129326,0.012543637305498123,0.9989482760429382,0.0,0.0,0.0,0.0,0.0,0.0
1000,1724913402920744335,0.0638226717710495,0.19674760103225708,0.1777019202709198,0.005161083769053221,-0.04481665790081024,0.013252373784780502,0.9988940358161926,0.0,0.0,0.0,0.0,0.0,0.0
1002,1724913402930135334,0.06413160264492035,0.19707442820072174,0.1777758151292801,0.00616083899512887,-0.044592924416065216,0.013233154080808163,0.9988986253738403,0.0,0.0,0.0,0.0,0.0,0.0
1004,1724913402937184729,0.06436077505350113,0.19742609560489655,0.17785917222499847,0.005881205201148987,-0.04502043128013611,0.013836830854415894,0.9988729357719421,0.0,0.0,0.0,0.0,0.0,0.0
1006,1724913402947692384,0.06455525010824203,0.19774332642555237,0.17799150943756104,0.004702657461166382,-0.04520157724618912,0.014092874713242054,0.998867392539978,0.0,0.0,0.0,0.0,0.0,0.0
1008,1724913402957441441,0.0648147314786911,0.19801470637321472,0.17802929878234863,0.005230257753282785,-0.04517919197678566,0.015034694224596024,0.9988521337509155,0.0,0.0,0.0,0.0,0.0,0.0
1010,1724913402967965310,0.06508993357419968,0.1982833594083786,0.1781785488128662,0.005586139392107725,-0.044946130365133286,0.015389022417366505,0.9988552331924438,0.0,0.0,0.0,0.0,0.0,0.0
1012,1724913402979328009,0.06537207961082458,0.19865286350250244,0.17855168879032135,0.004111242946237326,-0.045194413512945175,0.01444922387599945,0.9988652467727661,0.0,0.0,0.0,0.0,0.0,0.0
1014,1724913402987111787,0.0657578557729721,0.1989744007587433,0.17874391376972198,0.0033685248345136642,-0.04512766748666763,0.014013400301337242,0.9988773465156555,0.0,0.0,0.0,0.0,0.0,0.0
1016,1724913402996940786,0.0661337748169899,0.19924351572990417,0.17879551649093628,0.0035908734425902367,-0.04549155384302139,0.014792955480515957,0.9988487958908081,0.0,0.0,0.0,0.0,0.0,0.0
1018,1724913403007072102,0.0665292963385582,0.1993708610534668,0.17865942418575287,0.003860418451949954,-0.04651405289769173,0.01674865186214447,0.9987697601318359,0.0,0.0,0.0,0.0,0.0,0.0
1020,1724913403017513333,0.06684321165084839,0.19959737360477448,0.17842744290828705,0.004047866445034742,-0.04662438482046127,0.018782777711749077,0.9987277388572693,0.0,0.0,0.0,0.0,0.0,0.0
1022,1724913403026875310,0.06722713261842728,0.19978691637516022,0.1783159077167511,0.005758006125688553,-0.04753461852669716,0.020393962040543556,0.9986447691917419,0.0,0.0,0.0,0.0,0.0,0.0
1024,1724913403036985351,0.06756109744310379,0.20002879202365875,0.1783570647239685,0.007002285681664944,-0.048040200024843216,0.021457266062498093,0.9985904097557068,0.0,0.0,0.0,0.0,0.0,0.0
1026,1724913403047667896,0.06793876737356186,0.20038749277591705,0.17858293652534485,0.0064187198877334595,-0.04801105707883835,0.021082960069179535,0.9986036419868469,0.0,0.0,0.0,0.0,0.0,0.0
1028,1724913403056970867,0.06849198788404465,0.200943261384964,0.17856912314891815,0.008537452667951584,-0.04638148471713066,0.021683258935809135,0.9986520409584045,0.0,0.0,0.0,0.0,0.0,0.0
1030,1724913403067590270,0.06887143105268478,0.20115238428115845,0.17863346636295319,0.007641831412911415,-0.04812685772776604,0.021816622465848923,0.9985737204551697,0.0,0.0,0.0,0.0,0.0,0.0
1032,1724913403078349703,0.06918010860681534,0.20155219733715057,0.17872095108032227,0.006745442282408476,-0.047955870628356934,0.0219871923327446,0.9985846281051636,0.0,0.0,0.0,0.0,0.0,0.0
1034,1724913403087351805,0.06953787058591843,0.20200487971305847,0.17900337278842926,0.005079534836113453,-0.04791038855910301,0.02151896432042122,0.9986068606376648,0.0,0.0,0.0,0.0,0.0,0.0
1036,1724913403097000777,0.06998786330223083,0.20255038142204285,0.17920152842998505,0.004265697672963142,-0.04811500012874603,0.02101750299334526,0.998611569404602,0.0,0.0,0.0,0.0,0.0,0.0
1038,1724913403107525559,0.07042776048183441,0.20304203033447266,0.1792481243610382,0.004525855183601379,-0.047344449907541275,0.02119489200413227,0.9986435770988464,0.0,0.0,0.0,0.0,0.0,0.0
1040,1724913403117836525,0.07074564695358276,0.20335884392261505,0.17934799194335938,0.004441848956048489,-0.04860243573784828,0.02169996313750744,0.998572587966919,0.0,0.0,0.0,0.0,0.0,0.0
1042,1724913403127362433,0.07119526714086533,0.20379430055618286,0.17934758961200714,0.004526251461356878,-0.04921761900186539,0.02227979153394699,0.998529314994812,0.0,0.0,0.0,0.0,0.0,0.0
1044,1724913403138267428,0.0717979371547699,0.20430400967597961,0.17925913631916046,0.006249870639294386,-0.04946841672062874,0.02351006120443344,0.9984793663024902,0.0,0.0,0.0,0.0,0.0,0.0
1046,1724913403148528467,0.0722472071647644,0.20485460758209229,0.17924323678016663,0.006228764541447163,-0.04925974830985069,0.02415398322045803,0.9984745383262634,0.0,0.0,0.0,0.0,0.0,0.0
1048,1724913403157468045,0.07264360040426254,0.20534560084342957,0.17920206487178802,0.005766849033534527,-0.04814671725034714,0.024384068325161934,0.9985260367393494,0.0,0.0,0.0,0.0,0.0,0.0
1050,1724913403167911817,0.07315615564584732,0.20580390095710754,0.17934967577457428,0.004986709449440241,-0.047165319323539734,0.022851277142763138,0.9986132979393005,0.0,0.0,0.0,0.0,0.0,0.0
1052,1724913403176930394,0.07388974726200104,0.20621594786643982,0.17908374965190887,0.007141703739762306,-0.046938274055719376,0.023389337584376335,0.9985983967781067,0.0,0.0,0.0,0.0,0.0,0.0
1054,1724913403187610447,0.07464205473661423,0.20651748776435852,0.17876267433166504,0.008350415155291557,-0.047656551003456116,0.02499852515757084,0.9985160827636719,0.0,0.0,0.0,0.0,0.0,0.0
1056,1724913403201833433,0.07541523873806,0.20673534274101257,0.17843230068683624,0.009883149527013302,-0.04844672977924347,0.026711666956543922,0.9984196424484253,0.0,0.0,0.0,0.0,0.0,0.0
1058,1724913403208223712,0.07611438632011414,0.20691673457622528,0.17807677388191223,0.009329012595117092,-0.04880371317267418,0.027866505086421967,0.9983760118484497,0.0,0.0,0.0,0.0,0.0,0.0
1060,1724913403217721351,0.07688307017087936,0.2072025090456009,0.17806755006313324,0.006342768203467131,-0.04705437645316124,0.02639443799853325,0.9985234141349792,0.0,0.0,0.0,0.0,0.0,0.0
1062,1724913403227182361,0.07782227545976639,0.2075423151254654,0.17762579023838043,0.0075753056444227695,-0.0454886294901371,0.026627814397215843,0.9985811710357666,0.0,0.0,0.0,0.0,0.0,0.0
1064,1724913403237000839,0.07863782346248627,0.20776517689228058,0.1771123856306076,0.007683855947107077,-0.04534165933728218,0.02678111009299755,0.9985829591751099,0.0,0.0,0.0,0.0,0.0,0.0
1066,1724913403247326344,0.07927366346120834,0.20811307430267334,0.17679190635681152,0.008034423924982548,-0.0455101877450943,0.02688095159828663,0.9985698461532593,0.0,0.0,0.0,0.0,0.0,0.0
1068,1724913403258384337,0.07992468774318695,0.20830875635147095,0.17657050490379333,0.007968880236148834,-0.045745331794023514,0.02679591067135334,0.9985619187355042,0.0,0.0,0.0,0.0,0.0,0.0
1070,1724913403267726856,0.08065249770879745,0.20830395817756653,0.1763736605644226,0.008307717740535736,-0.045372650027275085,0.027384944260120392,0.9985601305961609,0.0,0.0,0.0,0.0,0.0,0.0
1072,1724913403277207576,0.08143828064203262,0.20831817388534546,0.17616018652915955,0.009045763872563839,-0.04405159875750542,0.029678070917725563,0.998547375202179,0.0,0.0,0.0,0.0,0.0,0.0
1074,1724913403295114696,0.08212737739086151,0.20852413773536682,0.1762719452381134,0.009371668100357056,-0.04305863380432129,0.030086912214756012,0.9985754489898682,0.0,0.0,0.0,0.0,0.0,0.0
1076,1724913403297490531,0.08279217034578323,0.2087797075510025,0.1763134002685547,0.009663126431405544,-0.04204856604337692,0.030053140595555305,0.9986166954040527,0.0,0.0,0.0,0.0,0.0,0.0
1078,1724913403308182273,0.0834914818406105,0.209329754114151,0.17652007937431335,0.00916989240795374,-0.03984914720058441,0.028494760394096375,0.9987572431564331,0.0,0.0,0.0,0.0,0.0,0.0
1080,1724913403317761498,0.08417411893606186,0.20980532467365265,0.17672216892242432,0.009112508036196232,-0.03842506557703018,0.027693282812833786,0.9988361597061157,0.0,0.0,0.0,0.0,0.0,0.0
1082,1724913403327812142,0.08465665578842163,0.21022529900074005,0.17699052393436432,0.007775591220706701,-0.037149589508771896,0.026561228558421135,0.9989264011383057,0.0,0.0,0.0,0.0,0.0,0.0
1084,1724913403336756531,0.0852363258600235,0.21051041781902313,0.17710170149803162,0.008991547860205173,-0.03616388887166977,0.026351556181907654,0.9989579319953918,0.0,0.0,0.0,0.0,0.0,0.0
1086,1724913403349528053,0.08569299429655075,0.21072784066200256,0.17724217474460602,0.0076701766811311245,-0.03616107255220413,0.02574579045176506,0.9989848136901855,0.0,0.0,0.0,0.0,0.0,0.0
1088,1724913403357655427,0.08607003837823868,0.21078962087631226,0.17742379009723663,0.006506517995148897,-0.0362505167722702,0.025080155581235886,0.9990068078041077,0.0,0.0,0.0,0.0,0.0,0.0
1090,1724913403367308769,0.08631881326436996,0.21070633828639984,0.1775951236486435,0.006664026528596878,-0.03658400475978851,0.02451949007809162,0.999007523059845,0.0,0.0,0.0,0.0,0.0,0.0
1092,1724913403377681764,0.0864945501089096,0.21048429608345032,0.17779092490673065,0.006933245807886124,-0.03714956343173981,0.024138223379850388,0.9989941716194153,0.0,0.0,0.0,0.0,0.0,0.0
1094,1724913403386717305,0.08656806498765945,0.21015653014183044,0.17791011929512024,0.008307414129376411,-0.03775389492511749,0.02384963259100914,0.9989679455757141,0.0,0.0,0.0,0.0,0.0,0.0
1096,1724913403396838131,0.08649953454732895,0.2096637785434723,0.17801804840564728,0.008977154269814491,-0.038893215358257294,0.023786773905158043,0.9989199638366699,0.0,0.0,0.0,0.0,0.0,0.0
1098,1724913403407827550,0.08640474081039429,0.2089555263519287,0.17816391587257385,0.011608532629907131,-0.03976282849907875,0.023566834628582,0.998863697052002,0.0,0.0,0.0,0.0,0.0,0.0
1100,1724913403417623998,0.08589951694011688,0.20803232491016388,0.17836979031562805,0.010180432349443436,-0.04215766116976738,0.02229280397295952,0.998810350894928,0.0,0.0,0.0,0.0,0.0,0.0
1102,1724913403428739082,0.08520010113716125,0.2069590836763382,0.17871353030204773,0.010432134382426739,-0.04559650272130966,0.020764989778399467,0.998689591884613,0.0,0.0,0.0,0.0,0.0,0.0
1104,1724913403437846752,0.08470068871974945,0.20574261248111725,0.1785944551229477,0.015003493055701256,-0.0479460209608078,0.020856881514191628,0.9985194206237793,0.0,0.0,0.0,0.0,0.0,0.0
1106,1724913403446734270,0.0840580016374588,0.20447693765163422,0.17861592769622803,0.018481621518731117,-0.05183376371860504,0.021450212225317955,0.9982543587684631,0.0,0.0,0.0,0.0,0.0,0.0
1108,1724913403457050606,0.08279190212488174,0.20305512845516205,0.1791624277830124,0.017688727006316185,-0.054969001561403275,0.021384187042713165,0.9981023669242859,0.0,0.0,0.0,0.0,0.0,0.0
1110,1724913403467192538,0.0818214863538742,0.20150868594646454,0.1791989803314209,0.018693866208195686,-0.058420922607183456,0.022253619506955147,0.9978689551353455,0.0,0.0,0.0,0.0,0.0,0.0
1112,1724913403505727044,0.08069946616888046,0.1999746710062027,0.17934013903141022,0.019909599795937538,-0.06355252861976624,0.021546531468629837,0.9975472092628479,0.0,0.0,0.0,0.0,0.0,0.0
1114,1724913403506100525,0.07981826364994049,0.19883610308170319,0.17963118851184845,0.020785024389624596,-0.06537867337465286,0.019412018358707428,0.9974551796913147,0.0,0.0,0.0,0.0,0.0,0.0
1116,1724913403506436016,0.07896575331687927,0.19744695723056793,0.17943893373012543,0.021950719878077507,-0.0699356272816658,0.019004445523023605,0.997128963470459,0.0,0.0,0.0,0.0,0.0,0.0
1118,1724913403507531548,0.07808752357959747,0.1961829662322998,0.17930014431476593,0.02396214008331299,-0.07213690876960754,0.018876615911722183,0.9969281554222107,0.0,0.0,0.0,0.0,0.0,0.0
1120,1724913403517611380,0.07711423188447952,0.19473397731781006,0.17917107045650482,0.02457757666707039,-0.07557792961597443,0.01819222792983055,0.9966710209846497,0.0,0.0,0.0,0.0,0.0,0.0
1122,1724913403527838515,0.07621061056852341,0.19343911111354828,0.1791946142911911,0.024125462397933006,-0.07738348096609116,0.01726539246737957,0.9965599179267883,0.0,0.0,0.0,0.0,0.0,0.0
1124,1724913403536714956,0.07536503672599792,0.19198468327522278,0.17908766865730286,0.025268908590078354,-0.08111211657524109,0.01767374761402607,0.9962278604507446,0.0,0.0,0.0,0.0,0.0,0.0
1126,1724913403550000485,0.0747782438993454,0.19072136282920837,0.1790824830532074,0.025553826242685318,-0.08459261804819107,0.016642319038510323,0.9959489703178406,0.0,0.0,0.0,0.0,0.0,0.0
1128,1724913403557413696,0.07435240596532822,0.18970169126987457,0.17878518998622894,0.027159832417964935,-0.08598050475120544,0.016115302219986916,0.995796263217926,0.0,0.0,0.0,0.0,0.0,0.0
1130,1724913403568098265,0.07386840134859085,0.18852615356445312,0.17865638434886932,0.027287835255265236,-0.08815319836139679,0.015532306395471096,0.9956120252609253,0.0,0.0,0.0,0.0,0.0,0.0
1132,1724913403577835829,0.07341017574071884,0.18714189529418945,0.17852997779846191,0.02823161706328392,-0.09187548607587814,0.01569407619535923,0.9952464699745178,0.0,0.0,0.0,0.0,0.0,0.0
1134,1724913403587024111,0.07313109189271927,0.18615514039993286,0.1784473955631256,0.031049547716975212,-0.09184040129184723,0.014937224797904491,0.9951774477958679,0.0,0.0,0.0,0.0,0.0,0.0
1136,1724913403598469034,0.07296145707368851,0.18500284850597382,0.1781952828168869,0.03082757070660591,-0.09344666451215744,0.01473334338515997,0.995037853717804,0.0,0.0,0.0,0.0,0.0,0.0
1138,1724913403608431545,0.07281935214996338,0.18388670682907104,0.178153857588768,0.030957410112023354,-0.09461552649736404,0.013933596201241016,0.9949349164962769,0.0,0.0,0.0,0.0,0.0,0.0
1140,1724913403616874366,0.07281314581632614,0.18282856047153473,0.17823466658592224,0.03259329870343208,-0.09586649388074875,0.013190957717597485,0.9947730898857117,0.0,0.0,0.0,0.0,0.0,0.0
1142,1724913403627285670,0.0727694034576416,0.18186411261558533,0.17825190722942352,0.03203614056110382,-0.09600014984607697,0.011747327633202076,0.9947963356971741,0.0,0.0,0.0,0.0,0.0,0.0
1144,1724913403637804627,0.0727546289563179,0.18089330196380615,0.17810551822185516,0.03149988874793053,-0.09760160744190216,0.011897705495357513,0.9946558475494385,0.0,0.0,0.0,0.0,0.0,0.0
1146,1724913403650261006,0.0727364644408226,0.17987412214279175,0.17769134044647217,0.03194925934076309,-0.0998353660106659,0.014019520953297615,0.9943920373916626,0.0,0.0,0.0,0.0,0.0,0.0
1148,1724913403657763068,0.07268506288528442,0.17901167273521423,0.1774422526359558,0.03225962817668915,-0.10136251896619797,0.015088880434632301,0.9942119121551514,0.0,0.0,0.0,0.0,0.0,0.0
1150,1724913403668826243,0.07262250036001205,0.1781924068927765,0.17746563255786896,0.032575830817222595,-0.10280128568410873,0.015278213657438755,0.9940509796142578,0.0,0.0,0.0,0.0,0.0,0.0
1152,1724913403678658402,0.07244769483804703,0.17718619108200073,0.1775732785463333,0.03300591558218002,-0.10428927093744278,0.014296311885118484,0.9938963651657104,0.0,0.0,0.0,0.0,0.0,0.0
1154,1724913403687451757,0.07227028906345367,0.17629298567771912,0.17763754725456238,0.0330783948302269,-0.1056172177195549,0.014480475336313248,0.9937511086463928,0.0,0.0,0.0,0.0,0.0,0.0
1156,1724913403718447467,0.07207616418600082,0.17547596991062164,0.17762546241283417,0.03213118016719818,-0.10650067031383514,0.01499456912279129,0.9936802387237549,0.0,0.0,0.0,0.0,0.0,0.0
1158,1724913403718877462,0.07192569226026535,0.17459048330783844,0.17735159397125244,0.03304314985871315,-0.10788988322019577,0.0170546043664217,0.9934672713279724,0.0,0.0,0.0,0.0,0.0,0.0
1160,1724913403719133094,0.0716785341501236,0.17363885045051575,0.1771712303161621,0.032940879464149475,-0.10951637476682663,0.0176387932151556,0.9932824373245239,0.0,0.0,0.0,0.0,0.0,0.0
1162,1724913403739749999,0.07144872099161148,0.17287197709083557,0.1772226095199585,0.03378649428486824,-0.10974078625440598,0.0173900555819273,0.9932336211204529,0.0,0.0,0.0,0.0,0.0,0.0
1164,1724913403740033665,0.07116968929767609,0.17204996943473816,0.177118718624115,0.03463660553097725,-0.11197680234909058,0.017569147050380707,0.9929516911506653,0.0,0.0,0.0,0.0,0.0,0.0
1166,1724913403746657096,0.07076697051525116,0.17132006585597992,0.17687810957431793,0.03443949297070503,-0.11330306529998779,0.01779189705848694,0.9928039908409119,0.0,0.0,0.0,0.0,0.0,0.0
1168,1724913403757126740,0.07032236456871033,0.17075884342193604,0.17668022215366364,0.0354011207818985,-0.11363603174686432,0.01846904866397381,0.9927197694778442,0.0,0.0,0.0,0.0,0.0,0.0
1170,1724913403767663280,0.06977052986621857,0.17019346356391907,0.1764567643404007,0.03441789373755455,-0.11519935727119446,0.019727785140275955,0.9925498962402344,0.0,0.0,0.0,0.0,0.0,0.0
1172,1724913403776622708,0.0691799446940422,0.16952206194400787,0.1762816160917282,0.0340706929564476,-0.11683398485183716,0.021769287064671516,0.9923282265663147,0.0,0.0,0.0,0.0,0.0,0.0
1174,1724913403894922145,0.06856446713209152,0.16888399422168732,0.17623251676559448,0.03459334000945091,-0.11694441735744476,0.02265666238963604,0.9922771453857422,0.0,0.0,0.0,0.0,0.0,0.0
1176,1724913403895696410,0.0679459497332573,0.1683938205242157,0.17624375224113464,0.035199254751205444,-0.11720734089612961,0.02347138337790966,0.9922059178352356,0.0,0.0,0.0,0.0,0.0,0.0
1178,1724913403896166986,0.06746678054332733,0.1680837720632553,0.17608848214149475,0.037185363471508026,-0.11737403273582458,0.0249993484467268,0.9920763969421387,0.0,0.0,0.0,0.0,0.0,0.0
1180,1724913403896766563,0.06696870177984238,0.16772277653217316,0.1758284717798233,0.037601668387651443,-0.11938440054655075,0.025978855788707733,0.9917957186698914,0.0,0.0,0.0,0.0,0.0,0.0
1182,1724913403897155348,0.06644850969314575,0.16749711334705353,0.17554815113544464,0.03872140496969223,-0.12008722126483917,0.026598745957016945,0.9916513562202454,0.0,0.0,0.0,0.0,0.0,0.0
1184,1724913403897478149,0.06568066775798798,0.1672416627407074,0.17534239590168,0.03711658716201782,-0.12093262374401093,0.026607021689414978,0.9916097521781921,0.0,0.0,0.0,0.0,0.0,0.0
1186,1724913403897716651,0.06501772999763489,0.16686835885047913,0.17500796914100647,0.037920787930488586,-0.1217155009508133,0.028404708951711655,0.9914336204528809,0.0,0.0,0.0,0.0,0.0,0.0
1188,1724913403897966537,0.06439803540706635,0.16659359633922577,0.1748049408197403,0.03875412791967392,-0.12208021432161331,0.029756831005215645,0.9913169145584106,0.0,0.0,0.0,0.0,0.0,0.0
1190,1724913403898194812,0.06384285539388657,0.16634121537208557,0.17483431100845337,0.039748337119817734,-0.12214287370443344,0.030359167605638504,0.991251528263092,0.0,0.0,0.0,0.0,0.0,0.0
1192,1724913403898470315,0.06332677602767944,0.16611023247241974,0.17487558722496033,0.04130404442548752,-0.12217911332845688,0.030953995883464813,0.991165041923523,0.0,0.0,0.0,0.0,0.0,0.0
1194,1724913403907490827,0.06278024613857269,0.16580629348754883,0.1748153120279312,0.041131045669317245,-0.12248671799898148,0.031792305409908295,0.9911077618598938,0.0,0.0,0.0,0.0,0.0,0.0
1196,1724913403907939105,0.06238223612308502,0.16554749011993408,0.17456454038619995,0.0417083315551281,-0.12368020415306091,0.03356155753135681,0.9908770322799683,0.0,0.0,0.0,0.0,0.0,0.0
1198,1724913403908194797,0.062122516334056854,0.16525959968566895,0.17430351674556732,0.04273867979645729,-0.1249367892742157,0.03544144704937935,0.9906100630760193,0.0,0.0,0.0,0.0,0.0,0.0
1200,1724913403917366274,0.061935652047395706,0.16490891575813293,0.1740228682756424,0.044436976313591,-0.12617525458335876,0.03777430206537247,0.9902920126914978,0.0,0.0,0.0,0.0,0.0,0.0
1202,1724913403926852842,0.06154825538396835,0.1644289642572403,0.17361615598201752,0.04541702941060066,-0.12911748886108398,0.03999471291899681,0.9897810220718384,0.0,0.0,0.0,0.0,0.0,0.0
1204,1724913403937464116,0.061262719333171844,0.16394102573394775,0.17336297035217285,0.04557640105485916,-0.13015764951705933,0.041839875280857086,0.9895612001419067,0.0,0.0,0.0,0.0,0.0,0.0
1206,1724913403947304258,0.06096856668591499,0.16353589296340942,0.17348138988018036,0.045534588396549225,-0.13206858932971954,0.04259960725903511,0.9892773628234863,0.0,0.0,0.0,0.0,0.0,0.0
1208,1724913403957268707,0.060659751296043396,0.16321587562561035,0.17353402078151703,0.045774202793836594,-0.13319078087806702,0.04374957084655762,0.9890656471252441,0.0,0.0,0.0,0.0,0.0,0.0
1210,1724913403971426932,0.06040113419294357,0.16291524469852448,0.17346791923046112,0.04721769317984581,-0.13406714797019958,0.04618009552359581,0.9887689352035522,0.0,0.0,0.0,0.0,0.0,0.0
1212,1724913403979229075,0.06008818373084068,0.16265732049942017,0.17347374558448792,0.047358278185129166,-0.13468922674655914,0.04741557687520981,0.9886192083358765,0.0,0.0,0.0,0.0,0.0,0.0
1214,1724913403986872358,0.05990021303296089,0.1624610871076584,0.17349810898303986,0.048102837055921555,-0.1349322497844696,0.04867951571941376,0.9884886741638184,0.0,0.0,0.0,0.0,0.0,0.0
1216,1724913403996922342,0.05972743034362793,0.16226492822170258,0.17348873615264893,0.04799763113260269,-0.13582542538642883,0.05002683028578758,0.9883041381835938,0.0,0.0,0.0,0.0,0.0,0.0
1218,1724913404013072774,0.059655867516994476,0.1621645838022232,0.1734742522239685,0.04871911555528641,-0.13616688549518585,0.051546867936849594,0.9881437420845032,0.0,0.0,0.0,0.0,0.0,0.0
1220,1724913404019396333,0.0595426931977272,0.1621171087026596,0.1733909249305725,0.0487198680639267,-0.13705427944660187,0.05322204902768135,0.9879322052001953,0.0,0.0,0.0,0.0,0.0,0.0
1222,1724913404027120230,0.0594952367246151,0.16214719414710999,0.17334331572055817,0.04907883331179619,-0.13745030760765076,0.055062953382730484,0.9877585172653198,0.0,0.0,0.0,0.0,0.0,0.0
1224,1724913404036813755,0.05940559506416321,0.16221913695335388,0.1733141839504242,0.049107734113931656,-0.13829390704631805,0.05643581598997116,0.9875617623329163,0.0,0.0,0.0,0.0,0.0,0.0
1226,1724913404047690609,0.05956808477640152,0.1623513549566269,0.17334045469760895,0.04897623881697655,-0.13863854110240936,0.058661334216594696,0.9873902201652527,0.0,0.0,0.0,0.0,0.0,0.0
1228,1724913404057244704,0.05972008407115936,0.1624619960784912,0.17339938879013062,0.04899454489350319,-0.1390862762928009,0.06021299585700035,0.9872329831123352,0.0,0.0,0.0,0.0,0.0,0.0
1230,1724913404067778494,0.05988144874572754,0.16271516680717468,0.1734817922115326,0.04905010759830475,-0.13834230601787567,0.061795346438884735,0.9872369766235352,0.0,0.0,0.0,0.0,0.0,0.0
1232,1724913404078873887,0.05999551713466644,0.16296608746051788,0.17365917563438416,0.047999098896980286,-0.13791221380233765,0.06232137233018875,0.9873157739639282,0.0,0.0,0.0,0.0,0.0,0.0
1234,1724913404086905856,0.060216374695301056,0.16317075490951538,0.17380709946155548,0.04737945646047592,-0.13794346153736115,0.06315159052610397,0.9872885942459106,0.0,0.0,0.0,0.0,0.0,0.0
1236,1724913404097531220,0.060557857155799866,0.16343653202056885,0.17415717244148254,0.04723753780126572,-0.1372232884168625,0.0637994036078453,0.9873540997505188,0.0,0.0,0.0,0.0,0.0,0.0
1238,1724913404107569979,0.06099564582109451,0.16371172666549683,0.17444589734077454,0.047504521906375885,-0.1365077644586563,0.0647890493273735,0.9873759746551514,0.0,0.0,0.0,0.0,0.0,0.0
1240,1724913404117475902,0.06136869639158249,0.16413503885269165,0.1746959686279297,0.0459434911608696,-0.13694599270820618,0.06544700264930725,0.987345814704895,0.0,0.0,0.0,0.0,0.0,0.0
1242,1724913404127509954,0.06185327097773552,0.16456632316112518,0.17485986649990082,0.045536112040281296,-0.13676613569259644,0.06646309047937393,0.987321674823761,0.0,0.0,0.0,0.0,0.0,0.0
1244,1724913404137116761,0.06240478903055191,0.1652071475982666,0.17524415254592896,0.04510856419801712,-0.13571332395076752,0.06678608059883118,0.9874647855758667,0.0,0.0,0.0,0.0,0.0,0.0
1246,1724913404147095233,0.06292082369327545,0.16582824289798737,0.17561295628547668,0.04518163949251175,-0.13280965387821198,0.06668154895305634,0.987863302230835,0.0,0.0,0.0,0.0,0.0,0.0
1248,1724913404158432871,0.06337381899356842,0.166311115026474,0.1756819486618042,0.044428132474422455,-0.13100101053714752,0.06791060417890549,0.9880551695823669,0.0,0.0,0.0,0.0,0.0,0.0
1250,1724913404167758919,0.06390385329723358,0.16682244837284088,0.17592230439186096,0.0426458865404129,-0.13140156865119934,0.06880646198987961,0.9880185723304749,0.0,0.0,0.0,0.0,0.0,0.0
1252,1724913404180447290,0.06444680690765381,0.16763125360012054,0.17640963196754456,0.042825713753700256,-0.12891392409801483,0.06871622055768967,0.9883447885513306,0.0,0.0,0.0,0.0,0.0,0.0
1254,1724913404187116299,0.06489000469446182,0.16853104531764984,0.17705604434013367,0.04195301607251167,-0.12700824439525604,0.06729479134082794,0.9887266755104065,0.0,0.0,0.0,0.0,0.0,0.0
1256,1724913404200049083,0.06539459526538849,0.16943508386611938,0.17740385234355927,0.04067773371934891,-0.12501214444637299,0.06716716289520264,0.9890429377555847,0.0,0.0,0.0,0.0,0.0,0.0
1258,1724913404208022107,0.06580682843923569,0.17034268379211426,0.1776215136051178,0.03941664844751358,-0.12181893736124039,0.06742726266384125,0.9894745945930481,0.0,0.0,0.0,0.0,0.0,0.0
1260,1724913404218458702,0.06620131433010101,0.17128022015094757,0.17777183651924133,0.03807641193270683,-0.12065424770116806,0.06806420534849167,0.9896262884140015,0.0,0.0,0.0,0.0,0.0,0.0
1262,1724913404226981818,0.06664560735225677,0.17245414853096008,0.17782451212406158,0.03515025973320007,-0.11857736110687256,0.06784146279096603,0.9900007247924805,0.0,0.0,0.0,0.0,0.0,0.0
1264,1724913404236822725,0.06724829971790314,0.17384737730026245,0.1780659556388855,0.0330224335193634,-0.11493333429098129,0.06623943895101547,0.9906120896339417,0.0,0.0,0.0,0.0,0.0,0.0
1266,1724913404247903177,0.0680089145898819,0.17502503097057343,0.17807431519031525,0.03317476809024811,-0.11192754656076431,0.06693218648433685,0.9909045696258545,0.0,0.0,0.0,0.0,0.0,0.0
1268,1724913404256985028,0.06877215206623077,0.1761491298675537,0.17812594771385193,0.03378459811210632,-0.10891108959913254,0.06758875399827957,0.9911754727363586,0.0,0.0,0.0,0.0,0.0,0.0
1270,1724913404267152178,0.06944822520017624,0.17783060669898987,0.17848935723304749,0.03240116313099861,-0.10284504294395447,0.06685977429151535,0.9919188022613525,0.0,0.0,0.0,0.0,0.0,0.0
1272,1724913404276760699,0.07018909603357315,0.17937564849853516,0.17893379926681519,0.03042956441640854,-0.09989427775144577,0.06594747304916382,0.9923437833786011,0.0,0.0,0.0,0.0,0.0,0.0
1274,1724913404286780442,0.07104814797639847,0.18071945011615753,0.17877481877803802,0.029038261622190475,-0.09798361361026764,0.066391721367836,0.9925462603569031,0.0,0.0,0.0,0.0,0.0,0.0
1276,1724913404297768379,0.07208658009767532,0.18240250647068024,0.17888996005058289,0.02663710154592991,-0.0925891101360321,0.06448467820882797,0.9932570457458496,0.0,0.0,0.0,0.0,0.0,0.0
1278,1724913404307307108,0.0732085332274437,0.18399213254451752,0.1787746250629425,0.02625400386750698,-0.08815228939056396,0.06500507146120071,0.993636965751648,0.0,0.0,0.0,0.0,0.0,0.0
