seq,stamp,px,py,pz,ox,oy,oz,ow,lx,ly,lz,ax,ay,az
2084,1724817051284626416,-1.685633897781372,-0.6849132776260376,0.19135712087154388,0.0007973744650371373,-0.05447078123688698,0.49596714973449707,-0.8666308522224426,0.0,0.0,0.0,0.0,0.0,0.0
2086,1724817051294305194,-1.6860541105270386,-0.6849818229675293,0.19102247059345245,0.0016304311575368047,-0.05408455431461334,0.49583134055137634,-0.8667315244674683,0.0,0.0,0.0,0.0,0.0,0.0
2088,1724817051304814030,-1.6864129304885864,-0.6852093935012817,0.190629243850708,0.0017670370871201158,-0.0537521094083786,0.4955828785896301,-0.866894006729126,0.0,0.0,0.0,0.0,0.0,0.0
2090,1724817051314402614,-1.6867566108703613,-0.685479462146759,0.1903057098388672,0.0012674096506088972,-0.05330716818571091,0.4952642619609833,-0.8671044111251831,0.0,0.0,0.0,0.0,0.0,0.0
2092,1724817051324439232,-1.6870217323303223,-0.6857465505599976,0.19002273678779602,0.001675658393651247,-0.05348106101155281,0.4952789545059204,-0.8670846819877625,0.0,0.0,0.0,0.0,0.0,0.0
2094,1724817051334158247,-1.6872978210449219,-0.6859685182571411,0.1898966282606125,0.0018224358791485429,-0.05318604037165642,0.4952927827835083,-0.8670946359634399,0.0,0.0,0.0,0.0,0.0,0.0
2096,1724817051344551539,-1.6875855922698975,-0.6861895322799683,0.1897134631872177,0.0019858703017234802,-0.05251580849289894,0.49493569135665894,-0.867339015007019,0.0,0.0,0.0,0.0,0.0,0.0
2098,1724817051355149383,-1.6878197193145752,-0.6863732933998108,0.18956337869167328,0.001713629812002182,-0.05167391523718834,0.49504733085632324,-0.8673263788223267,0.0,0.0,0.0,0.0,0.0,0.0
2100,1724817051363830965,-1.6880539655685425,-0.6865503787994385,0.18941271305084229,0.0022587438579648733,-0.051130261272192,0.4949912428855896,-0.8673893213272095,0.0,0.0,0.0,0.0,0.0,0.0
2102,1724817051374489736,-1.688238501548767,-0.6867381930351257,0.18929164111614227,0.002837022766470909,-0.05058592930436134,0.4950030744075775,-0.867412805557251,0.0,0.0,0.0,0.0,0.0,0.0
2104,1724817051384414267,-1.6884020566940308,-0.686978816986084,0.18904097378253937,0.0022352752275764942,-0.04963546246290207,0.49472835659980774,-0.8676261901855469,0.0,0.0,0.0,0.0,0.0,0.0
2106,1724817051394463365,-1.6885343790054321,-0.6872115731239319,0.1887812614440918,0.002427715342491865,-0.04905954748392105,0.4944540858268738,-0.8678147196769714,0.0,0.0,0.0,0.0,0.0,0.0
2108,1724817051404010211,-1.6886060237884521,-0.6874110102653503,0.18851280212402344,0.0028813323006033897,-0.04899471998214722,0.49445995688438416,-0.8678136467933655,0.0,0.0,0.0,0.0,0.0,0.0
2110,1724817051414871314,-1.6886333227157593,-0.6876155734062195,0.1881425678730011,0.0027637286111712456,-0.048359502106904984,0.4943149983882904,-0.8679322600364685,0.0,0.0,0.0,0.0,0.0,0.0
2112,1724817051423892655,-1.688693881034851,-0.6877766251564026,0.18781523406505585,0.00298524321988225,-0.04823856055736542,0.4942510724067688,-0.8679746389389038,0.0,0.0,0.0,0.0,0.0,0.0
2114,1724817051436131642,-1.6887462139129639,-0.6878842115402222,0.18753944337368011,0.003293193643912673,-0.047862567007541656,0.49447670578956604,-0.8678658604621887,0.0,0.0,0.0,0.0,0.0,0.0
2116,1724817051444565566,-1.6888102293014526,-0.687977135181427,0.18718205392360687,0.0035994674544781446,-0.04717216268181801,0.49443942308425903,-0.8679236769676208,0.0,0.0,0.0,0.0,0.0,0.0
2118,1724817051454743997,-1.6888376474380493,-0.6880584955215454,0.1869390308856964,0.0034233436454087496,-0.046439338475465775,0.4946817457675934,-0.8678258061408997,0.0,0.0,0.0,0.0,0.0,0.0
2120,1724817051463707927,-1.6888600587844849,-0.6881179809570312,0.18668141961097717,0.0032690747175365686,-0.045758552849292755,0.49481266736984253,-0.8677878975868225,0.0,0.0,0.0,0.0,0.0,0.0
2122,1724817051473797285,-1.688896656036377,-0.6882084608078003,0.18642906844615936,0.003336457535624504,-0.04526147618889809,0.4947194755077362,-0.8678669333457947,0.0,0.0,0.0,0.0,0.0,0.0
2124,1724817051484606324,-1.6888844966888428,-0.6883043646812439,0.1862344741821289,0.0029940777458250523,-0.04471077024936676,0.49469539523124695,-0.8679103851318359,0.0,0.0,0.0,0.0,0.0,0.0
2126,1724817051493805007,-1.6888748407363892,-0.6884178519248962,0.18606935441493988,0.0029134962242096663,-0.04432320222258568,0.494687557220459,-0.8679350018501282,0.0,0.0,0.0,0.0,0.0,0.0
2128,1724817051504167879,-1.6888272762298584,-0.6885227560997009,0.18579809367656708,0.002431686967611313,-0.04428914189338684,0.49452513456344604,-0.8680307865142822,0.0,0.0,0.0,0.0,0.0,0.0
2130,1724817051514252081,-1.6887484788894653,-0.6886041760444641,0.18569816648960114,0.0020212491508573294,-0.044384460896253586,0.49468010663986206,-0.8679386377334595,0.0,0.0,0.0,0.0,0.0,0.0
2132,1724817051543556173,-1.6887669563293457,-0.6886832118034363,0.18552115559577942,0.0020870838779956102,-0.04464767128229141,0.4942387044429779,-0.8681764006614685,0.0,0.0,0.0,0.0,0.0,0.0
2134,1724817051544212266,-1.6887013912200928,-0.6887004375457764,0.18545258045196533,0.0014506260631605983,-0.04506395384669304,0.4944992959499359,-0.8680078983306885,0.0,0.0,0.0,0.0,0.0,0.0
2136,1724817051544710346,-1.688630223274231,-0.6886759996414185,0.18539224565029144,0.000962427060585469,-0.0456373430788517,0.49486324191093445,-0.8677712082862854,0.0,0.0,0.0,0.0,0.0,0.0
2138,1724817051553741769,-1.6886521577835083,-0.6886423826217651,0.18526658415794373,0.000625607674010098,-0.04618510976433754,0.4948483407497406,-0.8677509427070618,0.0,0.0,0.0,0.0,0.0,0.0
2140,1724817051565466828,-1.6887017488479614,-0.6885704398155212,0.18515941500663757,0.0006354760844260454,-0.04667365178465843,0.494884192943573,-0.8677043318748474,0.0,0.0,0.0,0.0,0.0,0.0
2142,1724817051575154949,-1.6887071132659912,-0.6884678602218628,0.18505534529685974,4.113572504138574e-05,-0.04705455154180527,0.4951168894767761,-0.8675512671470642,0.0,0.0,0.0,0.0,0.0,0.0
2144,1724817051583606444,-1.6887294054031372,-0.6883195042610168,0.18512850999832153,-0.0001806146465241909,-0.04724716395139694,0.4956064522266388,-0.8672611713409424,0.0,0.0,0.0,0.0,0.0,0.0
2146,1724817051594739915,-1.6887826919555664,-0.6881982088088989,0.18499456346035004,-0.0005014533526264131,-0.04761774092912674,0.49577125906944275,-0.8671466112136841,0.0,0.0,0.0,0.0,0.0,0.0
2148,1724817051607409316,-1.6888432502746582,-0.6880661249160767,0.1848190426826477,-0.000673597794957459,-0.04813315346837044,0.49576035141944885,-0.8671241998672485,0.0,0.0,0.0,0.0,0.0,0.0
2150,1724817051613964859,-1.6888806819915771,-0.6879480481147766,0.1846458911895752,-0.0008711046539247036,-0.048678167164325714,0.49589815735816956,-0.8670148253440857,0.0,0.0,0.0,0.0,0.0,0.0
2152,1724817051624391979,-1.6889084577560425,-0.687814474105835,0.18442198634147644,-0.0014011524617671967,-0.049151740968227386,0.4959048330783844,-0.8669835925102234,0.0,0.0,0.0,0.0,0.0,0.0
2154,1724817051633838789,-1.6889522075653076,-0.6877144575119019,0.18420632183551788,-0.0016982569359242916,-0.049642983824014664,0.4958506226539612,-0.866986095905304,0.0,0.0,0.0,0.0,0.0,0.0
2156,1724817051646614608,-1.6889880895614624,-0.6876134276390076,0.1839955449104309,-0.002133398549631238,-0.05024806782603264,0.4958503544330597,-0.8669504523277283,0.0,0.0,0.0,0.0,0.0,0.0
2158,1724817051657615510,-1.6889183521270752,-0.6874576210975647,0.18398523330688477,-0.003703981637954712,-0.052313242107629776,0.49646079540252686,-0.8664734959602356,0.0,0.0,0.0,0.0,0.0,0.0
2160,1724817051663686643,-1.6890205144882202,-0.6873879432678223,0.18348908424377441,-0.00385197252035141,-0.052805352956056595,0.49576854705810547,-0.8668392300605774,0.0,0.0,0.0,0.0,0.0,0.0
2162,1724817051674225645,-1.6890376806259155,-0.6872617602348328,0.1834430694580078,-0.004462110809981823,-0.05314239487051964,0.495993435382843,-0.8666870594024658,0.0,0.0,0.0,0.0,0.0,0.0
2164,1724817051685741944,-1.6891037225723267,-0.6871029138565063,0.1832348257303238,-0.004697442054748535,-0.05369677022099495,0.49588853120803833,-0.8667117357254028,0.0,0.0,0.0,0.0,0.0,0.0
2166,1724817051693728958,-1.6891366243362427,-0.6869074702262878,0.18302373588085175,-0.005060695111751556,-0.05402270704507828,0.4958500564098358,-0.866711437702179,0.0,0.0,0.0,0.0,0.0,0.0
2168,1724817051706818541,-1.6891627311706543,-0.6866204738616943,0.18279075622558594,-0.005572374910116196,-0.054205138236284256,0.49607333540916443,-0.8665691018104553,0.0,0.0,0.0,0.0,0.0,0.0
2170,1724817051714534058,-1.6892224550247192,-0.6862385272979736,0.1825191229581833,-0.00579835893586278,-0.05425354465842247,0.4961281418800354,-0.8665332198143005,0.0,0.0,0.0,0.0,0.0,0.0
2172,1724817051724358108,-1.6894577741622925,-0.6858248114585876,0.18201866745948792,-0.005416307598352432,-0.053980693221092224,0.4952886700630188,-0.8670328855514526,0.0,0.0,0.0,0.0,0.0,0.0
2174,1724817051734703363,-1.6897376775741577,-0.68534255027771,0.18141965568065643,-0.0038657987024635077,-0.052993614226579666,0.4945010542869568,-0.8675514459609985,0.0,0.0,0.0,0.0,0.0,0.0
2176,1724817051743924747,-1.6900303363800049,-0.6848031282424927,0.18077795207500458,-0.004255305975675583,-0.05177809298038483,0.4935856759548187,-0.868144154548645,0.0,0.0,0.0,0.0,0.0,0.0
2178,1724817051754530517,-1.6901323795318604,-0.6842294335365295,0.1801033318042755,-0.0057982187718153,-0.051224421709775925,0.4932839572429657,-0.8683394193649292,0.0,0.0,0.0,0.0,0.0,0.0
2180,1724817051763817636,-1.6901624202728271,-0.6836757063865662,0.1798860728740692,-0.007446345407515764,-0.05233768746256828,0.49399012327194214,-0.86785888671875,0.0,0.0,0.0,0.0,0.0,0.0
2182,1724817051773724480,-1.690371036529541,-0.6830764412879944,0.17934881150722504,-0.007579124066978693,-0.05197424441576004,0.49410006403923035,-0.8678169846534729,0.0,0.0,0.0,0.0,0.0,0.0
2184,1724817051784908649,-1.6906276941299438,-0.6824010610580444,0.17876434326171875,-0.006720438599586487,-0.05034826695919037,0.4946419298648834,-0.867611289024353,0.0,0.0,0.0,0.0,0.0,0.0
2186,1724817051794078754,-1.6908694505691528,-0.6817399859428406,0.17822274565696716,-0.006699663586914539,-0.04963613301515579,0.4952126145362854,-0.8673269152641296,0.0,0.0,0.0,0.0,0.0,0.0
2188,1724817051806178921,-1.6911542415618896,-0.6811816096305847,0.17760764062404633,-0.007187011186033487,-0.050220806151628494,0.4953606426715851,-0.8672047853469849,0.0,0.0,0.0,0.0,0.0,0.0
2190,1724817051813785544,-1.6915192604064941,-0.6807734966278076,0.17689187824726105,-0.006435122806578875,-0.04855898395180702,0.4947909116744995,-0.8676304221153259,0.0,0.0,0.0,0.0,0.0,0.0
2192,1724817051824106184,-1.6916717290878296,-0.6803128719329834,0.17669902741909027,-0.007664134725928307,-0.0476672388613224,0.49564412236213684,-0.8671828508377075,0.0,0.0,0.0,0.0,0.0,0.0
2194,1724817051835211357,-1.691857099533081,-0.6799614429473877,0.17632251977920532,-0.008233565837144852,-0.04694609344005585,0.4954663813114166,-0.8673184514045715,0.0,0.0,0.0,0.0,0.0,0.0
2196,1724817051844222450,-1.6920019388198853,-0.6796373128890991,0.17598028481006622,-0.008890775963664055,-0.046492259949445724,0.4951901137828827,-0.8674941658973694,0.0,0.0,0.0,0.0,0.0,0.0
2198,1724817051858128364,-1.6920689344406128,-0.679348886013031,0.1757940798997879,-0.009009762667119503,-0.04634346812963486,0.4954057037830353,-0.8673778176307678,0.0,0.0,0.0,0.0,0.0,0.0
2200,1724817051863811799,-1.6920922994613647,-0.6790765523910522,0.17563173174858093,-0.009728667326271534,-0.045516811311244965,0.4952771067619324,-0.8674872517585754,0.0,0.0,0.0,0.0,0.0,0.0
2202,1724817051874558255,-1.692068099975586,-0.6788707971572876,0.17569714784622192,-0.00979380588978529,-0.04569948837161064,0.495597779750824,-0.8672938346862793,0.0,0.0,0.0,0.0,0.0,0.0
2204,1724817051884308657,-1.6920623779296875,-0.6787448525428772,0.1757768988609314,-0.009697393514215946,-0.045820388942956924,0.49566975235939026,-0.8672473430633545,0.0,0.0,0.0,0.0,0.0,0.0
2206,1724817051894603876,-1.6920433044433594,-0.678743302822113,0.17582449316978455,-0.009959646500647068,-0.04564356803894043,0.4953649640083313,-0.8674278259277344,0.0,0.0,0.0,0.0,0.0,0.0
2208,1724817051904020798,-1.6919533014297485,-0.678756833076477,0.17598801851272583,-0.01015082560479641,-0.04577973484992981,0.4955701231956482,-0.8673012852668762,0.0,0.0,0.0,0.0,0.0,0.0
2210,1724817051913662102,-1.691901683807373,-0.6788105368614197,0.1760237067937851,-0.010075212456285954,-0.04592151939868927,0.4953382909297943,-0.8674271106719971,0.0,0.0,0.0,0.0,0.0,0.0
2212,1724817051925446461,-1.6918590068817139,-0.6788865923881531,0.1760786920785904,-0.010215157642960548,-0.04592348262667656,0.49524253606796265,-0.8674799799919128,0.0,0.0,0.0,0.0,0.0,0.0
2214,1724817051935278054,-1.6917847394943237,-0.6789178848266602,0.17620281875133514,-0.009914571419358253,-0.0463399738073349,0.4954792261123657,-0.8673262000083923,0.0,0.0,0.0,0.0,0.0,0.0
2216,1724817051944029280,-1.6918020248413086,-0.67898029088974,0.1762329638004303,-0.009612307883799076,-0.046628646552562714,0.4953387975692749,-0.8673942685127258,0.0,0.0,0.0,0.0,0.0,0.0
2218,1724817051954198334,-1.691787838935852,-0.679027259349823,0.17630387842655182,-0.01007371861487627,-0.04642930254340172,0.49548453092575073,-0.867316484451294,0.0,0.0,0.0,0.0,0.0,0.0
2220,1724817051964767336,-1.691808819770813,-0.6790592074394226,0.17633818089962006,-0.009662073105573654,-0.046563420444726944,0.4955255687236786,-0.8672904968261719,0.0,0.0,0.0,0.0,0.0,0.0
2222,1724817051974151026,-1.6918373107910156,-0.6790740489959717,0.17632266879081726,-0.00944406259804964,-0.04668840393424034,0.4954639971256256,-0.8673214316368103,0.0,0.0,0.0,0.0,0.0,0.0
2224,1724817051985059222,-1.6918420791625977,-0.6790788173675537,0.17625758051872253,-0.01006762869656086,-0.04649755358695984,0.49537426233291626,-0.8673758506774902,0.0,0.0,0.0,0.0,0.0,0.0
2226,1724817051994797620,-1.6918611526489258,-0.6790529489517212,0.17621709406375885,-0.009747182950377464,-0.04657034948468208,0.49543997645378113,-0.8673381209373474,0.0,0.0,0.0,0.0,0.0,0.0
2228,1724817052005973847,-1.6918959617614746,-0.6790192127227783,0.1761670708656311,-0.009431123733520508,-0.04678231105208397,0.4955165386199951,-0.8672864437103271,0.0,0.0,0.0,0.0,0.0,0.0
2230,1724817052013874836,-1.691948413848877,-0.6790101528167725,0.1760963797569275,-0.009556111879646778,-0.04639866203069687,0.49533894658088684,-0.8674072623252869,0.0,0.0,0.0,0.0,0.0,0.0
2232,1724817052024693724,-1.6920069456100464,-0.6789932250976562,0.17599624395370483,-0.009540879167616367,-0.04617653042078018,0.49524986743927,-0.8674700260162354,0.0,0.0,0.0,0.0,0.0,0.0
2234,1724817052034738367,-1.692041039466858,-0.6789904832839966,0.17593248188495636,-0.009774483740329742,-0.04600035399198532,0.49521613121032715,-0.8674960732460022,0.0,0.0,0.0,0.0,0.0,0.0
2236,1724817052062951447,-1.6920557022094727,-0.6789551973342896,0.17591175436973572,-0.009495705366134644,-0.04614506661891937,0.49541187286376953,-0.8673797249794006,0.0,0.0,0.0,0.0,0.0,0.0
2238,1724817052063438183,-1.6920925378799438,-0.6789525747299194,0.1758769303560257,-0.00947931781411171,-0.04608813673257828,0.4954434633255005,-0.8673648238182068,0.0,0.0,0.0,0.0,0.0,0.0
2240,1724817052063881670,-1.6921045780181885,-0.6789423823356628,0.17584039270877838,-0.00930717308074236,-0.045952241867780685,0.49542638659477234,-0.8673836588859558,0.0,0.0,0.0,0.0,0.0,0.0
2242,1724817052073661202,-1.6921191215515137,-0.6789366602897644,0.17583326995372772,-0.008927411399781704,-0.0460178405046463,0.49547043442726135,-0.8673589825630188,0.0,0.0,0.0,0.0,0.0,0.0
2244,1724817052084431619,-1.692096471786499,-0.6789397597312927,0.17581559717655182,-0.009411214850842953,-0.0458388514816761,0.4954570233821869,-0.867371141910553,0.0,0.0,0.0,0.0,0.0,0.0
2246,1724817052094210920,-1.6921157836914062,-0.678920567035675,0.17577801644802094,-0.00955295842140913,-0.04581344500184059,0.4954787790775299,-0.8673584461212158,0.0,0.0,0.0,0.0,0.0,0.0
2248,1724817052105672736,-1.6921390295028687,-0.6789036989212036,0.175722137093544,-0.009486565366387367,-0.04571782425045967,0.495438814163208,-0.8673869967460632,0.0,0.0,0.0,0.0,0.0,0.0
2250,1724817052113680843,-1.692140817642212,-0.6788906455039978,0.1756572127342224,-0.009598501026630402,-0.045600228011608124,0.49548572301864624,-0.8673651814460754,0.0,0.0,0.0,0.0,0.0,0.0
2252,1724817052124063667,-1.6921569108963013,-0.6788547039031982,0.1755637526512146,-0.009873880073428154,-0.0452904999256134,0.4955078065395355,-0.8673657178878784,0.0,0.0,0.0,0.0,0.0,0.0
2254,1724817052134230412,-1.6922084093093872,-0.6788139939308167,0.1754283308982849,-0.009674113243818283,-0.04501419886946678,0.49540451169013977,-0.8674413561820984,0.0,0.0,0.0,0.0,0.0,0.0
2256,1724817052150910744,-1.692191243171692,-0.6787628531455994,0.17527581751346588,-0.009695707820355892,-0.045155495405197144,0.49570807814598083,-0.8672603964805603,0.0,0.0,0.0,0.0,0.0,0.0
2258,1724817052154582784,-1.6922882795333862,-0.6787163019180298,0.17517726123332977,-0.009412139654159546,-0.044998738914728165,0.4958716928958893,-0.8671780824661255,0.0,0.0,0.0,0.0,0.0,0.0
2260,1724817052165107651,-1.6923614740371704,-0.6786752343177795,0.17509876191616058,-0.009403757750988007,-0.04450932517647743,0.49600937962532043,-0.867124617099762,0.0,0.0,0.0,0.0,0.0,0.0
2262,1724817052174885091,-1.6924312114715576,-0.6786274909973145,0.1750166267156601,-0.009432400576770306,-0.04434714466333389,0.49624913930892944,-0.8669955134391785,0.0,0.0,0.0,0.0,0.0,0.0
2264,1724817052186618382,-1.6924874782562256,-0.6785821318626404,0.17489999532699585,-0.009495160542428493,-0.04406271502375603,0.49638935923576355,-0.8669289946556091,0.0,0.0,0.0,0.0,0.0,0.0
2266,1724817052195045837,-1.6925653219223022,-0.6785497665405273,0.17479415237903595,-0.009383327327668667,-0.04364103451371193,0.496293842792511,-0.867006242275238,0.0,0.0,0.0,0.0,0.0,0.0
2268,1724817052205771034,-1.6926063299179077,-0.6784859895706177,0.17469927668571472,-0.009106287732720375,-0.04362842068076134,0.496442973613739,-0.8669244647026062,0.0,0.0,0.0,0.0,0.0,0.0
2270,1724817052214380434,-1.692611813545227,-0.6784440279006958,0.1745624542236328,-0.009603609330952168,-0.043185703456401825,0.4965108036994934,-0.8669024109840393,0.0,0.0,0.0,0.0,0.0,0.0
2272,1724817052227004217,-1.692665457725525,-0.6783990859985352,0.17445789277553558,-0.009350167587399483,-0.043062757700681686,0.49645495414733887,-0.866943359375,0.0,0.0,0.0,0.0,0.0,0.0
2274,1724817052235894980,-1.6927064657211304,-0.6783632040023804,0.1743362694978714,-0.009385060518980026,-0.04274310916662216,0.4964417517185211,-0.8669663071632385,0.0,0.0,0.0,0.0,0.0,0.0
2276,1724817052243579825,-1.6927789449691772,-0.6783213019371033,0.17416082322597504,-0.009074141271412373,-0.042387623339891434,0.49633288383483887,-0.8670494556427002,0.0,0.0,0.0,0.0,0.0,0.0
2278,1724817052256535806,-1.692903995513916,-0.6782726645469666,0.17383283376693726,-0.008495818823575974,-0.04226450249552727,0.4961552321910858,-0.8671629428863525,0.0,0.0,0.0,0.0,0.0,0.0
2280,1724817052265228498,-1.6929314136505127,-0.6781483888626099,0.17385731637477875,-0.00878670159727335,-0.04198046028614044,0.4963584840297699,-0.8670575022697449,0.0,0.0,0.0,0.0,0.0,0.0
2282,1724817052273970588,-1.6929906606674194,-0.6780860424041748,0.17375066876411438,-0.008443431928753853,-0.04186134785413742,0.4966624975204468,-0.8668925762176514,0.0,0.0,0.0,0.0,0.0,0.0
2284,1724817052289656640,-1.6930654048919678,-0.6780110597610474,0.1735764741897583,-0.008423207327723503,-0.04149845987558365,0.49671027064323425,-0.8668828010559082,0.0,0.0,0.0,0.0,0.0,0.0
2286,1724817052298383459,-1.6930537223815918,-0.6779177188873291,0.17360688745975494,-0.009770873002707958,-0.042641229927539825,0.4972108006477356,-0.8665262460708618,0.0,0.0,0.0,0.0,0.0,0.0
2288,1724817052306455536,-1.6931183338165283,-0.677837610244751,0.17346280813217163,-0.009195997379720211,-0.042534880340099335,0.4974411427974701,-0.8664054870605469,0.0,0.0,0.0,0.0,0.0,0.0
2290,1724817052313614484,-1.6931664943695068,-0.6777791976928711,0.17332181334495544,-0.009344432502985,-0.04220164194703102,0.4974294602870941,-0.866426944732666,0.0,0.0,0.0,0.0,0.0,0.0
2292,1724817052325178925,-1.6932330131530762,-0.6777341961860657,0.17324185371398926,-0.009384247474372387,-0.04206110164523125,0.49754154682159424,-0.8663689494132996,0.0,0.0,0.0,0.0,0.0,0.0
2294,1724817052338361296,-1.6932841539382935,-0.6776604652404785,0.1733865588903427,-0.010158970952033997,-0.04269242286682129,0.49746546149253845,-0.8663730621337891,0.0,0.0,0.0,0.0,0.0,0.0
2296,1724817052344142865,-1.6933631896972656,-0.6776909828186035,0.17334342002868652,-0.010582356713712215,-0.04295919090509415,0.4971027374267578,-0.8665630221366882,0.0,0.0,0.0,0.0,0.0,0.0
2298,1724817052355411726,-1.6933331489562988,-0.6776273250579834,0.17328892648220062,-0.010702235624194145,-0.043246496468782425,0.49636873602867126,-0.8669679164886475,0.0,0.0,0.0,0.0,0.0,0.0
2300,1724817052363486152,-1.6933331489562988,-0.6776494979858398,0.17325598001480103,-0.010762281715869904,-0.043027814477682114,0.4962925910949707,-0.8670216798782349,0.0,0.0,0.0,0.0,0.0,0.0
2302,1724817052374359481,-1.6933214664459229,-0.6776338815689087,0.17317822575569153,-0.011243261396884918,-0.0427556186914444,0.4966546595096588,-0.8668217062950134,0.0,0.0,0.0,0.0,0.0,0.0
2304,1724817052384332845,-1.6932718753814697,-0.677545428276062,0.17316697537899017,-0.011198348365724087,-0.04250152409076691,0.4976033568382263,-0.8662905097007751,0.0,0.0,0.0,0.0,0.0,0.0
2306,1724817052394159751,-1.6932532787322998,-0.677524745464325,0.17313897609710693,-0.011741599068045616,-0.04228627681732178,0.4976999759674072,-0.8662382364273071,0.0,0.0,0.0,0.0,0.0,0.0
2308,1724817052407402125,-1.6932429075241089,-0.6775001287460327,0.17314361035823822,-0.011192027479410172,-0.042377062141895294,0.4977748394012451,-0.8661981225013733,0.0,0.0,0.0,0.0,0.0,0.0
2310,1724817052413639055,-1.6932188272476196,-0.6774793863296509,0.17318816483020782,-0.011393203400075436,-0.04254751652479172,0.497933030128479,-0.8660962581634521,0.0,0.0,0.0,0.0,0.0,0.0
2312,1724817052424048112,-1.693241834640503,-0.6774984002113342,0.17318139970302582,-0.011429818347096443,-0.042382895946502686,0.49794912338256836,-0.8660945296287537,0.0,0.0,0.0,0.0,0.0,0.0
2314,1724817052435231017,-1.6932454109191895,-0.6775076389312744,0.17318053543567657,-0.011092230677604675,-0.042366884648799896,0.4978955388069153,-0.8661304712295532,0.0,0.0,0.0,0.0,0.0,0.0
2316,1724817052444093817,-1.693240761756897,-0.6774909496307373,0.17319804430007935,-0.011132308281958103,-0.04242143779993057,0.4980103075504303,-0.8660613894462585,0.0,0.0,0.0,0.0,0.0,0.0
2318,1724817052472561733,-1.6932426691055298,-0.6774740219116211,0.17316357791423798,-0.01129375770688057,-0.04251375421881676,0.49810490012168884,-0.8660002946853638,0.0,0.0,0.0,0.0,0.0,0.0
2320,1724817052473057139,-1.693239688873291,-0.6774657964706421,0.17317970097064972,-0.011120048351585865,-0.042573459446430206,0.4981539249420166,-0.8659714460372925,0.0,0.0,0.0,0.0,0.0,0.0
2322,1724817052474007941,-1.6932567358016968,-0.677478551864624,0.1731405258178711,-0.011266469955444336,-0.04248609393835068,0.4980013966560364,-0.8660615682601929,0.0,0.0,0.0,0.0,0.0,0.0
2324,1724817052486151452,-1.693222999572754,-0.6774551868438721,0.17318810522556305,-0.011185922659933567,-0.04272833839058876,0.4983247220516205,-0.8658646941184998,0.0,0.0,0.0,0.0,0.0,0.0
2326,1724817052493933613,-1.6932100057601929,-0.6774738430976868,0.17315518856048584,-0.011388999409973621,-0.042487211525440216,0.4982190430164337,-0.8659346699714661,0.0,0.0,0.0,0.0,0.0,0.0
2328,1724817052503581772,-1.6932231187820435,-0.6775110363960266,0.1731278896331787,-0.011233923025429249,-0.042377863079309464,0.498109370470047,-0.8660052418708801,0.0,0.0,0.0,0.0,0.0,0.0
2330,1724817052514468330,-1.6932373046875,-0.677571177482605,0.17305821180343628,-0.011324635706841946,-0.04204529523849487,0.4979291260242462,-0.8661238551139832,0.0,0.0,0.0,0.0,0.0,0.0
2332,1724817052523816457,-1.6932247877120972,-0.677593469619751,0.17306457459926605,-0.01119514461606741,-0.04213781654834747,0.497978538274765,-0.8660926818847656,0.0,0.0,0.0,0.0,0.0,0.0
2334,1724817052534210825,-1.693214774131775,-0.6776405572891235,0.1729903221130371,-0.011701811105012894,-0.04175949469208717,0.4978209137916565,-0.8661949038505554,0.0,0.0,0.0,0.0,0.0,0.0
2336,1724817052544832708,-1.6932084560394287,-0.677704930305481,0.17295090854167938,-0.011500257067382336,-0.041334353387355804,0.4976447820663452,-0.8663191199302673,0.0,0.0,0.0,0.0,0.0,0.0
2338,1724817052554543137,-1.6931589841842651,-0.6777662038803101,0.1728702336549759,-0.01155803818255663,-0.0411510206758976,0.49758076667785645,-0.8663638830184937,0.0,0.0,0.0,0.0,0.0,0.0
2340,1724817052564342844,-1.6930707693099976,-0.6778438687324524,0.17279145121574402,-0.011489654891192913,-0.04071692004799843,0.49758395552635193,-0.8663834929466248,0.0,0.0,0.0,0.0,0.0,0.0
2342,1724817052574628649,-1.6929601430892944,-0.677953839302063,0.1726342886686325,-0.01188771054148674,-0.04001849889755249,0.4973805546760559,-0.8665274381637573,0.0,0.0,0.0,0.0,0.0,0.0
2344,1724817052583588299,-1.6927450895309448,-0.6780220866203308,0.17257332801818848,-0.012231538072228432,-0.039939846843481064,0.4977051019668579,-0.8663399815559387,0.0,0.0,0.0,0.0,0.0,0.0
2346,1724817052594069259,-1.6924818754196167,-0.6781373023986816,0.17242465913295746,-0.012897193431854248,-0.03908954933285713,0.49772563576698303,-0.8663572669029236,0.0,0.0,0.0,0.0,0.0,0.0
2348,1724817052603973757,-1.692247986793518,-0.678270697593689,0.17214035987854004,-0.012154897674918175,-0.03737383335828781,0.49749433994293213,-0.8665765523910522,0.0,0.0,0.0,0.0,0.0,0.0
2350,1724817052655332613,-1.6918240785598755,-0.6783225536346436,0.17207372188568115,-0.012505872175097466,-0.03697902336716652,0.49821969866752625,-0.8661715984344482,0.0,0.0,0.0,0.0,0.0,0.0
2352,1724817052656129928,-1.6913247108459473,-0.6784197092056274,0.17198708653450012,-0.013506150804460049,-0.03647627308964729,0.4988737404346466,-0.8658013939857483,0.0,0.0,0.0,0.0,0.0,0.0
2354,1724817052656541735,-1.6908315420150757,-0.6784197092056274,0.17194747924804688,-0.009733753278851509,-0.03816498443484306,0.49989622831344604,-0.8651893734931946,0.0,0.0,0.0,0.0,0.0,0.0
2356,1724817052656974312,-1.6903420686721802,-0.6785229444503784,0.17190755903720856,-0.008454818278551102,-0.03799689561128616,0.5001242756843567,-0.8650782704353333,0.0,0.0,0.0,0.0,0.0,0.0
2358,1724817052658395037,-1.6897406578063965,-0.6785918474197388,0.17197665572166443,-0.009129494428634644,-0.038448210805654526,0.5006946325302124,-0.8647215366363525,0.0,0.0,0.0,0.0,0.0,0.0
2360,1724817052663474849,-1.6891289949417114,-0.6786442399024963,0.17218482494354248,-0.0094246631488204,-0.0382758192718029,0.5013111233711243,-0.864368736743927,0.0,0.0,0.0,0.0,0.0,0.0
2362,1724817052674215881,-1.6885855197906494,-0.678705096244812,0.17213477194309235,-0.008918828330934048,-0.03805732727050781,0.5018059611320496,-0.8640965819358826,0.0,0.0,0.0,0.0,0.0,0.0
2364,1724817052684845658,-1.6881879568099976,-0.678878903388977,0.17165857553482056,-0.007281567435711622,-0.035800088196992874,0.5015683174133301,-0.8643463850021362,0.0,0.0,0.0,0.0,0.0,0.0
2366,1724817052694131200,-1.687617540359497,-0.6788763999938965,0.1715499758720398,-0.007767484523355961,-0.03471962735056877,0.5021328926086426,-0.8640583157539368,0.0,0.0,0.0,0.0,0.0,0.0
2368,1724817052706532935,-1.6870368719100952,-0.6788581013679504,0.17148201167583466,-0.00868858303874731,-0.03384131193161011,0.5030521750450134,-0.863549530506134,0.0,0.0,0.0,0.0,0.0,0.0
2370,1724817052714769966,-1.6865184307098389,-0.67887943983078,0.1713915914297104,-0.009321361780166626,-0.03297716751694679,0.5038151144981384,-0.8631314635276794,0.0,0.0,0.0,0.0,0.0,0.0
2372,1724817052724091440,-1.6859546899795532,-0.6788671612739563,0.1714654266834259,-0.010284275747835636,-0.03348420560359955,0.5048625469207764,-0.8624887466430664,0.0,0.0,0.0,0.0,0.0,0.0
2374,1724817052734830312,-1.685400128364563,-0.6788612604141235,0.1716378629207611,-0.011094135232269764,-0.03316802904009819,0.5058104395866394,-0.8619354367256165,0.0,0.0,0.0,0.0,0.0,0.0
2376,1724817052744040335,-1.6849156618118286,-0.6788884997367859,0.1716553419828415,-0.011762148700654507,-0.03254961594939232,0.5066566467285156,-0.8614529371261597,0.0,0.0,0.0,0.0,0.0,0.0
2378,1724817052754224161,-1.6845343112945557,-0.6789277791976929,0.17153650522232056,-0.011724879033863544,-0.03145584464073181,0.5073270797729492,-0.8610994815826416,0.0,0.0,0.0,0.0,0.0,0.0
2380,1724817052765217619,-1.684248447418213,-0.6789587140083313,0.17137055099010468,-0.01060410961508751,-0.02955363132059574,0.5081488490104675,-0.8606967926025391,0.0,0.0,0.0,0.0,0.0,0.0
2382,1724817052774093340,-1.6838587522506714,-0.6789597272872925,0.17136481404304504,-0.01177817489951849,-0.028387799859046936,0.5093405842781067,-0.8600161075592041,0.0,0.0,0.0,0.0,0.0,0.0
2384,1724817052786278034,-1.683573842048645,-0.6789671778678894,0.1713934689760208,-0.012338362634181976,-0.02755804732441902,0.5103416442871094,-0.8594415783882141,0.0,0.0,0.0,0.0,0.0,0.0
2386,1724817052794855011,-1.6833516359329224,-0.6791030764579773,0.17131124436855316,-0.012746764346957207,-0.02615736797451973,0.5107125043869019,-0.8592590689659119,0.0,0.0,0.0,0.0,0.0,0.0
2388,1724817052803937996,-1.6831673383712769,-0.6792181730270386,0.17129811644554138,-0.012681449763476849,-0.025057576596736908,0.5112264156341553,-0.8589871525764465,0.0,0.0,0.0,0.0,0.0,0.0
2390,1724817052814227583,-1.6829291582107544,-0.6793810129165649,0.171397402882576,-0.01455347053706646,-0.025201942771673203,0.5118388533592224,-0.8585883975028992,0.0,0.0,0.0,0.0,0.0,0.0
2392,1724817052824566821,-1.682798147201538,-0.6795899868011475,0.17136384546756744,-0.014796115458011627,-0.024413488805294037,0.5122808218002319,-0.8583433628082275,0.0,0.0,0.0,0.0,0.0,0.0
2394,1724817052834603329,-1.6827976703643799,-0.6798844933509827,0.17101997137069702,-0.014262844808399677,-0.02307996153831482,0.5120257139205933,-0.8585415482521057,0.0,0.0,0.0,0.0,0.0,0.0
2396,1724817052844361519,-1.6827670335769653,-0.6800702214241028,0.17091166973114014,-0.013643878512084484,-0.02250334434211254,0.5122194290161133,-0.8584513664245605,0.0,0.0,0.0,0.0,0.0,0.0
2398,1724817052853886719,-1.6827983856201172,-0.6802479028701782,0.17076899111270905,-0.013439370319247246,-0.02127094753086567,0.5122299790382385,-0.8584797382354736,0.0,0.0,0.0,0.0,0.0,0.0
2400,1724817052864202876,-1.682861328125,-0.680460512638092,0.1706356257200241,-0.012959582731127739,-0.02017606422305107,0.5123030543327332,-0.8584699034690857,0.0,0.0,0.0,0.0,0.0,0.0
2402,1724817052875161063,-1.6829410791397095,-0.6806613206863403,0.17044717073440552,-0.012808678671717644,-0.019133271649479866,0.5125234723091125,-0.858364462852478,0.0,0.0,0.0,0.0,0.0,0.0
2404,1724817052884846637,-1.6831110715866089,-0.6809330582618713,0.17006978392601013,-0.011943832971155643,-0.01695794239640236,0.5124989748001099,-0.8584372997283936,0.0,0.0,0.0,0.0,0.0,0.0
2406,1724817052893729567,-1.6832116842269897,-0.6811606884002686,0.16974543035030365,-0.012266312725841999,-0.015309753827750683,0.5127244591712952,-0.8583290576934814,0.0,0.0,0.0,0.0,0.0,0.0
2408,1724817052904190462,-1.6833118200302124,-0.6814331412315369,0.16942685842514038,-0.01241880189627409,-0.01407554280012846,0.5129930973052979,-0.8581874370574951,0.0,0.0,0.0,0.0,0.0,0.0
2410,1724817052913738346,-1.6834453344345093,-0.6817656755447388,0.16905705630779266,-0.011296724900603294,-0.013017580844461918,0.513342022895813,-0.85801100730896,0.0,0.0,0.0,0.0,0.0,0.0
2412,1724817052923879812,-1.683611512184143,-0.6821749806404114,0.1685662418603897,-0.010379059240221977,-0.011601935140788555,0.5131139755249023,-0.8581792712211609,0.0,0.0,0.0,0.0,0.0,0.0
2414,1724817052935081036,-1.6836273670196533,-0.682591438293457,0.16826045513153076,-0.011189372278749943,-0.011350888758897781,0.5137051343917847,-0.8578187823295593,0.0,0.0,0.0,0.0,0.0,0.0
2416,1724817052943961464,-1.683698058128357,-0.6831167936325073,0.16776923835277557,-0.010912363417446613,-0.009522756561636925,0.5135205984115601,-0.8579549789428711,0.0,0.0,0.0,0.0,0.0,0.0
2418,1724817052954683119,-1.6836172342300415,-0.6835716366767883,0.16762636601924896,-0.010648099705576897,-0.008145736530423164,0.5137476921081543,-0.8578366637229919,0.0,0.0,0.0,0.0,0.0,0.0
2420,1724817052964860924,-1.683540940284729,-0.6841774582862854,0.16715817153453827,-0.009762079454958439,-0.007007436361163855,0.5133339762687683,-0.8581047058105469,0.0,0.0,0.0,0.0,0.0,0.0
2422,1724817052974109223,-1.6833925247192383,-0.6847885251045227,0.16682176291942596,-0.009093011729419231,-0.0058492147363722324,0.5129174590110779,-0.8583698272705078,0.0,0.0,0.0,0.0,0.0,0.0
2424,1724817052984527844,-1.683182716369629,-0.685316801071167,0.16678576171398163,-0.008807462640106678,-0.0035100476816296577,0.5129467844963074,-0.8583680987358093,0.0,0.0,0.0,0.0,0.0,0.0
2426,1724817052996592081,-1.682848572731018,-0.6858963370323181,0.16666384041309357,-0.010655437596142292,-0.003016402944922447,0.512719988822937,-0.8584845066070557,0.0,0.0,0.0,0.0,0.0,0.0
2428,1724817053004621299,-1.6826659440994263,-0.6866098046302795,0.1660880148410797,-0.008928143419325352,0.0003432561061345041,0.5110180974006653,-0.8595236539840698,0.0,0.0,0.0,0.0,0.0,0.0
2430,1724817053014342870,-1.6822865009307861,-0.6871728897094727,0.16576986014842987,-0.008097702637314796,0.0018343764822930098,0.5104123950004578,-0.8598896265029907,0.0,0.0,0.0,0.0,0.0,0.0
2432,1724817053023906481,-1.6819868087768555,-0.6878392696380615,0.1650628298521042,-0.006845970172435045,0.004120778292417526,0.5090630650520325,-0.8606921434402466,0.0,0.0,0.0,0.0,0.0,0.0
2434,1724817053034574062,-1.6816383600234985,-0.688420832157135,0.16447074711322784,-0.005077812820672989,0.006611465942114592,0.5082197785377502,-0.8611871004104614,0.0,0.0,0.0,0.0,0.0,0.0
2436,1724817053045938832,-1.6813075542449951,-0.6890344619750977,0.1637936234474182,-0.004495013039559126,0.009689456783235073,0.5073349475860596,-0.8616827726364136,0.0,0.0,0.0,0.0,0.0,0.0
2438,1724817053053712423,-1.6808446645736694,-0.6896770000457764,0.16327165067195892,-0.005260030273348093,0.011434376239776611,0.5068618059158325,-0.8619354963302612,0.0,0.0,0.0,0.0,0.0,0.0
2440,1724817053063749288,-1.6802887916564941,-0.6903552412986755,0.1629212647676468,-0.006504180375486612,0.014040806330740452,0.5064331889152527,-0.862140417098999,0.0,0.0,0.0,0.0,0.0,0.0
2442,1724817053074407007,-1.6799163818359375,-0.691196620464325,0.16226889193058014,-0.004519985988736153,0.01752602495253086,0.5050045251846313,-0.8629269003868103,0.0,0.0,0.0,0.0,0.0,0.0
2444,1724817053087546381,-1.6794353723526,-0.6920393109321594,0.16185498237609863,-0.003935897722840309,0.019497718662023544,0.5042237043380737,-0.8633439540863037,0.0,0.0,0.0,0.0,0.0,0.0
2446,1724817053094077784,-1.678904414176941,-0.6930025219917297,0.16141624748706818,-0.004927004687488079,0.021009383723139763,0.5030444264411926,-0.8639911413192749,0.0,0.0,0.0,0.0,0.0,0.0
2448,1724817053103699053,-1.678479790687561,-0.6941292881965637,0.160994291305542,-0.003596730763092637,0.024045143276453018,0.5014801025390625,-0.8648275136947632,0.0,0.0,0.0,0.0,0.0,0.0
2450,1724817053113621238,-1.6778644323349,-0.6951693892478943,0.16101408004760742,-0.004560239613056183,0.023807838559150696,0.5004518032073975,-0.8654250502586365,0.0,0.0,0.0,0.0,0.0,0.0
2452,1724817053125954103,-1.6771869659423828,-0.6962860226631165,0.16129375994205475,-0.005422740709036589,0.024029312655329704,0.4994564950466156,-0.8659886717796326,0.0,0.0,0.0,0.0,0.0,0.0
2454,1724817053135322008,-1.6765459775924683,-0.6975958347320557,0.16134421527385712,-0.005822043865919113,0.025711985304951668,0.4980597496032715,-0.8667418956756592,0.0,0.0,0.0,0.0,0.0,0.0
2456,1724817053143986443,-1.6759775876998901,-0.6987913846969604,0.16124574840068817,-0.00417769281193614,0.02617153711616993,0.4966857135295868,-0.8675257563591003,0.0,0.0,0.0,0.0,0.0,0.0
2458,1724817053155127753,-1.675351858139038,-0.699847400188446,0.16143010556697845,-0.0024139455053955317,0.025572529062628746,0.49614500999450684,-0.8678596615791321,0.0,0.0,0.0,0.0,0.0,0.0
2460,1724817053185679707,-1.674695611000061,-0.700900673866272,0.16151539981365204,-0.00272306683473289,0.025028511881828308,0.4951164126396179,-0.8684617877006531,0.0,0.0,0.0,0.0,0.0,0.0
2462,1724817053186130233,-1.6742197275161743,-0.7019920349121094,0.16123566031455994,-0.0010579731315374374,0.027020277455449104,0.4932408332824707,-0.8694723844528198,0.0,0.0,0.0,0.0,0.0,0.0
2464,1724817053186711096,-1.6735999584197998,-0.7029548287391663,0.16119146347045898,-0.0018216349417343736,0.02779467962682247,0.4919520616531372,-0.8701766729354858,0.0,0.0,0.0,0.0,0.0,0.0
2466,1724817053193773932,-1.672956943511963,-0.7037033438682556,0.1613847315311432,-0.0030814874917268753,0.0267947930842638,0.4912233054637909,-0.87061607837677,0.0,0.0,0.0,0.0,0.0,0.0
2468,1724817053204241118,-1.672489881515503,-0.7045319080352783,0.16130368411540985,-0.0028183667454868555,0.02753591723740101,0.48955032229423523,-0.8715356588363647,0.0,0.0,0.0,0.0,0.0,0.0
2470,1724817053214514714,-1.6720006465911865,-0.7052779197692871,0.16136135160923004,-0.002863788278773427,0.027438567951321602,0.4882757365703583,-0.8722532987594604,0.0,0.0,0.0,0.0,0.0,0.0
2472,1724817053223581278,-1.671521782875061,-0.7059849500656128,0.16145135462284088,-0.0022970132995396852,0.026938702911138535,0.48712942004203796,-0.872911274433136,0.0,0.0,0.0,0.0,0.0,0.0
2474,1724817053234465782,-1.6710880994796753,-0.706702709197998,0.1614907681941986,-0.001762698870152235,0.026783691719174385,0.48596498370170593,-0.8735660314559937,0.0,0.0,0.0,0.0,0.0,0.0
2476,1724817053243962859,-1.6707156896591187,-0.7074679136276245,0.16122065484523773,-0.0009537400910630822,0.028763718903064728,0.4840400516986847,-0.8745724558830261,0.0,0.0,0.0,0.0,0.0,0.0
2478,1724817053258431796,-1.6703722476959229,-0.7082385420799255,0.16089992225170135,2.2520291167893447e-05,0.029603399336338043,0.48211854696273804,-0.8756057620048523,0.0,0.0,0.0,0.0,0.0,0.0
2480,1724817053264366861,-1.6698517799377441,-0.7087550163269043,0.1612563580274582,-0.00011400027142371982,0.028928592801094055,0.48191654682159424,-0.8757395148277283,0.0,0.0,0.0,0.0,0.0,0.0
2482,1724817053273917976,-1.6694780588150024,-0.7095124125480652,0.16100366413593292,0.0011225866619497538,0.029256291687488556,0.48029762506484985,-0.8766167759895325,0.0,0.0,0.0,0.0,0.0,0.0
2484,1724817053285818544,-1.6690486669540405,-0.7101601362228394,0.16092745959758759,0.0018364620627835393,0.02968265488743782,0.47894883155822754,-0.8773389458656311,0.0,0.0,0.0,0.0,0.0,0.0
2486,1724817053294881634,-1.6686369180679321,-0.7106838822364807,0.16110731661319733,0.0021163425408303738,0.029690060764551163,0.4783564507961273,-0.8776611685752869,0.0,0.0,0.0,0.0,0.0,0.0
2488,1724817053303734273,-1.66817307472229,-0.7113683223724365,0.16126301884651184,0.001149370800703764,0.028580104932188988,0.47779470682144165,-0.8780057430267334,0.0,0.0,0.0,0.0,0.0,0.0
2490,1724817053313864352,-1.6678091287612915,-0.7121007442474365,0.16120187938213348,0.0010806393111124635,0.02916770428419113,0.47651922702789307,-0.8786793947219849,0.0,0.0,0.0,0.0,0.0,0.0
2492,1724817053324764121,-1.667446494102478,-0.7129040360450745,0.16100065410137177,0.0008061652770265937,0.0301510076969862,0.47511643171310425,-0.8794058561325073,0.0,0.0,0.0,0.0,0.0,0.0
2494,1724817053338158395,-1.667067050933838,-0.7135567665100098,0.16118299961090088,0.0013871907722204924,0.031123274937272072,0.4749331474304199,-0.8794702291488647,0.0,0.0,0.0,0.0,0.0,0.0
2496,1724817053380424408,-1.6666803359985352,-0.71425461769104,0.16126000881195068,0.002152610570192337,0.030689695850014687,0.47442832589149475,-0.8797563910484314,0.0,0.0,0.0,0.0,0.0,0.0
2498,1724817053380808862,-1.666281819343567,-0.7150607109069824,0.16118448972702026,0.001878279261291027,0.03132437914609909,0.47302669286727905,-0.8804891109466553,0.0,0.0,0.0,0.0,0.0,0.0
2500,1724817053381543680,-1.6659446954727173,-0.715867817401886,0.16104604303836823,0.0011977332178503275,0.03214375674724579,0.4716847538948059,-0.8811804056167603,0.0,0.0,0.0,0.0,0.0,0.0
2502,1724817053381884603,-1.6657888889312744,-0.7166590690612793,0.16081492602825165,0.003069884842261672,0.032924532890319824,0.47021040320396423,-0.8819345831871033,0.0,0.0,0.0,0.0,0.0,0.0
2504,1724817053384261022,-1.6655312776565552,-0.7174457311630249,0.160742849111557,0.004083717241883278,0.03270231932401657,0.4693208634853363,-0.8824125528335571,0.0,0.0,0.0,0.0,0.0,0.0
2506,1724817053394517025,-1.665220022201538,-0.718359112739563,0.16069452464580536,0.0036836164072155952,0.031752489507198334,0.4684552550315857,-0.8829087615013123,0.0,0.0,0.0,0.0,0.0,0.0
2508,1724817053406767867,-1.6649450063705444,-0.7191852331161499,0.160661980509758,0.003989353310316801,0.03177644684910774,0.4675085246562958,-0.88340824842453,0.0,0.0,0.0,0.0,0.0,0.0
2510,1724817053413606621,-1.664731740951538,-0.7200382947921753,0.16056233644485474,0.004562279209494591,0.03180437162518501,0.46653687953948975,-0.8839179873466492,0.0,0.0,0.0,0.0,0.0,0.0
2512,1724817053424206222,-1.6644097566604614,-0.7206519246101379,0.16110466420650482,0.0036232001148164272,0.031079508364200592,0.466398149728775,-0.8840212821960449,0.0,0.0,0.0,0.0,0.0,0.0
2514,1724817053437317858,-1.6643035411834717,-0.721580982208252,0.16079431772232056,0.005064954049885273,0.0330706350505352,0.464299738407135,-0.8850460648536682,0.0,0.0,0.0,0.0,0.0,0.0
2516,1724817053448772716,-1.6641311645507812,-0.7225878238677979,0.16042128205299377,0.005084029398858547,0.0342935174703598,0.4624407887458801,-0.8859720826148987,0.0,0.0,0.0,0.0,0.0,0.0
2518,1724817053458343696,-1.6638495922088623,-0.7234348058700562,0.16044802963733673,0.004978639539331198,0.03429906442761421,0.46185627579689026,-0.8862773180007935,0.0,0.0,0.0,0.0,0.0,0.0
2520,1724817053465699237,-1.6635825634002686,-0.7243165373802185,0.16051743924617767,0.0044113704934716225,0.03332974761724472,0.46083715558052063,-0.8868476748466492,0.0,0.0,0.0,0.0,0.0,0.0
2522,1724817053473772726,-1.6633869409561157,-0.7251400947570801,0.16063450276851654,0.0050185141153633595,0.033723942935466766,0.4597114622592926,-0.8874136209487915,0.0,0.0,0.0,0.0,0.0,0.0
2524,1724817053497026444,-1.6631393432617188,-0.7260791659355164,0.16043908894062042,0.0051435851491987705,0.034470126032829285,0.45878639817237854,-0.8878628611564636,0.0,0.0,0.0,0.0,0.0,0.0
2526,1724817053497333849,-1.662930965423584,-0.7269980311393738,0.16027317941188812,0.006580024026334286,0.0361606739461422,0.45768100023269653,-0.8883565068244934,0.0,0.0,0.0,0.0,0.0,0.0
2528,1724817053505495803,-1.6626543998718262,-0.7279401421546936,0.16012242436408997,0.007159488275647163,0.03689317777752876,0.45642417669296265,-0.8889683485031128,0.0,0.0,0.0,0.0,0.0,0.0
2530,1724817053513915595,-1.6622883081436157,-0.728860080242157,0.15995332598686218,0.006601604633033276,0.037752486765384674,0.45513230562210083,-0.8895987272262573,0.0,0.0,0.0,0.0,0.0,0.0
2532,1724817053523677124,-1.6618841886520386,-0.7297952175140381,0.15966908633708954,0.0061405557207763195,0.03726768493652344,0.4537259638309479,-0.8903405666351318,0.0,0.0,0.0,0.0,0.0,0.0
2534,1724817053537339489,-1.6615020036697388,-0.7306508421897888,0.15934786200523376,0.007689355406910181,0.038936857134103775,0.452352911233902,-0.8909555077552795,0.0,0.0,0.0,0.0,0.0,0.0
2536,1724817053544739285,-1.660887598991394,-0.731178879737854,0.15981486439704895,0.006441407836973667,0.03720017895102501,0.4529503583908081,-0.8907360434532166,0.0,0.0,0.0,0.0,0.0,0.0
2538,1724817053555806442,-1.6604816913604736,-0.7318704128265381,0.15960918366909027,0.008974805474281311,0.039411671459674835,0.45146554708480835,-0.8913725018501282,0.0,0.0,0.0,0.0,0.0,0.0
2540,1724817053564069125,-1.6598318815231323,-0.7325603365898132,0.15941423177719116,0.008128734305500984,0.03950825333595276,0.45043471455574036,-0.8918977975845337,0.0,0.0,0.0,0.0,0.0,0.0
2542,1724817053575024872,-1.6589620113372803,-0.7329737544059753,0.15979421138763428,0.00733988918364048,0.0389619879424572,0.4510355293750763,-0.891624927520752,0.0,0.0,0.0,0.0,0.0,0.0
2544,1724817053583764112,-1.6582368612289429,-0.7336667776107788,0.1596626341342926,0.008294976316392422,0.039251890033483505,0.45045027136802673,-0.8918997645378113,0.0,0.0,0.0,0.0,0.0,0.0
2546,1724817053594298551,-1.6575859785079956,-0.7344707250595093,0.1592586487531662,0.00891837663948536,0.04072865471243858,0.448991060256958,-0.892562985420227,0.0,0.0,0.0,0.0,0.0,0.0
2548,1724817053603883754,-1.6569023132324219,-0.7351312041282654,0.1591029167175293,0.008726868778467178,0.043436549603939056,0.4475431442260742,-0.8931642174720764,0.0,0.0,0.0,0.0,0.0,0.0
2550,1724817053613867667,-1.65614652633667,-0.7357238531112671,0.15901893377304077,0.007993235252797604,0.043840400874614716,0.4470157027244568,-0.8934154510498047,0.0,0.0,0.0,0.0,0.0,0.0
2552,1724817053624839765,-1.655298113822937,-0.7362426519393921,0.15918868780136108,0.007436695042997599,0.04278360679745674,0.4470036029815674,-0.8934774398803711,0.0,0.0,0.0,0.0,0.0,0.0
2554,1724817053634147400,-1.6545021533966064,-0.7368417978286743,0.15919530391693115,0.008400504477322102,0.042876236140728,0.44658225774765015,-0.8936751484870911,0.0,0.0,0.0,0.0,0.0,0.0
2556,1724817053644316931,-1.6536307334899902,-0.737395167350769,0.15920069813728333,0.008814455009996891,0.043493613600730896,0.44633370637893677,-0.8937655091285706,0.0,0.0,0.0,0.0,0.0,0.0
2558,1724817053660040526,-1.6528050899505615,-0.7380287051200867,0.15908636152744293,0.009010093286633492,0.04444032907485962,0.4456078112125397,-0.8940791487693787,0.0,0.0,0.0,0.0,0.0,0.0
2560,1724817053663490220,-1.6520856618881226,-0.7387983798980713,0.15861418843269348,0.011065321043133736,0.04659544304013252,0.4438968002796173,-0.8947973251342773,0.0,0.0,0.0,0.0,0.0,0.0
2562,1724817053673984834,-1.651137351989746,-0.7393709421157837,0.15858060121536255,0.010500097647309303,0.04708442836999893,0.44317054748535156,-0.8951383233070374,0.0,0.0,0.0,0.0,0.0,0.0
2564,1724817053687399483,-1.6501085758209229,-0.7396329045295715,0.15917623043060303,0.007873748429119587,0.04571543633937836,0.44428062438964844,-0.8946858644485474,0.0,0.0,0.0,0.0,0.0,0.0
2566,1724817053693593539,-1.649295687675476,-0.7403550744056702,0.15880659222602844,0.009176494553685188,0.04742364585399628,0.44303399324417114,-0.89520263671875,0.0,0.0,0.0,0.0,0.0,0.0
2568,1724817053703892017,-1.6482607126235962,-0.7407207489013672,0.15911030769348145,0.008868730627000332,0.04725096747279167,0.4437331557273865,-0.8948684930801392,0.0,0.0,0.0,0.0,0.0,0.0
2570,1724817053715259244,-1.6472554206848145,-0.7412189245223999,0.1590818613767624,0.008436373434960842,0.04776705056428909,0.4435356855392456,-0.894943118095398,0.0,0.0,0.0,0.0,0.0,0.0
2572,1724817053723743164,-1.646299123764038,-0.7419499158859253,0.15856143832206726,0.009519265033304691,0.049407798796892166,0.4426059126853943,-0.89530348777771,0.0,0.0,0.0,0.0,0.0,0.0
2574,1724817053734183193,-1.6452903747558594,-0.7423692941665649,0.15858325362205505,0.00980202853679657,0.05027332529425621,0.4424360990524292,-0.8953362107276917,0.0,0.0,0.0,0.0,0.0,0.0
2576,1724817053746338268,-1.6443090438842773,-0.7429169416427612,0.15829382836818695,0.011138083413243294,0.05233998969197273,0.44152259826660156,-0.8956530094146729,0.0,0.0,0.0,0.0,0.0,0.0
2578,1724817053753934190,-1.6432605981826782,-0.7433292269706726,0.15826058387756348,0.012169153429567814,0.05253658816218376,0.44160059094429016,-0.8955895900726318,0.0,0.0,0.0,0.0,0.0,0.0
2580,1724817053763885740,-1.6421687602996826,-0.7437774538993835,0.15818247199058533,0.011028189212083817,0.0533207505941391,0.4415043890476227,-0.8956054449081421,0.0,0.0,0.0,0.0,0.0,0.0
2582,1724817053781017692,-1.6411255598068237,-0.744243860244751,0.15817585587501526,0.010171632282435894,0.05310135334730148,0.44145750999450684,-0.8956517577171326,0.0,0.0,0.0,0.0,0.0,0.0
2584,1724817053785794370,-1.640177607536316,-0.7447884678840637,0.15796399116516113,0.011341908946633339,0.05418427288532257,0.4409485161304474,-0.8958235383033752,0.0,0.0,0.0,0.0,0.0,0.0
2586,1724817053796549188,-1.6391241550445557,-0.7452024817466736,0.15795065462589264,0.01107600424438715,0.054954785853624344,0.4413622319698334,-0.8955761790275574,0.0,0.0,0.0,0.0,0.0,0.0
2588,1724817053804674990,-1.6382039785385132,-0.7456705570220947,0.1577214002609253,0.013735875487327576,0.05684526637196541,0.4412240982055664,-0.8954893946647644,0.0,0.0,0.0,0.0,0.0,0.0
2590,1724817053814011634,-1.637228012084961,-0.7460789084434509,0.15771426260471344,0.013721415773034096,0.05656040459871292,0.4420824944972992,-0.8950842618942261,0.0,0.0,0.0,0.0,0.0,0.0
2592,1724817053824634045,-1.6362278461456299,-0.7466451525688171,0.15748220682144165,0.014077039435505867,0.058967217803001404,0.4420453906059265,-0.8949418067932129,0.0,0.0,0.0,0.0,0.0,0.0
2594,1724817053834935084,-1.6351308822631836,-0.7470222115516663,0.1575697362422943,0.012515627779066563,0.05868761986494064,0.44313058257102966,-0.8944464325904846,0.0,0.0,0.0,0.0,0.0,0.0
2596,1724817053844358354,-1.6342815160751343,-0.7475711107254028,0.15732669830322266,0.0134030906483531,0.059948042035102844,0.4428003132343292,-0.8945136070251465,0.0,0.0,0.0,0.0,0.0,0.0
2598,1724817053857708178,-1.6332964897155762,-0.7480429410934448,0.15723496675491333,0.01330296415835619,0.06048283353447914,0.4430086016654968,-0.8943759799003601,0.0,0.0,0.0,0.0,0.0,0.0
2600,1724817053865505071,-1.6322654485702515,-0.7484135627746582,0.15722130239009857,0.013416795060038567,0.06054515019059181,0.443501740694046,-0.8941256403923035,0.0,0.0,0.0,0.0,0.0,0.0
2602,1724817053874167113,-1.631339192390442,-0.7487974762916565,0.1571330577135086,0.014550442807376385,0.061320994049310684,0.4439505338668823,-0.8938322067260742,0.0,0.0,0.0,0.0,0.0,0.0
2604,1724817053908224475,-1.6305068731307983,-0.7494392395019531,0.1564924567937851,0.016382424160838127,0.06437705457210541,0.4430665075778961,-0.8940243124961853,0.0,0.0,0.0,0.0,0.0,0.0
2606,1724817053909038300,-1.6294419765472412,-0.749585747718811,0.15679900348186493,0.015432768501341343,0.0635870173573494,0.444949746131897,-0.8931620121002197,0.0,0.0,0.0,0.0,0.0,0.0
2608,1724817053909520037,-1.62852942943573,-0.7500977516174316,0.15645773708820343,0.016476761549711227,0.06455274671316147,0.4448169469833374,-0.8931401371955872,0.0,0.0,0.0,0.0,0.0,0.0
2610,1724817053913714849,-1.6276267766952515,-0.7505082488059998,0.15617485344409943,0.01796727627515793,0.06690803170204163,0.44485655426979065,-0.8929183483123779,0.0,0.0,0.0,0.0,0.0,0.0
2612,1724817053924528017,-1.6266520023345947,-0.7505925893783569,0.15636271238327026,0.018240196630358696,0.06747666001319885,0.4463983178138733,-0.8921002149581909,0.0,0.0,0.0,0.0,0.0,0.0
2614,1724817053935577210,-1.6257450580596924,-0.7508342266082764,0.15623143315315247,0.0187497790902853,0.06845466047525406,0.4471236765384674,-0.8916517496109009,0.0,0.0,0.0,0.0,0.0,0.0
2616,1724817053943859603,-1.6247358322143555,-0.7510896921157837,0.15610244870185852,0.01780519261956215,0.06953094154596329,0.4471352994441986,-0.8915820717811584,0.0,0.0,0.0,0.0,0.0,0.0
2618,1724817053954464965,-1.6236151456832886,-0.7511894702911377,0.15633603930473328,0.01677849516272545,0.06840775161981583,0.4488586485385895,-0.8908225893974304,0.0,0.0,0.0,0.0,0.0,0.0
2620,1724817053963821233,-1.6226370334625244,-0.7514969706535339,0.15614837408065796,0.016368327662348747,0.06976551562547684,0.4486337900161743,-0.8908382058143616,0.0,0.0,0.0,0.0,0.0,0.0
2622,1724817053974590934,-1.621612787246704,-0.7516624927520752,0.1560274362564087,0.016386214643716812,0.0705035924911499,0.44885531067848206,-0.8906680941581726,0.0,0.0,0.0,0.0,0.0,0.0
2624,1724817053984735608,-1.6206504106521606,-0.7518242001533508,0.15584245324134827,0.016953619197010994,0.07062915712594986,0.4494538903236389,-0.8903456330299377,0.0,0.0,0.0,0.0,0.0,0.0
2626,1724817053995083839,-1.6197377443313599,-0.7520235776901245,0.15563733875751495,0.017381660640239716,0.07243917137384415,0.448984831571579,-0.8904287219047546,0.0,0.0,0.0,0.0,0.0,0.0
2628,1724817054003984460,-1.6187416315078735,-0.7519932985305786,0.15572792291641235,0.016971619799733162,0.0721425712108612,0.4496013820171356,-0.8901494145393372,0.0,0.0,0.0,0.0,0.0,0.0
2630,1724817054014741986,-1.6177560091018677,-0.7520918846130371,0.15566585958003998,0.01683158054947853,0.072828508913517,0.44945117831230164,-0.8901721239089966,0.0,0.0,0.0,0.0,0.0,0.0
2632,1724817054025587648,-1.6168032884597778,-0.7520080804824829,0.15577194094657898,0.01834247075021267,0.0720255970954895,0.45035862922668457,-0.8897488713264465,0.0,0.0,0.0,0.0,0.0,0.0
2634,1724817054034752499,-1.6157677173614502,-0.7519530057907104,0.1558469980955124,0.0181919876486063,0.07236373424530029,0.4510222375392914,-0.8893882632255554,0.0,0.0,0.0,0.0,0.0,0.0
2636,1724817054043729927,-1.6146668195724487,-0.7517399787902832,0.15621371567249298,0.017690351232886314,0.07132706791162491,0.45266225934028625,-0.8886486887931824,0.0,0.0,0.0,0.0,0.0,0.0
2638,1724817054056045581,-1.6137280464172363,-0.7518407106399536,0.15603798627853394,0.017572611570358276,0.07202629745006561,0.4520696997642517,-0.8888961672782898,0.0,0.0,0.0,0.0,0.0,0.0
2640,1724817054064145600,-1.6127046346664429,-0.7517057061195374,0.1560741513967514,0.018081534653902054,0.07248924672603607,0.4522929787635803,-0.8887346982955933,0.0,0.0,0.0,0.0,0.0,0.0
2642,1724817054074201699,-1.6116948127746582,-0.7516172528266907,0.15605871379375458,0.019109241664409637,0.07170307636260986,0.45273324847221375,-0.8885528445243835,0.0,0.0,0.0,0.0,0.0,0.0
2644,1724817054084394092,-1.6106358766555786,-0.751556932926178,0.15608160197734833,0.01743417978286743,0.07213820517063141,0.4526955783367157,-0.8885713219642639,0.0,0.0,0.0,0.0,0.0,0.0
2646,1724817054094428546,-1.60965895652771,-0.7515230178833008,0.15606637299060822,0.0166911780834198,0.07248327881097794,0.45263850688934326,-0.8885864615440369,0.0,0.0,0.0,0.0,0.0,0.0
2648,1724817054106186901,-1.60862398147583,-0.7514384984970093,0.15611310303211212,0.016442855820059776,0.07233492285013199,0.45274147391319275,-0.8885507583618164,0.0,0.0,0.0,0.0,0.0,0.0
2650,1724817054113752154,-1.6076902151107788,-0.7515112161636353,0.15571409463882446,0.01749463938176632,0.07305900752544403,0.45174917578697205,-0.8889764547348022,0.0,0.0,0.0,0.0,0.0,0.0
2652,1724817054124323967,-1.6067612171173096,-0.7515025734901428,0.15552665293216705,0.017874130979180336,0.07371754944324493,0.45099693536758423,-0.8892963528633118,0.0,0.0,0.0,0.0,0.0,0.0
2654,1724817054134607232,-1.605653166770935,-0.7511916756629944,0.15584023296833038,0.017578698694705963,0.07138870656490326,0.45178523659706116,-0.8890920877456665,0.0,0.0,0.0,0.0,0.0,0.0
2656,1724817054143707445,-1.6045646667480469,-0.751039445400238,0.15605179965496063,0.01621464267373085,0.07189974188804626,0.4518692195415497,-0.8890342116355896,0.0,0.0,0.0,0.0,0.0,0.0
2658,1724817054155809573,-1.6035634279251099,-0.7509323358535767,0.1560068130493164,0.016902079805731773,0.07258713245391846,0.4517415165901184,-0.889030396938324,0.0,0.0,0.0,0.0,0.0,0.0
2660,1724817054163776805,-1.6025187969207764,-0.7510704398155212,0.15550056099891663,0.016717415302991867,0.07449251413345337,0.45054560899734497,-0.8894830346107483,0.0,0.0,0.0,0.0,0.0,0.0
2662,1724817054173895831,-1.6014665365219116,-0.7509406208992004,0.15541265904903412,0.016744673252105713,0.07628320157527924,0.4499180316925049,-0.8896483778953552,0.0,0.0,0.0,0.0,0.0,0.0
2664,1724817054185684470,-1.6003137826919556,-0.7506776452064514,0.15563365817070007,0.016883887350559235,0.07617568224668503,0.4507372975349426,-0.8892401456832886,0.0,0.0,0.0,0.0,0.0,0.0
2666,1724817054194190278,-1.5991042852401733,-0.7504260540008545,0.15606264770030975,0.015613566152751446,0.07661541551351547,0.4516312777996063,-0.8887718915939331,0.0,0.0,0.0,0.0,0.0,0.0
2668,1724817054207047138,-1.5980759859085083,-0.7503057718276978,0.156179279088974,0.015866190195083618,0.07765208184719086,0.45160019397735596,-0.8886932730674744,0.0,0.0,0.0,0.0,0.0,0.0
2670,1724817054213828941,-1.5970114469528198,-0.7501586079597473,0.15631823241710663,0.016352219507098198,0.07749569416046143,0.451788991689682,-0.8886021971702576,0.0,0.0,0.0,0.0,0.0,0.0
2672,1724817054225030422,-1.5958658456802368,-0.7499392628669739,0.15656490623950958,0.015438455156981945,0.07849378883838654,0.452113538980484,-0.8883658051490784,0.0,0.0,0.0,0.0,0.0,0.0
2674,1724817054235070866,-1.594855785369873,-0.7500046491622925,0.15630225837230682,0.01643902063369751,0.08109372854232788,0.45147305727005005,-0.8884400725364685,0.0,0.0,0.0,0.0,0.0,0.0
2676,1724817054244314784,-1.5936546325683594,-0.7496992945671082,0.15651291608810425,0.014682719483971596,0.08151498436927795,0.4524724781513214,-0.8879236578941345,0.0,0.0,0.0,0.0,0.0,0.0
2678,1724817054253971704,-1.5926276445388794,-0.7495684027671814,0.15655194222927094,0.014574902132153511,0.08329414576292038,0.45258137583732605,-0.8877048492431641,0.0,0.0,0.0,0.0,0.0,0.0
2680,1724817054264248721,-1.591662049293518,-0.7492929100990295,0.1567496508359909,0.01490930188447237,0.08432954549789429,0.45351433753967285,-0.8871250748634338,0.0,0.0,0.0,0.0,0.0,0.0
2682,1724817054274448804,-1.590766429901123,-0.7491034865379333,0.156865656375885,0.015450410544872284,0.0859677791595459,0.453765332698822,-0.8868302702903748,0.0,0.0,0.0,0.0,0.0,0.0
2684,1724817054284064627,-1.5898905992507935,-0.7489219903945923,0.156763955950737,0.016853759065270424,0.08873395621776581,0.4539320170879364,-0.8864468336105347,0.0,0.0,0.0,0.0,0.0,0.0
2686,1724817054296844021,-1.5890188217163086,-0.7486110329627991,0.15689094364643097,0.016401153057813644,0.09011722356081009,0.45537880063056946,-0.8855732679367065,0.0,0.0,0.0,0.0,0.0,0.0
2688,1724817054304246103,-1.5881075859069824,-0.7480610609054565,0.15734213590621948,0.015492706559598446,0.09039085358381271,0.4575677812099457,-0.8844327330589294,0.0,0.0,0.0,0.0,0.0,0.0
2690,1724817054314002721,-1.5872611999511719,-0.7482160925865173,0.15672683715820312,0.015946602448821068,0.09432323276996613,0.4560529291629791,-0.8847963809967041,0.0,0.0,0.0,0.0,0.0,0.0
2692,1724817054324681147,-1.5864777565002441,-0.7480348348617554,0.15652653574943542,0.016343584284186363,0.09685371071100235,0.45592138171195984,-0.8845835328102112,0.0,0.0,0.0,0.0,0.0,0.0
2694,1724817054334304461,-1.585703730583191,-0.7476280927658081,0.15652404725551605,0.01774933934211731,0.09823765605688095,0.457442045211792,-0.8836181163787842,0.0,0.0,0.0,0.0,0.0,0.0
2696,1724817054343914890,-1.5849474668502808,-0.7472448945045471,0.15628895163536072,0.017852194607257843,0.10235486179590225,0.4581345319747925,-0.882789671421051,0.0,0.0,0.0,0.0,0.0,0.0
2698,1724817054354491294,-1.584165334701538,-0.7466491460800171,0.15632982552051544,0.018038317561149597,0.1045045554637909,0.4596514105796814,-0.8817448616027832,0.0,0.0,0.0,0.0,0.0,0.0
2700,1724817054363826786,-1.5833739042282104,-0.7461360692977905,0.15624946355819702,0.01807858794927597,0.10703793913125992,0.46079808473587036,-0.8808411359786987,0.0,0.0,0.0,0.0,0.0,0.0
2702,1724817054375068203,-1.5826044082641602,-0.7455142736434937,0.15620927512645721,0.018863383680582047,0.10871508717536926,0.46253031492233276,-0.8797107338905334,0.0,0.0,0.0,0.0,0.0,0.0
2704,1724817054384889758,-1.5817582607269287,-0.7447299361228943,0.15661360323429108,0.016570623964071274,0.10991860181093216,0.4647981822490692,-0.8784111142158508,0.0,0.0,0.0,0.0,0.0,0.0
2706,1724817054394410140,-1.581065058708191,-0.7443607449531555,0.15612970292568207,0.017341258004307747,0.1127924770116806,0.46494895219802856,-0.877951979637146,0.0,0.0,0.0,0.0,0.0,0.0
2708,1724817054404976458,-1.5803531408309937,-0.7438705563545227,0.15575094521045685,0.018349532037973404,0.11668410152196884,0.46513286232948303,-0.877325177192688,0.0,0.0,0.0,0.0,0.0,0.0
2710,1724817054413916553,-1.5797070264816284,-0.7433863878250122,0.15524783730506897,0.019621409475803375,0.11980058997869492,0.46526265144348145,-0.8768087029457092,0.0,0.0,0.0,0.0,0.0,0.0
2712,1724817054423925839,-1.5790075063705444,-0.7426871061325073,0.15505379438400269,0.019443349912762642,0.12141711264848709,0.46635785698890686,-0.8760080933570862,0.0,0.0,0.0,0.0,0.0,0.0
2714,1724817054436050464,-1.5784000158309937,-0.7421401739120483,0.15468205511569977,0.019658900797367096,0.12422795593738556,0.466600626707077,-0.8754797577857971,0.0,0.0,0.0,0.0,0.0,0.0
2716,1724817054443828177,-1.5779106616973877,-0.7414947748184204,0.15456204116344452,0.02001539058983326,0.12634801864624023,0.46763426065444946,-0.8746164441108704,0.0,0.0,0.0,0.0,0.0,0.0
2718,1724817054455042441,-1.5773770809173584,-0.7409392595291138,0.15405726432800293,0.01993691362440586,0.1293996125459671,0.4676966667175293,-0.874138593673706,0.0,0.0,0.0,0.0,0.0,0.0
2720,1724817054464544020,-1.5769411325454712,-0.7401731014251709,0.15361203253269196,0.02126089297235012,0.13348598778247833,0.468237966299057,-0.8732025623321533,0.0,0.0,0.0,0.0,0.0,0.0
2722,1724817054473814927,-1.5763819217681885,-0.7392075061798096,0.15367461740970612,0.020434586331248283,0.1350102424621582,0.47053658962249756,-0.8717511296272278,0.0,0.0,0.0,0.0,0.0,0.0
2724,1724817054484434185,-1.5760385990142822,-0.7385467290878296,0.15316252410411835,0.023565510287880898,0.13913674652576447,0.470929354429245,-0.8708106279373169,0.0,0.0,0.0,0.0,0.0,0.0
2726,1724817054493737492,-1.5754882097244263,-0.7376943230628967,0.15300332009792328,0.02219114452600479,0.14067478477954865,0.47226682305336,-0.869874894618988,0.0,0.0,0.0,0.0,0.0,0.0
2728,1724817054503995951,-1.5750877857208252,-0.7368857264518738,0.1527562290430069,0.022309208288788795,0.14435672760009766,0.47264373302459717,-0.8690635561943054,0.0,0.0,0.0,0.0,0.0,0.0
2730,1724817054513910336,-1.5746757984161377,-0.7363405227661133,0.15186475217342377,0.023485280573368073,0.14852885901927948,0.47179627418518066,-0.8687899112701416,0.0,0.0,0.0,0.0,0.0,0.0
2732,1724817054523917685,-1.5742195844650269,-0.7358060479164124,0.15180936455726624,0.023069903254508972,0.15085469186306,0.47114112973213196,-0.8687558174133301,0.0,0.0,0.0,0.0,0.0,0.0
2734,1724817054534460403,-1.5739277601242065,-0.7352936267852783,0.15196353197097778,0.023186419159173965,0.15265804529190063,0.471168577671051,-0.8684228658676147,0.0,0.0,0.0,0.0,0.0,0.0
2736,1724817054544934442,-1.5736379623413086,-0.7347887754440308,0.1521814912557602,0.023003799840807915,0.153883159160614,0.4713827073574066,-0.8680950999259949,0.0,0.0,0.0,0.0,0.0,0.0
2738,1724817054553692699,-1.5731476545333862,-0.7343140840530396,0.1523267924785614,0.022570304572582245,0.15509092807769775,0.4717564582824707,-0.8676885366439819,0.0,0.0,0.0,0.0,0.0,0.0
2740,1724817054564042667,-1.5727336406707764,-0.7339605093002319,0.15240806341171265,0.023228151723742485,0.1556040644645691,0.4723426103591919,-0.867260217666626,0.0,0.0,0.0,0.0,0.0,0.0
2742,1724817054574494124,-1.5723072290420532,-0.7336477637290955,0.15253140032291412,0.022646760568022728,0.15609683096408844,0.47291094064712524,-0.8668772578239441,0.0,0.0,0.0,0.0,0.0,0.0
2744,1724817054584349084,-1.5716986656188965,-0.7333216667175293,0.1526995748281479,0.022652126848697662,0.1563444286584854,0.4738904535770416,-0.8662973642349243,0.0,0.0,0.0,0.0,0.0,0.0
2746,1724817054593900179,-1.5711301565170288,-0.7331210970878601,0.1527668684720993,0.022687172517180443,0.1570778638124466,0.4741572141647339,-0.866017758846283,0.0,0.0,0.0,0.0,0.0,0.0
2748,1724817054605195846,-1.57062566280365,-0.7328175902366638,0.15314333140850067,0.022712230682373047,0.15761856734752655,0.47535011172294617,-0.8652646541595459,0.0,0.0,0.0,0.0,0.0,0.0
2750,1724817054617347607,-1.5700773000717163,-0.7326236367225647,0.1532735377550125,0.023004045709967613,0.1583624929189682,0.475739985704422,-0.8649067878723145,0.0,0.0,0.0,0.0,0.0,0.0
2752,1724817054623930413,-1.5695909261703491,-0.7324436902999878,0.15344224870204926,0.02431146614253521,0.15888571739196777,0.4761744439601898,-0.8645357489585876,0.0,0.0,0.0,0.0,0.0,0.0
2754,1724817054634293179,-1.5690616369247437,-0.7324002981185913,0.15341287851333618,0.025186121463775635,0.1614585965871811,0.47567132115364075,-0.8643110990524292,0.0,0.0,0.0,0.0,0.0,0.0
2756,1724817054644452805,-1.5685019493103027,-0.7321287989616394,0.15362730622291565,0.02501560002565384,0.16172678768634796,0.47688478231430054,-0.8635969161987305,0.0,0.0,0.0,0.0,0.0,0.0
2758,1724817054654695188,-1.5678590536117554,-0.7320874929428101,0.15370747447013855,0.024319292977452278,0.16191457211971283,0.47725561261177063,-0.8633767366409302,0.0,0.0,0.0,0.0,0.0,0.0
2760,1724817054663819204,-1.5672411918640137,-0.7320016026496887,0.15377937257289886,0.02465677075088024,0.16216568648815155,0.4782339632511139,-0.8627784252166748,0.0,0.0,0.0,0.0,0.0,0.0
2762,1724817054674013847,-1.5665996074676514,-0.7319013476371765,0.15388339757919312,0.025505539029836655,0.1622060388326645,0.4794752299785614,-0.8620570302009583,0.0,0.0,0.0,0.0,0.0,0.0
2764,1724817054684965099,-1.565932035446167,-0.7318273186683655,0.15401141345500946,0.025256680324673653,0.16262368857860565,0.4806921184062958,-0.861307680606842,0.0,0.0,0.0,0.0,0.0,0.0
2766,1724817054693569888,-1.5651793479919434,-0.7316327095031738,0.154494509100914,0.0243208184838295,0.1628110706806183,0.4825177788734436,-0.8602776527404785,0.0,0.0,0.0,0.0,0.0,0.0
2768,1724817054704084288,-1.5644711256027222,-0.7317900657653809,0.1543848216533661,0.025553502142429352,0.16506069898605347,0.4826183021068573,-0.8597567081451416,0.0,0.0,0.0,0.0,0.0,0.0
2770,1724817054714781291,-1.5637177228927612,-0.7319652438163757,0.15431664884090424,0.025947507470846176,0.16484494507312775,0.4831848442554474,-0.8594679832458496,0.0,0.0,0.0,0.0,0.0,0.0
2772,1724817054726299516,-1.5629804134368896,-0.7321622371673584,0.15426792204380035,0.02573428489267826,0.16566181182861328,0.4831840395927429,-0.8593178987503052,0.0,0.0,0.0,0.0,0.0,0.0
2774,1724817054735084686,-1.5621860027313232,-0.7322473526000977,0.1543152779340744,0.02602316066622734,0.16679878532886505,0.4838483929634094,-0.8587151765823364,0.0,0.0,0.0,0.0,0.0,0.0
2776,1724817054743978774,-1.5612812042236328,-0.7320833802223206,0.15486088395118713,0.02421521209180355,0.165868878364563,0.4865730404853821,-0.8574076294898987,0.0,0.0,0.0,0.0,0.0,0.0
2778,1724817054753955935,-1.5604658126831055,-0.7320431470870972,0.1551608443260193,0.02324291132390499,0.16615062952041626,0.48783648014068604,-0.8566616773605347,0.0,0.0,0.0,0.0,0.0,0.0
2780,1724817054764329294,-1.559629201889038,-0.7323216795921326,0.15498846769332886,0.023000774905085564,0.167552188038826,0.4879774749279022,-0.8563149571418762,0.0,0.0,0.0,0.0,0.0,0.0
2782,1724817054773690359,-1.558751106262207,-0.7323316335678101,0.15514029562473297,0.0216663870960474,0.16787970066070557,0.48925647139549255,-0.8555554151535034,0.0,0.0,0.0,0.0,0.0,0.0
2784,1724817054786629052,-1.5578560829162598,-0.7323302030563354,0.1552964150905609,0.021080512553453445,0.1678982675075531,0.49033746123313904,-0.8549473285675049,0.0,0.0,0.0,0.0,0.0,0.0
2786,1724817054795164568,-1.5570720434188843,-0.732556939125061,0.15518556535243988,0.02153506875038147,0.16903266310691833,0.490058034658432,-0.8548727631568909,0.0,0.0,0.0,0.0,0.0,0.0
2788,1724817054803854037,-1.5563043355941772,-0.7327274680137634,0.15509098768234253,0.021173838526010513,0.17035908997058868,0.4899223744869232,-0.8546961545944214,0.0,0.0,0.0,0.0,0.0,0.0
2790,1724817054813811018,-1.5554579496383667,-0.732660174369812,0.15518134832382202,0.021227693185210228,0.17110025882720947,0.4911101162433624,-0.8538647294044495,0.0,0.0,0.0,0.0,0.0,0.0
2792,1724817054825352169,-1.5545772314071655,-0.7324514985084534,0.15557242929935455,0.019570626318454742,0.1692209094762802,0.49312952160835266,-0.853114664554596,0.0,0.0,0.0,0.0,0.0,0.0
2794,1724817054834390162,-1.5538421869277954,-0.7325388789176941,0.15552738308906555,0.020005762577056885,0.17035987973213196,0.49318400025367737,-0.8528462648391724,0.0,0.0,0.0,0.0,0.0,0.0
2796,1724817054844333239,-1.5530333518981934,-0.7325314283370972,0.15548725426197052,0.01986083760857582,0.17125581204891205,0.49325084686279297,-0.8526315689086914,0.0,0.0,0.0,0.0,0.0,0.0
2798,1724817054857390623,-1.5522103309631348,-0.7323815226554871,0.15556998550891876,0.02040688507258892,0.17130248248577118,0.49452993273735046,-0.8518680334091187,0.0,0.0,0.0,0.0,0.0,0.0
2800,1724817054863541347,-1.5514129400253296,-0.7323166728019714,0.15553922951221466,0.020980503410100937,0.17233482003211975,0.4953206479549408,-0.851186215877533,0.0,0.0,0.0,0.0,0.0,0.0
2802,1724817054874348754,-1.5505890846252441,-0.7324042916297913,0.15531538426876068,0.019355209544301033,0.1730649769306183,0.494552344083786,-0.8515233993530273,0.0,0.0,0.0,0.0,0.0,0.0
2804,1724817054889262696,-1.5498321056365967,-0.7323421835899353,0.15544813871383667,0.0186785776168108,0.17312349379062653,0.49481579661369324,-0.8513734340667725,0.0,0.0,0.0,0.0,0.0,0.0
2806,1724817054893884682,-1.5490005016326904,-0.7321696281433105,0.15565864741802216,0.018995700404047966,0.17247089743614197,0.49581587314605713,-0.8509169220924377,0.0,0.0,0.0,0.0,0.0,0.0
2808,1724817054907142375,-1.548160195350647,-0.7320091128349304,0.15597867965698242,0.018382061272859573,0.17112354934215546,0.4965274930000305,-0.8507874608039856,0.0,0.0,0.0,0.0,0.0,0.0
2810,1724817054914280553,-1.5474640130996704,-0.7319291234016418,0.15613625943660736,0.01635291427373886,0.16944490373134613,0.49621912837028503,-0.8513445854187012,0.0,0.0,0.0,0.0,0.0,0.0
2812,1724817054925195542,-1.5468698740005493,-0.7318363189697266,0.15610116720199585,0.01495389360934496,0.16903573274612427,0.4955773949623108,-0.8518252968788147,0.0,0.0,0.0,0.0,0.0,0.0
2814,1724817054935304877,-1.5463379621505737,-0.7317019701004028,0.15598450601100922,0.014545867219567299,0.16934320330619812,0.49510249495506287,-0.8520474433898926,0.0,0.0,0.0,0.0,0.0,0.0
2816,1724817054943942847,-1.5457532405853271,-0.7312574982643127,0.15617620944976807,0.013006030581891537,0.16737516224384308,0.49580368399620056,-0.8520534634590149,0.0,0.0,0.0,0.0,0.0,0.0
2818,1724817054954247247,-1.5452572107315063,-0.730799674987793,0.1562441736459732,0.013172272592782974,0.1662926971912384,0.4965585768222809,-0.8518232703208923,0.0,0.0,0.0,0.0,0.0,0.0
2820,1724817054964758169,-1.5447988510131836,-0.7303892970085144,0.15616217255592346,0.013289853930473328,0.1658661812543869,0.49673035740852356,-0.8518043756484985,0.0,0.0,0.0,0.0,0.0,0.0
2822,1724817054973891690,-1.5443792343139648,-0.7302417159080505,0.1556226909160614,0.014075816608965397,0.16742175817489624,0.4950260818004608,-0.8524793386459351,0.0,0.0,0.0,0.0,0.0,0.0
2824,1724817054984930961,-1.5438520908355713,-0.7298915982246399,0.1554889678955078,0.012855076231062412,0.16748815774917603,0.4946444034576416,-0.852707028388977,0.0,0.0,0.0,0.0,0.0,0.0
2826,1724817054993998744,-1.543287754058838,-0.7295987606048584,0.15540802478790283,0.011123388074338436,0.16649433970451355,0.49438372254371643,-0.8530772924423218,0.0,0.0,0.0,0.0,0.0,0.0
2828,1724817055028375519,-1.5426998138427734,-0.7291567921638489,0.15567198395729065,0.009746985509991646,0.16587434709072113,0.49527543783187866,-0.8526973724365234,0.0,0.0,0.0,0.0,0.0,0.0
2830,1724817055028692919,-1.5420829057693481,-0.7287031412124634,0.15582893788814545,0.009292409755289555,0.16527150571346283,0.4959180951118469,-0.8524460792541504,0.0,0.0,0.0,0.0,0.0,0.0
2832,1724817055028962214,-1.5416027307510376,-0.728426992893219,0.15574654936790466,0.01068439707159996,0.16701528429985046,0.4955950677394867,-0.8522776961326599,0.0,0.0,0.0,0.0,0.0,0.0
2834,1724817055034747870,-1.5410006046295166,-0.7280519604682922,0.15594469010829926,0.008609432727098465,0.16649943590164185,0.49571606516838074,-0.852331817150116,0.0,0.0,0.0,0.0,0.0,0.0
2836,1724817055045360713,-1.5404856204986572,-0.7277734279632568,0.15598097443580627,0.008003619499504566,0.16655072569847107,0.49527707695961,-0.8525827527046204,0.0,0.0,0.0,0.0,0.0,0.0
2838,1724817055055051647,-1.5400068759918213,-0.7273947596549988,0.15609192848205566,0.007614475674927235,0.16607892513275146,0.4955655634403229,-0.8525107502937317,0.0,0.0,0.0,0.0,0.0,0.0
2840,1724817055063920837,-1.5395492315292358,-0.727204442024231,0.15586064755916595,0.007078075315803289,0.1657114028930664,0.49463677406311035,-0.8531261086463928,0.0,0.0,0.0,0.0,0.0,0.0
2842,1724817055074446522,-1.539181113243103,-0.7269394993782043,0.15566810965538025,0.0077898637391626835,0.1663292795419693,0.4941067099571228,-0.853306770324707,0.0,0.0,0.0,0.0,0.0,0.0
2844,1724817055087836834,-1.5387613773345947,-0.7265751361846924,0.15562522411346436,0.007552795112133026,0.16624204814434052,0.49421605467796326,-0.8532626032829285,0.0,0.0,0.0,0.0,0.0,0.0
2846,1724817055094549254,-1.5383553504943848,-0.7261907458305359,0.15566442906856537,0.005453506950289011,0.16587677597999573,0.4942573010921478,-0.8533258438110352,0.0,0.0,0.0,0.0,0.0,0.0
2848,1724817055104355488,-1.5380139350891113,-0.7258462309837341,0.15556153655052185,0.004886784590780735,0.16712123155593872,0.4940742552280426,-0.8531923890113831,0.0,0.0,0.0,0.0,0.0,0.0
2850,1724817055113964264,-1.537683367729187,-0.725466251373291,0.1555226594209671,0.0042526619508862495,0.16746139526367188,0.4941006898880005,-0.8531137704849243,0.0,0.0,0.0,0.0,0.0,0.0
2852,1724817055124447681,-1.5373773574829102,-0.7251655459403992,0.15538594126701355,0.0044098543003201485,0.16855180263519287,0.49347737431526184,-0.8532590270042419,0.0,0.0,0.0,0.0,0.0,0.0
2854,1724817055139008425,-1.5370904207229614,-0.724789559841156,0.15536144375801086,0.004401920363306999,0.16874442994594574,0.49343162775039673,-0.8532474040985107,0.0,0.0,0.0,0.0,0.0,0.0
2856,1724817055145998326,-1.536741018295288,-0.7243589758872986,0.15552473068237305,0.0031981521751731634,0.16748309135437012,0.493728905916214,-0.8533294200897217,0.0,0.0,0.0,0.0,0.0,0.0
2858,1724817055156888016,-1.536470651626587,-0.7240902185440063,0.1553676575422287,0.003448666073381901,0.16781596839427948,0.49329790472984314,-0.853512167930603,0.0,0.0,0.0,0.0,0.0,0.0
2860,1724817055163705140,-1.5361881256103516,-0.7237270474433899,0.1553581804037094,0.003023745957762003,0.16775189340114594,0.4934914708137512,-0.8534144759178162,0.0,0.0,0.0,0.0,0.0,0.0
2862,1724817055174114603,-1.5358678102493286,-0.7233846187591553,0.15526658296585083,0.002939022146165371,0.16801460087299347,0.4934682250022888,-0.853376567363739,0.0,0.0,0.0,0.0,0.0,0.0
2864,1724817055187306925,-1.5355957746505737,-0.7230769395828247,0.155112162232399,0.003126386785879731,0.16933315992355347,0.49307340383529663,-0.8533435463905334,0.0,0.0,0.0,0.0,0.0,0.0
2866,1724817055193792152,-1.5353014469146729,-0.7225963473320007,0.15523408353328705,0.0033082689624279737,0.16991280019283295,0.4938857853412628,-0.8527576923370361,0.0,0.0,0.0,0.0,0.0,0.0
2868,1724817055203919475,-1.5349761247634888,-0.7221521139144897,0.15533216297626495,0.0020667938515543938,0.16933323442935944,0.49449431896209717,-0.8525241613388062,0.0,0.0,0.0,0.0,0.0,0.0
2870,1724817055214025086,-1.5347368717193604,-0.7218223810195923,0.15522482991218567,0.0018103623297065496,0.1696910858154297,0.49449068307876587,-0.8524556756019592,0.0,0.0,0.0,0.0,0.0,0.0
2872,1724817055224444160,-1.5345324277877808,-0.7215434908866882,0.15511249005794525,0.0014074166538193822,0.16995233297348022,0.49426159262657166,-0.852537214756012,0.0,0.0,0.0,0.0,0.0,0.0
2874,1724817055234870275,-1.5343087911605835,-0.7213197350502014,0.15514153242111206,0.0007437419844791293,0.16992788016796112,0.49407488107681274,-0.8526511788368225,0.0,0.0,0.0,0.0,0.0,0.0
2876,1724817055245617819,-1.5341451168060303,-0.7211711406707764,0.15517234802246094,0.000775623950175941,0.1694556027650833,0.49407291412353516,-0.8527462482452393,0.0,0.0,0.0,0.0,0.0,0.0
2878,1724817055253788836,-1.533996343612671,-0.7210894823074341,0.15522992610931396,0.0004959144862368703,0.16911935806274414,0.4941425025463104,-0.8527728319168091,0.0,0.0,0.0,0.0,0.0,0.0
2880,1724817055264042190,-1.5338263511657715,-0.7211067080497742,0.15523898601531982,8.178727148333564e-05,0.1688377410173416,0.4939473569393158,-0.8529418706893921,0.0,0.0,0.0,0.0,0.0,0.0
2882,1724817055273645235,-1.5336716175079346,-0.7211639881134033,0.1553632915019989,4.514061220106669e-05,0.16831399500370026,0.49418118596076965,-0.8529099225997925,0.0,0.0,0.0,0.0,0.0,0.0
2884,1724817055285050200,-1.533483624458313,-0.7212799191474915,0.1554880291223526,-0.000387603766284883,0.16762414574623108,0.49435532093048096,-0.8529447913169861,0.0,0.0,0.0,0.0,0.0,0.0
2886,1724817055294775374,-1.5332285165786743,-0.7214547991752625,0.15558572113513947,-0.001096375402994454,0.16716206073760986,0.4942164123058319,-0.8531153202056885,0.0,0.0,0.0,0.0,0.0,0.0
2888,1724817055304500300,-1.5329688787460327,-0.7215822339057922,0.1557251662015915,-0.0012273123720660806,0.16614937782287598,0.49440234899520874,-0.8532052040100098,0.0,0.0,0.0,0.0,0.0,0.0
2890,1724817055314532330,-1.5327110290527344,-0.7218204140663147,0.15570703148841858,-0.0008054747595451772,0.16619230806827545,0.4939121603965759,-0.8534812927246094,0.0,0.0,0.0,0.0,0.0,0.0
2892,1724817055325077653,-1.5323774814605713,-0.7219514846801758,0.1558365523815155,-0.0012751409085467458,0.1651858687400818,0.4939240515232086,-0.8536691665649414,0.0,0.0,0.0,0.0,0.0,0.0
2894,1724817055334758546,-1.5320279598236084,-0.7221139073371887,0.15593788027763367,-0.0021463024895638227,0.16437314450740814,0.4936313331127167,-0.8539935946464539,0.0,0.0,0.0,0.0,0.0,0.0
2896,1724817055344371738,-1.5316296815872192,-0.7222166657447815,0.15614426136016846,-0.0027253422886133194,0.1628483533859253,0.4940115213394165,-0.8540641665458679,0.0,0.0,0.0,0.0,0.0,0.0
2898,1724817055356783560,-1.531168818473816,-0.7223613858222961,0.156353160738945,-0.0037918430753052235,0.16131694614887238,0.49420809745788574,-0.8542370200157166,0.0,0.0,0.0,0.0,0.0,0.0
2900,1724817055364195221,-1.5306626558303833,-0.7225376963615417,0.15646667778491974,-0.004898027516901493,0.15990610420703888,0.4940539002418518,-0.8545858263969421,0.0,0.0,0.0,0.0,0.0,0.0
2902,1724817055374797177,-1.530088186264038,-0.722709059715271,0.15665294229984283,-0.006201023701578379,0.15834425389766693,0.49419695138931274,-0.8547853827476501,0.0,0.0,0.0,0.0,0.0,0.0
2904,1724817055384900622,-1.5295171737670898,-0.7229065895080566,0.1568499058485031,-0.006813465617597103,0.15684986114501953,0.4942536950111389,-0.8550233840942383,0.0,0.0,0.0,0.0,0.0,0.0
2906,1724817055393723333,-1.5289314985275269,-0.7230950593948364,0.15708909928798676,-0.0072771525010466576,0.1547711342573166,0.4947035312652588,-0.8551381826400757,0.0,0.0,0.0,0.0,0.0,0.0
2908,1724817055403932457,-1.5283117294311523,-0.7233128547668457,0.1573767215013504,-0.009019128046929836,0.15217900276184082,0.4949965178966522,-0.8554173111915588,0.0,0.0,0.0,0.0,0.0,0.0
2910,1724817055413866096,-1.5276365280151367,-0.7235732674598694,0.15756730735301971,-0.010931460186839104,0.15028774738311768,0.49513569474220276,-0.8556487560272217,0.0,0.0,0.0,0.0,0.0,0.0
2912,1724817055423824349,-1.5269140005111694,-0.7238489389419556,0.15773789584636688,-0.012762187980115414,0.1478407084941864,0.4956619441509247,-0.8557451367378235,0.0,0.0,0.0,0.0,0.0,0.0
2914,1724817055435061845,-1.526175618171692,-0.7242566347122192,0.15762701630592346,-0.01506216824054718,0.1461624950170517,0.49555182456970215,-0.8560596704483032,0.0,0.0,0.0,0.0,0.0,0.0
2916,1724817055443749285,-1.5254336595535278,-0.7245698571205139,0.15751412510871887,-0.01805170811712742,0.14364859461784363,0.49603718519210815,-0.8561462163925171,0.0,0.0,0.0,0.0,0.0,0.0
2918,1724817055458575858,-1.5246882438659668,-0.7250089645385742,0.15712791681289673,-0.019742365926504135,0.14190736413002014,0.49639782309532166,-0.8561902642250061,0.0,0.0,0.0,0.0,0.0,0.0
2920,1724817055464288711,-1.5238714218139648,-0.7255262136459351,0.15649637579917908,-0.02163459174335003,0.1401975452899933,0.4961296319961548,-0.8565816879272461,0.0,0.0,0.0,0.0,0.0,0.0
2922,1724817055473692255,-1.523026704788208,-0.726026713848114,0.1559084951877594,-0.024588538333773613,0.13887247443199158,0.49543848633766174,-0.8571175932884216,0.0,0.0,0.0,0.0,0.0,0.0
2924,1724817055484632222,-1.522265911102295,-0.7264655232429504,0.15531422197818756,-0.027392003685235977,0.1374257355928421,0.49533265829086304,-0.8573269844055176,0.0,0.0,0.0,0.0,0.0,0.0
2926,1724817055495897245,-1.5215741395950317,-0.726767361164093,0.15473176538944244,-0.029987188056111336,0.1379779726266861,0.4951111674308777,-0.857279360294342,0.0,0.0,0.0,0.0,0.0,0.0
2928,1724817055503740807,-1.5210236310958862,-0.7268620729446411,0.1541879028081894,-0.030345983803272247,0.13902504742145538,0.49496760964393616,-0.8571803569793701,0.0,0.0,0.0,0.0,0.0,0.0
2930,1724817055514230229,-1.5206449031829834,-0.7267332077026367,0.15398702025413513,-0.03077899105846882,0.14010760188102722,0.49546879529953003,-0.8566989898681641,0.0,0.0,0.0,0.0,0.0,0.0
2932,1724817055612219105,-1.520468831062317,-0.7267348170280457,0.15363815426826477,-0.03222530707716942,0.14035667479038239,0.4953629970550537,-0.8566663265228271,0.0,0.0,0.0,0.0,0.0,0.0
2934,1724817055613466055,-1.5205590724945068,-0.7266942262649536,0.1531844139099121,-0.03218171373009682,0.14045539498329163,0.4951721727848053,-0.8567619919776917,0.0,0.0,0.0,0.0,0.0,0.0
2936,1724817055614272672,-1.5207489728927612,-0.726681113243103,0.15247690677642822,-0.0322137251496315,0.1416875571012497,0.49463221430778503,-0.8568698167800903,0.0,0.0,0.0,0.0,0.0,0.0
2938,1724817055615352954,-1.5208994150161743,-0.7266690731048584,0.152245432138443,-0.03197648748755455,0.14147137105464935,0.49451524019241333,-0.8569819331169128,0.0,0.0,0.0,0.0,0.0,0.0
2940,1724817055615599289,-1.5211472511291504,-0.7267070412635803,0.15219274163246155,-0.031853701919317245,0.14174187183380127,0.49418044090270996,-0.8571349382400513,0.0,0.0,0.0,0.0,0.0,0.0
2942,1724817055616735678,-1.5213629007339478,-0.726784348487854,0.1522091031074524,-0.031286172568798065,0.1418687254190445,0.49388566613197327,-0.8573047518730164,0.0,0.0,0.0,0.0,0.0,0.0
2944,1724817055616990569,-1.521414875984192,-0.7268178462982178,0.1522350162267685,-0.03135605901479721,0.14203928411006927,0.49400612711906433,-0.8572045564651489,0.0,0.0,0.0,0.0,0.0,0.0
2946,1724817055617384259,-1.5214639902114868,-0.7268676161766052,0.15221452713012695,-0.03137039765715599,0.1418129950761795,0.49401453137397766,-0.8572366237640381,0.0,0.0,0.0,0.0,0.0,0.0
2948,1724817055617686428,-1.5214588642120361,-0.7268933057785034,0.1522335261106491,-0.03145485743880272,0.14187337458133698,0.4940459728240967,-0.8572054505348206,0.0,0.0,0.0,0.0,0.0,0.0
2950,1724817055617957753,-1.5214710235595703,-0.7268886566162109,0.1522316038608551,-0.03146376088261604,0.14201773703098297,0.4940340220928192,-0.8571881055831909,0.0,0.0,0.0,0.0,0.0,0.0
2952,1724817055623868978,-1.521510124206543,-0.7269137501716614,0.15225335955619812,-0.0313178151845932,0.1421617716550827,0.4939720630645752,-0.8572052717208862,0.0,0.0,0.0,0.0,0.0,0.0
2954,1724817055634457506,-1.521511197090149,-0.7269085049629211,0.15227486193180084,-0.03163137286901474,0.14212040603160858,0.49409449100494385,-0.8571301102638245,0.0,0.0,0.0,0.0,0.0,0.0
2956,1724817055643888755,-1.5215339660644531,-0.7269253134727478,0.15225374698638916,-0.031400665640830994,0.14210759103298187,0.4940173327922821,-0.8571851253509521,0.0,0.0,0.0,0.0,0.0,0.0
2958,1724817055654003833,-1.5215387344360352,-0.7269294857978821,0.1522705852985382,-0.0315113328397274,0.14199313521385193,0.4940667450428009,-0.8571715354919434,0.0,0.0,0.0,0.0,0.0,0.0
2960,1724817055663680757,-1.521543025970459,-0.7269216179847717,0.15230236947536469,-0.03162294626235962,0.14208030700683594,0.4941937327384949,-0.857079803943634,0.0,0.0,0.0,0.0,0.0,0.0
2962,1724817055673713144,-1.5215542316436768,-0.7269370555877686,0.1523638814687729,-0.031731978058815,0.14200471341609955,0.49432042241096497,-0.8570151925086975,0.0,0.0,0.0,0.0,0.0,0.0
2964,1724817055684609621,-1.5215562582015991,-0.7269572019577026,0.15236447751522064,-0.03197721019387245,0.14212509989738464,0.4943065941333771,-0.856994092464447,0.0,0.0,0.0,0.0,0.0,0.0
2966,1724817055693606114,-1.5215907096862793,-0.7269923090934753,0.152327761054039,-0.03179623931646347,0.14212368428707123,0.49408239126205444,-0.8571303486824036,0.0,0.0,0.0,0.0,0.0,0.0
2968,1724817055704405316,-1.5215932130813599,-0.7269937992095947,0.15237262845039368,-0.03186319023370743,0.14210709929466248,0.494179904460907,-0.8570743799209595,0.0,0.0,0.0,0.0,0.0,0.0
2970,1724817055715303044,-1.521601676940918,-0.7269929647445679,0.15238133072853088,-0.03189955651760101,0.14204424619674683,0.49435457587242126,-0.8569827079772949,0.0,0.0,0.0,0.0,0.0,0.0
2972,1724817055749426480,-1.5216283798217773,-0.7270272374153137,0.15242722630500793,-0.031735073775053024,0.14180691540241241,0.49448394775390625,-0.856953501701355,0.0,0.0,0.0,0.0,0.0,0.0
2974,1724817055749685999,-1.5216437578201294,-0.7270804047584534,0.1524667590856552,-0.03192313387989998,0.1417776495218277,0.4945199191570282,-0.8569306135177612,0.0,0.0,0.0,0.0,0.0,0.0
2976,1724817055750019529,-1.5216599702835083,-0.7271392941474915,0.1524774134159088,-0.032132092863321304,0.14180195331573486,0.4945853650569916,-0.8568810224533081,0.0,0.0,0.0,0.0,0.0,0.0
2978,1724817055753805335,-1.5217136144638062,-0.7271801829338074,0.1524801105260849,-0.032098375260829926,0.1417568475008011,0.49474430084228516,-0.8567979335784912,0.0,0.0,0.0,0.0,0.0,0.0
2980,1724817055763925790,-1.5217751264572144,-0.7272356152534485,0.15249858796596527,-0.03220874443650246,0.14167247712612152,0.4949129521846771,-0.8567103743553162,0.0,0.0,0.0,0.0,0.0,0.0
2982,1724817055774064567,-1.5217865705490112,-0.727179765701294,0.15286973118782043,-0.03318267688155174,0.14114683866500854,0.49593815207481384,-0.8561669588088989,0.0,0.0,0.0,0.0,0.0,0.0
2984,1724817055784259086,-1.5218257904052734,-0.727247953414917,0.1528894603252411,-0.033470168709754944,0.14116930961608887,0.4960520267486572,-0.8560861349105835,0.0,0.0,0.0,0.0,0.0,0.0
2986,1724817055794565136,-1.5218679904937744,-0.7273342609405518,0.1528843343257904,-0.0336296409368515,0.14114974439144135,0.4961477816104889,-0.8560276031494141,0.0,0.0,0.0,0.0,0.0,0.0
2988,1724817055803794390,-1.5218558311462402,-0.7274054288864136,0.15285585820674896,-0.03407689929008484,0.14127837121486664,0.49627554416656494,-0.8559146523475647,0.0,0.0,0.0,0.0,0.0,0.0
2990,1724817055816370379,-1.521865963935852,-0.7274739146232605,0.15286242961883545,-0.034315016120672226,0.14108048379421234,0.49643850326538086,-0.855843186378479,0.0,0.0,0.0,0.0,0.0,0.0
2992,1724817055823975837,-1.5218713283538818,-0.7275336980819702,0.15287794172763824,-0.03450770303606987,0.14096230268478394,0.49663087725639343,-0.8557433485984802,0.0,0.0,0.0,0.0,0.0,0.0
2994,1724817055834783902,-1.5218617916107178,-0.7275975942611694,0.1529039442539215,-0.034645047038793564,0.1409694403409958,0.49690696597099304,-0.8555762767791748,0.0,0.0,0.0,0.0,0.0,0.0
2996,1724817055844201178,-1.5218287706375122,-0.7276444435119629,0.1528933346271515,-0.035090502351522446,0.14106632769107819,0.4969913065433502,-0.8554931879043579,0.0,0.0,0.0,0.0,0.0,0.0
2998,1724817055854852768,-1.521834135055542,-0.727685809135437,0.15290334820747375,-0.0351552814245224,0.14109395444393158,0.49714428186416626,-0.85539710521698,0.0,0.0,0.0,0.0,0.0,0.0
3000,1724817055864886302,-1.5218639373779297,-0.7277950644493103,0.1526474952697754,-0.0346514955163002,0.14148560166358948,0.49662044644355774,-0.855657160282135,0.0,0.0,0.0,0.0,0.0,0.0
3002,1724817055874278230,-1.5218653678894043,-0.7277452945709229,0.15285298228263855,-0.035364363342523575,0.1410575658082962,0.4971873164176941,-0.8553694486618042,0.0,0.0,0.0,0.0,0.0,0.0
3004,1724817055884333246,-1.5218956470489502,-0.7277289032936096,0.1529122292995453,-0.03554859012365341,0.14084485173225403,0.49757975339889526,-0.8551685810089111,0.0,0.0,0.0,0.0,0.0,0.0
3006,1724817055895509890,-1.5219508409500122,-0.7277624011039734,0.15281108021736145,-0.03582221269607544,0.14087894558906555,0.49757200479507446,-0.8551561236381531,0.0,0.0,0.0,0.0,0.0,0.0
3008,1724817055906201493,-1.522033452987671,-0.7277141809463501,0.15279236435890198,-0.035584356635808945,0.14038927853107452,0.49793192744255066,-0.8550370931625366,0.0,0.0,0.0,0.0,0.0,0.0
3010,1724817055913878878,-1.5220861434936523,-0.7276795506477356,0.15265318751335144,-0.03583649545907974,0.14030827581882477,0.4979030191898346,-0.8550567030906677,0.0,0.0,0.0,0.0,0.0,0.0
3012,1724817055924328048,-1.5221750736236572,-0.7277397513389587,0.1523129940032959,-0.03602363169193268,0.140793576836586,0.4971695840358734,-0.8553957939147949,0.0,0.0,0.0,0.0,0.0,0.0
3014,1724817055938347419,-1.5222753286361694,-0.7276772856712341,0.15228551626205444,-0.03583850711584091,0.14063194394111633,0.4971168041229248,-0.8554607629776001,0.0,0.0,0.0,0.0,0.0,0.0
3016,1724817055943730036,-1.5223519802093506,-0.7276414632797241,0.15227830410003662,-0.03561839088797569,0.1405288130044937,0.49710068106651306,-0.8554962873458862,0.0,0.0,0.0,0.0,0.0,0.0
3018,1724817055954271891,-1.5223790407180786,-0.727631688117981,0.1522706151008606,-0.035673756152391434,0.14047680795192719,0.4970206022262573,-0.8555490374565125,0.0,0.0,0.0,0.0,0.0,0.0
3020,1724817055964516256,-1.522371768951416,-0.727632462978363,0.1522304266691208,-0.0356111079454422,0.1405017077922821,0.49701419472694397,-0.8555513024330139,0.0,0.0,0.0,0.0,0.0,0.0
3022,1724817055987795143,-1.5223957300186157,-0.7276255488395691,0.15226277709007263,-0.03552741929888725,0.1403614580631256,0.4970199167728424,-0.8555744290351868,0.0,0.0,0.0,0.0,0.0,0.0
3024,1724817055988185911,-1.5223945379257202,-0.727613091468811,0.15230141580104828,-0.03662596270442009,0.1397937536239624,0.49667027592658997,-0.8558241128921509,0.0,0.0,0.0,0.0,0.0,0.0
3026,1724817055993754937,-1.5224353075027466,-0.7275078296661377,0.152284175157547,-0.03622055426239967,0.13945840299129486,0.49651962518692017,-0.8559834361076355,0.0,0.0,0.0,0.0,0.0,0.0
3028,1724817056003897732,-1.5224761962890625,-0.7273604273796082,0.15220652520656586,-0.03628692403435707,0.13933825492858887,0.49614349007606506,-0.8562183380126953,0.0,0.0,0.0,0.0,0.0,0.0
3030,1724817056015268095,-1.5225261449813843,-0.7271278500556946,0.15212754905223846,-0.035746823996305466,0.13871335983276367,0.49614667892456055,-0.8563405871391296,0.0,0.0,0.0,0.0,0.0,0.0
3032,1724817056023857704,-1.5226138830184937,-0.7268527746200562,0.15200388431549072,-0.03475452587008476,0.1389656960964203,0.4961671829223633,-0.8563287258148193,0.0,0.0,0.0,0.0,0.0,0.0
3034,1724817056034790259,-1.5226844549179077,-0.7266178727149963,0.15196120738983154,-0.03466467559337616,0.13843971490859985,0.49642103910446167,-0.856270432472229,0.0,0.0,0.0,0.0,0.0,0.0
3036,1724817056045052264,-1.5227240324020386,-0.7264155745506287,0.1519005000591278,-0.03462040051817894,0.1381714940071106,0.4963637888431549,-0.8563487529754639,0.0,0.0,0.0,0.0,0.0,0.0
3038,1724817056054505965,-1.5227056741714478,-0.7262166738510132,0.15183791518211365,-0.03448250889778137,0.13789667189121246,0.4962276220321655,-0.8564774394035339,0.0,0.0,0.0,0.0,0.0,0.0
3040,1724817056063899794,-1.5226737260818481,-0.7260450124740601,0.15174411237239838,-0.03456316888332367,0.13777290284633636,0.495812326669693,-0.8567346930503845,0.0,0.0,0.0,0.0,0.0,0.0
3042,1724817056074897504,-1.5226154327392578,-0.7258052825927734,0.15191467106342316,-0.03437916934490204,0.137172132730484,0.49619653820991516,-0.8566159605979919,0.0,0.0,0.0,0.0,0.0,0.0
3044,1724817056084379702,-1.5225470066070557,-0.725662887096405,0.15182727575302124,-0.03382501378655434,0.13695776462554932,0.4960063397884369,-0.8567825555801392,0.0,0.0,0.0,0.0,0.0,0.0
3046,1724817056093782190,-1.52249276638031,-0.7255699038505554,0.15171952545642853,-0.033319707959890366,0.13666477799415588,0.49575215578079224,-0.8569961190223694,0.0,0.0,0.0,0.0,0.0,0.0
3048,1724817056105319981,-1.522409439086914,-0.7255345582962036,0.15162989497184753,-0.03352976217865944,0.13647493720054626,0.4954356849193573,-0.8572011590003967,0.0,0.0,0.0,0.0,0.0,0.0
3050,1724817056114131959,-1.5223147869110107,-0.7255052328109741,0.15152114629745483,-0.03302191570401192,0.13601385056972504,0.4951630234718323,-0.8574516177177429,0.0,0.0,0.0,0.0,0.0,0.0
3052,1724817056124109086,-1.5222059488296509,-0.7255021333694458,0.15142670273780823,-0.03319155052304268,0.13569724559783936,0.49489825963974,-0.8576480746269226,0.0,0.0,0.0,0.0,0.0,0.0
3054,1724817056138282130,-1.5221494436264038,-0.7254966497421265,0.1513528674840927,-0.033127620816230774,0.13539725542068481,0.49457547068595886,-0.8578842282295227,0.0,0.0,0.0,0.0,0.0,0.0
3056,1724817056143924986,-1.5221083164215088,-0.7254574298858643,0.1513562649488449,-0.03338437154889107,0.13501982390880585,0.4944043755531311,-0.8580323457717896,0.0,0.0,0.0,0.0,0.0,0.0
3058,1724817056155068501,-1.5220686197280884,-0.7254305481910706,0.15130965411663055,-0.03346284478902817,0.13473738729953766,0.4941065311431885,-0.8582451939582825,0.0,0.0,0.0,0.0,0.0,0.0
3060,1724817056163782973,-1.5220590829849243,-0.725391149520874,0.15130406618118286,-0.03397541120648384,0.1345205456018448,0.4937729239463806,-0.8584510684013367,0.0,0.0,0.0,0.0,0.0,0.0
3062,1724817056173997503,-1.5220611095428467,-0.7253832221031189,0.15129204094409943,-0.03435217961668968,0.1342281848192215,0.49340134859085083,-0.8586954474449158,0.0,0.0,0.0,0.0,0.0,0.0
3064,1724817056185517411,-1.5219897031784058,-0.7253350615501404,0.15119220316410065,-0.03446969762444496,0.1339210718870163,0.4929420053958893,-0.859002411365509,0.0,0.0,0.0,0.0,0.0,0.0
3066,1724817056193781649,-1.5219379663467407,-0.725314736366272,0.15116740763187408,-0.03468289226293564,0.13347622752189636,0.4926691949367523,-0.8592196702957153,0.0,0.0,0.0,0.0,0.0,0.0
3068,1724817056203912796,-1.521864414215088,-0.7252746820449829,0.151142880320549,-0.03490050882101059,0.13287398219108582,0.49245375394821167,-0.8594275712966919,0.0,0.0,0.0,0.0,0.0,0.0
3070,1724817056213829965,-1.5217878818511963,-0.7252368927001953,0.1510932445526123,-0.035313185304403305,0.13255415856838226,0.49205923080444336,-0.8596860766410828,0.0,0.0,0.0,0.0,0.0,0.0
3072,1724817056224122351,-1.5217114686965942,-0.725211501121521,0.15101635456085205,-0.03564869984984398,0.13192521035671234,0.4917178153991699,-0.8599642515182495,0.0,0.0,0.0,0.0,0.0,0.0
3074,1724817056259888339,-1.5216493606567383,-0.725170373916626,0.1509384959936142,-0.03573549538850784,0.13143649697303772,0.4913152754306793,-0.8602654933929443,0.0,0.0,0.0,0.0,0.0,0.0
3076,1724817056260671945,-1.521616816520691,-0.725056529045105,0.15105116367340088,-0.03630527853965759,0.13096557557582855,0.4910196363925934,-0.8604822158813477,0.0,0.0,0.0,0.0,0.0,0.0
3078,1724817056261122575,-1.5215493440628052,-0.7249605059623718,0.15100394189357758,-0.03654797375202179,0.13056953251361847,0.49065014719963074,-0.8607428669929504,0.0,0.0,0.0,0.0,0.0,0.0
3080,1724817056263966827,-1.52149498462677,-0.7248847484588623,0.15092483162879944,-0.036818020045757294,0.1303601861000061,0.4901590645313263,-0.8610429167747498,0.0,0.0,0.0,0.0,0.0,0.0
3082,1724817056273851167,-1.52143394947052,-0.7247999906539917,0.15088050067424774,-0.03682905435562134,0.12988607585430145,0.48979660868644714,-0.8613202571868896,0.0,0.0,0.0,0.0,0.0,0.0
3084,1724817056284760050,-1.5213581323623657,-0.7246957421302795,0.15082378685474396,-0.03702991455793381,0.12953144311904907,0.48955461382865906,-0.8615025281906128,0.0,0.0,0.0,0.0,0.0,0.0
3086,1724817056294248034,-1.521255373954773,-0.7246249914169312,0.15073125064373016,-0.037556227296590805,0.12956160306930542,0.4889358878135681,-0.8618265986442566,0.0,0.0,0.0,0.0,0.0,0.0
3088,1724817056303650310,-1.5211338996887207,-0.72449791431427,0.15069706737995148,-0.03737859055399895,0.12923158705234528,0.48877671360969543,-0.8619741201400757,0.0,0.0,0.0,0.0,0.0,0.0
3090,1724817056313809245,-1.5210051536560059,-0.7245213389396667,0.15034185349941254,-0.036841388791799545,0.1292051374912262,0.48788926005363464,-0.8625038266181946,0.0,0.0,0.0,0.0,0.0,0.0
3092,1724817056323718730,-1.5208114385604858,-0.7244012355804443,0.15029571950435638,-0.036953091621398926,0.1290345937013626,0.4876912832260132,-0.8626365065574646,0.0,0.0,0.0,0.0,0.0,0.0
3094,1724817056334585998,-1.5205765962600708,-0.7242563366889954,0.15030241012573242,-0.03682200238108635,0.12857866287231445,0.4875853955745697,-0.8627700805664062,0.0,0.0,0.0,0.0,0.0,0.0
3096,1724817056363980483,-1.5202754735946655,-0.7241360545158386,0.15028010308742523,-0.03732196241617203,0.12847721576690674,0.48748061060905457,-0.862822949886322,0.0,0.0,0.0,0.0,0.0,0.0
3098,1724817056364267212,-1.5199604034423828,-0.7240288257598877,0.15030956268310547,-0.03758075088262558,0.12861165404319763,0.48722130060195923,-0.8629380464553833,0.0,0.0,0.0,0.0,0.0,0.0
3100,1724817056364658735,-1.519605040550232,-0.7239041328430176,0.15032576024532318,-0.03853859379887581,0.1289646327495575,0.4869827628135681,-0.8629778623580933,0.0,0.0,0.0,0.0,0.0,0.0
3102,1724817056374283378,-1.5192290544509888,-0.7237211465835571,0.15038324892520905,-0.03911196067929268,0.1288870871067047,0.4871423840522766,-0.8628735542297363,0.0,0.0,0.0,0.0,0.0,0.0
3104,1724817056384820356,-1.5188252925872803,-0.7235303521156311,0.15045873820781708,-0.03961455076932907,0.12889225780963898,0.48734280467033386,-0.8627365827560425,0.0,0.0,0.0,0.0,0.0,0.0
3106,1724817056393661114,-1.5183964967727661,-0.7232986688613892,0.15055492520332336,-0.0393306165933609,0.12854930758476257,0.4877013564109802,-0.8625981211662292,0.0,0.0,0.0,0.0,0.0,0.0
3108,1724817056404806979,-1.5178948640823364,-0.7229695320129395,0.15091556310653687,-0.03965776786208153,0.12798330187797546,0.48848581314086914,-0.8622233271598816,0.0,0.0,0.0,0.0,0.0,0.0
3110,1724817056413802397,-1.517329216003418,-0.7226573824882507,0.15107588469982147,-0.03974447771906853,0.1275983601808548,0.4889695346355438,-0.8620021939277649,0.0,0.0,0.0,0.0,0.0,0.0
3112,1724817056425046084,-1.5166996717453003,-0.7223546504974365,0.15119585394859314,-0.040492549538612366,0.12769688665866852,0.48885244131088257,-0.8620191812515259,0.0,0.0,0.0,0.0,0.0,0.0
3114,1724817056435719276,-1.516062617301941,-0.7219364047050476,0.1513904333114624,-0.041209157556295395,0.1279807835817337,0.48886576294898987,-0.8619356155395508,0.0,0.0,0.0,0.0,0.0,0.0
3116,1724817056444156789,-1.5153987407684326,-0.7216920256614685,0.15134622156620026,-0.04193515703082085,0.1287394016981125,0.4886135458946228,-0.8619306087493896,0.0,0.0,0.0,0.0,0.0,0.0
3118,1724817056459384859,-1.5146509408950806,-0.7213293313980103,0.15144509077072144,-0.0432315357029438,0.12900443375110626,0.48872146010398865,-0.8617657423019409,0.0,0.0,0.0,0.0,0.0,0.0
3120,1724817056465741918,-1.5138829946517944,-0.7209347486495972,0.15158700942993164,-0.04392290115356445,0.129231259226799,0.4889252185821533,-0.8615812063217163,0.0,0.0,0.0,0.0,0.0,0.0
3122,1724817056473779087,-1.5131556987762451,-0.7206574082374573,0.15155483782291412,-0.04481261968612671,0.12904797494411469,0.48855116963386536,-0.8617750406265259,0.0,0.0,0.0,0.0,0.0,0.0
3124,1724817056484207918,-1.5124731063842773,-0.7203056812286377,0.1516549289226532,-0.0445084273815155,0.1291435956954956,0.4884941577911377,-0.8618087768554688,0.0,0.0,0.0,0.0,0.0,0.0
3126,1724817056495118097,-1.51169753074646,-0.7197921276092529,0.15198399126529694,-0.04543657600879669,0.1291612833738327,0.4890769124031067,-0.8614271879196167,0.0,0.0,0.0,0.0,0.0,0.0
3128,1724817056503561073,-1.5108426809310913,-0.7193119525909424,0.15226981043815613,-0.04690958186984062,0.12960095703601837,0.4889965355396271,-0.8613278269767761,0.0,0.0,0.0,0.0,0.0,0.0
3130,1724817056519983478,-1.5100189447402954,-0.7188149094581604,0.15254059433937073,-0.0474301353096962,0.12929444015026093,0.48917537927627563,-0.861243724822998,0.0,0.0,0.0,0.0,0.0,0.0
3132,1724817056523713312,-1.5092281103134155,-0.7184960246086121,0.1523922234773636,-0.04796222969889641,0.1309395730495453,0.4884733259677887,-0.8613642454147339,0.0,0.0,0.0,0.0,0.0,0.0
3134,1724817056534162692,-1.5083926916122437,-0.7179923057556152,0.152515709400177,-0.048846397548913956,0.13130240142345428,0.48845791816711426,-0.8612679839134216,0.0,0.0,0.0,0.0,0.0,0.0
3136,1724817056545243526,-1.507574439048767,-0.7175942659378052,0.15243574976921082,-0.048925504088401794,0.13225771486759186,0.4878251850605011,-0.861475944519043,0.0,0.0,0.0,0.0,0.0,0.0
3138,1724817056554762000,-1.5067353248596191,-0.7170981168746948,0.15263016521930695,-0.049296051263809204,0.13217207789421082,0.48816147446632385,-0.8612774610519409,0.0,0.0,0.0,0.0,0.0,0.0
3140,1724817056564108601,-1.506001591682434,-0.716745913028717,0.15271379053592682,-0.04947037994861603,0.13282456994056702,0.4878524839878082,-0.861342191696167,0.0,0.0,0.0,0.0,0.0,0.0
3142,1724817056574373134,-1.5052213668823242,-0.7163411378860474,0.15294408798217773,-0.04921095073223114,0.13325174152851105,0.48775404691696167,-0.8613467812538147,0.0,0.0,0.0,0.0,0.0,0.0
3144,1724817056584134256,-1.5043755769729614,-0.7159671187400818,0.15299180150032043,-0.05000071972608566,0.13271676003932953,0.48747989535331726,-0.8615390658378601,0.0,0.0,0.0,0.0,0.0,0.0
3146,1724817056594738492,-1.5035966634750366,-0.7155984044075012,0.1530902087688446,-0.050327740609645844,0.13272760808467865,0.4875233471393585,-0.8614937663078308,0.0,0.0,0.0,0.0,0.0,0.0
3148,1724817056605423601,-1.502880573272705,-0.7152685523033142,0.15314450860023499,-0.050213586539030075,0.13375413417816162,0.48739364743232727,-0.8614150285720825,0.0,0.0,0.0,0.0,0.0,0.0
3150,1724817056613909963,-1.502233862876892,-0.7150256633758545,0.15308405458927155,-0.04938431456685066,0.13474078476428986,0.4868260622024536,-0.8616302013397217,0.0,0.0,0.0,0.0,0.0,0.0
3152,1724817056624560540,-1.5015482902526855,-0.7147644758224487,0.15313959121704102,-0.04966958984732628,0.13508927822113037,0.4865393042564392,-0.8617211580276489,0.0,0.0,0.0,0.0,0.0,0.0
3154,1724817056635486210,-1.5008054971694946,-0.7144551277160645,0.15337279438972473,-0.051176246255636215,0.13418638706207275,0.487027108669281,-0.8614985346794128,0.0,0.0,0.0,0.0,0.0,0.0
3156,1724817056643930122,-1.5002135038375854,-0.7143165469169617,0.15331922471523285,-0.05066948011517525,0.13494820892810822,0.4867101013660431,-0.8615885376930237,0.0,0.0,0.0,0.0,0.0,0.0
3158,1724817056656613995,-1.4996079206466675,-0.7141143083572388,0.1535256803035736,-0.05157336965203285,0.13427479565143585,0.48698821663856506,-0.8614829778671265,0.0,0.0,0.0,0.0,0.0,0.0
3160,1724817056664300701,-1.4989732503890991,-0.7139362096786499,0.15376996994018555,-0.05217424035072327,0.13411100208759308,0.48734307289123535,-0.8612716197967529,0.0,0.0,0.0,0.0,0.0,0.0
3162,1724817056674726561,-1.4982932806015015,-0.7138105630874634,0.15388554334640503,-0.054141703993082047,0.13359062373638153,0.48735445737838745,-0.8612246513366699,0.0,0.0,0.0,0.0,0.0,0.0
3164,1724817056685221799,-1.497678518295288,-0.7138140797615051,0.15364180505275726,-0.05439960956573486,0.1342834234237671,0.4868069589138031,-0.8614102602005005,0.0,0.0,0.0,0.0,0.0,0.0
3166,1724817056693775785,-1.497055172920227,-0.7135800123214722,0.1539737731218338,-0.05469184368848801,0.1330633908510208,0.4879414439201355,-0.8609391450881958,0.0,0.0,0.0,0.0,0.0,0.0
3168,1724817056704749600,-1.4965046644210815,-0.7135181427001953,0.15399932861328125,-0.05470839515328407,0.13261878490447998,0.4884454607963562,-0.8607208132743835,0.0,0.0,0.0,0.0,0.0,0.0
3170,1724817056722140171,-1.4959455728530884,-0.7134706974029541,0.1539296805858612,-0.05459124594926834,0.13355115056037903,0.4886496365070343,-0.8604680895805359,0.0,0.0,0.0,0.0,0.0,0.0
3172,1724817056724679348,-1.4953725337982178,-0.7134386897087097,0.15392598509788513,-0.05530964955687523,0.13375486433506012,0.4887286424636841,-0.860345721244812,0.0,0.0,0.0,0.0,0.0,0.0
3174,1724817056735115012,-1.494886040687561,-0.7134565114974976,0.15377849340438843,-0.05418151617050171,0.13442549109458923,0.48843494057655334,-0.8604797720909119,0.0,0.0,0.0,0.0,0.0,0.0
3176,1724817056743977087,-1.49430513381958,-0.7133690714836121,0.1538272500038147,-0.05424513295292854,0.13410396873950958,0.4888073205947876,-0.8603144884109497,0.0,0.0,0.0,0.0,0.0,0.0
3178,1724817056755282839,-1.493726372718811,-0.713342010974884,0.15391191840171814,-0.05382782220840454,0.13375677168369293,0.4891064167022705,-0.860224723815918,0.0,0.0,0.0,0.0,0.0,0.0
3180,1724817056767544347,-1.4930669069290161,-0.7133282423019409,0.15405449271202087,-0.05533066391944885,0.13301116228103638,0.48931828141212463,-0.8601245284080505,0.0,0.0,0.0,0.0,0.0,0.0
3182,1724817056773984545,-1.492468237876892,-0.7133374214172363,0.1540765017271042,-0.055731095373630524,0.13331343233585358,0.4892444312572479,-0.8600938320159912,0.0,0.0,0.0,0.0,0.0,0.0
3184,1724817056788645206,-1.4918556213378906,-0.7133681774139404,0.1538373976945877,-0.05560896173119545,0.13449940085411072,0.48886075615882874,-0.8601353168487549,0.0,0.0,0.0,0.0,0.0,0.0
3186,1724817056794463352,-1.4910905361175537,-0.7132863402366638,0.15399396419525146,-0.05628158152103424,0.1345076560974121,0.489493727684021,-0.8597301244735718,0.0,0.0,0.0,0.0,0.0,0.0
3188,1724817056805507458,-1.4902907609939575,-0.7131274938583374,0.15425464510917664,-0.05705567076802254,0.1337050050497055,0.49054238200187683,-0.8592064380645752,0.0,0.0,0.0,0.0,0.0,0.0
3190,1724817056814011752,-1.4895734786987305,-0.7130125164985657,0.15456488728523254,-0.057189781218767166,0.13418668508529663,0.4908301532268524,-0.8589581251144409,0.0,0.0,0.0,0.0,0.0,0.0
3192,1724817056823850019,-1.4888426065444946,-0.7129799127578735,0.15462824702262878,-0.056881558150053024,0.13446718454360962,0.4912475049495697,-0.8586961030960083,0.0,0.0,0.0,0.0,0.0,0.0
3194,1724817056847327207,-1.4879701137542725,-0.7129225134849548,0.15476097166538239,-0.057947155088186264,0.13432466983795166,0.4921182096004486,-0.8581483364105225,0.0,0.0,0.0,0.0,0.0,0.0
3196,1724817056847660644,-1.487145185470581,-0.7129474878311157,0.15472093224525452,-0.05822683870792389,0.13480578362941742,0.4926578402519226,-0.8577442765235901,0.0,0.0,0.0,0.0,0.0,0.0
3198,1724817056856242281,-1.4863147735595703,-0.7129758596420288,0.15480153262615204,-0.05908900126814842,0.13559916615486145,0.49302831292152405,-0.8573473691940308,0.0,0.0,0.0,0.0,0.0,0.0
3200,1724817056864105420,-1.4854081869125366,-0.712988018989563,0.15479673445224762,-0.060277197510004044,0.13666774332523346,0.49304163455963135,-0.857087254524231,0.0,0.0,0.0,0.0,0.0,0.0
3202,1724817056874407802,-1.4845675230026245,-0.7130154371261597,0.15474370121955872,-0.059702709317207336,0.13782702386379242,0.4930226504802704,-0.8569527268409729,0.0,0.0,0.0,0.0,0.0,0.0
3204,1724817056890235969,-1.4836485385894775,-0.7129435539245605,0.15487761795520782,-0.060281846672296524,0.13797932863235474,0.49350032210350037,-0.8566126227378845,0.0,0.0,0.0,0.0,0.0,0.0
3206,1724817056893988613,-1.482670783996582,-0.7128303647041321,0.15514178574085236,-0.06201574578881264,0.1375504434108734,0.4942977726459503,-0.8560978770256042,0.0,0.0,0.0,0.0,0.0,0.0
3208,1724817056905112813,-1.4816653728485107,-0.7127225399017334,0.1553664356470108,-0.06288386881351471,0.13702771067619324,0.4949919581413269,-0.8557172417640686,0.0,0.0,0.0,0.0,0.0,0.0
3210,1724817056913936456,-1.4806833267211914,-0.7125971913337708,0.15566229820251465,-0.06255919486284256,0.13715007901191711,0.49556541442871094,-0.8553894758224487,0.0,0.0,0.0,0.0,0.0,0.0
3212,1724817056924255028,-1.4797961711883545,-0.7124940156936646,0.15566302835941315,-0.06139702722430229,0.13852789998054504,0.495485782623291,-0.8552976846694946,0.0,0.0,0.0,0.0,0.0,0.0
3214,1724817056936916079,-1.4787709712982178,-0.712306797504425,0.15588155388832092,-0.06204647198319435,0.1388397365808487,0.4960978627204895,-0.854845404624939,0.0,0.0,0.0,0.0,0.0,0.0
3216,1724817056943795342,-1.4776705503463745,-0.7121253609657288,0.15591678023338318,-0.062483131885528564,0.1398434191942215,0.4962988793849945,-0.8545332551002502,0.0,0.0,0.0,0.0,0.0,0.0
3218,1724817056954055251,-1.4765363931655884,-0.7118977904319763,0.15609011054039001,-0.06401054561138153,0.14020968973636627,0.4964727461338043,-0.8542592525482178,0.0,0.0,0.0,0.0,0.0,0.0
3220,1724817056964436246,-1.4753912687301636,-0.7115833163261414,0.15641024708747864,-0.06448864191770554,0.14016495645046234,0.49717313051223755,-0.8538231253623962,0.0,0.0,0.0,0.0,0.0,0.0
3222,1724817056973671863,-1.474228858947754,-0.7113119959831238,0.15673373639583588,-0.06589203327894211,0.13965721428394318,0.49761348962783813,-0.8535425662994385,0.0,0.0,0.0,0.0,0.0,0.0
3224,1724817056984496677,-1.4731191396713257,-0.711157500743866,0.15666647255420685,-0.06470765173435211,0.14153574407100677,0.49689623713493347,-0.8537415266036987,0.0,0.0,0.0,0.0,0.0,0.0
3226,1724817056993948813,-1.4719200134277344,-0.7108439803123474,0.15690873563289642,-0.06537478417158127,0.14217038452625275,0.497665137052536,-0.853137195110321,0.0,0.0,0.0,0.0,0.0,0.0
3228,1724817057013812364,-1.470671534538269,-0.7106757760047913,0.15710753202438354,-0.06682427227497101,0.1431071013212204,0.4978163242340088,-0.8527800440788269,0.0,0.0,0.0,0.0,0.0,0.0
3230,1724817057014735160,-1.4695247411727905,-0.710610032081604,0.15697962045669556,-0.06642927974462509,0.1446712166070938,0.49716782569885254,-0.8529253602027893,0.0,0.0,0.0,0.0,0.0,0.0
3232,1724817057024557524,-1.4681341648101807,-0.7101756930351257,0.15782283246517181,-0.06877638399600983,0.1423615664243698,0.49912333488464355,-0.8519853949546814,0.0,0.0,0.0,0.0,0.0,0.0
3234,1724817057034722517,-1.466905951499939,-0.7102227807044983,0.15764941275119781,-0.06887434422969818,0.14510998129844666,0.4984571933746338,-0.8519036769866943,0.0,0.0,0.0,0.0,0.0,0.0
3236,1724817057046157654,-1.4655588865280151,-0.7099580764770508,0.15791557729244232,-0.06970026344060898,0.14601774513721466,0.49894508719444275,-0.8513956665992737,0.0,0.0,0.0,0.0,0.0,0.0
3238,1724817057069654092,-1.4642254114151,-0.7097539305686951,0.15803945064544678,-0.07021025568246841,0.1474376916885376,0.49912312626838684,-0.8510045409202576,0.0,0.0,0.0,0.0,0.0,0.0
3240,1724817057069998907,-1.4628491401672363,-0.7094861268997192,0.15825727581977844,-0.07177773863077164,0.14792126417160034,0.49925875663757324,-0.8507102727890015,0.0,0.0,0.0,0.0,0.0,0.0
3242,1724817057074163313,-1.46137535572052,-0.7091701030731201,0.15869851410388947,-0.07360094040632248,0.14777955412864685,0.500056266784668,-0.8501105308532715,0.0,0.0,0.0,0.0,0.0,0.0
3244,1724817057084699821,-1.460007905960083,-0.7089430093765259,0.15900011360645294,-0.07510394603013992,0.14878389239311218,0.5001750588417053,-0.8497340083122253,0.0,0.0,0.0,0.0,0.0,0.0
3246,1724817057093810860,-1.45857572555542,-0.7086204290390015,0.15938246250152588,-0.0763930156826973,0.14999137818813324,0.5007568001747131,-0.8490638136863708,0.0,0.0,0.0,0.0,0.0,0.0
3248,1724817057104285196,-1.4571534395217896,-0.7082458138465881,0.159755140542984,-0.07761853188276291,0.15064671635627747,0.5011816620826721,-0.848585844039917,0.0,0.0,0.0,0.0,0.0,0.0
3250,1724817057113810413,-1.4557833671569824,-0.7079639434814453,0.15983887016773224,-0.07836782932281494,0.15189310908317566,0.5010210871696472,-0.8483895063400269,0.0,0.0,0.0,0.0,0.0,0.0
3252,1724817057125003950,-1.4543458223342896,-0.7075377702713013,0.16031114757061005,-0.0795460194349289,0.15168561041355133,0.501725971698761,-0.8479003310203552,0.0,0.0,0.0,0.0,0.0,0.0
3254,1724817057138595028,-1.4529436826705933,-0.7072633504867554,0.1604197472333908,-0.08120797574520111,0.15304185450077057,0.501285195350647,-0.8477597236633301,0.0,0.0,0.0,0.0,0.0,0.0
3256,1724817057143823503,-1.4514939785003662,-0.7068397402763367,0.16077950596809387,-0.08278605341911316,0.15425515174865723,0.5013765692710876,-0.8473330736160278,0.0,0.0,0.0,0.0,0.0,0.0
3258,1724817057181472452,-1.450087070465088,-0.7064933180809021,0.16100454330444336,-0.08434748649597168,0.15553876757621765,0.501044750213623,-0.8471407294273376,0.0,0.0,0.0,0.0,0.0,0.0
3260,1724817057181878496,-1.4486339092254639,-0.7059867978096008,0.1614423245191574,-0.08550448715686798,0.1558620035648346,0.5015988349914551,-0.8466372489929199,0.0,0.0,0.0,0.0,0.0,0.0
3262,1724817057182876407,-1.4471936225891113,-0.7053519487380981,0.16209858655929565,-0.08646747469902039,0.15517985820770264,0.5025572776794434,-0.8460962176322937,0.0,0.0,0.0,0.0,0.0,0.0
3264,1724817057187637881,-1.4457824230194092,-0.705041766166687,0.16187302768230438,-0.08645502477884293,0.1575007140636444,0.5015413761138916,-0.8462714552879333,0.0,0.0,0.0,0.0,0.0,0.0
3266,1724817057193634513,-1.4443005323410034,-0.7044307589530945,0.1622905284166336,-0.08727516233921051,0.15798251330852509,0.5021216869354248,-0.8457531929016113,0.0,0.0,0.0,0.0,0.0,0.0
3268,1724817057205919234,-1.442881464958191,-0.703999936580658,0.16239511966705322,-0.08816161751747131,0.1602807492017746,0.5017117261886597,-0.8454720377922058,0.0,0.0,0.0,0.0,0.0,0.0
3270,1724817057213784188,-1.4412753582000732,-0.7033827304840088,0.16294465959072113,-0.09015581756830215,0.15994949638843536,0.5025427341461182,-0.8448306918144226,0.0,0.0,0.0,0.0,0.0,0.0
3272,1724817057223990872,-1.4397472143173218,-0.7030363082885742,0.1628628373146057,-0.09076571464538574,0.16186212003231049,0.5014292001724243,-0.845062792301178,0.0,0.0,0.0,0.0,0.0,0.0
3274,1724817057235121356,-1.4381788969039917,-0.7024422287940979,0.16315287351608276,-0.09162119776010513,0.1634204387664795,0.5019097328186035,-0.8443849682807922,0.0,0.0,0.0,0.0,0.0,0.0
3276,1724817057244188301,-1.4367295503616333,-0.7019015550613403,0.16334599256515503,-0.09233752638101578,0.16432057321071625,0.5018885135650635,-0.8441448211669922,0.0,0.0,0.0,0.0,0.0,0.0
3278,1724817057253795039,-1.435165524482727,-0.701335608959198,0.1637849360704422,-0.0942283645272255,0.16343919932842255,0.5030032992362976,-0.8434432744979858,0.0,0.0,0.0,0.0,0.0,0.0
3280,1724817057264063162,-1.4337142705917358,-0.700904905796051,0.16383658349514008,-0.09368617087602615,0.16550280153751373,0.5023448467254639,-0.843493640422821,0.0,0.0,0.0,0.0,0.0,0.0
3282,1724817057274012787,-1.4322164058685303,-0.7003355026245117,0.16418009996414185,-0.09463176131248474,0.16570912301540375,0.502975583076477,-0.8429715633392334,0.0,0.0,0.0,0.0,0.0,0.0
3284,1724817057284939291,-1.4307341575622559,-0.6998176574707031,0.16443780064582825,-0.09570573270320892,0.1666444092988968,0.5033629536628723,-0.8424345254898071,0.0,0.0,0.0,0.0,0.0,0.0
3286,1724817057294574969,-1.4292908906936646,-0.6993467807769775,0.16461540758609772,-0.09650614112615585,0.1667012870311737,0.5039432644844055,-0.8419848084449768,0.0,0.0,0.0,0.0,0.0,0.0
3288,1724817057303800211,-1.4278477430343628,-0.6989639401435852,0.1647225171327591,-0.09716320037841797,0.1676219403743744,0.5035396218299866,-0.8419679403305054,0.0,0.0,0.0,0.0,0.0,0.0
3290,1724817057313898777,-1.4264941215515137,-0.6984658241271973,0.16489571332931519,-0.09737702459096909,0.16792713105678558,0.5037133097648621,-0.8417785167694092,0.0,0.0,0.0,0.0,0.0,0.0
3292,1724817057324180078,-1.4251972436904907,-0.6980466246604919,0.16493776440620422,-0.09709331393241882,0.16945210099220276,0.5036346912384033,-0.8415527939796448,0.0,0.0,0.0,0.0,0.0,0.0
3294,1724817057334448077,-1.423911690711975,-0.6976332664489746,0.16501519083976746,-0.09749596565961838,0.1702490895986557,0.5037689208984375,-0.8412649035453796,0.0,0.0,0.0,0.0,0.0,0.0
3296,1724817057344307857,-1.4226248264312744,-0.69718998670578,0.16533465683460236,-0.09857150912284851,0.1694471687078476,0.5040243268013,-0.8411484956741333,0.0,0.0,0.0,0.0,0.0,0.0
3298,1724817057353747010,-1.4213755130767822,-0.6969048380851746,0.16530485451221466,-0.09856442362070084,0.17094416916370392,0.5031332969665527,-0.8413800001144409,0.0,0.0,0.0,0.0,0.0,0.0
3300,1724817057363847889,-1.4201239347457886,-0.6964354515075684,0.16548337042331696,-0.09897324442863464,0.17145735025405884,0.5033950209617615,-0.8410707712173462,0.0,0.0,0.0,0.0,0.0,0.0
3302,1724817057374000396,-1.4189393520355225,-0.6960509419441223,0.16547203063964844,-0.09836719185113907,0.1729303002357483,0.5030879974365234,-0.8410241007804871,0.0,0.0,0.0,0.0,0.0,0.0
3304,1724817057384473728,-1.4176578521728516,-0.695546567440033,0.16586124897003174,-0.09903312474489212,0.1730567365884781,0.503786027431488,-0.8405019044876099,0.0,0.0,0.0,0.0,0.0,0.0
3306,1724817057394767222,-1.4164164066314697,-0.6951628923416138,0.16608577966690063,-0.10026121884584427,0.17295321822166443,0.504031240940094,-0.8402305245399475,0.0,0.0,0.0,0.0,0.0,0.0
3308,1724817057406885361,-1.4150843620300293,-0.6948738694190979,0.1661810427904129,-0.1006392166018486,0.17322753369808197,0.5034362077713013,-0.8404855132102966,0.0,0.0,0.0,0.0,0.0,0.0
3310,1724817057413669412,-1.4138641357421875,-0.6945608854293823,0.1660110205411911,-0.09990314394235611,0.17517565190792084,0.5030277967453003,-0.8404141664505005,0.0,0.0,0.0,0.0,0.0,0.0
3312,1724817057424068197,-1.4125008583068848,-0.6941908597946167,0.16604115068912506,-0.10041419416666031,0.17600266635417938,0.5025812387466431,-0.8404475450515747,0.0,0.0,0.0,0.0,0.0,0.0
3314,1724817057435412278,-1.4111697673797607,-0.6936970353126526,0.16640907526016235,-0.10085715353488922,0.1748937964439392,0.5034068822860718,-0.8401318788528442,0.0,0.0,0.0,0.0,0.0,0.0
3316,1724817057443892552,-1.4099185466766357,-0.6934077143669128,0.16651034355163574,-0.10201990604400635,0.17484501004219055,0.5030124187469482,-0.8402378559112549,0.0,0.0,0.0,0.0,0.0,0.0
3318,1724817057457606895,-1.408768653869629,-0.6932121515274048,0.16647516191005707,-0.10203148424625397,0.176146999001503,0.5024789571762085,-0.8402837514877319,0.0,0.0,0.0,0.0,0.0,0.0
3320,1724817057464588201,-1.4077177047729492,-0.692858099937439,0.16669483482837677,-0.10207249224185944,0.17684543132781982,0.5025647878646851,-0.8400806784629822,0.0,0.0,0.0,0.0,0.0,0.0
3322,1724817057474165697,-1.4066834449768066,-0.6926149129867554,0.16688188910484314,-0.10398392379283905,0.17746013402938843,0.5024887919425964,-0.8397620320320129,0.0,0.0,0.0,0.0,0.0,0.0
3324,1724817057537157328,-1.4057676792144775,-0.6923332214355469,0.16709719598293304,-0.1047888770699501,0.1769617646932602,0.5027105808258057,-0.839634358882904,0.0,0.0,0.0,0.0,0.0,0.0
3326,1724817057537500906,-1.4048856496810913,-0.692140519618988,0.16708685457706451,-0.10425194352865219,0.17783071100711823,0.5023342967033386,-0.8397428393363953,0.0,0.0,0.0,0.0,0.0,0.0
3328,1724817057537756658,-1.4040086269378662,-0.6919918060302734,0.16704437136650085,-0.10464860498905182,0.17822232842445374,0.5020063519477844,-0.8398066163063049,0.0,0.0,0.0,0.0,0.0,0.0
3330,1724817057538039504,-1.4032336473464966,-0.6918898224830627,0.16712690889835358,-0.10557731240987778,0.178325816988945,0.5019492506980896,-0.8397025465965271,0.0,0.0,0.0,0.0,0.0,0.0
3332,1724817057538311821,-1.4025721549987793,-0.6917552351951599,0.16725432872772217,-0.10598728805780411,0.17797860503196716,0.5018916726112366,-0.8397589325904846,0.0,0.0,0.0,0.0,0.0,0.0
3334,1724817057538551756,-1.4018580913543701,-0.6916030049324036,0.1675134003162384,-0.10635900497436523,0.17865459620952606,0.5022394061088562,-0.8393604159355164,0.0,0.0,0.0,0.0,0.0,0.0
3336,1724817057545568857,-1.4012917280197144,-0.6915790438652039,0.16746221482753754,-0.10542278736829758,0.17957960069179535,0.501903772354126,-0.8394818305969238,0.0,0.0,0.0,0.0,0.0,0.0
3338,1724817057553734402,-1.4007431268692017,-0.6915578246116638,0.16753610968589783,-0.10578903555870056,0.1798037737607956,0.5020079016685486,-0.8393255472183228,0.0,0.0,0.0,0.0,0.0,0.0
3340,1724817057564224340,-1.4002734422683716,-0.6915896534919739,0.167567640542984,-0.1063796728849411,0.1804560422897339,0.5016640424728394,-0.8393164873123169,0.0,0.0,0.0,0.0,0.0,0.0
3342,1724817057573962699,-1.3998489379882812,-0.6916631460189819,0.16760344803333282,-0.10671280324459076,0.18089474737644196,0.5014228820800781,-0.839323878288269,0.0,0.0,0.0,0.0,0.0,0.0
3344,1724817057602189660,-1.3994220495224,-0.6917278170585632,0.16772592067718506,-0.10720597952604294,0.18127481639385223,0.5015649199485779,-0.8390941619873047,0.0,0.0,0.0,0.0,0.0,0.0
